p_rdata,action_times,actions,beliefs,correct,delays,information_used_correctly,meta_actions,path,planned_too_little,planned_too_much,queries,questions,responses,rt,score,time_elapsed,trial_index,trial_id,trial_type,view_history,pid
,,,,,,,,,,,,,,47054,,47055,,,instructions,"[{""page_index"":0,""viewing_time"":19726},{""page_index"":1,""viewing_time"":20074},{""page_index"":2,""viewing_time"":7253}]",0
,,,,,,,,,,,,,,83683,,83684,,,instructions,"[{""page_index"":0,""viewing_time"":33003},{""page_index"":1,""viewing_time"":26119},{""page_index"":2,""viewing_time"":24560}]",1
,,,,,,,,,,,,,,172688,,172689,,,instructions,"[{""page_index"":0,""viewing_time"":59398},{""page_index"":1,""viewing_time"":66660},{""page_index"":2,""viewing_time"":46629}]",2
,,,,,,,,,,,,,,157732,,157734,,,instructions,"[{""page_index"":0,""viewing_time"":56027},{""page_index"":1,""viewing_time"":21927},{""page_index"":0,""viewing_time"":31241},{""page_index"":1,""viewing_time"":6064},{""page_index"":0,""viewing_time"":8200},{""page_index"":1,""viewing_time"":8182},{""page_index"":2,""viewing_time"":26089}]",3
,,,,,,,,,,,,,,31711,,235676,,,instructions,"[{""page_index"":0,""viewing_time"":22462},{""page_index"":1,""viewing_time"":8080},{""page_index"":2,""viewing_time"":1166}]",3
,,,,,,,,,,,,,,102348,,102349,,,instructions,"[{""page_index"":0,""viewing_time"":42738},{""page_index"":1,""viewing_time"":34169},{""page_index"":2,""viewing_time"":25440}]",4
,,,,,,,,,,,,,,186200,,186202,,,instructions,"[{""page_index"":0,""viewing_time"":122081},{""page_index"":1,""viewing_time"":43133},{""page_index"":2,""viewing_time"":20986}]",5
,,,,,,,,,,,,,,85434,,85435,,,instructions,"[{""page_index"":0,""viewing_time"":35872},{""page_index"":1,""viewing_time"":28607},{""page_index"":2,""viewing_time"":20954}]",6
,,,,,,,,,,,,,,215091,,215093,,,instructions,"[{""page_index"":0,""viewing_time"":74933},{""page_index"":1,""viewing_time"":116949},{""page_index"":2,""viewing_time"":23208}]",7
,,,,,,,,,,,,,,80979,,80980,,,instructions,"[{""page_index"":0,""viewing_time"":34610},{""page_index"":1,""viewing_time"":31616},{""page_index"":2,""viewing_time"":14752}]",8
,,,,,,,,,,,,,,38575,,38579,,,instructions,"[{""page_index"":0,""viewing_time"":24423},{""page_index"":1,""viewing_time"":8448},{""page_index"":2,""viewing_time"":5699}]",9
,,,,,,,,,,,,,,30098,,86651,,,instructions,"[{""page_index"":0,""viewing_time"":5008},{""page_index"":1,""viewing_time"":13168},{""page_index"":2,""viewing_time"":11915}]",9
,,,,,,,,,,,,,,96750,,96751,,,instructions,"[{""page_index"":0,""viewing_time"":30495},{""page_index"":1,""viewing_time"":33962},{""page_index"":2,""viewing_time"":32292}]",10
,,,,,,,,,,,,,,155910,,155911,,,instructions,"[{""page_index"":0,""viewing_time"":82831},{""page_index"":1,""viewing_time"":32441},{""page_index"":2,""viewing_time"":40637}]",11
,,,,,,,,,,,,,,85800,,85801,,,instructions,"[{""page_index"":0,""viewing_time"":37155},{""page_index"":1,""viewing_time"":31182},{""page_index"":2,""viewing_time"":17462}]",12
,,,,,,,,,,,,,,94768,,94768,,,instructions,"[{""page_index"":0,""viewing_time"":33477},{""page_index"":1,""viewing_time"":36090},{""page_index"":2,""viewing_time"":25200}]",13
,,,,,,,,,,,,,,146224,,146225,,,instructions,"[{""page_index"":0,""viewing_time"":25251},{""page_index"":1,""viewing_time"":108984},{""page_index"":2,""viewing_time"":11988}]",14
,,,,,,,,,,,,,,24278,,188352,,,instructions,"[{""page_index"":0,""viewing_time"":7065},{""page_index"":1,""viewing_time"":7556},{""page_index"":2,""viewing_time"":9656}]",14
,,,,,,,,,,,,,,149710,,149713,,,instructions,"[{""page_index"":0,""viewing_time"":45067},{""page_index"":1,""viewing_time"":37878},{""page_index"":2,""viewing_time"":24773},{""page_index"":1,""viewing_time"":40790},{""page_index"":2,""viewing_time"":1200}]",15
,,,,,,,,,,,,,,87678,,87679,,,instructions,"[{""page_index"":0,""viewing_time"":48905},{""page_index"":1,""viewing_time"":35454},{""page_index"":2,""viewing_time"":3318}]",16
,,,,,,,,,,,,,,101614,,228106,,,instructions,"[{""page_index"":0,""viewing_time"":10927},{""page_index"":1,""viewing_time"":60616},{""page_index"":2,""viewing_time"":30070}]",16
,,,,,,,,,,,,,,62036,,62041,,,instructions,"[{""page_index"":0,""viewing_time"":25915},{""page_index"":1,""viewing_time"":11911},{""page_index"":2,""viewing_time"":24208}]",17
,,,,,,,,,,,,,,182480,,182482,,,instructions,"[{""page_index"":0,""viewing_time"":127715},{""page_index"":1,""viewing_time"":34601},{""page_index"":2,""viewing_time"":20163}]",18
,,,,,,,,,,,,,,234603,,234606,,,instructions,"[{""page_index"":0,""viewing_time"":138919},{""page_index"":1,""viewing_time"":56990},{""page_index"":2,""viewing_time"":38672}]",19
,,,,,,,,,,,,,,77012,,364247,,,instructions,"[{""page_index"":0,""viewing_time"":5268},{""page_index"":1,""viewing_time"":12959},{""page_index"":2,""viewing_time"":25089},{""page_index"":1,""viewing_time"":32704},{""page_index"":2,""viewing_time"":991}]",19
,,,,,,,,,,,,,,44889,,44890,,,instructions,"[{""page_index"":0,""viewing_time"":4526},{""page_index"":1,""viewing_time"":28148},{""page_index"":2,""viewing_time"":12215}]",20
,,,,,,,,,,,,,,25643,,25646,,,instructions,"[{""page_index"":0,""viewing_time"":10208},{""page_index"":1,""viewing_time"":7935},{""page_index"":2,""viewing_time"":7498}]",21
,,,,,,,,,,,,,,156525,,156526,,,instructions,"[{""page_index"":0,""viewing_time"":71405},{""page_index"":1,""viewing_time"":61551},{""page_index"":2,""viewing_time"":23568}]",22
,,,,,,,,,,,,,,166158,,166159,,,instructions,"[{""page_index"":0,""viewing_time"":74732},{""page_index"":1,""viewing_time"":55415},{""page_index"":2,""viewing_time"":36009}]",23
,,,,,,,,,,,,,,145074,,145075,,,instructions,"[{""page_index"":0,""viewing_time"":63106},{""page_index"":1,""viewing_time"":53824},{""page_index"":2,""viewing_time"":28143}]",24
,,,,,,,,,,,,,,146062,,146064,,,instructions,"[{""page_index"":0,""viewing_time"":63104},{""page_index"":1,""viewing_time"":43461},{""page_index"":2,""viewing_time"":39495}]",25
,,,,,,,,,,,,,,147882,,147883,,,instructions,"[{""page_index"":0,""viewing_time"":59761},{""page_index"":1,""viewing_time"":57599},{""page_index"":2,""viewing_time"":30521}]",26
,,,,,,,,,,,,,,194151,,194153,,,instructions,"[{""page_index"":0,""viewing_time"":110118},{""page_index"":1,""viewing_time"":54776},{""page_index"":2,""viewing_time"":29255}]",27
,,,,,,,,,,,,,,87726,,87729,,,instructions,"[{""page_index"":0,""viewing_time"":36570},{""page_index"":1,""viewing_time"":4141},{""page_index"":0,""viewing_time"":6153},{""page_index"":1,""viewing_time"":21902},{""page_index"":2,""viewing_time"":18959}]",28
,,,,,,,,,,,,,,40466,,157329,,,instructions,"[{""page_index"":0,""viewing_time"":3655},{""page_index"":1,""viewing_time"":3825},{""page_index"":2,""viewing_time"":5658},{""page_index"":1,""viewing_time"":1584},{""page_index"":0,""viewing_time"":23583},{""page_index"":1,""viewing_time"":1624},{""page_index"":2,""viewing_time"":536}]",28
,,,,,,,,,,,,,,3778,,175810,,,instructions,"[{""page_index"":0,""viewing_time"":1929},{""page_index"":1,""viewing_time"":167},{""page_index"":0,""viewing_time"":744},{""page_index"":1,""viewing_time"":481},{""page_index"":2,""viewing_time"":456}]",28
,,,,,,,,,,,,,,57656,,57657,,,instructions,"[{""page_index"":0,""viewing_time"":23228},{""page_index"":1,""viewing_time"":17404},{""page_index"":2,""viewing_time"":17024}]",29
,,,,,,,,,,,,,,38668,,117285,,,instructions,"[{""page_index"":0,""viewing_time"":19679},{""page_index"":1,""viewing_time"":14581},{""page_index"":2,""viewing_time"":4407}]",29
,,,,,,,,,,,,,,187929,,187931,,,instructions,"[{""page_index"":0,""viewing_time"":82508},{""page_index"":1,""viewing_time"":59845},{""page_index"":2,""viewing_time"":45573}]",30
,,,,,,,,,,,,,,157452,,157452,,,instructions,"[{""page_index"":0,""viewing_time"":79775},{""page_index"":1,""viewing_time"":31901},{""page_index"":2,""viewing_time"":21717},{""page_index"":1,""viewing_time"":1624},{""page_index"":0,""viewing_time"":12746},{""page_index"":1,""viewing_time"":4494},{""page_index"":2,""viewing_time"":5194}]",31
,,,,,,,,,,,,,,89657,,89659,,,instructions,"[{""page_index"":0,""viewing_time"":31641},{""page_index"":1,""viewing_time"":25513},{""page_index"":2,""viewing_time"":32502}]",32
,,,,,,,,,,,,,,175965,,175967,,,instructions,"[{""page_index"":0,""viewing_time"":154251},{""page_index"":1,""viewing_time"":13615},{""page_index"":2,""viewing_time"":8098}]",33
,,,,,,,,,,,,,,80797,,80799,,,instructions,"[{""page_index"":0,""viewing_time"":38788},{""page_index"":1,""viewing_time"":23511},{""page_index"":2,""viewing_time"":18498}]",34
,,,,,,,,,,,,,,96997,,96998,,,instructions,"[{""page_index"":0,""viewing_time"":43723},{""page_index"":1,""viewing_time"":33361},{""page_index"":2,""viewing_time"":19912}]",35
,,,,,,,,,,,,,,51748,,51748,,,instructions,"[{""page_index"":0,""viewing_time"":18577},{""page_index"":1,""viewing_time"":20930},{""page_index"":2,""viewing_time"":12240}]",36
,,,,,,,,,,,,,,26998,,27000,,,instructions,"[{""page_index"":0,""viewing_time"":14863},{""page_index"":1,""viewing_time"":9341},{""page_index"":2,""viewing_time"":2793}]",37
,,,,,,,,,,,,,,33034,,81379,,,instructions,"[{""page_index"":0,""viewing_time"":26093},{""page_index"":1,""viewing_time"":5452},{""page_index"":2,""viewing_time"":1489}]",37
,,,,,,,,,,,,,,33458,,131917,,,instructions,"[{""page_index"":0,""viewing_time"":11433},{""page_index"":1,""viewing_time"":15316},{""page_index"":2,""viewing_time"":6708}]",37
,,,,,,,,,,,,,,233790,,233794,,,instructions,"[{""page_index"":0,""viewing_time"":102801},{""page_index"":1,""viewing_time"":79231},{""page_index"":2,""viewing_time"":51755}]",38
,,,,,,,,,,,,,,101608,,397113,,,instructions,"[{""page_index"":0,""viewing_time"":86024},{""page_index"":1,""viewing_time"":9655},{""page_index"":2,""viewing_time"":5928}]",38
,,,,,,,,,,,,,,286348,,286349,,,instructions,"[{""page_index"":0,""viewing_time"":194322},{""page_index"":1,""viewing_time"":60881},{""page_index"":2,""viewing_time"":31143}]",39
,,,,,,,,,,,,,,79189,,79189,,,instructions,"[{""page_index"":0,""viewing_time"":26511},{""page_index"":1,""viewing_time"":35949},{""page_index"":2,""viewing_time"":16728}]",40
,,,,,,,,,,,,,,41639,,154902,,,instructions,"[{""page_index"":0,""viewing_time"":21256},{""page_index"":1,""viewing_time"":16114},{""page_index"":2,""viewing_time"":4269}]",40
,,,,,,,,,,,,,,78561,,78563,,,instructions,"[{""page_index"":0,""viewing_time"":22507},{""page_index"":1,""viewing_time"":31254},{""page_index"":2,""viewing_time"":24797}]",41
,,,,,,,,,,,,,,128167,,128167,,,instructions,"[{""page_index"":0,""viewing_time"":36479},{""page_index"":1,""viewing_time"":44799},{""page_index"":2,""viewing_time"":37776},{""page_index"":1,""viewing_time"":3496},{""page_index"":0,""viewing_time"":3817},{""page_index"":1,""viewing_time"":1031},{""page_index"":2,""viewing_time"":768}]",42
,,,,,,,,,,,,,,81465,,81467,,,instructions,"[{""page_index"":0,""viewing_time"":37453},{""page_index"":1,""viewing_time"":29600},{""page_index"":2,""viewing_time"":14409}]",43
,,,,,,,,,,,,,,36329,,137536,,,instructions,"[{""page_index"":0,""viewing_time"":21896},{""page_index"":1,""viewing_time"":10329},{""page_index"":2,""viewing_time"":4103}]",43
,,,,,,,,,,,,,,188289,,188293,,,instructions,"[{""page_index"":0,""viewing_time"":51423},{""page_index"":1,""viewing_time"":34004},{""page_index"":2,""viewing_time"":18414},{""page_index"":1,""viewing_time"":7082},{""page_index"":0,""viewing_time"":27564},{""page_index"":1,""viewing_time"":24639},{""page_index"":2,""viewing_time"":25161}]",44
,,,,,,,,,,,,,,112994,,112996,,,instructions,"[{""page_index"":0,""viewing_time"":42469},{""page_index"":1,""viewing_time"":35927},{""page_index"":2,""viewing_time"":34597}]",45
,,,,,,,,,,,,,,190924,,190927,,,instructions,"[{""page_index"":0,""viewing_time"":78451},{""page_index"":1,""viewing_time"":19132},{""page_index"":2,""viewing_time"":4456},{""page_index"":1,""viewing_time"":400},{""page_index"":0,""viewing_time"":42580},{""page_index"":1,""viewing_time"":11499},{""page_index"":2,""viewing_time"":34404}]",46
,,,,,,,,,,,,,,260276,,260277,,,instructions,"[{""page_index"":0,""viewing_time"":57501},{""page_index"":1,""viewing_time"":5680},{""page_index"":0,""viewing_time"":964},{""page_index"":1,""viewing_time"":73976},{""page_index"":2,""viewing_time"":32903},{""page_index"":1,""viewing_time"":636},{""page_index"":0,""viewing_time"":83884},{""page_index"":1,""viewing_time"":1637},{""page_index"":2,""viewing_time"":3095}]",47
,,,,,,,,,,,,,,57947,,57949,,,instructions,"[{""page_index"":0,""viewing_time"":20036},{""page_index"":1,""viewing_time"":16402},{""page_index"":2,""viewing_time"":21508}]",48
,,,,,,,,,,,,,,150835,,150837,,,instructions,"[{""page_index"":0,""viewing_time"":85120},{""page_index"":1,""viewing_time"":41878},{""page_index"":2,""viewing_time"":23835}]",49
,,,,,,,,,,,,,,112143,,112146,,,instructions,"[{""page_index"":0,""viewing_time"":38247},{""page_index"":1,""viewing_time"":47845},{""page_index"":2,""viewing_time"":26048}]",50
,,,,,,,,,,,,,,161370,,161373,,,instructions,"[{""page_index"":0,""viewing_time"":66225},{""page_index"":1,""viewing_time"":54619},{""page_index"":2,""viewing_time"":40523}]",51
,,,,,,,,,,,,,,221624,,221626,,,instructions,"[{""page_index"":0,""viewing_time"":68584},{""page_index"":1,""viewing_time"":112111},{""page_index"":2,""viewing_time"":40928}]",52
,,,,,,,,,,,,,,110796,,110798,,,instructions,"[{""page_index"":0,""viewing_time"":44102},{""page_index"":1,""viewing_time"":15647},{""page_index"":2,""viewing_time"":51045}]",53
,,,,,,,,,,,,,,20293,,155052,,,instructions,"[{""page_index"":0,""viewing_time"":12564},{""page_index"":1,""viewing_time"":3512},{""page_index"":2,""viewing_time"":4216}]",53
,,,,,,,,,,,,,,137971,,137974,,,instructions,"[{""page_index"":0,""viewing_time"":60890},{""page_index"":1,""viewing_time"":48432},{""page_index"":2,""viewing_time"":28646}]",54
,,,,,,,,,,,,,,194778,,194780,,,instructions,"[{""page_index"":0,""viewing_time"":81923},{""page_index"":1,""viewing_time"":77031},{""page_index"":2,""viewing_time"":35824}]",55
,,,,,,,,,,,,,,83568,,83569,,,instructions,"[{""page_index"":0,""viewing_time"":50392},{""page_index"":1,""viewing_time"":26719},{""page_index"":2,""viewing_time"":6457}]",56
,,,,,,,,,,,,,,61477,,179781,,,instructions,"[{""page_index"":0,""viewing_time"":25861},{""page_index"":1,""viewing_time"":21600},{""page_index"":2,""viewing_time"":14016}]",56
,,,,,,,,,,,,,,24686,,227676,,,instructions,"[{""page_index"":0,""viewing_time"":4518},{""page_index"":1,""viewing_time"":15064},{""page_index"":2,""viewing_time"":5104}]",56
,,,,,,,,,,,,,,126018,,126019,,,instructions,"[{""page_index"":0,""viewing_time"":39636},{""page_index"":1,""viewing_time"":48512},{""page_index"":2,""viewing_time"":37869}]",57
,,,,,,,,,,,,,,13776,,13777,,,instructions,"[{""page_index"":0,""viewing_time"":8646},{""page_index"":1,""viewing_time"":4133},{""page_index"":2,""viewing_time"":997}]",58
,,,,,,,,,,,,,,218256,,218258,,,instructions,"[{""page_index"":0,""viewing_time"":108159},{""page_index"":1,""viewing_time"":90294},{""page_index"":2,""viewing_time"":19800}]",59
,,,,,,,,,,,,,,82583,,82584,,,instructions,"[{""page_index"":0,""viewing_time"":38297},{""page_index"":1,""viewing_time"":27522},{""page_index"":2,""viewing_time"":16764}]",60
,,,,,,,,,,,,,,205072,,205074,,,instructions,"[{""page_index"":0,""viewing_time"":108738},{""page_index"":1,""viewing_time"":68303},{""page_index"":2,""viewing_time"":28030}]",61
,,,,,,,,,,,,,,98135,,375465,,,instructions,"[{""page_index"":0,""viewing_time"":23947},{""page_index"":1,""viewing_time"":44867},{""page_index"":2,""viewing_time"":14787},{""page_index"":1,""viewing_time"":5802},{""page_index"":2,""viewing_time"":8732}]",61
,,,,,,,,,,,,,,136731,,136732,,,instructions,"[{""page_index"":0,""viewing_time"":60418},{""page_index"":1,""viewing_time"":44961},{""page_index"":2,""viewing_time"":31352}]",62
,,,,,,,,,,,,,,151116,,151119,,,instructions,"[{""page_index"":0,""viewing_time"":63039},{""page_index"":1,""viewing_time"":59604},{""page_index"":2,""viewing_time"":28471}]",63
,,,,,,,,,,,,,,205377,,205378,,,instructions,"[{""page_index"":0,""viewing_time"":129857},{""page_index"":1,""viewing_time"":25784},{""page_index"":2,""viewing_time"":49734}]",64
,,,,,,,,,,,,,,82567,,324816,,,instructions,"[{""page_index"":0,""viewing_time"":20341},{""page_index"":1,""viewing_time"":17112},{""page_index"":2,""viewing_time"":45113}]",64
,,,,,,,,,,,,,,93759,,468742,,,instructions,"[{""page_index"":0,""viewing_time"":36928},{""page_index"":1,""viewing_time"":38713},{""page_index"":2,""viewing_time"":18117}]",64
,,,,,,,,,,,,,,226200,,226204,,,instructions,"[{""page_index"":0,""viewing_time"":140523},{""page_index"":1,""viewing_time"":46571},{""page_index"":2,""viewing_time"":39104}]",65
,,,,,,,,,,,,,,138666,,138666,,,instructions,"[{""page_index"":0,""viewing_time"":61434},{""page_index"":1,""viewing_time"":57488},{""page_index"":2,""viewing_time"":19743}]",66
,,,,,,,,,,,,,,68441,,68441,,,instructions,"[{""page_index"":0,""viewing_time"":27886},{""page_index"":1,""viewing_time"":25286},{""page_index"":2,""viewing_time"":15268}]",67
,,,,,,,,,,,,,,143813,,143814,,,instructions,"[{""page_index"":0,""viewing_time"":56696},{""page_index"":1,""viewing_time"":62714},{""page_index"":2,""viewing_time"":24402}]",68
,,,,,,,,,,,,,,54235,,229956,,,instructions,"[{""page_index"":0,""viewing_time"":18460},{""page_index"":1,""viewing_time"":17783},{""page_index"":2,""viewing_time"":17992}]",68
,,,,,,,,,,,,,,44013,,44016,,,instructions,"[{""page_index"":0,""viewing_time"":5177},{""page_index"":1,""viewing_time"":26718},{""page_index"":2,""viewing_time"":12116}]",69
,,,,,,,,,,,,,,131721,,220256,,,instructions,"[{""page_index"":0,""viewing_time"":43723},{""page_index"":1,""viewing_time"":38143},{""page_index"":0,""viewing_time"":7239},{""page_index"":1,""viewing_time"":8576},{""page_index"":2,""viewing_time"":34038}]",69
,,,,,,,,,,,,,,62262,,62263,,,instructions,"[{""page_index"":0,""viewing_time"":27141},{""page_index"":1,""viewing_time"":21143},{""page_index"":2,""viewing_time"":13977}]",70
,,,,,,,,,,,,,,21588,,114881,,,instructions,"[{""page_index"":0,""viewing_time"":14240},{""page_index"":1,""viewing_time"":5321},{""page_index"":2,""viewing_time"":2027}]",70
,,,,,,,,,,,,,,141861,,141863,,,instructions,"[{""page_index"":0,""viewing_time"":51835},{""page_index"":1,""viewing_time"":60130},{""page_index"":2,""viewing_time"":29896}]",71
,,,,,,,,,,,,,,90772,,90773,,,instructions,"[{""page_index"":0,""viewing_time"":45976},{""page_index"":1,""viewing_time"":25111},{""page_index"":2,""viewing_time"":19684}]",72
,,,,,,,,,,,,,,33180,,33181,,,instructions,"[{""page_index"":0,""viewing_time"":22050},{""page_index"":1,""viewing_time"":6407},{""page_index"":2,""viewing_time"":4722}]",73
,,,,,,,,,,,,,,8287,,8287,,,instructions,"[{""page_index"":0,""viewing_time"":3111},{""page_index"":1,""viewing_time"":3775},{""page_index"":2,""viewing_time"":1400}]",74
,,,,,,,,,,,,,,9550,,36766,,,instructions,"[{""page_index"":0,""viewing_time"":1726},{""page_index"":1,""viewing_time"":1104},{""page_index"":2,""viewing_time"":6720}]",74
,,,,,,,,,,,,,,84159,,139062,,,instructions,"[{""page_index"":0,""viewing_time"":61127},{""page_index"":1,""viewing_time"":20983},{""page_index"":2,""viewing_time"":2049}]",74
,,,,,,,,,,,,,,92483,,92483,,,instructions,"[{""page_index"":0,""viewing_time"":52137},{""page_index"":1,""viewing_time"":25968},{""page_index"":2,""viewing_time"":14376}]",75
,,,,,,,,,,,,,,53722,,53724,,,instructions,"[{""page_index"":0,""viewing_time"":33291},{""page_index"":1,""viewing_time"":13828},{""page_index"":2,""viewing_time"":6602}]",76
,,,,,,,,,,,,,,214388,,303702,,,instructions,"[{""page_index"":0,""viewing_time"":56138},{""page_index"":1,""viewing_time"":124271},{""page_index"":2,""viewing_time"":33979}]",76
,,,,,,,,,,,,,,92391,,92392,,,instructions,"[{""page_index"":0,""viewing_time"":36288},{""page_index"":1,""viewing_time"":32039},{""page_index"":2,""viewing_time"":24063}]",77
,,,,,,,,,,,,,,27673,,153265,,,instructions,"[{""page_index"":0,""viewing_time"":13744},{""page_index"":1,""viewing_time"":8372},{""page_index"":2,""viewing_time"":5556}]",77
,,,,,,,,,,,,,,232131,,232132,,,instructions,"[{""page_index"":0,""viewing_time"":114011},{""page_index"":1,""viewing_time"":69143},{""page_index"":2,""viewing_time"":48975}]",78
,,,,,,,,,,,,,,106830,,106833,,,instructions,"[{""page_index"":0,""viewing_time"":55944},{""page_index"":1,""viewing_time"":27094},{""page_index"":2,""viewing_time"":23790}]",79
,,,,,,,,,,,,,,86064,,86068,,,instructions,"[{""page_index"":0,""viewing_time"":5025},{""page_index"":1,""viewing_time"":44890},{""page_index"":2,""viewing_time"":36147}]",80
,,,,,,,,,,,,,,38586,,165568,,,instructions,"[{""page_index"":0,""viewing_time"":16130},{""page_index"":1,""viewing_time"":14174},{""page_index"":2,""viewing_time"":8280}]",80
,,,,,,,,,,,,,,132220,,132222,,,instructions,"[{""page_index"":0,""viewing_time"":32664},{""page_index"":1,""viewing_time"":59216},{""page_index"":2,""viewing_time"":40340}]",81
,,,,,,,,,,,,,,128138,,128139,,,instructions,"[{""page_index"":0,""viewing_time"":47361},{""page_index"":1,""viewing_time"":48233},{""page_index"":2,""viewing_time"":32544}]",82
,,,,,,,,,,,,,,146186,,146186,,,instructions,"[{""page_index"":0,""viewing_time"":58099},{""page_index"":1,""viewing_time"":49922},{""page_index"":2,""viewing_time"":38163}]",83
,,,,,,,,,,,,,,97159,,97159,,,instructions,"[{""page_index"":0,""viewing_time"":35015},{""page_index"":1,""viewing_time"":34014},{""page_index"":2,""viewing_time"":28129}]",84
,,,,,,,,,,,,,,28917,,161718,,,instructions,"[{""page_index"":0,""viewing_time"":10368},{""page_index"":1,""viewing_time"":12698},{""page_index"":2,""viewing_time"":5851}]",84
,,,,,,,,,,,,,,285224,,285226,,,instructions,"[{""page_index"":0,""viewing_time"":78986},{""page_index"":1,""viewing_time"":169025},{""page_index"":2,""viewing_time"":37212}]",85
,,,,,,,,,,,,,,23744,,23746,,,instructions,"[{""page_index"":0,""viewing_time"":16217},{""page_index"":1,""viewing_time"":5439},{""page_index"":2,""viewing_time"":2087}]",86
,,,,,,,,,,,,,,42467,,91810,,,instructions,"[{""page_index"":0,""viewing_time"":8237},{""page_index"":1,""viewing_time"":10218},{""page_index"":2,""viewing_time"":24012}]",86
,,,,,,,,,,,,,,21546,,141815,,,instructions,"[{""page_index"":0,""viewing_time"":11085},{""page_index"":1,""viewing_time"":8548},{""page_index"":2,""viewing_time"":1913}]",86
,,,,,,,,,,,,,,77501,,77503,,,instructions,"[{""page_index"":0,""viewing_time"":30427},{""page_index"":1,""viewing_time"":31255},{""page_index"":2,""viewing_time"":15818}]",87
,,,,,,,,,,,,,,162398,,162402,,,instructions,"[{""page_index"":0,""viewing_time"":58661},{""page_index"":1,""viewing_time"":42629},{""page_index"":2,""viewing_time"":61105}]",88
,,,,,,,,,,,,,,79906,,79907,,,instructions,"[{""page_index"":0,""viewing_time"":22522},{""page_index"":1,""viewing_time"":43182},{""page_index"":2,""viewing_time"":14200}]",89
,,,,,,,,,,,,,,28395,,28396,,,instructions,"[{""page_index"":0,""viewing_time"":5891},{""page_index"":1,""viewing_time"":13347},{""page_index"":2,""viewing_time"":9155}]",90
,,,,,,,,,,,,,,88486,,131444,,,instructions,"[{""page_index"":0,""viewing_time"":32918},{""page_index"":1,""viewing_time"":30279},{""page_index"":2,""viewing_time"":25288}]",90
,,,,,,,,,,,,,,131870,,131873,,,instructions,"[{""page_index"":0,""viewing_time"":45680},{""page_index"":1,""viewing_time"":61633},{""page_index"":2,""viewing_time"":24555}]",91
,,,,,,,,,,,,,,95145,,95147,,,instructions,"[{""page_index"":0,""viewing_time"":31668},{""page_index"":1,""viewing_time"":39221},{""page_index"":2,""viewing_time"":24254}]",92
,,,,,,,,,,,,,,78730,,78731,,,instructions,"[{""page_index"":0,""viewing_time"":32769},{""page_index"":1,""viewing_time"":25072},{""page_index"":2,""viewing_time"":20887}]",93
,,,,,,,,,,,,,,247603,,247604,,,instructions,"[{""page_index"":0,""viewing_time"":69518},{""page_index"":1,""viewing_time"":130553},{""page_index"":2,""viewing_time"":22134},{""page_index"":1,""viewing_time"":3268},{""page_index"":2,""viewing_time"":22129}]",94
,,,,,,,,,,,,,,52231,,335024,,,instructions,"[{""page_index"":0,""viewing_time"":46365},{""page_index"":1,""viewing_time"":1858},{""page_index"":2,""viewing_time"":4008}]",94
,,,,,,,,,,,,,,124484,,124486,,,instructions,"[{""page_index"":0,""viewing_time"":52987},{""page_index"":1,""viewing_time"":45616},{""page_index"":2,""viewing_time"":25880}]",95
,,,,,,,,,,,,,,8119,,202452,,,instructions,"[{""page_index"":0,""viewing_time"":3798},{""page_index"":1,""viewing_time"":2800},{""page_index"":2,""viewing_time"":1520}]",95
,,,,,,,,,,,,,,176955,,176958,,,instructions,"[{""page_index"":0,""viewing_time"":30217},{""page_index"":1,""viewing_time"":27535},{""page_index"":2,""viewing_time"":23800},{""page_index"":1,""viewing_time"":1024},{""page_index"":0,""viewing_time"":56041},{""page_index"":1,""viewing_time"":28248},{""page_index"":2,""viewing_time"":10088}]",96
,,,,,,,,,,,,,,99617,,99619,,,instructions,"[{""page_index"":0,""viewing_time"":38073},{""page_index"":1,""viewing_time"":39015},{""page_index"":2,""viewing_time"":22527}]",97
,,,,,,,,,,,,,,42331,,184560,,,instructions,"[{""page_index"":0,""viewing_time"":22354},{""page_index"":1,""viewing_time"":14321},{""page_index"":2,""viewing_time"":5655}]",97
,,,,,,,,,,,,,,20799,,230051,,,instructions,"[{""page_index"":0,""viewing_time"":4534},{""page_index"":1,""viewing_time"":13695},{""page_index"":2,""viewing_time"":2568}]",97
,,,,,,,,,,,,,,284122,,284124,,,instructions,"[{""page_index"":0,""viewing_time"":77441},{""page_index"":1,""viewing_time"":169592},{""page_index"":2,""viewing_time"":37088}]",98
,,,,,,,,,,,,,,20639,,351562,,,instructions,"[{""page_index"":0,""viewing_time"":14880},{""page_index"":1,""viewing_time"":1463},{""page_index"":2,""viewing_time"":4296}]",98
,,,,,,,,,,,,,,179016,,179020,,,instructions,"[{""page_index"":0,""viewing_time"":72276},{""page_index"":1,""viewing_time"":56508},{""page_index"":2,""viewing_time"":50229}]",99
,,,,,,,,,,,,,,193539,,193540,,,instructions,"[{""page_index"":0,""viewing_time"":112163},{""page_index"":1,""viewing_time"":43291},{""page_index"":2,""viewing_time"":38082}]",100
,,,,,,,,,,,,,,244678,,244678,,,instructions,"[{""page_index"":0,""viewing_time"":81027},{""page_index"":1,""viewing_time"":127854},{""page_index"":2,""viewing_time"":35796}]",101
,,,,,,,,,,,,,,103363,,103364,,,instructions,"[{""page_index"":0,""viewing_time"":43554},{""page_index"":1,""viewing_time"":23050},{""page_index"":2,""viewing_time"":36758}]",102
,,,,,,,,,,,,,,83419,,222459,,,instructions,"[{""page_index"":0,""viewing_time"":23733},{""page_index"":1,""viewing_time"":56123},{""page_index"":2,""viewing_time"":3563}]",102
,,,,,,,,,,,,,,28579,,277425,,,instructions,"[{""page_index"":0,""viewing_time"":4573},{""page_index"":1,""viewing_time"":8773},{""page_index"":2,""viewing_time"":15233}]",102
,,,,,,,,,,,,,,110527,,110530,,,instructions,"[{""page_index"":0,""viewing_time"":45151},{""page_index"":1,""viewing_time"":37510},{""page_index"":2,""viewing_time"":27864}]",103
,,,,,,,,,,,,,,268264,,268265,,,instructions,"[{""page_index"":0,""viewing_time"":197696},{""page_index"":1,""viewing_time"":42383},{""page_index"":2,""viewing_time"":28184}]",104
,,,,,,,,,,,,,,65142,,352808,,,instructions,"[{""page_index"":0,""viewing_time"":30493},{""page_index"":1,""viewing_time"":24216},{""page_index"":2,""viewing_time"":10432}]",104
,,,,,,,,,,,,,,86815,,458680,,,instructions,"[{""page_index"":0,""viewing_time"":79958},{""page_index"":1,""viewing_time"":5680},{""page_index"":2,""viewing_time"":1176}]",104
,,,,,,,,,,,,,,111586,,111587,,,instructions,"[{""page_index"":0,""viewing_time"":50249},{""page_index"":1,""viewing_time"":47416},{""page_index"":2,""viewing_time"":13920}]",105
,,,,,,,,,,,,,,124595,,124598,,,instructions,"[{""page_index"":0,""viewing_time"":46769},{""page_index"":1,""viewing_time"":51059},{""page_index"":2,""viewing_time"":26765}]",106
,,,,,,,,,,,,,,171442,,171444,,,instructions,"[{""page_index"":0,""viewing_time"":87935},{""page_index"":1,""viewing_time"":46942},{""page_index"":2,""viewing_time"":36564}]",107
,,,,,,,,,,,,,,127268,,387858,,,instructions,"[{""page_index"":0,""viewing_time"":56184},{""page_index"":1,""viewing_time"":55897},{""page_index"":2,""viewing_time"":15186}]",107
,,,,,,,,,,,,,,18382,,447158,,,instructions,"[{""page_index"":0,""viewing_time"":12337},{""page_index"":1,""viewing_time"":5387},{""page_index"":2,""viewing_time"":657}]",107
,,,,,,,,,,,,,,105732,,105732,,,instructions,"[{""page_index"":0,""viewing_time"":34664},{""page_index"":1,""viewing_time"":46733},{""page_index"":2,""viewing_time"":24334}]",108
,,,,,,,,,,,,,,175260,,175261,,,instructions,"[{""page_index"":0,""viewing_time"":71618},{""page_index"":1,""viewing_time"":53788},{""page_index"":2,""viewing_time"":49853}]",109
,,,,,,,,,,,,,,142196,,142196,,,instructions,"[{""page_index"":0,""viewing_time"":89971},{""page_index"":1,""viewing_time"":28976},{""page_index"":2,""viewing_time"":23248}]",110
,,,,,,,,,,,,,,172629,,172631,,,instructions,"[{""page_index"":0,""viewing_time"":86618},{""page_index"":1,""viewing_time"":51033},{""page_index"":2,""viewing_time"":34976}]",111
,,,,,,,,,,,,,,131214,,131219,,,instructions,"[{""page_index"":0,""viewing_time"":61549},{""page_index"":1,""viewing_time"":45475},{""page_index"":2,""viewing_time"":24185}]",112
,,,,,,,,,,,,,,209618,,209619,,,instructions,"[{""page_index"":0,""viewing_time"":85094},{""page_index"":1,""viewing_time"":2303},{""page_index"":0,""viewing_time"":2320},{""page_index"":1,""viewing_time"":10084},{""page_index"":0,""viewing_time"":5774},{""page_index"":1,""viewing_time"":70379},{""page_index"":2,""viewing_time"":33663}]",113
,,,,,,,,,,,,,,104330,,104334,,,instructions,"[{""page_index"":0,""viewing_time"":44530},{""page_index"":1,""viewing_time"":7076},{""page_index"":0,""viewing_time"":38317},{""page_index"":1,""viewing_time"":9075},{""page_index"":2,""viewing_time"":5332}]",114
,,,,,,,,,,,,,,75315,,204158,,,instructions,"[{""page_index"":0,""viewing_time"":30885},{""page_index"":1,""viewing_time"":24757},{""page_index"":2,""viewing_time"":19673}]",114
,,,,,,,,,,,,,,124062,,124064,,,instructions,"[{""page_index"":0,""viewing_time"":59710},{""page_index"":1,""viewing_time"":40277},{""page_index"":2,""viewing_time"":24073}]",115
,,,,,,,,,,,,,,135537,,135538,,,instructions,"[{""page_index"":0,""viewing_time"":67145},{""page_index"":1,""viewing_time"":51288},{""page_index"":2,""viewing_time"":17104}]",116
,,,,,,,,,,,,,,33550,,200745,,,instructions,"[{""page_index"":0,""viewing_time"":9054},{""page_index"":1,""viewing_time"":14775},{""page_index"":2,""viewing_time"":9720}]",116
,,,,,,,,,,,,,,113411,,113412,,,instructions,"[{""page_index"":0,""viewing_time"":40287},{""page_index"":1,""viewing_time"":37178},{""page_index"":2,""viewing_time"":35945}]",117
,,,,,,,,,,,,,,111475,,111476,,,instructions,"[{""page_index"":0,""viewing_time"":52630},{""page_index"":1,""viewing_time"":35343},{""page_index"":2,""viewing_time"":23501}]",118
,,,,,,,,,,,,,,139231,,139232,,,instructions,"[{""page_index"":0,""viewing_time"":61639},{""page_index"":1,""viewing_time"":40559},{""page_index"":2,""viewing_time"":37032}]",119
,,,,,,,,,,,,,,85680,,85682,,,instructions,"[{""page_index"":0,""viewing_time"":37205},{""page_index"":1,""viewing_time"":24188},{""page_index"":2,""viewing_time"":24284}]",120
,,,,,,,,,,,,,,73941,,185658,,,instructions,"[{""page_index"":0,""viewing_time"":34797},{""page_index"":1,""viewing_time"":23195},{""page_index"":2,""viewing_time"":15947}]",120
,,,,,,,,,,,,,,96393,,96394,,,instructions,"[{""page_index"":0,""viewing_time"":45008},{""page_index"":1,""viewing_time"":24579},{""page_index"":2,""viewing_time"":26806}]",121
,,,,,,,,,,,,,,199573,,199574,,,instructions,"[{""page_index"":0,""viewing_time"":93450},{""page_index"":1,""viewing_time"":69010},{""page_index"":2,""viewing_time"":37112}]",122
,,,,,,,,,,,,,,258743,,258746,,,instructions,"[{""page_index"":0,""viewing_time"":101838},{""page_index"":1,""viewing_time"":104212},{""page_index"":2,""viewing_time"":52690}]",123
,,,,,,,,,,,,,,236316,,236318,,,instructions,"[{""page_index"":0,""viewing_time"":111294},{""page_index"":1,""viewing_time"":74603},{""page_index"":2,""viewing_time"":50417}]",124
,,,,,,,,,,,,,,169913,,169916,,,instructions,"[{""page_index"":0,""viewing_time"":80472},{""page_index"":1,""viewing_time"":49434},{""page_index"":2,""viewing_time"":40005}]",125
,,,,,,,,,,,,,,43107,,43109,,,instructions,"[{""page_index"":0,""viewing_time"":5272},{""page_index"":1,""viewing_time"":11382},{""page_index"":2,""viewing_time"":11207},{""page_index"":1,""viewing_time"":559},{""page_index"":0,""viewing_time"":5121},{""page_index"":1,""viewing_time"":5339},{""page_index"":2,""viewing_time"":4225}]",126
,,,,,,,,,,,,,,138247,,138249,,,instructions,"[{""page_index"":0,""viewing_time"":49890},{""page_index"":1,""viewing_time"":49866},{""page_index"":2,""viewing_time"":38491}]",127
,,,,,,,,,,,,,,40208,,40210,,,instructions,"[{""page_index"":0,""viewing_time"":33649},{""page_index"":1,""viewing_time"":4822},{""page_index"":2,""viewing_time"":1736}]",128
,,,,,,,,,,,,,,84502,,150873,,,instructions,"[{""page_index"":0,""viewing_time"":11565},{""page_index"":1,""viewing_time"":50708},{""page_index"":2,""viewing_time"":22228}]",128
,,,,,,,,,,,,,,134589,,134591,,,instructions,"[{""page_index"":0,""viewing_time"":48527},{""page_index"":1,""viewing_time"":49502},{""page_index"":2,""viewing_time"":36559}]",129
,,,,,,,,,,,,,,128702,,128703,,,instructions,"[{""page_index"":0,""viewing_time"":58911},{""page_index"":1,""viewing_time"":36847},{""page_index"":2,""viewing_time"":32944}]",130
,,,,,,,,,,,,,,66335,,232135,,,instructions,"[{""page_index"":0,""viewing_time"":13383},{""page_index"":1,""viewing_time"":22328},{""page_index"":2,""viewing_time"":6951},{""page_index"":1,""viewing_time"":1664},{""page_index"":0,""viewing_time"":11640},{""page_index"":1,""viewing_time"":9112},{""page_index"":2,""viewing_time"":1256}]",130
,,,,,,,,,,,,,,88242,,88242,,,instructions,"[{""page_index"":0,""viewing_time"":30055},{""page_index"":1,""viewing_time"":33741},{""page_index"":2,""viewing_time"":24445}]",131
,,,,,,,,,,,,,,27994,,142719,,,instructions,"[{""page_index"":0,""viewing_time"":21761},{""page_index"":1,""viewing_time"":4640},{""page_index"":2,""viewing_time"":1593}]",131
,,,,,,,,,,,,,,83041,,83042,,,instructions,"[{""page_index"":0,""viewing_time"":39043},{""page_index"":1,""viewing_time"":26228},{""page_index"":2,""viewing_time"":17770}]",132
,,,,,,,,,,,,,,85082,,85083,,,instructions,"[{""page_index"":0,""viewing_time"":37420},{""page_index"":1,""viewing_time"":28809},{""page_index"":2,""viewing_time"":18853}]",133
,,,,,,,,,,,,,,35523,,35523,,,instructions,"[{""page_index"":0,""viewing_time"":5831},{""page_index"":1,""viewing_time"":6031},{""page_index"":2,""viewing_time"":10052},{""page_index"":1,""viewing_time"":5320},{""page_index"":2,""viewing_time"":8288}]",134
,,,,,,,,,,,,,,30839,,30840,,,instructions,"[{""page_index"":0,""viewing_time"":21479},{""page_index"":1,""viewing_time"":7975},{""page_index"":2,""viewing_time"":1384}]",135
,,,,,,,,,,,,,,159958,,159960,,,instructions,"[{""page_index"":0,""viewing_time"":44118},{""page_index"":1,""viewing_time"":96229},{""page_index"":2,""viewing_time"":19609}]",136
,,,,,,,,,,,,,,104351,,104354,,,instructions,"[{""page_index"":0,""viewing_time"":38186},{""page_index"":1,""viewing_time"":41391},{""page_index"":2,""viewing_time"":24770}]",137
,,,,,,,,,,,,,,67205,,216401,,,instructions,"[{""page_index"":0,""viewing_time"":27795},{""page_index"":1,""viewing_time"":28112},{""page_index"":2,""viewing_time"":11296}]",137
,,,,,,,,,,,,,,33752,,280779,,,instructions,"[{""page_index"":0,""viewing_time"":31950},{""page_index"":1,""viewing_time"":1152},{""page_index"":2,""viewing_time"":649}]",137
,,,,,,,,,,,,,,26506,,26507,,,instructions,"[{""page_index"":0,""viewing_time"":16170},{""page_index"":1,""viewing_time"":8239},{""page_index"":2,""viewing_time"":2096}]",138
,,,,,,,,,,,,,,36805,,91634,,,instructions,"[{""page_index"":0,""viewing_time"":19405},{""page_index"":1,""viewing_time"":7056},{""page_index"":2,""viewing_time"":10343}]",138
