p_rdata,action_times,actions,beliefs,correct,delays,information_used_correctly,meta_actions,path,planned_too_little,planned_too_much,queries,questions,responses,rt,score,time_elapsed,trial_index,trial_id,trial_type,view_history,pid
"[{u'Q': -4, u'action': u'__TERM_ACTION__', u'Qs': {u'1': -28, u'9': -4, u'13': 12, u'5': 4}, u'state': [0, u'__', u'__', u'__', u'__', u'__', u'__', u'__', u'__', 4, u'__', u'__', 4, u'__', u'__', u'__', u'__'], u'V': 12}]","[10761, 12209, 14729]","[u'2', u'2', u'1']","[[0, u'__', u'__', u'__', u'__', u'__', u'__', u'__', u'__', u'__', u'__', u'__', u'__', u'__', u'__', u'__', u'__'], [0, u'__', u'__', u'__', u'__', u'__', u'__', u'__', u'__', 4, u'__', u'__', u'__', u'__', u'__', u'__', u'__'], [0, u'__', u'__', u'__', u'__', u'__', u'__', u'__', u'__', 4, u'__', u'__', 4, u'__', u'__', u'__', u'__']]",,[None],[True],"[9, 12, u'__TERM_ACTION__']","[9, 10, 12]",[True],[False],"{u'mouseover': {u'state': {u'target': [], u'time': []}, u'edge': {u'target': [], u'time': []}}, u'click': {u'state': {u'target': [9, 12], u'time': [5197, 9537]}, u'edge': {u'target': [], u'time': []}}, u'mouseout': {u'state': {u'target': [], u'time': []}, u'edge': {u'target': [], u'time': []}}}",,,"[10761, 930, 2006]",-4.2,104700,1.0,9.0,mouselab-mdp,,0
"[{u'Q': 44, u'action': u'__TERM_ACTION__', u'Qs': {u'1': 44, u'9': 12, u'13': -4, u'5': -20}, u'state': [0, 12, 12, u'__', 20, -12, u'__', u'__', u'__', -20, u'__', u'__', u'__', -12, u'__', u'__', u'__'], u'V': 44}]","[14832, 15872, 16935]","[u'0', u'0', u'3']","[[0, u'__', u'__', u'__', u'__', u'__', u'__', u'__', u'__', u'__', u'__', u'__', u'__', u'__', u'__', u'__', u'__'], [0, u'__', u'__', u'__', u'__', u'__', u'__', u'__', u'__', -20, u'__', u'__', u'__', u'__', u'__', u'__', u'__'], [0, u'__', u'__', u'__', u'__', -12, u'__', u'__', u'__', -20, u'__', u'__', u'__', u'__', u'__', u'__', u'__'], [0, u'__', u'__', u'__', u'__', -12, u'__', u'__', u'__', -20, u'__', u'__', u'__', -12, u'__', u'__', u'__'], [0, 12, u'__', u'__', u'__', -12, u'__', u'__', u'__', -20, u'__', u'__', u'__', -12, u'__', u'__', u'__'], [0, 12, u'__', u'__', 20, -12, u'__', u'__', u'__', -20, u'__', u'__', u'__', -12, u'__', u'__', u'__'], [0, 12, 12, u'__', 20, -12, u'__', u'__', u'__', -20, u'__', u'__', u'__', -12, u'__', u'__', u'__']]",,[None],[True],"[9, 5, 13, 1, 4, 2, u'__TERM_ACTION__']","[1, 2, 4]",[False],[False],"{u'mouseover': {u'state': {u'target': [], u'time': []}, u'edge': {u'target': [], u'time': []}}, u'click': {u'state': {u'target': [9, 5, 13, 1, 4, 2], u'time': [5147, 7471, 9090, 9913, 11653, 13063]}, u'edge': {u'target': [], u'time': []}}, u'mouseout': {u'state': {u'target': [], u'time': []}, u'edge': {u'target': [], u'time': []}}}",,,"[14832, 534, 549]",43.4,151299,2.0,13.0,mouselab-mdp,,0
"[{u'Q': 20, u'action': u'__TERM_ACTION__', u'Qs': {u'1': 20, u'9': 28, u'13': 12, u'5': 12}, u'state': [0, 12, 4, -20, 4, u'__', u'__', u'__', u'__', u'__', u'__', u'__', u'__', u'__', u'__', u'__', u'__'], u'V': 28}]","[9988, 10692, 11444]","[u'0', u'0', u'3']","[[0, u'__', u'__', u'__', u'__', u'__', u'__', u'__', u'__', u'__', u'__', u'__', u'__', u'__', u'__', u'__', u'__'], [0, 12, u'__', u'__', u'__', u'__', u'__', u'__', u'__', u'__', u'__', u'__', u'__', u'__', u'__', u'__', u'__'], [0, 12, 4, u'__', u'__', u'__', u'__', u'__', u'__', u'__', u'__', u'__', u'__', u'__', u'__', u'__', u'__'], [0, 12, 4, -20, u'__', u'__', u'__', u'__', u'__', u'__', u'__', u'__', u'__', u'__', u'__', u'__', u'__'], [0, 12, 4, -20, 4, u'__', u'__', u'__', u'__', u'__', u'__', u'__', u'__', u'__', u'__', u'__', u'__']]",,[None],[True],"[1, 2, 3, 4, u'__TERM_ACTION__']","[1, 2, 4]",[True],[False],"{u'mouseover': {u'state': {u'target': [], u'time': []}, u'edge': {u'target': [], u'time': []}}, u'click': {u'state': {u'target': [1, 2, 3, 4], u'time': [2932, 4680, 6373, 7436]}, u'edge': {u'target': [], u'time': []}}, u'mouseout': {u'state': {u'target': [], u'time': []}, u'edge': {u'target': [], u'time': []}}}",,,"[9988, 195, 250]",19.6,194547,3.0,6.0,mouselab-mdp,,0
"[{u'Q': 20, u'action': u'__TERM_ACTION__', u'Qs': {u'1': 20, u'9': 28, u'13': -4, u'5': 28}, u'state': [0, 12, 4, 4, u'__', u'__', u'__', u'__', u'__', 4, u'__', u'__', u'__', -4, 4, u'__', -4], u'V': 28}]","[13335, 14046, 14911]","[u'0', u'0', u'1']","[[0, u'__', u'__', u'__', u'__', u'__', u'__', u'__', u'__', u'__', u'__', u'__', u'__', u'__', u'__', u'__', u'__'], [0, u'__', u'__', u'__', u'__', u'__', u'__', u'__', u'__', 4, u'__', u'__', u'__', u'__', u'__', u'__', u'__'], [0, 12, u'__', u'__', u'__', u'__', u'__', u'__', u'__', 4, u'__', u'__', u'__', u'__', u'__', u'__', u'__'], [0, 12, 4, u'__', u'__', u'__', u'__', u'__', u'__', 4, u'__', u'__', u'__', u'__', u'__', u'__', u'__'], [0, 12, 4, 4, u'__', u'__', u'__', u'__', u'__', 4, u'__', u'__', u'__', u'__', u'__', u'__', u'__'], [0, 12, 4, 4, u'__', u'__', u'__', u'__', u'__', 4, u'__', u'__', u'__', -4, u'__', u'__', u'__'], [0, 12, 4, 4, u'__', u'__', u'__', u'__', u'__', 4, u'__', u'__', u'__', -4, 4, u'__', u'__'], [0, 12, 4, 4, u'__', u'__', u'__', u'__', u'__', 4, u'__', u'__', u'__', -4, 4, u'__', -4]]",,[None],[True],"[9, 1, 2, 3, 13, 14, 16, u'__TERM_ACTION__']","[1, 2, 3]",[True],[False],"{u'mouseover': {u'state': {u'target': [], u'time': []}, u'edge': {u'target': [], u'time': []}}, u'click': {u'state': {u'target': [9, 1, 2, 3, 13, 14, 16], u'time': [1693, 4647, 6062, 6640, 8281, 11421, 12077]}, u'edge': {u'target': [], u'time': []}}, u'mouseout': {u'state': {u'target': [], u'time': []}, u'edge': {u'target': [], u'time': []}}}",,,"[13335, 199, 350]",19.3,236283,4.0,5.0,mouselab-mdp,,0
"[{u'Q': 36, u'action': u'__TERM_ACTION__', u'Qs': {u'1': 12, u'9': 36, u'13': 28, u'5': 4}, u'state': [0, -4, u'__', u'__', u'__', 4, 4, u'__', u'__', 4, 12, u'__', 20, u'__', u'__', u'__', u'__'], u'V': 36}]","[10837, 11700, 12412]","[u'2', u'2', u'1']","[[0, u'__', u'__', u'__', u'__', u'__', u'__', u'__', u'__', u'__', u'__', u'__', u'__', u'__', u'__', u'__', u'__'], [0, -4, u'__', u'__', u'__', u'__', u'__', u'__', u'__', u'__', u'__', u'__', u'__', u'__', u'__', u'__', u'__'], [0, -4, u'__', u'__', u'__', u'__', u'__', u'__', u'__', 4, u'__', u'__', u'__', u'__', u'__', u'__', u'__'], [0, -4, u'__', u'__', u'__', 4, u'__', u'__', u'__', 4, u'__', u'__', u'__', u'__', u'__', u'__', u'__'], [0, -4, u'__', u'__', u'__', 4, 4, u'__', u'__', 4, u'__', u'__', u'__', u'__', u'__', u'__', u'__'], [0, -4, u'__', u'__', u'__', 4, 4, u'__', u'__', 4, 12, u'__', u'__', u'__', u'__', u'__', u'__'], [0, -4, u'__', u'__', u'__', 4, 4, u'__', u'__', 4, 12, u'__', 20, u'__', u'__', u'__', u'__']]",,[None],[True],"[1, 9, 5, 6, 10, 12, u'__TERM_ACTION__']","[9, 10, 12]",[False],[False],"{u'mouseover': {u'state': {u'target': [], u'time': []}, u'edge': {u'target': [], u'time': []}}, u'click': {u'state': {u'target': [1, 9, 5, 6, 10, 12], u'time': [2420, 3950, 6460, 7726, 8576, 9467]}, u'edge': {u'target': [], u'time': []}}, u'mouseout': {u'state': {u'target': [], u'time': []}, u'edge': {u'target': [], u'time': []}}}",,,"[10837, 344, 193]",35.4,279347,5.0,15.0,mouselab-mdp,,0
"[{u'Q': 36, u'action': u'__TERM_ACTION__', u'Qs': {u'1': 20, u'9': 36, u'13': -4, u'5': -4}, u'state': [0, u'__', u'__', u'__', u'__', u'__', u'__', u'__', u'__', 20, 4, 12, u'__', u'__', u'__', u'__', u'__'], u'V': 36}]","[7941, 8708, 9420]","[u'2', u'2', u'3']","[[0, u'__', u'__', u'__', u'__', u'__', u'__', u'__', u'__', u'__', u'__', u'__', u'__', u'__', u'__', u'__', u'__'], [0, u'__', u'__', u'__', u'__', u'__', u'__', u'__', u'__', 20, u'__', u'__', u'__', u'__', u'__', u'__', u'__'], [0, u'__', u'__', u'__', u'__', u'__', u'__', u'__', u'__', 20, u'__', 12, u'__', u'__', u'__', u'__', u'__'], [0, u'__', u'__', u'__', u'__', u'__', u'__', u'__', u'__', 20, 4, 12, u'__', u'__', u'__', u'__', u'__']]",,[None],[True],"[9, 11, 10, u'__TERM_ACTION__']","[9, 10, 11]",[False],[False],"{u'mouseover': {u'state': {u'target': [], u'time': []}, u'edge': {u'target': [], u'time': []}}, u'click': {u'state': {u'target': [9, 11, 10], u'time': [3482, 5404, 6060]}, u'edge': {u'target': [], u'time': []}}, u'mouseout': {u'state': {u'target': [], u'time': []}, u'edge': {u'target': [], u'time': []}}}",,,"[7940, 262, 209]",35.7,320227,6.0,12.0,mouselab-mdp,,0
"[{u'Q': 28, u'action': u'__TERM_ACTION__', u'Qs': {u'1': -12, u'9': -4, u'13': 12, u'5': 28}, u'state': [0, -20, u'__', u'__', u'__', 12, 4, 12, -12, -12, u'__', u'__', u'__', 12, -4, 4, 4], u'V': 28}]","[17443, 18138, 18914]","[u'1', u'1', u'2']","[[0, u'__', u'__', u'__', u'__', u'__', u'__', u'__', u'__', u'__', u'__', u'__', u'__', u'__', u'__', u'__', u'__'], [0, u'__', u'__', u'__', u'__', u'__', u'__', u'__', u'__', u'__', u'__', u'__', u'__', 12, u'__', u'__', u'__'], [0, u'__', u'__', u'__', u'__', u'__', u'__', u'__', u'__', u'__', u'__', u'__', u'__', 12, -4, u'__', u'__'], [0, -20, u'__', u'__', u'__', u'__', u'__', u'__', u'__', u'__', u'__', u'__', u'__', 12, -4, u'__', u'__'], [0, -20, u'__', u'__', u'__', u'__', u'__', u'__', u'__', -12, u'__', u'__', u'__', 12, -4, u'__', u'__'], [0, -20, u'__', u'__', u'__', 12, u'__', u'__', u'__', -12, u'__', u'__', u'__', 12, -4, u'__', u'__'], [0, -20, u'__', u'__', u'__', 12, 4, u'__', u'__', -12, u'__', u'__', u'__', 12, -4, u'__', u'__'], [0, -20, u'__', u'__', u'__', 12, 4, u'__', -12, -12, u'__', u'__', u'__', 12, -4, u'__', u'__'], [0, -20, u'__', u'__', u'__', 12, 4, 12, -12, -12, u'__', u'__', u'__', 12, -4, u'__', u'__'], [0, -20, u'__', u'__', u'__', 12, 4, 12, -12, -12, u'__', u'__', u'__', 12, -4, u'__', 4], [0, -20, u'__', u'__', u'__', 12, 4, 12, -12, -12, u'__', u'__', u'__', 12, -4, 4, 4]]",,[None],[True],"[13, 14, 1, 9, 5, 6, 8, 7, 16, 15, u'__TERM_ACTION__']","[5, 6, 7]",[False],[False],"{u'mouseover': {u'state': {u'target': [], u'time': []}, u'edge': {u'target': [], u'time': []}}, u'click': {u'state': {u'target': [13, 14, 1, 9, 5, 6, 8, 7, 16, 15], u'time': [1953, 3427, 5559, 6681, 7308, 8269, 9423, 10113, 15609, 16371]}, u'edge': {u'target': [], u'time': []}}, u'mouseout': {u'state': {u'target': [], u'time': []}, u'edge': {u'target': [], u'time': []}}}",,,"[17443, 179, 258]",27.0,366531,7.0,4.0,mouselab-mdp,,0
"[{u'Q': 4, u'action': u'__TERM_ACTION__', u'Qs': {u'1': -4, u'9': 4, u'13': 4, u'5': -28}, u'state': [0, -4, u'__', u'__', u'__', -12, -12, u'__', u'__', -4, 4, u'__', u'__', -12, 12, -20, 4], u'V': 4}]","[18118, 18989, 19862]","[u'3', u'3', u'2']","[[0, u'__', u'__', u'__', u'__', u'__', u'__', u'__', u'__', u'__', u'__', u'__', u'__', u'__', u'__', u'__', u'__'], [0, u'__', u'__', u'__', u'__', u'__', u'__', u'__', u'__', -4, u'__', u'__', u'__', u'__', u'__', u'__', u'__'], [0, -4, u'__', u'__', u'__', u'__', u'__', u'__', u'__', -4, u'__', u'__', u'__', u'__', u'__', u'__', u'__'], [0, -4, u'__', u'__', u'__', -12, u'__', u'__', u'__', -4, u'__', u'__', u'__', u'__', u'__', u'__', u'__'], [0, -4, u'__', u'__', u'__', -12, u'__', u'__', u'__', -4, u'__', u'__', u'__', -12, u'__', u'__', u'__'], [0, -4, u'__', u'__', u'__', -12, -12, u'__', u'__', -4, u'__', u'__', u'__', -12, u'__', u'__', u'__'], [0, -4, u'__', u'__', u'__', -12, -12, u'__', u'__', -4, 4, u'__', u'__', -12, u'__', u'__', u'__'], [0, -4, u'__', u'__', u'__', -12, -12, u'__', u'__', -4, 4, u'__', u'__', -12, 12, u'__', u'__'], [0, -4, u'__', u'__', u'__', -12, -12, u'__', u'__', -4, 4, u'__', u'__', -12, 12, -20, u'__'], [0, -4, u'__', u'__', u'__', -12, -12, u'__', u'__', -4, 4, u'__', u'__', -12, 12, -20, 4]]",,[None],[True],"[9, 1, 5, 13, 6, 10, 14, 15, 16, u'__TERM_ACTION__']","[13, 14, 16]",[False],[False],"{u'mouseover': {u'state': {u'target': [], u'time': []}, u'edge': {u'target': [], u'time': []}}, u'click': {u'state': {u'target': [9, 1, 5, 13, 6, 10, 14, 15, 16], u'time': [3680, 5083, 5706, 6382, 8544, 9794, 10634, 12061, 12782]}, u'edge': {u'target': [], u'time': []}}, u'mouseout': {u'state': {u'target': [], u'time': []}, u'edge': {u'target': [], u'time': []}}}",,,"[18118, 359, 352]",3.1,410723,8.0,0.0,mouselab-mdp,,0
"[{u'Q': -4, u'action': u'__TERM_ACTION__', u'Qs': {u'1': -12, u'9': -4, u'13': -12, u'5': -20}, u'state': [0, -4, -12, u'__', u'__', -12, -4, -4, u'__', 4, -12, 4, 4, -12, -4, u'__', u'__'], u'V': -4}]","[21205, 22061, 22701]","[u'2', u'2', u'1']","[[0, u'__', u'__', u'__', u'__', u'__', u'__', u'__', u'__', u'__', u'__', u'__', u'__', u'__', u'__', u'__', u'__'], [0, u'__', u'__', u'__', u'__', u'__', u'__', u'__', u'__', 4, u'__', u'__', u'__', u'__', u'__', u'__', u'__'], [0, -4, u'__', u'__', u'__', u'__', u'__', u'__', u'__', 4, u'__', u'__', u'__', u'__', u'__', u'__', u'__'], [0, -4, u'__', u'__', u'__', -12, u'__', u'__', u'__', 4, u'__', u'__', u'__', u'__', u'__', u'__', u'__'], [0, -4, u'__', u'__', u'__', -12, u'__', u'__', u'__', 4, u'__', u'__', u'__', -12, u'__', u'__', u'__'], [0, -4, u'__', u'__', u'__', -12, u'__', u'__', u'__', 4, u'__', 4, u'__', -12, u'__', u'__', u'__'], [0, -4, u'__', u'__', u'__', -12, u'__', u'__', u'__', 4, u'__', 4, 4, -12, u'__', u'__', u'__'], [0, -4, u'__', u'__', u'__', -12, u'__', u'__', u'__', 4, -12, 4, 4, -12, u'__', u'__', u'__'], [0, -4, -12, u'__', u'__', -12, u'__', u'__', u'__', 4, -12, 4, 4, -12, u'__', u'__', u'__'], [0, -4, -12, u'__', u'__', -12, -4, u'__', u'__', 4, -12, 4, 4, -12, u'__', u'__', u'__'], [0, -4, -12, u'__', u'__', -12, -4, -4, u'__', 4, -12, 4, 4, -12, u'__', u'__', u'__'], [0, -4, -12, u'__', u'__', -12, -4, -4, u'__', 4, -12, 4, 4, -12, -4, u'__', u'__']]",,[None],[True],"[9, 1, 5, 13, 11, 12, 10, 2, 6, 7, 14, u'__TERM_ACTION__']","[9, 10, 12]",[False],[False],"{u'mouseover': {u'state': {u'target': [], u'time': []}, u'edge': {u'target': [], u'time': []}}, u'click': {u'state': {u'target': [9, 1, 5, 13, 11, 12, 10, 2, 6, 7, 14], u'time': [1439, 2809, 4147, 5095, 6261, 7195, 9087, 9905, 14772, 16664, 18188]}, u'edge': {u'target': [], u'time': []}}, u'mouseout': {u'state': {u'target': [], u'time': []}, u'edge': {u'target': [], u'time': []}}}",,,"[21205, 346, 122]",-5.1,451498,9.0,3.0,mouselab-mdp,,0
"[{u'Q': 28, u'action': u'__TERM_ACTION__', u'Qs': {u'1': 28, u'9': 36, u'13': -4, u'5': 20}, u'state': [0, 20, 4, 4, -4, u'__', u'__', u'__', u'__', u'__', u'__', u'__', u'__', -12, u'__', u'__', u'__'], u'V': 36}]","[9290, 10041, 10673]","[u'0', u'0', u'1']","[[0, u'__', u'__', u'__', u'__', u'__', u'__', u'__', u'__', u'__', u'__', u'__', u'__', u'__', u'__', u'__', u'__'], [0, u'__', u'__', u'__', u'__', u'__', u'__', u'__', u'__', u'__', u'__', u'__', u'__', -12, u'__', u'__', u'__'], [0, 20, u'__', u'__', u'__', u'__', u'__', u'__', u'__', u'__', u'__', u'__', u'__', -12, u'__', u'__', u'__'], [0, 20, 4, u'__', u'__', u'__', u'__', u'__', u'__', u'__', u'__', u'__', u'__', -12, u'__', u'__', u'__'], [0, 20, 4, 4, u'__', u'__', u'__', u'__', u'__', u'__', u'__', u'__', u'__', -12, u'__', u'__', u'__'], [0, 20, 4, 4, -4, u'__', u'__', u'__', u'__', u'__', u'__', u'__', u'__', -12, u'__', u'__', u'__']]",,[None],[True],"[13, 1, 2, 3, 4, u'__TERM_ACTION__']","[1, 2, 3]",[True],[False],"{u'mouseover': {u'state': {u'target': [], u'time': []}, u'edge': {u'target': [], u'time': []}}, u'click': {u'state': {u'target': [13, 1, 2, 3, 4], u'time': [3669, 5244, 6365, 6959, 7945]}, u'edge': {u'target': [], u'time': []}}, u'mouseout': {u'state': {u'target': [], u'time': []}, u'edge': {u'target': [], u'time': []}}}",,,"[9290, 239, 124]",27.5,493875,10.0,2.0,mouselab-mdp,,0
,"[17198, 17950, 18782]","[u'1', u'1', u'0']","[[0, u'__', u'__', u'__', u'__', u'__', u'__', u'__', u'__', u'__', u'__', u'__', u'__', u'__', u'__', u'__', u'__'], [0, u'__', u'__', u'__', u'__', u'__', u'__', u'__', u'__', 12, u'__', u'__', u'__', u'__', u'__', u'__', u'__'], [0, u'__', u'__', u'__', u'__', u'__', u'__', u'__', u'__', 12, u'__', u'__', 4, u'__', u'__', u'__', u'__'], [0, u'__', u'__', u'__', u'__', u'__', u'__', u'__', u'__', 12, u'__', -4, 4, u'__', u'__', u'__', u'__'], [0, u'__', u'__', u'__', u'__', u'__', u'__', u'__', u'__', 12, -4, -4, 4, u'__', u'__', u'__', u'__'], [0, u'__', u'__', u'__', u'__', u'__', u'__', u'__', u'__', 12, -4, -4, 4, u'__', 4, u'__', u'__'], [0, u'__', u'__', u'__', u'__', u'__', u'__', u'__', u'__', 12, -4, -4, 4, -20, 4, u'__', u'__'], [0, -4, u'__', u'__', u'__', u'__', u'__', u'__', u'__', 12, -4, -4, 4, -20, 4, u'__', u'__'], [0, -4, u'__', u'__', u'__', 12, u'__', u'__', u'__', 12, -4, -4, 4, -20, 4, u'__', u'__'], [0, -4, u'__', u'__', u'__', 12, 12, u'__', u'__', 12, -4, -4, 4, -20, 4, u'__', u'__'], [0, -4, u'__', u'__', u'__', 12, 12, -4, u'__', 12, -4, -4, 4, -20, 4, u'__', u'__'], [0, -4, u'__', u'__', u'__', 12, 12, -4, 4, 12, -4, -4, 4, -20, 4, u'__', u'__']]",,[],[],"[9, 12, 11, 10, 14, 13, 1, 5, 6, 7, 8, u'__TERM_ACTION__']","[5, 6, 8]",[],[],"{u'mouseover': {u'state': {u'target': [], u'time': []}, u'edge': {u'target': [], u'time': []}}, u'click': {u'state': {u'target': [9, 12, 11, 10, 14, 13, 1, 5, 6, 7, 8], u'time': [4181, 5363, 6179, 6677, 8313, 10351, 11193, 12172, 13087, 13745, 16089]}, u'edge': {u'target': [], u'time': []}}, u'mouseout': {u'state': {u'target': [], u'time': []}, u'edge': {u'target': [], u'time': []}}}",,,"[17198, 243, 326]",26.9,535706,11.0,14.0,mouselab-mdp,,0
,"[13191, 13959, 14703]","[u'2', u'2', u'1']","[[0, u'__', u'__', u'__', u'__', u'__', u'__', u'__', u'__', u'__', u'__', u'__', u'__', u'__', u'__', u'__', u'__'], [0, u'__', u'__', u'__', u'__', u'__', u'__', u'__', u'__', 4, u'__', u'__', u'__', u'__', u'__', u'__', u'__'], [0, u'__', u'__', u'__', u'__', u'__', u'__', u'__', u'__', 4, u'__', u'__', 20, u'__', u'__', u'__', u'__'], [0, u'__', u'__', u'__', u'__', u'__', u'__', u'__', u'__', 4, 4, u'__', 20, u'__', u'__', u'__', u'__'], [0, u'__', u'__', u'__', u'__', u'__', u'__', u'__', u'__', 4, 4, -4, 20, u'__', u'__', u'__', u'__'], [0, u'__', -4, u'__', u'__', u'__', u'__', u'__', u'__', 4, 4, -4, 20, u'__', u'__', u'__', u'__'], [0, u'__', -4, u'__', 12, u'__', u'__', u'__', u'__', 4, 4, -4, 20, u'__', u'__', u'__', u'__'], [0, u'__', -4, u'__', 12, u'__', u'__', u'__', u'__', 4, 4, -4, 20, 4, u'__', u'__', u'__'], [0, -4, -4, u'__', 12, u'__', u'__', u'__', u'__', 4, 4, -4, 20, 4, u'__', u'__', u'__'], [0, -4, -4, u'__', 12, -12, u'__', u'__', u'__', 4, 4, -4, 20, 4, u'__', u'__', u'__']]",,[],[],"[9, 12, 10, 11, 2, 4, 13, 1, 5, u'__TERM_ACTION__']","[9, 10, 12]",[],[],"{u'mouseover': {u'state': {u'target': [], u'time': []}, u'edge': {u'target': [], u'time': []}}, u'click': {u'state': {u'target': [9, 12, 10, 11, 2, 4, 13, 1, 5], u'time': [2086, 4107, 4822, 5542, 7508, 8310, 9618, 10516, 11768]}, u'edge': {u'target': [], u'time': []}}, u'mouseout': {u'state': {u'target': [], u'time': []}, u'edge': {u'target': [], u'time': []}}}",,,"[13191, 261, 239]",27.1,576297,12.0,10.0,mouselab-mdp,,0
,"[12970, 13658, 14586]","[u'3', u'3', u'0']","[[0, u'__', u'__', u'__', u'__', u'__', u'__', u'__', u'__', u'__', u'__', u'__', u'__', u'__', u'__', u'__', u'__'], [0, u'__', u'__', u'__', u'__', u'__', u'__', u'__', u'__', -4, u'__', u'__', u'__', u'__', u'__', u'__', u'__'], [0, 4, u'__', u'__', u'__', u'__', u'__', u'__', u'__', -4, u'__', u'__', u'__', u'__', u'__', u'__', u'__'], [0, 4, u'__', u'__', u'__', 4, u'__', u'__', u'__', -4, u'__', u'__', u'__', u'__', u'__', u'__', u'__'], [0, 4, u'__', u'__', u'__', 4, -12, u'__', u'__', -4, u'__', u'__', u'__', u'__', u'__', u'__', u'__'], [0, 4, u'__', u'__', u'__', 4, -12, u'__', -12, -4, u'__', u'__', u'__', u'__', u'__', u'__', u'__'], [0, 4, -4, u'__', u'__', 4, -12, u'__', -12, -4, u'__', u'__', u'__', u'__', u'__', u'__', u'__'], [0, 4, -4, u'__', u'__', 4, -12, u'__', -12, -4, u'__', u'__', u'__', 4, u'__', u'__', u'__'], [0, 4, -4, u'__', u'__', 4, -12, u'__', -12, -4, u'__', u'__', u'__', 4, 12, u'__', u'__'], [0, 4, -4, u'__', u'__', 4, -12, u'__', -12, -4, u'__', u'__', u'__', 4, 12, u'__', -12]]",,[],[],"[9, 1, 5, 6, 8, 2, 13, 14, 16, u'__TERM_ACTION__']","[13, 14, 15]",[],[],"{u'mouseover': {u'state': {u'target': [], u'time': []}, u'edge': {u'target': [], u'time': []}}, u'click': {u'state': {u'target': [9, 1, 5, 6, 8, 2, 13, 14, 16], u'time': [1977, 2842, 4354, 5508, 6254, 8425, 9330, 9930, 10700]}, u'edge': {u'target': [], u'time': []}}, u'mouseout': {u'state': {u'target': [], u'time': []}, u'edge': {u'target': [], u'time': []}}}",,,"[12970, 178, 422]",11.1,618699,13.0,11.0,mouselab-mdp,,0
,"[16097, 16872, 17601]","[u'2', u'2', u'3']","[[0, u'__', u'__', u'__', u'__', u'__', u'__', u'__', u'__', u'__', u'__', u'__', u'__', u'__', u'__', u'__', u'__'], [0, u'__', u'__', u'__', u'__', u'__', u'__', u'__', u'__', 12, u'__', u'__', u'__', u'__', u'__', u'__', u'__'], [0, u'__', u'__', u'__', u'__', u'__', u'__', u'__', u'__', 12, u'__', u'__', 4, u'__', u'__', u'__', u'__'], [0, u'__', u'__', u'__', u'__', u'__', u'__', u'__', u'__', 12, u'__', 12, 4, u'__', u'__', u'__', u'__'], [0, u'__', u'__', u'__', u'__', u'__', u'__', u'__', u'__', 12, -4, 12, 4, u'__', u'__', u'__', u'__'], [0, u'__', u'__', u'__', u'__', u'__', u'__', u'__', u'__', 12, -4, 12, 4, 4, u'__', u'__', u'__'], [0, u'__', u'__', u'__', u'__', u'__', u'__', u'__', u'__', 12, -4, 12, 4, 4, u'__', -12, u'__'], [0, -12, u'__', u'__', u'__', u'__', u'__', u'__', u'__', 12, -4, 12, 4, 4, u'__', -12, u'__'], [0, -12, u'__', u'__', u'__', 4, u'__', u'__', u'__', 12, -4, 12, 4, 4, u'__', -12, u'__'], [0, -12, u'__', u'__', u'__', 4, u'__', u'__', -4, 12, -4, 12, 4, 4, u'__', -12, u'__']]",,[],[],"[9, 12, 11, 10, 13, 15, 1, 5, 8, u'__TERM_ACTION__']","[9, 10, 11]",[],[],"{u'mouseover': {u'state': {u'target': [], u'time': []}, u'edge': {u'target': [], u'time': []}}, u'click': {u'state': {u'target': [9, 12, 11, 10, 13, 15, 1, 5, 8], u'time': [1475, 2637, 3615, 4711, 7659, 8725, 10158, 11327, 14797]}, u'edge': {u'target': [], u'time': []}}, u'mouseout': {u'state': {u'target': [], u'time': []}, u'edge': {u'target': [], u'time': []}}}",,,"[16097, 271, 217]",19.1,659402,14.0,8.0,mouselab-mdp,,0
,"[17733, 18405, 19149]","[u'3', u'3', u'2']","[[0, u'__', u'__', u'__', u'__', u'__', u'__', u'__', u'__', u'__', u'__', u'__', u'__', u'__', u'__', u'__', u'__'], [0, u'__', u'__', u'__', u'__', 4, u'__', u'__', u'__', u'__', u'__', u'__', u'__', u'__', u'__', u'__', u'__'], [0, u'__', u'__', u'__', u'__', 4, u'__', u'__', -12, u'__', u'__', u'__', u'__', u'__', u'__', u'__', u'__'], [0, u'__', u'__', u'__', u'__', 4, 12, u'__', -12, u'__', u'__', u'__', u'__', u'__', u'__', u'__', u'__'], [0, u'__', u'__', u'__', u'__', 4, 12, 4, -12, u'__', u'__', u'__', u'__', u'__', u'__', u'__', u'__'], [0, u'__', u'__', u'__', u'__', 4, 12, 4, -12, u'__', -20, u'__', u'__', u'__', u'__', u'__', u'__'], [0, u'__', u'__', u'__', u'__', 4, 12, 4, -12, u'__', -20, u'__', u'__', 12, u'__', u'__', u'__'], [0, u'__', u'__', u'__', u'__', 4, 12, 4, -12, u'__', -20, u'__', u'__', 12, 4, u'__', u'__'], [0, u'__', u'__', u'__', u'__', 4, 12, 4, -12, u'__', -20, u'__', u'__', 12, 4, 4, u'__'], [0, u'__', u'__', u'__', u'__', 4, 12, 4, -12, u'__', -20, u'__', u'__', 12, 4, 4, 12]]",,[],[],"[5, 8, 6, 7, 10, 13, 14, 15, 16, u'__TERM_ACTION__']","[13, 14, 16]",[],[],"{u'mouseover': {u'state': {u'target': [], u'time': []}, u'edge': {u'target': [], u'time': []}}, u'click': {u'state': {u'target': [5, 8, 6, 7, 10, 13, 14, 15, 16], u'time': [2904, 3743, 7485, 8573, 9968, 11506, 12506, 14389, 16400]}, u'edge': {u'target': [], u'time': []}}, u'mouseout': {u'state': {u'target': [], u'time': []}, u'edge': {u'target': [], u'time': []}}}",,,"[17733, 167, 227]",27.1,701737,15.0,7.0,mouselab-mdp,,0
,"[15583, 16367, 17054]","[u'1', u'1', u'0']","[[0, u'__', u'__', u'__', u'__', u'__', u'__', u'__', u'__', u'__', u'__', u'__', u'__', u'__', u'__', u'__', u'__'], [0, u'__', u'__', u'__', u'__', 12, u'__', u'__', u'__', u'__', u'__', u'__', u'__', u'__', u'__', u'__', u'__'], [0, u'__', u'__', u'__', u'__', 12, 20, u'__', u'__', u'__', u'__', u'__', u'__', u'__', u'__', u'__', u'__'], [0, u'__', u'__', u'__', u'__', 12, 20, u'__', 4, u'__', u'__', u'__', u'__', u'__', u'__', u'__', u'__'], [0, u'__', u'__', u'__', u'__', 12, 20, -4, 4, u'__', u'__', u'__', u'__', u'__', u'__', u'__', u'__'], [0, -4, u'__', u'__', u'__', 12, 20, -4, 4, u'__', u'__', u'__', u'__', u'__', u'__', u'__', u'__'], [0, -4, u'__', u'__', u'__', 12, 20, -4, 4, u'__', u'__', u'__', u'__', -12, u'__', u'__', u'__'], [0, -4, u'__', u'__', u'__', 12, 20, -4, 4, 12, u'__', u'__', u'__', -12, u'__', u'__', u'__'], [0, -4, u'__', u'__', u'__', 12, 20, -4, 4, 12, u'__', u'__', -20, -12, u'__', u'__', u'__'], [0, -4, u'__', u'__', u'__', 12, 20, -4, 4, 12, u'__', -12, -20, -12, u'__', u'__', u'__']]",,[],[],"[5, 6, 8, 7, 1, 13, 9, 12, 11, u'__TERM_ACTION__']","[5, 6, 8]",[],[],"{u'mouseover': {u'state': {u'target': [], u'time': []}, u'edge': {u'target': [], u'time': []}}, u'click': {u'state': {u'target': [5, 6, 8, 7, 1, 13, 9, 12, 11], u'time': [1379, 2950, 3704, 4521, 7520, 8330, 11636, 13240, 14147]}, u'edge': {u'target': [], u'time': []}}, u'mouseout': {u'state': {u'target': [], u'time': []}, u'edge': {u'target': [], u'time': []}}}",,,"[15583, 274, 178]",35.1,744578,16.0,1.0,mouselab-mdp,,0
"[{u'Q': 4, u'action': u'__TERM_ACTION__', u'Qs': {u'1': -28, u'9': -4, u'13': 12, u'5': 4}, u'state': [0, -20, -12, -4, 4, 4, -20, -12, 20, 4, -12, -4, 4, -12, 4, 20, 12], u'V': 12}]","[154677, 156997, 157782]","[u'1', u'1', u'0']","[[0, u'__', u'__', u'__', u'__', u'__', u'__', u'__', u'__', u'__', u'__', u'__', u'__', u'__', u'__', u'__', u'__'], [0, u'__', u'__', u'__', u'__', 4, u'__', u'__', u'__', u'__', u'__', u'__', u'__', u'__', u'__', u'__', u'__'], [0, u'__', u'__', u'__', u'__', 4, -20, u'__', u'__', u'__', u'__', u'__', u'__', u'__', u'__', u'__', u'__'], [0, u'__', u'__', u'__', u'__', 4, -20, -12, u'__', u'__', u'__', u'__', u'__', u'__', u'__', u'__', u'__'], [0, u'__', u'__', u'__', u'__', 4, -20, -12, 20, u'__', u'__', u'__', u'__', u'__', u'__', u'__', u'__'], [0, -20, u'__', u'__', u'__', 4, -20, -12, 20, u'__', u'__', u'__', u'__', u'__', u'__', u'__', u'__'], [0, -20, -12, u'__', u'__', 4, -20, -12, 20, u'__', u'__', u'__', u'__', u'__', u'__', u'__', u'__'], [0, -20, -12, -4, u'__', 4, -20, -12, 20, u'__', u'__', u'__', u'__', u'__', u'__', u'__', u'__'], [0, -20, -12, -4, 4, 4, -20, -12, 20, u'__', u'__', u'__', u'__', u'__', u'__', u'__', u'__'], [0, -20, -12, -4, 4, 4, -20, -12, 20, 4, u'__', u'__', u'__', u'__', u'__', u'__', u'__'], [0, -20, -12, -4, 4, 4, -20, -12, 20, 4, -12, u'__', u'__', u'__', u'__', u'__', u'__'], [0, -20, -12, -4, 4, 4, -20, -12, 20, 4, -12, u'__', 4, u'__', u'__', u'__', u'__'], [0, -20, -12, -4, 4, 4, -20, -12, 20, 4, -12, -4, 4, u'__', u'__', u'__', u'__'], [0, -20, -12, -4, 4, 4, -20, -12, 20, 4, -12, -4, 4, -12, u'__', u'__', u'__'], [0, -20, -12, -4, 4, 4, -20, -12, 20, 4, -12, -4, 4, -12, 4, u'__', u'__'], [0, -20, -12, -4, 4, 4, -20, -12, 20, 4, -12, -4, 4, -12, 4, u'__', 12], [0, -20, -12, -4, 4, 4, -20, -12, 20, 4, -12, -4, 4, -12, 4, 20, 12]]",,[None],[False],"[5, 6, 7, 8, 1, 2, 3, 4, 9, 10, 12, 11, 13, 14, 16, 15, u'__TERM_ACTION__']","[5, 6, 8]",[True],[False],"{u'mouseover': {u'state': {u'target': [], u'time': []}, u'edge': {u'target': [], u'time': []}}, u'click': {u'state': {u'target': [5, 6, 7, 8, 1, 2, 3, 4, 9, 10, 12, 11, 13, 14, 16, 15], u'time': [2526, 11932, 14212, 15068, 18859, 20483, 21180, 21708, 25067, 27052, 27972, 28811, 31875, 32435, 32763, 34428]}, u'edge': {u'target': [], u'time': []}}, u'mouseout': {u'state': {u'target': [], u'time': []}, u'edge': {u'target': [], u'time': []}}}",,,"[154676, 1811, 291]",3.2,264736,1.0,9.0,mouselab-mdp,,1
"[{u'Q': 20, u'action': u'__TERM_ACTION__', u'Qs': {u'1': 20, u'9': -44, u'13': 28, u'5': 20}, u'state': [0, 12, 4, -12, 4, 4, 12, 4, -12, -20, -20, u'__', u'__', 12, 4, 4, 12], u'V': 28}]","[27593, 28303, 29055]","[u'0', u'0', u'3']","[[0, u'__', u'__', u'__', u'__', u'__', u'__', u'__', u'__', u'__', u'__', u'__', u'__', u'__', u'__', u'__', u'__'], [0, 12, u'__', u'__', u'__', u'__', u'__', u'__', u'__', u'__', u'__', u'__', u'__', u'__', u'__', u'__', u'__'], [0, 12, 4, u'__', u'__', u'__', u'__', u'__', u'__', u'__', u'__', u'__', u'__', u'__', u'__', u'__', u'__'], [0, 12, 4, u'__', u'__', u'__', u'__', u'__', u'__', -20, u'__', u'__', u'__', u'__', u'__', u'__', u'__'], [0, 12, 4, u'__', u'__', u'__', u'__', u'__', u'__', -20, -20, u'__', u'__', u'__', u'__', u'__', u'__'], [0, 12, 4, u'__', u'__', 4, u'__', u'__', u'__', -20, -20, u'__', u'__', u'__', u'__', u'__', u'__'], [0, 12, 4, u'__', u'__', 4, 12, u'__', u'__', -20, -20, u'__', u'__', u'__', u'__', u'__', u'__'], [0, 12, 4, u'__', u'__', 4, 12, u'__', u'__', -20, -20, u'__', u'__', 12, u'__', u'__', u'__'], [0, 12, 4, u'__', u'__', 4, 12, u'__', u'__', -20, -20, u'__', u'__', 12, 4, u'__', u'__'], [0, 12, 4, -12, u'__', 4, 12, u'__', u'__', -20, -20, u'__', u'__', 12, 4, u'__', u'__'], [0, 12, 4, -12, 4, 4, 12, u'__', u'__', -20, -20, u'__', u'__', 12, 4, u'__', u'__'], [0, 12, 4, -12, 4, 4, 12, u'__', -12, -20, -20, u'__', u'__', 12, 4, u'__', u'__'], [0, 12, 4, -12, 4, 4, 12, 4, -12, -20, -20, u'__', u'__', 12, 4, u'__', u'__'], [0, 12, 4, -12, 4, 4, 12, 4, -12, -20, -20, u'__', u'__', 12, 4, u'__', 12], [0, 12, 4, -12, 4, 4, 12, 4, -12, -20, -20, u'__', u'__', 12, 4, 4, 12]]",,[None],[False],"[1, 2, 9, 10, 5, 6, 13, 14, 3, 4, 8, 7, 16, 15, u'__TERM_ACTION__']","[1, 2, 4]",[True],[False],"{u'mouseover': {u'state': {u'target': [], u'time': []}, u'edge': {u'target': [], u'time': []}}, u'click': {u'state': {u'target': [1, 2, 9, 10, 5, 6, 13, 14, 3, 4, 8, 7, 16, 15], u'time': [8678, 10077, 11942, 12549, 13181, 13742, 14510, 14981, 18557, 19199, 20046, 20645, 21414, 21886]}, u'edge': {u'target': [], u'time': []}}, u'mouseout': {u'state': {u'target': [], u'time': []}, u'edge': {u'target': [], u'time': []}}}",,,"[27593, 219, 258]",19.3,307360,2.0,7.0,mouselab-mdp,,1
"[{u'Q': 36, u'action': u'__TERM_ACTION__', u'Qs': {u'1': 12, u'9': 36, u'13': 28, u'5': 4}, u'state': [0, -4, 12, 4, -12, 4, 4, -20, -4, 4, 12, u'__', 20, -4, 20, 4, 12], u'V': 36}]","[13726, 14438, 15150]","[u'2', u'2', u'1']","[[0, u'__', u'__', u'__', u'__', u'__', u'__', u'__', u'__', u'__', u'__', u'__', u'__', u'__', u'__', u'__', u'__'], [0, u'__', u'__', u'__', u'__', 4, u'__', u'__', u'__', u'__', u'__', u'__', u'__', u'__', u'__', u'__', u'__'], [0, u'__', u'__', u'__', u'__', 4, 4, u'__', u'__', u'__', u'__', u'__', u'__', u'__', u'__', u'__', u'__'], [0, u'__', u'__', u'__', u'__', 4, 4, u'__', -4, u'__', u'__', u'__', u'__', u'__', u'__', u'__', u'__'], [0, u'__', u'__', u'__', u'__', 4, 4, -20, -4, u'__', u'__', u'__', u'__', u'__', u'__', u'__', u'__'], [0, -4, u'__', u'__', u'__', 4, 4, -20, -4, u'__', u'__', u'__', u'__', u'__', u'__', u'__', u'__'], [0, -4, 12, u'__', u'__', 4, 4, -20, -4, u'__', u'__', u'__', u'__', u'__', u'__', u'__', u'__'], [0, -4, 12, 4, u'__', 4, 4, -20, -4, u'__', u'__', u'__', u'__', u'__', u'__', u'__', u'__'], [0, -4, 12, 4, -12, 4, 4, -20, -4, u'__', u'__', u'__', u'__', u'__', u'__', u'__', u'__'], [0, -4, 12, 4, -12, 4, 4, -20, -4, 4, u'__', u'__', u'__', u'__', u'__', u'__', u'__'], [0, -4, 12, 4, -12, 4, 4, -20, -4, 4, 12, u'__', u'__', u'__', u'__', u'__', u'__'], [0, -4, 12, 4, -12, 4, 4, -20, -4, 4, 12, u'__', 20, u'__', u'__', u'__', u'__'], [0, -4, 12, 4, -12, 4, 4, -20, -4, 4, 12, u'__', 20, -4, u'__', u'__', u'__'], [0, -4, 12, 4, -12, 4, 4, -20, -4, 4, 12, u'__', 20, -4, 20, u'__', u'__'], [0, -4, 12, 4, -12, 4, 4, -20, -4, 4, 12, u'__', 20, -4, 20, 4, u'__'], [0, -4, 12, 4, -12, 4, 4, -20, -4, 4, 12, u'__', 20, -4, 20, 4, 12]]",,[None],[True],"[5, 6, 8, 7, 1, 2, 3, 4, 9, 10, 12, 13, 14, 15, 16, u'__TERM_ACTION__']","[9, 10, 12]",[False],[False],"{u'mouseover': {u'state': {u'target': [], u'time': []}, u'edge': {u'target': [], u'time': []}}, u'click': {u'state': {u'target': [5, 6, 8, 7, 1, 2, 3, 4, 9, 10, 12, 13, 14, 15, 16], u'time': [1772, 2636, 3196, 3749, 4471, 4979, 5556, 6135, 7156, 7645, 8516, 10309, 10709, 11180, 11716]}, u'edge': {u'target': [], u'time': []}}, u'mouseout': {u'state': {u'target': [], u'time': []}, u'edge': {u'target': [], u'time': []}}}",,,"[13726, 217, 217]",35.25,349584,3.0,15.0,mouselab-mdp,,1
"[{u'Q': 28, u'action': u'__TERM_ACTION__', u'Qs': {u'1': 20, u'9': 28, u'13': -4, u'5': 28}, u'state': [0, 12, 4, 4, -4, -4, 12, u'__', 20, 4, 4, u'__', 20, -4, 4, -4, -4], u'V': 28}]","[16471, 17207, 17887]","[u'1', u'1', u'0']","[[0, u'__', u'__', u'__', u'__', u'__', u'__', u'__', u'__', u'__', u'__', u'__', u'__', u'__', u'__', u'__', u'__'], [0, u'__', u'__', u'__', u'__', -4, u'__', u'__', u'__', u'__', u'__', u'__', u'__', u'__', u'__', u'__', u'__'], [0, u'__', u'__', u'__', u'__', -4, 12, u'__', u'__', u'__', u'__', u'__', u'__', u'__', u'__', u'__', u'__'], [0, u'__', u'__', u'__', u'__', -4, 12, u'__', 20, u'__', u'__', u'__', u'__', u'__', u'__', u'__', u'__'], [0, u'__', u'__', u'__', u'__', -4, 12, u'__', 20, 4, u'__', u'__', u'__', u'__', u'__', u'__', u'__'], [0, u'__', u'__', u'__', u'__', -4, 12, u'__', 20, 4, 4, u'__', u'__', u'__', u'__', u'__', u'__'], [0, u'__', u'__', u'__', u'__', -4, 12, u'__', 20, 4, 4, u'__', 20, u'__', u'__', u'__', u'__'], [0, 12, u'__', u'__', u'__', -4, 12, u'__', 20, 4, 4, u'__', 20, u'__', u'__', u'__', u'__'], [0, 12, 4, u'__', u'__', -4, 12, u'__', 20, 4, 4, u'__', 20, u'__', u'__', u'__', u'__'], [0, 12, 4, u'__', -4, -4, 12, u'__', 20, 4, 4, u'__', 20, u'__', u'__', u'__', u'__'], [0, 12, 4, 4, -4, -4, 12, u'__', 20, 4, 4, u'__', 20, u'__', u'__', u'__', u'__'], [0, 12, 4, 4, -4, -4, 12, u'__', 20, 4, 4, u'__', 20, -4, u'__', u'__', u'__'], [0, 12, 4, 4, -4, -4, 12, u'__', 20, 4, 4, u'__', 20, -4, 4, u'__', u'__'], [0, 12, 4, 4, -4, -4, 12, u'__', 20, 4, 4, u'__', 20, -4, 4, -4, u'__'], [0, 12, 4, 4, -4, -4, 12, u'__', 20, 4, 4, u'__', 20, -4, 4, -4, -4]]",,[None],[True],"[5, 6, 8, 9, 10, 12, 1, 2, 4, 3, 13, 14, 15, 16, u'__TERM_ACTION__']","[5, 6, 8]",[False],[False],"{u'mouseover': {u'state': {u'target': [], u'time': []}, u'edge': {u'target': [], u'time': []}}, u'click': {u'state': {u'target': [5, 6, 8, 9, 10, 12, 1, 2, 4, 3, 13, 14, 15, 16], u'time': [1455, 1949, 2477, 3590, 4326, 4901, 6198, 6781, 7437, 7957, 9271, 9709, 10085, 10421]}, u'edge': {u'target': [], u'time': []}}, u'mouseout': {u'state': {u'target': [], u'time': []}, u'edge': {u'target': [], u'time': []}}}",,,"[16471, 242, 192]",27.3,390392,4.0,5.0,mouselab-mdp,,1
"[{u'Q': 44, u'action': u'__TERM_ACTION__', u'Qs': {u'1': 44, u'9': 12, u'13': -4, u'5': -20}, u'state': [0, 12, 12, u'__', 20, -12, -12, u'__', u'__', -20, 20, u'__', u'__', u'__', u'__', u'__', u'__'], u'V': 44}]","[10978, 11738, 12466]","[u'0', u'0', u'3']","[[0, u'__', u'__', u'__', u'__', u'__', u'__', u'__', u'__', u'__', u'__', u'__', u'__', u'__', u'__', u'__', u'__'], [0, u'__', u'__', u'__', u'__', -12, u'__', u'__', u'__', u'__', u'__', u'__', u'__', u'__', u'__', u'__', u'__'], [0, u'__', u'__', u'__', u'__', -12, -12, u'__', u'__', u'__', u'__', u'__', u'__', u'__', u'__', u'__', u'__'], [0, u'__', u'__', u'__', u'__', -12, -12, u'__', u'__', -20, u'__', u'__', u'__', u'__', u'__', u'__', u'__'], [0, u'__', u'__', u'__', u'__', -12, -12, u'__', u'__', -20, 20, u'__', u'__', u'__', u'__', u'__', u'__'], [0, 12, u'__', u'__', u'__', -12, -12, u'__', u'__', -20, 20, u'__', u'__', u'__', u'__', u'__', u'__'], [0, 12, 12, u'__', u'__', -12, -12, u'__', u'__', -20, 20, u'__', u'__', u'__', u'__', u'__', u'__'], [0, 12, 12, u'__', 20, -12, -12, u'__', u'__', -20, 20, u'__', u'__', u'__', u'__', u'__', u'__']]",,[None],[True],"[5, 6, 9, 10, 1, 2, 4, u'__TERM_ACTION__']","[1, 2, 4]",[False],[False],"{u'mouseover': {u'state': {u'target': [], u'time': []}, u'edge': {u'target': [], u'time': []}}, u'click': {u'state': {u'target': [5, 6, 9, 10, 1, 2, 4], u'time': [1737, 2321, 3512, 4000, 4736, 6329, 7116]}, u'edge': {u'target': [], u'time': []}}, u'mouseout': {u'state': {u'target': [], u'time': []}, u'edge': {u'target': [], u'time': []}}}",,,"[10978, 243, 240]",43.65,435456,5.0,13.0,mouselab-mdp,,1
"[{u'Q': 28, u'action': u'__TERM_ACTION__', u'Qs': {u'1': 4, u'9': 28, u'13': 4, u'5': -36}, u'state': [0, -4, -4, u'__', u'__', -12, -20, u'__', u'__', 4, 4, -4, 20, 4, -4, u'__', u'__'], u'V': 28}]","[10302, 10893, 11605]","[u'2', u'2', u'1']","[[0, u'__', u'__', u'__', u'__', u'__', u'__', u'__', u'__', u'__', u'__', u'__', u'__', u'__', u'__', u'__', u'__'], [0, u'__', u'__', u'__', u'__', -12, u'__', u'__', u'__', u'__', u'__', u'__', u'__', u'__', u'__', u'__', u'__'], [0, u'__', u'__', u'__', u'__', -12, -20, u'__', u'__', u'__', u'__', u'__', u'__', u'__', u'__', u'__', u'__'], [0, u'__', u'__', u'__', u'__', -12, -20, u'__', u'__', u'__', u'__', u'__', u'__', 4, u'__', u'__', u'__'], [0, u'__', u'__', u'__', u'__', -12, -20, u'__', u'__', u'__', u'__', u'__', u'__', 4, -4, u'__', u'__'], [0, u'__', u'__', u'__', u'__', -12, -20, u'__', u'__', 4, u'__', u'__', u'__', 4, -4, u'__', u'__'], [0, u'__', u'__', u'__', u'__', -12, -20, u'__', u'__', 4, 4, u'__', u'__', 4, -4, u'__', u'__'], [0, u'__', u'__', u'__', u'__', -12, -20, u'__', u'__', 4, 4, -4, u'__', 4, -4, u'__', u'__'], [0, u'__', u'__', u'__', u'__', -12, -20, u'__', u'__', 4, 4, -4, 20, 4, -4, u'__', u'__'], [0, -4, u'__', u'__', u'__', -12, -20, u'__', u'__', 4, 4, -4, 20, 4, -4, u'__', u'__'], [0, -4, -4, u'__', u'__', -12, -20, u'__', u'__', 4, 4, -4, 20, 4, -4, u'__', u'__']]",,[None],[True],"[5, 6, 13, 14, 9, 10, 11, 12, 1, 2, u'__TERM_ACTION__']","[9, 10, 12]",[False],[False],"{u'mouseover': {u'state': {u'target': [], u'time': []}, u'edge': {u'target': [], u'time': []}}, u'click': {u'state': {u'target': [5, 6, 13, 14, 9, 10, 11, 12, 1, 2], u'time': [1540, 2075, 3084, 3603, 4429, 4963, 5779, 6739, 7587, 8011]}, u'edge': {u'target': [], u'time': []}}, u'mouseout': {u'state': {u'target': [], u'time': []}, u'edge': {u'target': [], u'time': []}}}",,,"[10302, 98, 213]",27.5,488096,6.0,10.0,mouselab-mdp,,1
"[{u'Q': 36, u'action': u'__TERM_ACTION__', u'Qs': {u'1': -12, u'9': 12, u'13': -4, u'5': 36}, u'state': [0, -4, 4, -12, u'__', 12, 20, -4, 4, 12, 12, -12, -20, -12, u'__', u'__', u'__'], u'V': 36}]","[14461, 15397, 16821]","[u'1', u'1', u'0']","[[0, u'__', u'__', u'__', u'__', u'__', u'__', u'__', u'__', u'__', u'__', u'__', u'__', u'__', u'__', u'__', u'__'], [0, u'__', u'__', u'__', u'__', 12, u'__', u'__', u'__', u'__', u'__', u'__', u'__', u'__', u'__', u'__', u'__'], [0, u'__', u'__', u'__', u'__', 12, 20, u'__', u'__', u'__', u'__', u'__', u'__', u'__', u'__', u'__', u'__'], [0, u'__', u'__', u'__', u'__', 12, 20, -4, u'__', u'__', u'__', u'__', u'__', u'__', u'__', u'__', u'__'], [0, u'__', u'__', u'__', u'__', 12, 20, -4, 4, u'__', u'__', u'__', u'__', u'__', u'__', u'__', u'__'], [0, u'__', u'__', u'__', u'__', 12, 20, -4, 4, 12, u'__', u'__', u'__', u'__', u'__', u'__', u'__'], [0, u'__', u'__', u'__', u'__', 12, 20, -4, 4, 12, 12, u'__', u'__', u'__', u'__', u'__', u'__'], [0, u'__', u'__', u'__', u'__', 12, 20, -4, 4, 12, 12, u'__', -20, u'__', u'__', u'__', u'__'], [0, u'__', u'__', u'__', u'__', 12, 20, -4, 4, 12, 12, -12, -20, u'__', u'__', u'__', u'__'], [0, -4, u'__', u'__', u'__', 12, 20, -4, 4, 12, 12, -12, -20, u'__', u'__', u'__', u'__'], [0, -4, 4, u'__', u'__', 12, 20, -4, 4, 12, 12, -12, -20, u'__', u'__', u'__', u'__'], [0, -4, 4, -12, u'__', 12, 20, -4, 4, 12, 12, -12, -20, u'__', u'__', u'__', u'__'], [0, -4, 4, -12, u'__', 12, 20, -4, 4, 12, 12, -12, -20, -12, u'__', u'__', u'__']]",,[None],[True],"[5, 6, 7, 8, 9, 10, 12, 11, 1, 2, 3, 13, u'__TERM_ACTION__']","[5, 6, 8]",[False],[False],"{u'mouseover': {u'state': {u'target': [], u'time': []}, u'edge': {u'target': [], u'time': []}}, u'click': {u'state': {u'target': [5, 6, 7, 8, 9, 10, 12, 11, 1, 2, 3, 13], u'time': [1283, 1867, 2611, 3179, 5411, 6084, 6803, 7404, 9931, 11227, 11771, 12707]}, u'edge': {u'target': [], u'time': []}}, u'mouseout': {u'state': {u'target': [], u'time': []}, u'edge': {u'target': [], u'time': []}}}",,,"[14461, 447, 922]",35.4,528888,7.0,1.0,mouselab-mdp,,1
"[{u'Q': 4, u'action': u'__TERM_ACTION__', u'Qs': {u'1': -4, u'9': 4, u'13': 4, u'5': -28}, u'state': [0, -4, 4, -20, -4, -12, -12, -12, -4, -4, 4, -4, 4, -12, 12, -20, 4], u'V': 4}]","[22308, 23163, 23939]","[u'2', u'2', u'1']","[[0, u'__', u'__', u'__', u'__', u'__', u'__', u'__', u'__', u'__', u'__', u'__', u'__', u'__', u'__', u'__', u'__'], [0, u'__', u'__', u'__', u'__', -12, u'__', u'__', u'__', u'__', u'__', u'__', u'__', u'__', u'__', u'__', u'__'], [0, u'__', u'__', u'__', u'__', -12, u'__', u'__', u'__', u'__', u'__', u'__', u'__', -12, u'__', u'__', u'__'], [0, u'__', u'__', u'__', u'__', -12, u'__', u'__', u'__', -4, u'__', u'__', u'__', -12, u'__', u'__', u'__'], [0, -4, u'__', u'__', u'__', -12, u'__', u'__', u'__', -4, u'__', u'__', u'__', -12, u'__', u'__', u'__'], [0, -4, u'__', u'__', u'__', -12, -12, u'__', u'__', -4, u'__', u'__', u'__', -12, u'__', u'__', u'__'], [0, -4, u'__', u'__', u'__', -12, -12, u'__', u'__', -4, u'__', u'__', u'__', -12, 12, u'__', u'__'], [0, -4, u'__', u'__', u'__', -12, -12, u'__', u'__', -4, u'__', u'__', u'__', -12, 12, u'__', 4], [0, -4, u'__', u'__', u'__', -12, -12, u'__', u'__', -4, u'__', u'__', u'__', -12, 12, -20, 4], [0, -4, u'__', u'__', u'__', -12, -12, u'__', u'__', -4, 4, u'__', u'__', -12, 12, -20, 4], [0, -4, u'__', u'__', u'__', -12, -12, u'__', u'__', -4, 4, u'__', 4, -12, 12, -20, 4], [0, -4, u'__', u'__', u'__', -12, -12, u'__', u'__', -4, 4, -4, 4, -12, 12, -20, 4], [0, -4, 4, u'__', u'__', -12, -12, u'__', u'__', -4, 4, -4, 4, -12, 12, -20, 4], [0, -4, 4, -20, u'__', -12, -12, u'__', u'__', -4, 4, -4, 4, -12, 12, -20, 4], [0, -4, 4, -20, -4, -12, -12, u'__', u'__', -4, 4, -4, 4, -12, 12, -20, 4], [0, -4, 4, -20, -4, -12, -12, u'__', -4, -4, 4, -4, 4, -12, 12, -20, 4], [0, -4, 4, -20, -4, -12, -12, -12, -4, -4, 4, -4, 4, -12, 12, -20, 4]]",,[None],[True],"[5, 13, 9, 1, 6, 14, 16, 15, 10, 12, 11, 2, 3, 4, 8, 7, u'__TERM_ACTION__']","[9, 10, 12]",[False],[False],"{u'mouseover': {u'state': {u'target': [], u'time': []}, u'edge': {u'target': [], u'time': []}}, u'click': {u'state': {u'target': [5, 13, 9, 1, 6, 14, 16, 15, 10, 12, 11, 2, 3, 4, 8, 7], u'time': [1115, 1898, 2489, 2921, 3595, 4754, 5649, 6185, 6961, 7489, 8097, 8954, 9452, 10283, 11371, 11889]}, u'edge': {u'target': [], u'time': []}}, u'mouseout': {u'state': {u'target': [], u'time': []}, u'edge': {u'target': [], u'time': []}}}",,,"[22308, 350, 278]",3.2,569544,8.0,0.0,mouselab-mdp,,1
"[{u'Q': -4, u'action': u'__TERM_ACTION__', u'Qs': {u'1': -12, u'9': -4, u'13': -12, u'5': -20}, u'state': [0, -4, -12, -20, 4, -12, -4, -4, -20, 4, -12, 4, 4, -12, -4, 4, -4], u'V': -4}]","[16563, 17483, 19235]","[u'2', u'2', u'1']","[[0, u'__', u'__', u'__', u'__', u'__', u'__', u'__', u'__', u'__', u'__', u'__', u'__', u'__', u'__', u'__', u'__'], [0, u'__', u'__', u'__', u'__', -12, u'__', u'__', u'__', u'__', u'__', u'__', u'__', u'__', u'__', u'__', u'__'], [0, u'__', u'__', u'__', u'__', -12, u'__', u'__', u'__', u'__', u'__', u'__', u'__', -12, u'__', u'__', u'__'], [0, u'__', u'__', u'__', u'__', -12, u'__', u'__', u'__', 4, u'__', u'__', u'__', -12, u'__', u'__', u'__'], [0, u'__', u'__', u'__', u'__', -12, u'__', u'__', u'__', 4, -12, u'__', u'__', -12, u'__', u'__', u'__'], [0, u'__', u'__', u'__', u'__', -12, u'__', u'__', u'__', 4, -12, u'__', 4, -12, u'__', u'__', u'__'], [0, u'__', u'__', u'__', u'__', -12, u'__', u'__', u'__', 4, -12, 4, 4, -12, u'__', u'__', u'__'], [0, -4, u'__', u'__', u'__', -12, u'__', u'__', u'__', 4, -12, 4, 4, -12, u'__', u'__', u'__'], [0, -4, -12, u'__', u'__', -12, u'__', u'__', u'__', 4, -12, 4, 4, -12, u'__', u'__', u'__'], [0, -4, -12, u'__', u'__', -12, -4, u'__', u'__', 4, -12, 4, 4, -12, u'__', u'__', u'__'], [0, -4, -12, u'__', u'__', -12, -4, u'__', u'__', 4, -12, 4, 4, -12, -4, u'__', u'__'], [0, -4, -12, u'__', u'__', -12, -4, u'__', u'__', 4, -12, 4, 4, -12, -4, u'__', -4], [0, -4, -12, u'__', u'__', -12, -4, u'__', u'__', 4, -12, 4, 4, -12, -4, 4, -4], [0, -4, -12, -20, u'__', -12, -4, u'__', u'__', 4, -12, 4, 4, -12, -4, 4, -4], [0, -4, -12, -20, 4, -12, -4, u'__', u'__', 4, -12, 4, 4, -12, -4, 4, -4], [0, -4, -12, -20, 4, -12, -4, u'__', -20, 4, -12, 4, 4, -12, -4, 4, -4], [0, -4, -12, -20, 4, -12, -4, -4, -20, 4, -12, 4, 4, -12, -4, 4, -4]]",,[None],[True],"[5, 13, 9, 10, 12, 11, 1, 2, 6, 14, 16, 15, 3, 4, 8, 7, u'__TERM_ACTION__']","[9, 10, 12]",[False],[False],"{u'mouseover': {u'state': {u'target': [], u'time': []}, u'edge': {u'target': [], u'time': []}}, u'click': {u'state': {u'target': [5, 13, 9, 10, 12, 11, 1, 2, 6, 14, 16, 15, 3, 4, 8, 7], u'time': [865, 1689, 2185, 3521, 4153, 4745, 5369, 5857, 7146, 7849, 8273, 8745, 9306, 10548, 11170, 11577]}, u'edge': {u'target': [], u'time': []}}, u'mouseout': {u'state': {u'target': [], u'time': []}, u'edge': {u'target': [], u'time': []}}}",,,"[16563, 425, 1263]",-4.8,611504,9.0,3.0,mouselab-mdp,,1
"[{u'Q': 28, u'action': u'__TERM_ACTION__', u'Qs': {u'1': 20, u'9': 12, u'13': -4, u'5': 28}, u'state': [0, -4, u'__', u'__', u'__', 12, 12, u'__', 4, 12, -4, u'__', u'__', -20, u'__', u'__', u'__'], u'V': 28}]","[13982, 14878, 15702]","[u'1', u'1', u'0']","[[0, u'__', u'__', u'__', u'__', u'__', u'__', u'__', u'__', u'__', u'__', u'__', u'__', u'__', u'__', u'__', u'__'], [0, u'__', u'__', u'__', u'__', 12, u'__', u'__', u'__', u'__', u'__', u'__', u'__', u'__', u'__', u'__', u'__'], [0, u'__', u'__', u'__', u'__', 12, 12, u'__', u'__', u'__', u'__', u'__', u'__', u'__', u'__', u'__', u'__'], [0, u'__', u'__', u'__', u'__', 12, 12, u'__', 4, u'__', u'__', u'__', u'__', u'__', u'__', u'__', u'__'], [0, u'__', u'__', u'__', u'__', 12, 12, u'__', 4, 12, u'__', u'__', u'__', u'__', u'__', u'__', u'__'], [0, u'__', u'__', u'__', u'__', 12, 12, u'__', 4, 12, -4, u'__', u'__', u'__', u'__', u'__', u'__'], [0, -4, u'__', u'__', u'__', 12, 12, u'__', 4, 12, -4, u'__', u'__', u'__', u'__', u'__', u'__'], [0, -4, u'__', u'__', u'__', 12, 12, u'__', 4, 12, -4, u'__', u'__', -20, u'__', u'__', u'__']]",,[None],[True],"[5, 6, 8, 9, 10, 1, 13, u'__TERM_ACTION__']","[5, 6, 8]",[False],[False],"{u'mouseover': {u'state': {u'target': [], u'time': []}, u'edge': {u'target': [], u'time': []}}, u'click': {u'state': {u'target': [5, 6, 8, 9, 10, 1, 13], u'time': [2372, 3390, 4188, 6004, 6780, 8037, 9076]}, u'edge': {u'target': [], u'time': []}}, u'mouseout': {u'state': {u'target': [], u'time': []}, u'edge': {u'target': [], u'time': []}}}",,,"[13982, 397, 323]",27.65,656257,10.0,14.0,mouselab-mdp,,1
,"[14192, 14823, 15587]","[u'1', u'1', u'2']","[[0, u'__', u'__', u'__', u'__', u'__', u'__', u'__', u'__', u'__', u'__', u'__', u'__', u'__', u'__', u'__', u'__'], [0, u'__', u'__', u'__', u'__', 12, u'__', u'__', u'__', u'__', u'__', u'__', u'__', u'__', u'__', u'__', u'__'], [0, u'__', u'__', u'__', u'__', 12, 4, u'__', u'__', u'__', u'__', u'__', u'__', u'__', u'__', u'__', u'__'], [0, u'__', u'__', u'__', u'__', 12, 4, u'__', -12, u'__', u'__', u'__', u'__', u'__', u'__', u'__', u'__'], [0, u'__', u'__', u'__', u'__', 12, 4, 12, -12, u'__', u'__', u'__', u'__', u'__', u'__', u'__', u'__'], [0, u'__', u'__', u'__', u'__', 12, 4, 12, -12, -12, u'__', u'__', u'__', u'__', u'__', u'__', u'__'], [0, u'__', u'__', u'__', u'__', 12, 4, 12, -12, -12, u'__', u'__', u'__', 12, u'__', u'__', u'__'], [0, u'__', u'__', u'__', u'__', 12, 4, 12, -12, -12, u'__', u'__', u'__', 12, -4, u'__', u'__'], [0, -20, u'__', u'__', u'__', 12, 4, 12, -12, -12, u'__', u'__', u'__', 12, -4, u'__', u'__']]",,[],[],"[5, 6, 8, 7, 9, 13, 14, 1, u'__TERM_ACTION__']","[5, 6, 7]",[],[],"{u'mouseover': {u'state': {u'target': [], u'time': []}, u'edge': {u'target': [], u'time': []}}, u'click': {u'state': {u'target': [5, 6, 8, 7, 9, 13, 14, 1], u'time': [2525, 3398, 4437, 5679, 7445, 8285, 9789, 12237]}, u'edge': {u'target': [], u'time': []}}, u'mouseout': {u'state': {u'target': [], u'time': []}, u'edge': {u'target': [], u'time': []}}}",,,"[14192, 143, 274]",27.6,697473,11.0,4.0,mouselab-mdp,,1
,"[20494, 21229, 22053]","[u'2', u'2', u'3']","[[0, u'__', u'__', u'__', u'__', u'__', u'__', u'__', u'__', u'__', u'__', u'__', u'__', u'__', u'__', u'__', u'__'], [0, u'__', u'__', u'__', u'__', 4, u'__', u'__', u'__', u'__', u'__', u'__', u'__', u'__', u'__', u'__', u'__'], [0, u'__', u'__', u'__', u'__', 4, -20, u'__', u'__', u'__', u'__', u'__', u'__', u'__', u'__', u'__', u'__'], [0, u'__', u'__', u'__', u'__', 4, -20, u'__', u'__', u'__', u'__', u'__', u'__', 4, u'__', u'__', u'__'], [0, u'__', u'__', u'__', u'__', 4, -20, u'__', u'__', u'__', u'__', u'__', u'__', 4, -12, u'__', u'__'], [0, u'__', u'__', u'__', u'__', 4, -20, u'__', u'__', 12, u'__', u'__', u'__', 4, -12, u'__', u'__'], [0, u'__', u'__', u'__', u'__', 4, -20, u'__', u'__', 12, -4, u'__', u'__', 4, -12, u'__', u'__'], [0, -12, u'__', u'__', u'__', 4, -20, u'__', u'__', 12, -4, u'__', u'__', 4, -12, u'__', u'__'], [0, -12, u'__', u'__', u'__', 4, -20, u'__', u'__', 12, -4, u'__', 4, 4, -12, u'__', u'__'], [0, -12, u'__', u'__', u'__', 4, -20, u'__', u'__', 12, -4, u'__', 4, 4, -12, u'__', -12], [0, -12, u'__', u'__', u'__', 4, -20, u'__', u'__', 12, -4, u'__', 4, 4, -12, -12, -12], [0, -12, u'__', u'__', u'__', 4, -20, u'__', u'__', 12, -4, 12, 4, 4, -12, -12, -12]]",,[],[],"[5, 6, 13, 14, 9, 10, 1, 12, 16, 15, 11, u'__TERM_ACTION__']","[9, 10, 11]",[],[],"{u'mouseover': {u'state': {u'target': [], u'time': []}, u'edge': {u'target': [], u'time': []}}, u'click': {u'state': {u'target': [5, 6, 13, 14, 9, 10, 1, 12, 16, 15, 11], u'time': [2764, 3741, 8988, 9844, 10477, 11140, 12293, 15163, 16876, 17388, 18236]}, u'edge': {u'target': [], u'time': []}}, u'mouseout': {u'state': {u'target': [], u'time': []}, u'edge': {u'target': [], u'time': []}}}",,,"[20494, 237, 328]",19.45,737736,12.0,8.0,mouselab-mdp,,1
,"[24292, 25051, 25923]","[u'2', u'2', u'1']","[[0, u'__', u'__', u'__', u'__', u'__', u'__', u'__', u'__', u'__', u'__', u'__', u'__', u'__', u'__', u'__', u'__'], [0, u'__', u'__', u'__', u'__', 4, u'__', u'__', u'__', u'__', u'__', u'__', u'__', u'__', u'__', u'__', u'__'], [0, u'__', u'__', u'__', u'__', 4, u'__', u'__', u'__', -4, u'__', u'__', u'__', u'__', u'__', u'__', u'__'], [0, u'__', u'__', u'__', u'__', 4, u'__', u'__', u'__', -4, u'__', u'__', u'__', 4, u'__', u'__', u'__'], [0, 4, u'__', u'__', u'__', 4, u'__', u'__', u'__', -4, u'__', u'__', u'__', 4, u'__', u'__', u'__'], [0, 4, u'__', u'__', u'__', 4, -12, u'__', u'__', -4, u'__', u'__', u'__', 4, u'__', u'__', u'__'], [0, 4, u'__', u'__', u'__', 4, -12, u'__', u'__', -4, u'__', u'__', u'__', 4, 12, u'__', u'__'], [0, 4, u'__', u'__', u'__', 4, -12, u'__', u'__', -4, u'__', u'__', u'__', 4, 12, u'__', -12], [0, 4, u'__', u'__', u'__', 4, -12, u'__', u'__', -4, u'__', u'__', u'__', 4, 12, -4, -12], [0, 4, -4, u'__', u'__', 4, -12, u'__', u'__', -4, u'__', u'__', u'__', 4, 12, -4, -12], [0, 4, -4, u'__', -4, 4, -12, u'__', u'__', -4, u'__', u'__', u'__', 4, 12, -4, -12], [0, 4, -4, -12, -4, 4, -12, u'__', u'__', -4, u'__', u'__', u'__', 4, 12, -4, -12], [0, 4, -4, -12, -4, 4, -12, u'__', u'__', -4, 12, u'__', u'__', 4, 12, -4, -12], [0, 4, -4, -12, -4, 4, -12, u'__', u'__', -4, 12, -12, u'__', 4, 12, -4, -12], [0, 4, -4, -12, -4, 4, -12, u'__', u'__', -4, 12, -12, 4, 4, 12, -4, -12]]",,[],[],"[5, 9, 13, 1, 6, 14, 16, 15, 2, 4, 3, 10, 11, 12, u'__TERM_ACTION__']","[9, 10, 12]",[],[],"{u'mouseover': {u'state': {u'target': [], u'time': []}, u'edge': {u'target': [], u'time': []}}, u'click': {u'state': {u'target': [5, 9, 13, 1, 6, 14, 16, 15, 2, 4, 3, 10, 11, 12], u'time': [962, 2611, 3225, 3833, 4761, 5522, 6770, 7306, 12850, 13418, 14226, 15313, 16209, 16691]}, u'edge': {u'target': [], u'time': []}}, u'mouseout': {u'state': {u'target': [], u'time': []}, u'edge': {u'target': [], u'time': []}}}",,,"[24292, 266, 371]",11.3,779632,13.0,11.0,mouselab-mdp,,1
,"[8119, 8895, 9552]","[u'2', u'2', u'1']","[[0, u'__', u'__', u'__', u'__', u'__', u'__', u'__', u'__', u'__', u'__', u'__', u'__', u'__', u'__', u'__', u'__'], [0, u'__', u'__', u'__', u'__', -4, u'__', u'__', u'__', u'__', u'__', u'__', u'__', u'__', u'__', u'__', u'__'], [0, u'__', u'__', u'__', u'__', -4, u'__', u'__', u'__', 12, u'__', u'__', u'__', u'__', u'__', u'__', u'__'], [0, u'__', u'__', u'__', u'__', -4, u'__', u'__', u'__', 12, 4, u'__', u'__', u'__', u'__', u'__', u'__'], [0, u'__', u'__', u'__', u'__', -4, u'__', u'__', u'__', 12, 4, -20, u'__', u'__', u'__', u'__', u'__'], [0, u'__', u'__', u'__', u'__', -4, u'__', u'__', u'__', 12, 4, -20, 12, u'__', u'__', u'__', u'__']]",,[],[],"[5, 9, 10, 11, 12, u'__TERM_ACTION__']","[9, 10, 12]",[],[],"{u'mouseover': {u'state': {u'target': [], u'time': []}, u'edge': {u'target': [], u'time': []}}, u'click': {u'state': {u'target': [5, 9, 10, 11, 12], u'time': [2501, 3221, 4269, 5006, 5501]}, u'edge': {u'target': [], u'time': []}}, u'mouseout': {u'state': {u'target': [], u'time': []}, u'edge': {u'target': [], u'time': []}}}",,,"[8119, 277, 165]",27.75,819592,14.0,6.0,mouselab-mdp,,1
,"[6560, 7423, 8047]","[u'2', u'2', u'1']","[[0, u'__', u'__', u'__', u'__', u'__', u'__', u'__', u'__', u'__', u'__', u'__', u'__', u'__', u'__', u'__', u'__'], [0, u'__', u'__', u'__', u'__', 4, u'__', u'__', u'__', u'__', u'__', u'__', u'__', u'__', u'__', u'__', u'__'], [0, u'__', u'__', u'__', u'__', 4, u'__', u'__', u'__', 20, u'__', u'__', u'__', u'__', u'__', u'__', u'__'], [0, u'__', u'__', u'__', u'__', 4, u'__', u'__', u'__', 20, 4, u'__', u'__', u'__', u'__', u'__', u'__'], [0, u'__', u'__', u'__', u'__', 4, u'__', u'__', u'__', 20, 4, u'__', 12, u'__', u'__', u'__', u'__']]",,[],[],"[5, 9, 10, 12, u'__TERM_ACTION__']","[9, 10, 12]",[],[],"{u'mouseover': {u'state': {u'target': [], u'time': []}, u'edge': {u'target': [], u'time': []}}, u'click': {u'state': {u'target': [5, 9, 10, 12], u'time': [934, 2391, 3374, 4349]}, u'edge': {u'target': [], u'time': []}}, u'mouseout': {u'state': {u'target': [], u'time': []}, u'edge': {u'target': [], u'time': []}}}",,,"[6560, 360, 134]",35.8,863984,15.0,2.0,mouselab-mdp,,1
,"[6113, 6704, 7312]","[u'2', u'2', u'3']","[[0, u'__', u'__', u'__', u'__', u'__', u'__', u'__', u'__', u'__', u'__', u'__', u'__', u'__', u'__', u'__', u'__'], [0, u'__', u'__', u'__', u'__', -20, u'__', u'__', u'__', u'__', u'__', u'__', u'__', u'__', u'__', u'__', u'__'], [0, u'__', u'__', u'__', u'__', -20, u'__', u'__', u'__', 20, u'__', u'__', u'__', u'__', u'__', u'__', u'__'], [0, u'__', u'__', u'__', u'__', -20, u'__', u'__', u'__', 20, 4, u'__', u'__', u'__', u'__', u'__', u'__'], [0, u'__', u'__', u'__', u'__', -20, u'__', u'__', u'__', 20, 4, 12, u'__', u'__', u'__', u'__', u'__']]",,[],[],"[5, 9, 10, 11, u'__TERM_ACTION__']","[9, 10, 11]",[],[],"{u'mouseover': {u'state': {u'target': [], u'time': []}, u'edge': {u'target': [], u'time': []}}, u'click': {u'state': {u'target': [5, 9, 10, 11], u'time': [1183, 2374, 3535, 4200]}, u'edge': {u'target': [], u'time': []}}, u'mouseout': {u'state': {u'target': [], u'time': []}, u'edge': {u'target': [], u'time': []}}}",,,"[6113, 89, 113]",35.8,912665,16.0,12.0,mouselab-mdp,,1
"[{u'Q': -4, u'action': u'__TERM_ACTION__', u'Qs': {u'1': 20, u'9': 36, u'13': -4, u'5': -4}, u'state': [0, 4, u'__', u'__', u'__', u'__', u'__', u'__', u'__', u'__', u'__', u'__', u'__', -4, u'__', u'__', u'__'], u'V': 36}]","[12810, 16468, 23710]","[u'1', u'1', u'0']","[[0, u'__', u'__', u'__', u'__', u'__', u'__', u'__', u'__', u'__', u'__', u'__', u'__', u'__', u'__', u'__', u'__'], [0, u'__', u'__', u'__', u'__', u'__', u'__', u'__', u'__', u'__', u'__', u'__', u'__', -4, u'__', u'__', u'__'], [0, 4, u'__', u'__', u'__', u'__', u'__', u'__', u'__', u'__', u'__', u'__', u'__', -4, u'__', u'__', u'__']]",,[None],[False],"[13, 1, u'__TERM_ACTION__']","[5, 6, 8]",[True],[False],"{u'mouseover': {u'state': {u'target': [], u'time': []}, u'edge': {u'target': [], u'time': []}}, u'click': {u'state': {u'target': [13, 1], u'time': [3388, 5519]}, u'edge': {u'target': [], u'time': []}}, u'mouseout': {u'state': {u'target': [], u'time': []}, u'edge': {u'target': [], u'time': []}}}",,,"[12809, 3139, 6736]",-6.5,242105,1.0,12.0,mouselab-mdp,,2
"[{u'Q': 36, u'action': u'__TERM_ACTION__', u'Qs': {u'1': 12, u'9': 36, u'13': 28, u'5': 4}, u'state': [0, u'__', u'__', u'__', u'__', u'__', u'__', u'__', u'__', 4, u'__', -20, u'__', u'__', u'__', u'__', u'__'], u'V': 36}]","[9565, 11224, 12690]","[u'2', u'2', u'1']","[[0, u'__', u'__', u'__', u'__', u'__', u'__', u'__', u'__', u'__', u'__', u'__', u'__', u'__', u'__', u'__', u'__'], [0, u'__', u'__', u'__', u'__', u'__', u'__', u'__', u'__', 4, u'__', u'__', u'__', u'__', u'__', u'__', u'__'], [0, u'__', u'__', u'__', u'__', u'__', u'__', u'__', u'__', 4, u'__', -20, u'__', u'__', u'__', u'__', u'__']]",,[None],[True],"[9, 11, u'__TERM_ACTION__']","[9, 10, 12]",[False],[False],"{u'mouseover': {u'state': {u'target': [], u'time': []}, u'edge': {u'target': [], u'time': []}}, u'click': {u'state': {u'target': [9, 11], u'time': [4441, 7855]}, u'edge': {u'target': [], u'time': []}}, u'mouseout': {u'state': {u'target': [], u'time': []}, u'edge': {u'target': [], u'time': []}}}",,,"[9565, 1149, 968]",33.5,296826,2.0,15.0,mouselab-mdp,,2
"[{u'Q': -20, u'action': u'__TERM_ACTION__', u'Qs': {u'1': 4, u'9': 20, u'13': -20, u'5': -4}, u'state': [0, -12, u'__', u'__', u'__', u'__', u'__', u'__', u'__', u'__', u'__', u'__', u'__', 4, u'__', u'__', -12], u'V': 20}]","[8766, 10242, 11553]","[u'3', u'3', u'0']","[[0, u'__', u'__', u'__', u'__', u'__', u'__', u'__', u'__', u'__', u'__', u'__', u'__', u'__', u'__', u'__', u'__'], [0, -12, u'__', u'__', u'__', u'__', u'__', u'__', u'__', u'__', u'__', u'__', u'__', u'__', u'__', u'__', u'__'], [0, -12, u'__', u'__', u'__', u'__', u'__', u'__', u'__', u'__', u'__', u'__', u'__', 4, u'__', u'__', u'__'], [0, -12, u'__', u'__', u'__', u'__', u'__', u'__', u'__', u'__', u'__', u'__', u'__', 4, u'__', u'__', -12]]",,[None],[True],"[1, 13, 16, u'__TERM_ACTION__']","[13, 14, 15]",[True],[False],"{u'mouseover': {u'state': {u'target': [], u'time': []}, u'edge': {u'target': [], u'time': []}}, u'click': {u'state': {u'target': [1, 13, 16], u'time': [3443, 5632, 7130]}, u'edge': {u'target': [], u'time': []}}, u'mouseout': {u'state': {u'target': [], u'time': []}, u'edge': {u'target': [], u'time': []}}}",,,"[8766, 977, 809]",-23.75,348416,3.0,8.0,mouselab-mdp,,2
"[{u'Q': -4, u'action': u'__TERM_ACTION__', u'Qs': {u'1': -12, u'9': -4, u'13': -12, u'5': -20}, u'state': [0, -4, -12, -20, u'__', -12, -4, -4, -20, 4, -12, 4, 4, -12, -4, 4, -4], u'V': -4}]","[35552, 37318, 38926]","[u'2', u'2', u'3']","[[0, u'__', u'__', u'__', u'__', u'__', u'__', u'__', u'__', u'__', u'__', u'__', u'__', u'__', u'__', u'__', u'__'], [0, u'__', u'__', u'__', u'__', u'__', u'__', u'__', u'__', 4, u'__', u'__', u'__', u'__', u'__', u'__', u'__'], [0, u'__', u'__', u'__', u'__', u'__', u'__', u'__', u'__', 4, u'__', 4, u'__', u'__', u'__', u'__', u'__'], [0, u'__', u'__', u'__', u'__', u'__', u'__', u'__', u'__', 4, u'__', 4, 4, u'__', u'__', u'__', u'__'], [0, u'__', u'__', u'__', u'__', u'__', u'__', u'__', u'__', 4, -12, 4, 4, u'__', u'__', u'__', u'__'], [0, u'__', u'__', u'__', u'__', u'__', -4, u'__', u'__', 4, -12, 4, 4, u'__', u'__', u'__', u'__'], [0, u'__', u'__', u'__', u'__', u'__', -4, u'__', u'__', 4, -12, 4, 4, -12, u'__', u'__', u'__'], [0, -4, u'__', u'__', u'__', u'__', -4, u'__', u'__', 4, -12, 4, 4, -12, u'__', u'__', u'__'], [0, -4, -12, u'__', u'__', u'__', -4, u'__', u'__', 4, -12, 4, 4, -12, u'__', u'__', u'__'], [0, -4, -12, -20, u'__', u'__', -4, u'__', u'__', 4, -12, 4, 4, -12, u'__', u'__', u'__'], [0, -4, -12, -20, u'__', u'__', -4, u'__', u'__', 4, -12, 4, 4, -12, u'__', 4, u'__'], [0, -4, -12, -20, u'__', u'__', -4, u'__', u'__', 4, -12, 4, 4, -12, u'__', 4, -4], [0, -4, -12, -20, u'__', -12, -4, u'__', u'__', 4, -12, 4, 4, -12, u'__', 4, -4], [0, -4, -12, -20, u'__', -12, -4, -4, u'__', 4, -12, 4, 4, -12, u'__', 4, -4], [0, -4, -12, -20, u'__', -12, -4, -4, -20, 4, -12, 4, 4, -12, u'__', 4, -4], [0, -4, -12, -20, u'__', -12, -4, -4, -20, 4, -12, 4, 4, -12, -4, 4, -4]]",,[None],[True],"[9, 11, 12, 10, 6, 13, 1, 2, 3, 15, 16, 5, 7, 8, 14, u'__TERM_ACTION__']","[9, 10, 11]",[False],[False],"{u'mouseover': {u'state': {u'target': [], u'time': []}, u'edge': {u'target': [], u'time': []}}, u'click': {u'state': {u'target': [9, 11, 12, 10, 6, 13, 1, 2, 3, 15, 16, 5, 7, 8, 14], u'time': [1485, 6020, 10429, 11591, 16385, 18536, 19333, 20408, 21308, 22510, 23847, 26560, 27674, 28680, 30863]}, u'edge': {u'target': [], u'time': []}}, u'mouseout': {u'state': {u'target': [], u'time': []}, u'edge': {u'target': [], u'time': []}}}",,,"[35551, 1266, 1110]",-22.75,409655,4.0,3.0,mouselab-mdp,,2
"[{u'Q': -4, u'action': u'__TERM_ACTION__', u'Qs': {u'1': -4, u'9': 12, u'13': 12, u'5': -4}, u'state': [0, 4, u'__', -12, -4, 4, u'__', 4, u'__', u'__', u'__', -12, u'__', u'__', u'__', u'__', u'__'], u'V': 12}]","[16776, 17657, 18766]","[u'1', u'1', u'2']","[[0, u'__', u'__', u'__', u'__', u'__', u'__', u'__', u'__', u'__', u'__', u'__', u'__', u'__', u'__', u'__', u'__'], [0, 4, u'__', u'__', u'__', u'__', u'__', u'__', u'__', u'__', u'__', u'__', u'__', u'__', u'__', u'__', u'__'], [0, 4, u'__', u'__', -4, u'__', u'__', u'__', u'__', u'__', u'__', u'__', u'__', u'__', u'__', u'__', u'__'], [0, 4, u'__', -12, -4, u'__', u'__', u'__', u'__', u'__', u'__', u'__', u'__', u'__', u'__', u'__', u'__'], [0, 4, u'__', -12, -4, u'__', u'__', u'__', u'__', u'__', u'__', -12, u'__', u'__', u'__', u'__', u'__'], [0, 4, u'__', -12, -4, u'__', u'__', 4, u'__', u'__', u'__', -12, u'__', u'__', u'__', u'__', u'__'], [0, 4, u'__', -12, -4, 4, u'__', 4, u'__', u'__', u'__', -12, u'__', u'__', u'__', u'__', u'__']]",,[None],[True],"[1, 4, 3, 11, 7, 5, u'__TERM_ACTION__']","[5, 6, 7]",[True],[False],"{u'mouseover': {u'state': {u'target': [], u'time': []}, u'edge': {u'target': [], u'time': []}}, u'click': {u'state': {u'target': [1, 4, 3, 11, 7, 5], u'time': [4865, 6419, 7481, 13134, 14305, 15700]}, u'edge': {u'target': [], u'time': []}}, u'mouseout': {u'state': {u'target': [], u'time': []}, u'edge': {u'target': [], u'time': []}}}",,,"[16775, 370, 618]",-11.5,465829,5.0,11.0,mouselab-mdp,,2
"[{u'Q': 28, u'action': u'__TERM_ACTION__', u'Qs': {u'1': 20, u'9': 28, u'13': -4, u'5': 28}, u'state': [0, u'__', u'__', u'__', u'__', u'__', u'__', u'__', u'__', 4, u'__', -12, 20, u'__', u'__', u'__', u'__'], u'V': 28}]","[6798, 7736, 8743]","[u'2', u'2', u'1']","[[0, u'__', u'__', u'__', u'__', u'__', u'__', u'__', u'__', u'__', u'__', u'__', u'__', u'__', u'__', u'__', u'__'], [0, u'__', u'__', u'__', u'__', u'__', u'__', u'__', u'__', 4, u'__', u'__', u'__', u'__', u'__', u'__', u'__'], [0, u'__', u'__', u'__', u'__', u'__', u'__', u'__', u'__', 4, u'__', -12, u'__', u'__', u'__', u'__', u'__'], [0, u'__', u'__', u'__', u'__', u'__', u'__', u'__', u'__', 4, u'__', -12, 20, u'__', u'__', u'__', u'__']]",,[None],[True],"[9, 11, 12, u'__TERM_ACTION__']","[9, 10, 12]",[False],[False],"{u'mouseover': {u'state': {u'target': [], u'time': []}, u'edge': {u'target': [], u'time': []}}, u'click': {u'state': {u'target': [9, 11, 12], u'time': [2355, 3671, 4874]}, u'edge': {u'target': [], u'time': []}}, u'mouseout': {u'state': {u'target': [], u'time': []}, u'edge': {u'target': [], u'time': []}}}",,,"[6798, 430, 509]",24.25,517679,6.0,5.0,mouselab-mdp,,2
"[{u'Q': 36, u'action': u'__TERM_ACTION__', u'Qs': {u'1': 28, u'9': 36, u'13': -4, u'5': 20}, u'state': [0, u'__', u'__', u'__', u'__', 4, u'__', -20, 4, 20, u'__', -4, 12, -12, u'__', 12, -4], u'V': 36}]","[15449, 16405, 17493]","[u'2', u'2', u'1']","[[0, u'__', u'__', u'__', u'__', u'__', u'__', u'__', u'__', u'__', u'__', u'__', u'__', u'__', u'__', u'__', u'__'], [0, u'__', u'__', u'__', u'__', 4, u'__', u'__', u'__', u'__', u'__', u'__', u'__', u'__', u'__', u'__', u'__'], [0, u'__', u'__', u'__', u'__', 4, u'__', -20, u'__', u'__', u'__', u'__', u'__', u'__', u'__', u'__', u'__'], [0, u'__', u'__', u'__', u'__', 4, u'__', -20, 4, u'__', u'__', u'__', u'__', u'__', u'__', u'__', u'__'], [0, u'__', u'__', u'__', u'__', 4, u'__', -20, 4, u'__', u'__', u'__', u'__', u'__', u'__', u'__', -4], [0, u'__', u'__', u'__', u'__', 4, u'__', -20, 4, u'__', u'__', u'__', u'__', u'__', u'__', 12, -4], [0, u'__', u'__', u'__', u'__', 4, u'__', -20, 4, u'__', u'__', u'__', u'__', -12, u'__', 12, -4], [0, u'__', u'__', u'__', u'__', 4, u'__', -20, 4, 20, u'__', u'__', u'__', -12, u'__', 12, -4], [0, u'__', u'__', u'__', u'__', 4, u'__', -20, 4, 20, u'__', -4, u'__', -12, u'__', 12, -4], [0, u'__', u'__', u'__', u'__', 4, u'__', -20, 4, 20, u'__', -4, 12, -12, u'__', 12, -4]]",,[None],[True],"[5, 7, 8, 16, 15, 13, 9, 11, 12, u'__TERM_ACTION__']","[9, 10, 12]",[False],[False],"{u'mouseover': {u'state': {u'target': [], u'time': []}, u'edge': {u'target': [], u'time': []}}, u'click': {u'state': {u'target': [5, 7, 8, 16, 15, 13, 9, 11, 12], u'time': [2157, 3641, 4901, 6872, 7801, 9062, 11415, 13275, 14110]}, u'edge': {u'target': [], u'time': []}}, u'mouseout': {u'state': {u'target': [], u'time': []}, u'edge': {u'target': [], u'time': []}}}",,,"[15449, 451, 594]",24.75,569570,7.0,2.0,mouselab-mdp,,2
"[{u'Q': 44, u'action': u'__TERM_ACTION__', u'Qs': {u'1': 44, u'9': 12, u'13': -4, u'5': -20}, u'state': [0, 12, u'__', -4, 20, u'__', u'__', u'__', u'__', -20, u'__', u'__', u'__', u'__', u'__', u'__', u'__'], u'V': 44}]","[9773, 10711, 11758]","[u'0', u'0', u'3']","[[0, u'__', u'__', u'__', u'__', u'__', u'__', u'__', u'__', u'__', u'__', u'__', u'__', u'__', u'__', u'__', u'__'], [0, u'__', u'__', u'__', u'__', u'__', u'__', u'__', u'__', -20, u'__', u'__', u'__', u'__', u'__', u'__', u'__'], [0, 12, u'__', u'__', u'__', u'__', u'__', u'__', u'__', -20, u'__', u'__', u'__', u'__', u'__', u'__', u'__'], [0, 12, u'__', -4, u'__', u'__', u'__', u'__', u'__', -20, u'__', u'__', u'__', u'__', u'__', u'__', u'__'], [0, 12, u'__', -4, 20, u'__', u'__', u'__', u'__', -20, u'__', u'__', u'__', u'__', u'__', u'__', u'__']]",,[None],[True],"[9, 1, 3, 4, u'__TERM_ACTION__']","[1, 2, 4]",[False],[False],"{u'mouseover': {u'state': {u'target': [], u'time': []}, u'edge': {u'target': [], u'time': []}}, u'click': {u'state': {u'target': [9, 1, 3, 4], u'time': [4864, 6509, 7433, 8382]}, u'edge': {u'target': [], u'time': []}}, u'mouseout': {u'state': {u'target': [], u'time': []}, u'edge': {u'target': [], u'time': []}}}",,,"[9773, 425, 545]",39.0,628222,8.0,13.0,mouselab-mdp,,2
"[{u'Q': 36, u'action': u'__TERM_ACTION__', u'Qs': {u'1': -12, u'9': 12, u'13': -4, u'5': 36}, u'state': [0, -4, u'__', u'__', u'__', 12, u'__', -4, 4, 12, u'__', -12, -20, -12, u'__', u'__', u'__'], u'V': 36}]","[11852, 12722, 13758]","[u'1', u'1', u'0']","[[0, u'__', u'__', u'__', u'__', u'__', u'__', u'__', u'__', u'__', u'__', u'__', u'__', u'__', u'__', u'__', u'__'], [0, u'__', u'__', u'__', u'__', u'__', u'__', u'__', u'__', 12, u'__', u'__', u'__', u'__', u'__', u'__', u'__'], [0, u'__', u'__', u'__', u'__', u'__', u'__', u'__', u'__', 12, u'__', -12, u'__', u'__', u'__', u'__', u'__'], [0, u'__', u'__', u'__', u'__', u'__', u'__', u'__', u'__', 12, u'__', -12, -20, u'__', u'__', u'__', u'__'], [0, -4, u'__', u'__', u'__', u'__', u'__', u'__', u'__', 12, u'__', -12, -20, u'__', u'__', u'__', u'__'], [0, -4, u'__', u'__', u'__', u'__', u'__', u'__', u'__', 12, u'__', -12, -20, -12, u'__', u'__', u'__'], [0, -4, u'__', u'__', u'__', 12, u'__', u'__', u'__', 12, u'__', -12, -20, -12, u'__', u'__', u'__'], [0, -4, u'__', u'__', u'__', 12, u'__', -4, u'__', 12, u'__', -12, -20, -12, u'__', u'__', u'__'], [0, -4, u'__', u'__', u'__', 12, u'__', -4, 4, 12, u'__', -12, -20, -12, u'__', u'__', u'__']]",,[None],[True],"[9, 11, 12, 1, 13, 5, 7, 8, u'__TERM_ACTION__']","[5, 6, 8]",[False],[False],"{u'mouseover': {u'state': {u'target': [], u'time': []}, u'edge': {u'target': [], u'time': []}}, u'click': {u'state': {u'target': [9, 11, 12, 1, 13, 5, 7, 8], u'time': [1884, 2942, 3673, 6228, 7383, 8275, 9680, 10605]}, u'edge': {u'target': [], u'time': []}}, u'mouseout': {u'state': {u'target': [], u'time': []}, u'edge': {u'target': [], u'time': []}}}",,,"[11852, 367, 543]",26.0,691359,9.0,1.0,mouselab-mdp,,2
"[{u'Q': 4, u'action': u'__TERM_ACTION__', u'Qs': {u'1': -4, u'9': 4, u'13': 4, u'5': -28}, u'state': [0, -4, u'__', u'__', u'__', -12, u'__', u'__', u'__', -4, 4, -4, 4, -12, u'__', u'__', u'__'], u'V': 4}]","[13726, 14584, 15696]","[u'2', u'2', u'1']","[[0, u'__', u'__', u'__', u'__', u'__', u'__', u'__', u'__', u'__', u'__', u'__', u'__', u'__', u'__', u'__', u'__'], [0, u'__', u'__', u'__', u'__', u'__', u'__', u'__', u'__', -4, u'__', u'__', u'__', u'__', u'__', u'__', u'__'], [0, -4, u'__', u'__', u'__', u'__', u'__', u'__', u'__', -4, u'__', u'__', u'__', u'__', u'__', u'__', u'__'], [0, -4, u'__', u'__', u'__', u'__', u'__', u'__', u'__', -4, u'__', u'__', u'__', -12, u'__', u'__', u'__'], [0, -4, u'__', u'__', u'__', -12, u'__', u'__', u'__', -4, u'__', u'__', u'__', -12, u'__', u'__', u'__'], [0, -4, u'__', u'__', u'__', -12, u'__', u'__', u'__', -4, u'__', u'__', 4, -12, u'__', u'__', u'__'], [0, -4, u'__', u'__', u'__', -12, u'__', u'__', u'__', -4, u'__', -4, 4, -12, u'__', u'__', u'__'], [0, -4, u'__', u'__', u'__', -12, u'__', u'__', u'__', -4, 4, -4, 4, -12, u'__', u'__', u'__']]",,[None],[True],"[9, 1, 13, 5, 12, 11, 10, u'__TERM_ACTION__']","[9, 10, 12]",[False],[False],"{u'mouseover': {u'state': {u'target': [], u'time': []}, u'edge': {u'target': [], u'time': []}}, u'click': {u'state': {u'target': [9, 1, 13, 5, 12, 11, 10], u'time': [2967, 5024, 5955, 6829, 8318, 9490, 12510]}, u'edge': {u'target': [], u'time': []}}, u'mouseout': {u'state': {u'target': [], u'time': []}, u'edge': {u'target': [], u'time': []}}}",,,"[13725, 346, 613]",-4.75,743055,10.0,0.0,mouselab-mdp,,2
,"[13061, 13931, 15000]","[u'1', u'1', u'2']","[[0, u'__', u'__', u'__', u'__', u'__', u'__', u'__', u'__', u'__', u'__', u'__', u'__', u'__', u'__', u'__', u'__'], [0, u'__', u'__', u'__', u'__', u'__', u'__', u'__', u'__', u'__', u'__', u'__', u'__', 4, u'__', u'__', u'__'], [0, u'__', u'__', u'__', u'__', u'__', u'__', u'__', u'__', u'__', u'__', u'__', u'__', 4, u'__', u'__', -12], [0, u'__', u'__', u'__', u'__', u'__', u'__', u'__', u'__', u'__', u'__', u'__', u'__', 4, u'__', -12, -12], [0, u'__', u'__', u'__', u'__', u'__', u'__', 12, u'__', u'__', u'__', u'__', u'__', 4, u'__', -12, -12], [0, u'__', u'__', u'__', u'__', -4, u'__', 12, u'__', u'__', u'__', u'__', u'__', 4, u'__', -12, -12], [0, u'__', u'__', u'__', u'__', -4, 4, 12, u'__', u'__', u'__', u'__', u'__', 4, u'__', -12, -12]]",,[],[],"[13, 16, 15, 7, 5, 6, u'__TERM_ACTION__']","[5, 6, 7]",[],[],"{u'mouseover': {u'state': {u'target': [], u'time': []}, u'edge': {u'target': [], u'time': []}}, u'click': {u'state': {u'target': [13, 16, 15, 7, 5, 6], u'time': [5435, 6927, 7914, 9273, 10179, 11126]}, u'edge': {u'target': [], u'time': []}}, u'mouseout': {u'state': {u'target': [], u'time': []}, u'edge': {u'target': [], u'time': []}}}",,,"[13061, 366, 567]",4.5,795632,11.0,6.0,mouselab-mdp,,2
,"[6735, 8561, 9581]","[u'0', u'0', u'3']","[[0, u'__', u'__', u'__', u'__', u'__', u'__', u'__', u'__', u'__', u'__', u'__', u'__', u'__', u'__', u'__', u'__'], [0, u'__', u'__', u'__', u'__', u'__', u'__', u'__', u'__', -20, u'__', u'__', u'__', u'__', u'__', u'__', u'__'], [0, 12, u'__', u'__', u'__', u'__', u'__', u'__', u'__', -20, u'__', u'__', u'__', u'__', u'__', u'__', u'__'], [0, 12, u'__', u'__', 4, u'__', u'__', u'__', u'__', -20, u'__', u'__', u'__', u'__', u'__', u'__', u'__'], [0, 12, 4, u'__', 4, u'__', u'__', u'__', u'__', -20, u'__', u'__', u'__', u'__', u'__', u'__', u'__']]",,[],[],"[9, 1, 4, 2, u'__TERM_ACTION__']","[1, 2, 4]",[],[],"{u'mouseover': {u'state': {u'target': [], u'time': []}, u'edge': {u'target': [], u'time': []}}, u'click': {u'state': {u'target': [9, 1, 4, 2], u'time': [1454, 2493, 3857, 5261]}, u'edge': {u'target': [], u'time': []}}, u'mouseout': {u'state': {u'target': [], u'time': []}, u'edge': {u'target': [], u'time': []}}}",,,"[6735, 1328, 526]",15.0,854513,12.0,7.0,mouselab-mdp,,2
,"[5945, 6876, 7791]","[u'2', u'2', u'1']","[[0, u'__', u'__', u'__', u'__', u'__', u'__', u'__', u'__', u'__', u'__', u'__', u'__', u'__', u'__', u'__', u'__'], [0, u'__', u'__', u'__', u'__', -12, u'__', u'__', u'__', u'__', u'__', u'__', u'__', u'__', u'__', u'__', u'__'], [0, u'__', u'__', u'__', u'__', -12, u'__', u'__', u'__', 4, u'__', u'__', u'__', u'__', u'__', u'__', u'__'], [0, u'__', u'__', u'__', u'__', -12, u'__', u'__', u'__', 4, u'__', u'__', 20, u'__', u'__', u'__', u'__']]",,[],[],"[5, 9, 12, u'__TERM_ACTION__']","[9, 10, 12]",[],[],"{u'mouseover': {u'state': {u'target': [], u'time': []}, u'edge': {u'target': [], u'time': []}}, u'click': {u'state': {u'target': [5, 9, 12], u'time': [1961, 3352, 4587]}, u'edge': {u'target': [], u'time': []}}, u'mouseout': {u'state': {u'target': [], u'time': []}, u'edge': {u'target': [], u'time': []}}}",,,"[5944, 440, 420]",24.25,907393,13.0,10.0,mouselab-mdp,,2
,"[9919, 10670, 11644]","[u'1', u'1', u'0']","[[0, u'__', u'__', u'__', u'__', u'__', u'__', u'__', u'__', u'__', u'__', u'__', u'__', u'__', u'__', u'__', u'__'], [0, u'__', u'__', u'__', u'__', u'__', u'__', u'__', u'__', u'__', u'__', u'__', u'__', -20, u'__', u'__', u'__'], [0, u'__', u'__', u'__', u'__', 12, u'__', u'__', u'__', u'__', u'__', u'__', u'__', -20, u'__', u'__', u'__'], [0, u'__', u'__', u'__', u'__', 12, u'__', -4, u'__', u'__', u'__', u'__', u'__', -20, u'__', u'__', u'__'], [0, u'__', u'__', u'__', u'__', 12, u'__', -4, 4, u'__', u'__', u'__', u'__', -20, u'__', u'__', u'__'], [0, u'__', u'__', u'__', u'__', 12, 12, -4, 4, u'__', u'__', u'__', u'__', -20, u'__', u'__', u'__']]",,[],[],"[13, 5, 7, 8, 6, u'__TERM_ACTION__']","[5, 6, 8]",[],[],"{u'mouseover': {u'state': {u'target': [], u'time': []}, u'edge': {u'target': [], u'time': []}}, u'click': {u'state': {u'target': [13, 5, 7, 8, 6], u'time': [4860, 5918, 7012, 7856, 8739]}, u'edge': {u'target': [], u'time': []}}, u'mouseout': {u'state': {u'target': [], u'time': []}, u'edge': {u'target': [], u'time': []}}}",,,"[9919, 252, 474]",21.75,960127,14.0,14.0,mouselab-mdp,,2
,"[21317, 22288, 23099]","[u'2', u'2', u'1']","[[0, u'__', u'__', u'__', u'__', u'__', u'__', u'__', u'__', u'__', u'__', u'__', u'__', u'__', u'__', u'__', u'__'], [0, u'__', u'__', u'__', u'__', u'__', u'__', u'__', u'__', u'__', u'__', u'__', u'__', -12, u'__', u'__', u'__'], [0, u'__', u'__', u'__', u'__', 4, u'__', u'__', u'__', u'__', u'__', u'__', u'__', -12, u'__', u'__', u'__'], [0, u'__', u'__', u'__', u'__', 4, u'__', -12, u'__', u'__', u'__', u'__', u'__', -12, u'__', u'__', u'__'], [0, u'__', u'__', u'__', u'__', 4, u'__', -12, 20, u'__', u'__', u'__', u'__', -12, u'__', u'__', u'__'], [0, u'__', u'__', u'__', u'__', 4, -20, -12, 20, u'__', u'__', u'__', u'__', -12, u'__', u'__', u'__'], [0, -20, u'__', u'__', u'__', 4, -20, -12, 20, u'__', u'__', u'__', u'__', -12, u'__', u'__', u'__'], [0, -20, u'__', u'__', u'__', 4, -20, -12, 20, 4, u'__', u'__', u'__', -12, u'__', u'__', u'__'], [0, -20, u'__', u'__', u'__', 4, -20, -12, 20, 4, u'__', u'__', 4, -12, u'__', u'__', u'__'], [0, -20, u'__', u'__', u'__', 4, -20, -12, 20, 4, -12, u'__', 4, -12, u'__', u'__', u'__'], [0, -20, u'__', u'__', u'__', 4, -20, -12, 20, 4, -12, -4, 4, -12, u'__', u'__', u'__']]",,[],[],"[13, 5, 7, 8, 6, 1, 9, 12, 10, 11, u'__TERM_ACTION__']","[9, 10, 12]",[],[],"{u'mouseover': {u'state': {u'target': [], u'time': []}, u'edge': {u'target': [], u'time': []}}, u'click': {u'state': {u'target': [13, 5, 7, 8, 6, 1, 9, 12, 10, 11], u'time': [4335, 5386, 6541, 7336, 8535, 12356, 13242, 14108, 14902, 19419]}, u'edge': {u'target': [], u'time': []}}, u'mouseout': {u'state': {u'target': [], u'time': []}, u'edge': {u'target': [], u'time': []}}}",,,"[21317, 481, 323]",-16.5,1011068,15.0,9.0,mouselab-mdp,,2
,"[4048, 4850, 5778]","[u'1', u'1', u'2']","[[0, u'__', u'__', u'__', u'__', u'__', u'__', u'__', u'__', u'__', u'__', u'__', u'__', u'__', u'__', u'__', u'__'], [0, u'__', u'__', u'__', u'__', 12, u'__', u'__', u'__', u'__', u'__', u'__', u'__', u'__', u'__', u'__', u'__'], [0, u'__', u'__', u'__', u'__', 12, u'__', 12, u'__', u'__', u'__', u'__', u'__', u'__', u'__', u'__', u'__'], [0, u'__', u'__', u'__', u'__', 12, 4, 12, u'__', u'__', u'__', u'__', u'__', u'__', u'__', u'__', u'__']]",,[],[],"[5, 7, 6, u'__TERM_ACTION__']","[5, 6, 7]",[],[],"{u'mouseover': {u'state': {u'target': [], u'time': []}, u'edge': {u'target': [], u'time': []}}, u'click': {u'state': {u'target': [5, 7, 6], u'time': [1420, 2234, 2884]}, u'edge': {u'target': [], u'time': []}}, u'mouseout': {u'state': {u'target': [], u'time': []}, u'edge': {u'target': [], u'time': []}}}",,,"[4047, 312, 439]",24.25,1063087,16.0,4.0,mouselab-mdp,,2
"[{u'Q': 28, u'action': u'__TERM_ACTION__', u'Qs': {u'1': 20, u'9': -44, u'13': 28, u'5': 20}, u'state': [0, u'__', u'__', u'__', u'__', u'__', u'__', u'__', u'__', u'__', u'__', u'__', u'__', 12, u'__', u'__', u'__'], u'V': 28}]","[7634, 20384, 24057]","[u'3', u'3', u'0']","[[0, u'__', u'__', u'__', u'__', u'__', u'__', u'__', u'__', u'__', u'__', u'__', u'__', u'__', u'__', u'__', u'__'], [0, u'__', u'__', u'__', u'__', u'__', u'__', u'__', u'__', u'__', u'__', u'__', u'__', 12, u'__', u'__', u'__']]",,[None],[True],"[13, u'__TERM_ACTION__']","[13, 14, 15]",[False],[False],"{u'mouseover': {u'state': {u'target': [], u'time': []}, u'edge': {u'target': [], u'time': []}}, u'click': {u'state': {u'target': [13], u'time': [6072]}, u'edge': {u'target': [], u'time': []}}, u'mouseout': {u'state': {u'target': [], u'time': []}, u'edge': {u'target': [], u'time': []}}}",,,"[7630, 12185, 3147]",18.75,304316,1.0,7.0,mouselab-mdp,,3
"[{u'Q': 12, u'action': u'__TERM_ACTION__', u'Qs': {u'1': 44, u'9': 12, u'13': -4, u'5': -20}, u'state': [0, u'__', u'__', u'__', u'__', u'__', u'__', u'__', u'__', u'__', u'__', u'__', u'__', u'__', u'__', u'__', u'__'], u'V': 44}]","[2026, 4220, 6643]","[u'2', u'2', u'1']","[[0, u'__', u'__', u'__', u'__', u'__', u'__', u'__', u'__', u'__', u'__', u'__', u'__', u'__', u'__', u'__', u'__']]",,[None],[True],[u'__TERM_ACTION__'],"[9, 10, 12]",[True],[False],"{u'mouseover': {u'state': {u'target': [], u'time': []}, u'edge': {u'target': [], u'time': []}}, u'click': {u'state': {u'target': [], u'time': []}, u'edge': {u'target': [], u'time': []}}, u'mouseout': {u'state': {u'target': [], u'time': []}, u'edge': {u'target': [], u'time': []}}}",,,"[2025, 1654, 1904]",-20.0,357235,2.0,13.0,mouselab-mdp,,3
"[{u'Q': 20, u'action': u'__TERM_ACTION__', u'Qs': {u'1': 20, u'9': 28, u'13': -4, u'5': 28}, u'state': [0, 12, u'__', u'__', u'__', -4, u'__', u'__', u'__', 4, u'__', u'__', u'__', -4, u'__', u'__', u'__'], u'V': 28}]","[8048, 13137, 20415]","[u'0', u'0', u'3']","[[0, u'__', u'__', u'__', u'__', u'__', u'__', u'__', u'__', u'__', u'__', u'__', u'__', u'__', u'__', u'__', u'__'], [0, u'__', u'__', u'__', u'__', -4, u'__', u'__', u'__', u'__', u'__', u'__', u'__', u'__', u'__', u'__', u'__'], [0, u'__', u'__', u'__', u'__', -4, u'__', u'__', u'__', u'__', u'__', u'__', u'__', -4, u'__', u'__', u'__'], [0, u'__', u'__', u'__', u'__', -4, u'__', u'__', u'__', 4, u'__', u'__', u'__', -4, u'__', u'__', u'__'], [0, 12, u'__', u'__', u'__', -4, u'__', u'__', u'__', 4, u'__', u'__', u'__', -4, u'__', u'__', u'__']]",,[None],[True],"[5, 13, 9, 1, u'__TERM_ACTION__']","[1, 2, 4]",[True],[False],"{u'mouseover': {u'state': {u'target': [], u'time': []}, u'edge': {u'target': [], u'time': []}}, u'click': {u'state': {u'target': [5, 13, 9, 1], u'time': [1400, 3028, 4823, 6090]}, u'edge': {u'target': [], u'time': []}}, u'mouseout': {u'state': {u'target': [], u'time': []}, u'edge': {u'target': [], u'time': []}}}",,,"[8048, 4565, 6757]",7.0,411719,3.0,5.0,mouselab-mdp,,3
"[{u'Q': 12, u'action': u'__TERM_ACTION__', u'Qs': {u'1': -4, u'9': 12, u'13': 12, u'5': -4}, u'state': [0, 4, -4, u'__', u'__', 4, -12, u'__', u'__', -4, 12, u'__', u'__', u'__', u'__', u'__', u'__'], u'V': 12}]","[10512, 11272, 60226]","[u'2', u'2', u'3']","[[0, u'__', u'__', u'__', u'__', u'__', u'__', u'__', u'__', u'__', u'__', u'__', u'__', u'__', u'__', u'__', u'__'], [0, u'__', u'__', u'__', u'__', 4, u'__', u'__', u'__', u'__', u'__', u'__', u'__', u'__', u'__', u'__', u'__'], [0, u'__', u'__', u'__', u'__', 4, -12, u'__', u'__', u'__', u'__', u'__', u'__', u'__', u'__', u'__', u'__'], [0, 4, u'__', u'__', u'__', 4, -12, u'__', u'__', u'__', u'__', u'__', u'__', u'__', u'__', u'__', u'__'], [0, 4, -4, u'__', u'__', 4, -12, u'__', u'__', u'__', u'__', u'__', u'__', u'__', u'__', u'__', u'__'], [0, 4, -4, u'__', u'__', 4, -12, u'__', u'__', -4, u'__', u'__', u'__', u'__', u'__', u'__', u'__'], [0, 4, -4, u'__', u'__', 4, -12, u'__', u'__', -4, 12, u'__', u'__', u'__', u'__', u'__', u'__']]",,[None],[True],"[5, 6, 1, 2, 9, 10, u'__TERM_ACTION__']","[9, 10, 11]",[False],[False],"{u'mouseover': {u'state': {u'target': [], u'time': []}, u'edge': {u'target': [], u'time': []}}, u'click': {u'state': {u'target': [5, 6, 1, 2, 9, 10], u'time': [1558, 3847, 5675, 6569, 8004, 8852]}, u'edge': {u'target': [], u'time': []}}, u'mouseout': {u'state': {u'target': [], u'time': []}, u'edge': {u'target': [], u'time': []}}}",,,"[10512, 230, 48447]",-11.5,480373,4.0,11.0,mouselab-mdp,,3
"[{u'Q': 20, u'action': u'__TERM_ACTION__', u'Qs': {u'1': 28, u'9': 36, u'13': -4, u'5': 20}, u'state': [0, u'__', u'__', u'__', u'__', 4, 12, u'__', u'__', u'__', u'__', u'__', u'__', -12, u'__', u'__', u'__'], u'V': 36}]","[9622, 10963, 53971]","[u'1', u'1', u'2']","[[0, u'__', u'__', u'__', u'__', u'__', u'__', u'__', u'__', u'__', u'__', u'__', u'__', u'__', u'__', u'__', u'__'], [0, u'__', u'__', u'__', u'__', 4, u'__', u'__', u'__', u'__', u'__', u'__', u'__', u'__', u'__', u'__', u'__'], [0, u'__', u'__', u'__', u'__', 4, u'__', u'__', u'__', u'__', u'__', u'__', u'__', -12, u'__', u'__', u'__'], [0, u'__', u'__', u'__', u'__', 4, 12, u'__', u'__', u'__', u'__', u'__', u'__', -12, u'__', u'__', u'__']]",,[None],[True],"[5, 13, 6, u'__TERM_ACTION__']","[5, 6, 7]",[True],[False],"{u'mouseover': {u'state': {u'target': [], u'time': []}, u'edge': {u'target': [], u'time': []}}, u'click': {u'state': {u'target': [5, 13, 6], u'time': [2028, 4122, 5210]}, u'edge': {u'target': [], u'time': []}}, u'mouseout': {u'state': {u'target': [], u'time': []}, u'edge': {u'target': [], u'time': []}}}",,,"[9622, 803, 42492]",-7.75,541603,5.0,2.0,mouselab-mdp,,3
"[{u'Q': 36, u'action': u'__TERM_ACTION__', u'Qs': {u'1': 20, u'9': 36, u'13': -4, u'5': -4}, u'state': [0, u'__', u'__', u'__', u'__', -20, u'__', u'__', u'__', 20, u'__', u'__', u'__', u'__', u'__', u'__', u'__'], u'V': 36}]","[7212, 57120, 63454]","[u'2', u'2', u'1']","[[0, u'__', u'__', u'__', u'__', u'__', u'__', u'__', u'__', u'__', u'__', u'__', u'__', u'__', u'__', u'__', u'__'], [0, u'__', u'__', u'__', u'__', -20, u'__', u'__', u'__', u'__', u'__', u'__', u'__', u'__', u'__', u'__', u'__'], [0, u'__', u'__', u'__', u'__', -20, u'__', u'__', u'__', 20, u'__', u'__', u'__', u'__', u'__', u'__', u'__']]",,[None],[True],"[5, 9, u'__TERM_ACTION__']","[9, 10, 12]",[False],[False],"{u'mouseover': {u'state': {u'target': [], u'time': []}, u'edge': {u'target': [], u'time': []}}, u'click': {u'state': {u'target': [5, 9], u'time': [2815, 3948]}, u'edge': {u'target': [], u'time': []}}, u'mouseout': {u'state': {u'target': [], u'time': []}, u'edge': {u'target': [], u'time': []}}}",,,"[7212, 49385, 5815]",25.5,610019,6.0,12.0,mouselab-mdp,,3
"[{u'Q': 28, u'action': u'__TERM_ACTION__', u'Qs': {u'1': 20, u'9': 12, u'13': -4, u'5': 28}, u'state': [0, -4, u'__', u'__', u'__', 12, u'__', u'__', u'__', 12, u'__', u'__', u'__', -20, u'__', u'__', u'__'], u'V': 28}]","[8420, 13116, 17722]","[u'1', u'1', u'2']","[[0, u'__', u'__', u'__', u'__', u'__', u'__', u'__', u'__', u'__', u'__', u'__', u'__', u'__', u'__', u'__', u'__'], [0, u'__', u'__', u'__', u'__', u'__', u'__', u'__', u'__', u'__', u'__', u'__', u'__', -20, u'__', u'__', u'__'], [0, u'__', u'__', u'__', u'__', u'__', u'__', u'__', u'__', 12, u'__', u'__', u'__', -20, u'__', u'__', u'__'], [0, -4, u'__', u'__', u'__', u'__', u'__', u'__', u'__', 12, u'__', u'__', u'__', -20, u'__', u'__', u'__'], [0, -4, u'__', u'__', u'__', 12, u'__', u'__', u'__', 12, u'__', u'__', u'__', -20, u'__', u'__', u'__']]",,[None],[True],"[13, 9, 1, 5, u'__TERM_ACTION__']","[5, 6, 7]",[False],[False],"{u'mouseover': {u'state': {u'target': [], u'time': []}, u'edge': {u'target': [], u'time': []}}, u'click': {u'state': {u'target': [13, 9, 1, 5], u'time': [2800, 3829, 4858, 6200]}, u'edge': {u'target': [], u'time': []}}, u'mouseout': {u'state': {u'target': [], u'time': []}, u'edge': {u'target': [], u'time': []}}}",,,"[8416, 4171, 4083]",15.0,692165,7.0,14.0,mouselab-mdp,,3
"[{u'Q': -12, u'action': u'__TERM_ACTION__', u'Qs': {u'1': -12, u'9': -4, u'13': -12, u'5': -20}, u'state': [0, -4, -12, u'__', 4, u'__', -4, -4, u'__', 4, -12, u'__', 4, -12, u'__', 4, -4], u'V': -4}]","[23311, 24377, 25938]","[u'3', u'3', u'0']","[[0, u'__', u'__', u'__', u'__', u'__', u'__', u'__', u'__', u'__', u'__', u'__', u'__', u'__', u'__', u'__', u'__'], [0, u'__', u'__', u'__', u'__', u'__', u'__', -4, u'__', u'__', u'__', u'__', u'__', u'__', u'__', u'__', u'__'], [0, u'__', u'__', u'__', u'__', u'__', -4, -4, u'__', u'__', u'__', u'__', u'__', u'__', u'__', u'__', u'__'], [0, u'__', u'__', u'__', u'__', u'__', -4, -4, u'__', u'__', -12, u'__', u'__', u'__', u'__', u'__', u'__'], [0, -4, u'__', u'__', u'__', u'__', -4, -4, u'__', u'__', -12, u'__', u'__', u'__', u'__', u'__', u'__'], [0, -4, -12, u'__', u'__', u'__', -4, -4, u'__', u'__', -12, u'__', u'__', u'__', u'__', u'__', u'__'], [0, -4, -12, u'__', 4, u'__', -4, -4, u'__', u'__', -12, u'__', u'__', u'__', u'__', u'__', u'__'], [0, -4, -12, u'__', 4, u'__', -4, -4, u'__', u'__', -12, u'__', u'__', -12, u'__', u'__', u'__'], [0, -4, -12, u'__', 4, u'__', -4, -4, u'__', 4, -12, u'__', u'__', -12, u'__', u'__', u'__'], [0, -4, -12, u'__', 4, u'__', -4, -4, u'__', 4, -12, u'__', 4, -12, u'__', u'__', u'__'], [0, -4, -12, u'__', 4, u'__', -4, -4, u'__', 4, -12, u'__', 4, -12, u'__', u'__', -4], [0, -4, -12, u'__', 4, u'__', -4, -4, u'__', 4, -12, u'__', 4, -12, u'__', 4, -4]]",,[None],[False],"[7, 6, 10, 1, 2, 4, 13, 9, 12, 16, 15, u'__TERM_ACTION__']","[13, 14, 15]",[True],[False],"{u'mouseover': {u'state': {u'target': [], u'time': []}, u'edge': {u'target': [], u'time': []}}, u'click': {u'state': {u'target': [7, 6, 10, 1, 2, 4, 13, 9, 12, 16, 15], u'time': [2694, 3450, 5180, 6293, 6953, 8728, 10188, 11873, 14982, 18328, 20759]}, u'edge': {u'target': [], u'time': []}}, u'mouseout': {u'state': {u'target': [], u'time': []}, u'edge': {u'target': [], u'time': []}}}",,,"[23311, 467, 1038]",-25.75,744536,8.0,3.0,mouselab-mdp,,3
"[{u'Q': 28, u'action': u'__TERM_ACTION__', u'Qs': {u'1': 20, u'9': 28, u'13': 12, u'5': 12}, u'state': [0, u'__', u'__', u'__', u'__', -4, u'__', u'__', u'__', 12, u'__', u'__', u'__', u'__', u'__', u'__', u'__'], u'V': 28}]","[4350, 54547, 57718]","[u'2', u'2', u'1']","[[0, u'__', u'__', u'__', u'__', u'__', u'__', u'__', u'__', u'__', u'__', u'__', u'__', u'__', u'__', u'__', u'__'], [0, u'__', u'__', u'__', u'__', -4, u'__', u'__', u'__', u'__', u'__', u'__', u'__', u'__', u'__', u'__', u'__'], [0, u'__', u'__', u'__', u'__', -4, u'__', u'__', u'__', 12, u'__', u'__', u'__', u'__', u'__', u'__', u'__']]",,[None],[True],"[5, 9, u'__TERM_ACTION__']","[9, 10, 12]",[False],[False],"{u'mouseover': {u'state': {u'target': [], u'time': []}, u'edge': {u'target': [], u'time': []}}, u'click': {u'state': {u'target': [5, 9], u'time': [1894, 2876]}, u'edge': {u'target': [], u'time': []}}, u'mouseout': {u'state': {u'target': [], u'time': []}, u'edge': {u'target': [], u'time': []}}}",,,"[4350, 49688, 2649]",25.5,808111,9.0,6.0,mouselab-mdp,,3
"[{u'Q': 28, u'action': u'__TERM_ACTION__', u'Qs': {u'1': -12, u'9': -4, u'13': 12, u'5': 28}, u'state': [0, u'__', u'__', u'__', u'__', 12, u'__', u'__', u'__', u'__', u'__', u'__', u'__', 12, u'__', u'__', u'__'], u'V': 28}]","[6371, 22951, 29872]","[u'1', u'1', u'0']","[[0, u'__', u'__', u'__', u'__', u'__', u'__', u'__', u'__', u'__', u'__', u'__', u'__', u'__', u'__', u'__', u'__'], [0, u'__', u'__', u'__', u'__', 12, u'__', u'__', u'__', u'__', u'__', u'__', u'__', u'__', u'__', u'__', u'__'], [0, u'__', u'__', u'__', u'__', 12, u'__', u'__', u'__', u'__', u'__', u'__', u'__', 12, u'__', u'__', u'__']]",,[None],[True],"[5, 13, u'__TERM_ACTION__']","[5, 6, 8]",[False],[False],"{u'mouseover': {u'state': {u'target': [], u'time': []}, u'edge': {u'target': [], u'time': []}}, u'click': {u'state': {u'target': [5, 13], u'time': [1975, 4237]}, u'edge': {u'target': [], u'time': []}}, u'mouseout': {u'state': {u'target': [], u'time': []}, u'edge': {u'target': [], u'time': []}}}",,,"[6371, 16046, 6411]",1.5,862558,10.0,4.0,mouselab-mdp,,3
,"[17588, 18166, 20519]","[u'3', u'3', u'0']","[[0, u'__', u'__', u'__', u'__', u'__', u'__', u'__', u'__', u'__', u'__', u'__', u'__', u'__', u'__', u'__', u'__'], [0, u'__', u'__', u'__', u'__', 12, u'__', u'__', u'__', u'__', u'__', u'__', u'__', u'__', u'__', u'__', u'__'], [0, u'__', u'__', u'__', u'__', 12, u'__', u'__', u'__', 12, u'__', u'__', u'__', u'__', u'__', u'__', u'__'], [0, u'__', u'__', u'__', u'__', 12, u'__', u'__', u'__', 12, 12, u'__', u'__', u'__', u'__', u'__', u'__'], [0, u'__', u'__', u'__', u'__', 12, u'__', u'__', u'__', 12, 12, u'__', -20, u'__', u'__', u'__', u'__'], [0, u'__', u'__', u'__', u'__', 12, u'__', u'__', u'__', 12, 12, -12, -20, u'__', u'__', u'__', u'__'], [0, -4, u'__', u'__', u'__', 12, u'__', u'__', u'__', 12, 12, -12, -20, u'__', u'__', u'__', u'__'], [0, -4, 4, u'__', u'__', 12, u'__', u'__', u'__', 12, 12, -12, -20, u'__', u'__', u'__', u'__'], [0, -4, 4, u'__', u'__', 12, u'__', u'__', u'__', 12, 12, -12, -20, u'__', 12, u'__', u'__']]",,[],[],"[5, 9, 10, 12, 11, 1, 2, 14, u'__TERM_ACTION__']","[13, 14, 15]",[],[],"{u'mouseover': {u'state': {u'target': [], u'time': []}, u'edge': {u'target': [], u'time': []}}, u'click': {u'state': {u'target': [5, 9, 10, 12, 11, 1, 2, 14], u'time': [5581, 6756, 7708, 8602, 9793, 13864, 14674, 16211]}, u'edge': {u'target': [], u'time': []}}, u'mouseout': {u'state': {u'target': [], u'time': []}, u'edge': {u'target': [], u'time': []}}}",,,"[17588, 49, 1824]",-22.0,913559,11.0,1.0,mouselab-mdp,,3
,"[11953, 56667, 58737]","[u'2', u'2', u'1']","[[0, u'__', u'__', u'__', u'__', u'__', u'__', u'__', u'__', u'__', u'__', u'__', u'__', u'__', u'__', u'__', u'__'], [0, u'__', -4, u'__', u'__', u'__', u'__', u'__', u'__', u'__', u'__', u'__', u'__', u'__', u'__', u'__', u'__'], [0, u'__', -4, u'__', u'__', u'__', u'__', u'__', u'__', u'__', -4, u'__', u'__', u'__', u'__', u'__', u'__'], [0, u'__', -4, u'__', u'__', u'__', -20, u'__', u'__', u'__', -4, u'__', u'__', u'__', u'__', u'__', u'__'], [0, u'__', -4, u'__', u'__', 4, -20, u'__', u'__', u'__', -4, u'__', u'__', u'__', u'__', u'__', u'__'], [0, u'__', -4, u'__', u'__', 4, -20, u'__', u'__', u'__', -4, u'__', u'__', 4, u'__', u'__', u'__'], [0, u'__', -4, u'__', u'__', 4, -20, u'__', u'__', 12, -4, u'__', u'__', 4, u'__', u'__', u'__']]",,[],[],"[2, 10, 6, 5, 13, 9, u'__TERM_ACTION__']","[9, 10, 12]",[],[],"{u'mouseover': {u'state': {u'target': [], u'time': []}, u'edge': {u'target': [], u'time': []}}, u'click': {u'state': {u'target': [2, 10, 6, 5, 13, 9], u'time': [3569, 4798, 5996, 6940, 8538, 10514]}, u'edge': {u'target': [], u'time': []}}, u'mouseout': {u'state': {u'target': [], u'time': []}, u'edge': {u'target': [], u'time': []}}}",,,"[11953, 44182, 1553]",4.5,977183,12.0,8.0,mouselab-mdp,,3
,"[8378, 9062, 10574]","[u'2', u'2', u'1']","[[0, u'__', u'__', u'__', u'__', u'__', u'__', u'__', u'__', u'__', u'__', u'__', u'__', u'__', u'__', u'__', u'__'], [0, u'__', u'__', u'__', u'__', -12, u'__', u'__', u'__', u'__', u'__', u'__', u'__', u'__', u'__', u'__', u'__'], [0, u'__', u'__', u'__', u'__', -12, u'__', u'__', u'__', u'__', u'__', u'__', u'__', -12, u'__', u'__', u'__'], [0, u'__', u'__', u'__', u'__', -12, u'__', u'__', u'__', -4, u'__', u'__', u'__', -12, u'__', u'__', u'__'], [0, -4, u'__', u'__', u'__', -12, u'__', u'__', u'__', -4, u'__', u'__', u'__', -12, u'__', u'__', u'__'], [0, -4, u'__', u'__', u'__', -12, u'__', u'__', u'__', -4, 4, u'__', u'__', -12, u'__', u'__', u'__'], [0, -4, u'__', u'__', u'__', -12, u'__', u'__', u'__', -4, 4, u'__', 4, -12, u'__', u'__', u'__']]",,[],[],"[5, 13, 9, 1, 10, 12, u'__TERM_ACTION__']","[9, 10, 12]",[],[],"{u'mouseover': {u'state': {u'target': [], u'time': []}, u'edge': {u'target': [], u'time': []}}, u'click': {u'state': {u'target': [5, 13, 9, 1, 10, 12], u'time': [2489, 3296, 4063, 4776, 5671, 6503]}, u'edge': {u'target': [], u'time': []}}, u'mouseout': {u'state': {u'target': [], u'time': []}, u'edge': {u'target': [], u'time': []}}}",,,"[8378, 169, 986]",-3.5,1031033,13.0,0.0,mouselab-mdp,,3
,"[11634, 12263, 13739]","[u'3', u'3', u'2']","[[0, u'__', u'__', u'__', u'__', u'__', u'__', u'__', u'__', u'__', u'__', u'__', u'__', u'__', u'__', u'__', u'__'], [0, u'__', u'__', u'__', u'__', u'__', -20, u'__', u'__', u'__', u'__', u'__', u'__', u'__', u'__', u'__', u'__'], [0, u'__', u'__', u'__', u'__', u'__', -20, u'__', u'__', u'__', u'__', u'__', u'__', u'__', 4, u'__', u'__'], [0, u'__', u'__', u'__', u'__', u'__', -20, u'__', u'__', u'__', u'__', u'__', u'__', -12, 4, u'__', u'__'], [0, u'__', u'__', u'__', u'__', u'__', -20, u'__', u'__', 4, u'__', u'__', u'__', -12, 4, u'__', u'__'], [0, u'__', u'__', u'__', u'__', u'__', -20, u'__', u'__', 4, -12, u'__', u'__', -12, 4, u'__', u'__'], [0, u'__', -12, u'__', u'__', u'__', -20, u'__', u'__', 4, -12, u'__', u'__', -12, 4, u'__', u'__'], [0, -20, -12, u'__', u'__', u'__', -20, u'__', u'__', 4, -12, u'__', u'__', -12, 4, u'__', u'__'], [0, -20, -12, u'__', u'__', 4, -20, u'__', u'__', 4, -12, u'__', u'__', -12, 4, u'__', u'__'], [0, -20, -12, u'__', u'__', 4, -20, u'__', u'__', 4, -12, u'__', u'__', -12, 4, u'__', 12]]",,[],[],"[6, 14, 13, 9, 10, 2, 1, 5, 16, u'__TERM_ACTION__']","[13, 14, 16]",[],[],"{u'mouseover': {u'state': {u'target': [], u'time': []}, u'edge': {u'target': [], u'time': []}}, u'click': {u'state': {u'target': [6, 14, 13, 9, 10, 2, 1, 5, 16], u'time': [1227, 2459, 3402, 4907, 6271, 7277, 8035, 9214, 10255]}, u'edge': {u'target': [], u'time': []}}, u'mouseout': {u'state': {u'target': [], u'time': []}, u'edge': {u'target': [], u'time': []}}}",,,"[11634, 108, 956]",-7.25,1084864,14.0,9.0,mouselab-mdp,,3
,"[3533, 4058, 5642]","[u'2', u'2', u'1']","[[0, u'__', u'__', u'__', u'__', u'__', u'__', u'__', u'__', u'__', u'__', u'__', u'__', u'__', u'__', u'__', u'__'], [0, u'__', u'__', u'__', u'__', u'__', u'__', u'__', u'__', u'__', u'__', u'__', 20, u'__', u'__', u'__', u'__']]",,[],[],"[12, u'__TERM_ACTION__']","[9, 10, 12]",[],[],"{u'mouseover': {u'state': {u'target': [], u'time': []}, u'edge': {u'target': [], u'time': []}}, u'click': {u'state': {u'target': [12], u'time': [1964]}, u'edge': {u'target': [], u'time': []}}, u'mouseout': {u'state': {u'target': [], u'time': []}, u'edge': {u'target': [], u'time': []}}}",,,"[3533, 12, 1063]",34.75,1141333,15.0,15.0,mouselab-mdp,,3
,"[12633, 13624, 14855]","[u'0', u'0', u'3']","[[0, u'__', u'__', u'__', u'__', u'__', u'__', u'__', u'__', u'__', u'__', u'__', u'__', u'__', u'__', u'__', u'__'], [0, u'__', u'__', u'__', u'__', u'__', u'__', u'__', u'__', 4, u'__', u'__', u'__', u'__', u'__', u'__', u'__'], [0, u'__', u'__', u'__', u'__', u'__', -20, u'__', u'__', 4, u'__', u'__', u'__', u'__', u'__', u'__', u'__'], [0, u'__', u'__', u'__', u'__', -12, -20, u'__', u'__', 4, u'__', u'__', u'__', u'__', u'__', u'__', u'__'], [0, u'__', u'__', u'__', u'__', -12, -20, u'__', u'__', 4, u'__', u'__', u'__', 4, u'__', u'__', u'__'], [0, u'__', u'__', u'__', u'__', -12, -20, u'__', u'__', 4, u'__', u'__', u'__', 4, u'__', u'__', 4], [0, u'__', u'__', u'__', u'__', -12, -20, u'__', u'__', 4, u'__', u'__', u'__', 4, -4, u'__', 4], [0, -4, u'__', u'__', u'__', -12, -20, u'__', u'__', 4, u'__', u'__', u'__', 4, -4, u'__', 4], [0, -4, -4, u'__', u'__', -12, -20, u'__', u'__', 4, u'__', u'__', u'__', 4, -4, u'__', 4], [0, -4, -4, u'__', 12, -12, -20, u'__', u'__', 4, u'__', u'__', u'__', 4, -4, u'__', 4]]",,[],[],"[9, 6, 5, 13, 16, 14, 1, 2, 4, u'__TERM_ACTION__']","[1, 2, 4]",[],[],"{u'mouseover': {u'state': {u'target': [], u'time': []}, u'edge': {u'target': [], u'time': []}}, u'click': {u'state': {u'target': [9, 6, 5, 13, 16, 14, 1, 2, 4], u'time': [1884, 3220, 4271, 5218, 6136, 7063, 9521, 10272, 10974]}, u'edge': {u'target': [], u'time': []}}, u'mouseout': {u'state': {u'target': [], u'time': []}, u'edge': {u'target': [], u'time': []}}}",,,"[12633, 462, 715]",-7.25,1194134,16.0,10.0,mouselab-mdp,,3
"[{u'Q': 28, u'action': u'__TERM_ACTION__', u'Qs': {u'1': 20, u'9': 28, u'13': -4, u'5': 28}, u'state': [0, u'__', u'__', u'__', u'__', u'__', u'__', u'__', u'__', 4, u'__', u'__', 20, u'__', u'__', u'__', u'__'], u'V': 28}]","[8425, 12439, 15103]","[u'2', u'2', u'1']","[[0, u'__', u'__', u'__', u'__', u'__', u'__', u'__', u'__', u'__', u'__', u'__', u'__', u'__', u'__', u'__', u'__'], [0, u'__', u'__', u'__', u'__', u'__', u'__', u'__', u'__', 4, u'__', u'__', u'__', u'__', u'__', u'__', u'__'], [0, u'__', u'__', u'__', u'__', u'__', u'__', u'__', u'__', 4, u'__', u'__', 20, u'__', u'__', u'__', u'__']]",,[None],[True],"[9, 12, u'__TERM_ACTION__']","[9, 10, 12]",[False],[False],"{u'mouseover': {u'state': {u'target': [], u'time': []}, u'edge': {u'target': [], u'time': []}}, u'click': {u'state': {u'target': [9, 12], u'time': [4315, 6522]}, u'edge': {u'target': [], u'time': []}}, u'mouseout': {u'state': {u'target': [], u'time': []}, u'edge': {u'target': [], u'time': []}}}",,,"[8424, 3446, 2162]",27.9,171991,1.0,5.0,mouselab-mdp,,4
