p_rdata,action_times,actions,beliefs,correct,delays,information_used_correctly,meta_actions,path,planned_too_little,planned_too_much,queries,questions,responses,rt,score,time_elapsed,trial_index,trial_id,trial_type,view_history,pid
,,,,"[True, True, True, True]",,,,,,,,"[""True or false: The hidden values will change each time I start a new round."",""How much does it cost to observe each hidden value?"",""How many hidden values am I allowed to observe in each round?"",""How is your bonus determined?""]","[""True"",""$0.10"",""As many or as few as I wish"",""1 cent for every $1 I earn in each round""]",14299,,62374,,,survey-multi-choice,,0
,,,,"[True, True, True, True]",,,,,,,,"[""True or false: The hidden values will change each time I start a new round."",""How much does it cost to observe each hidden value?"",""How many hidden values am I allowed to observe in each round?"",""How is your bonus determined?""]","[""True"",""$0.05"",""As many or as few as I wish"",""1 cent for every $1 I earn in each round""]",18534,,103239,,,survey-multi-choice,,1
,,,,"[True, True, True, True]",,,,,,,,"[""True or false: The hidden values will change each time I start a new round."",""How much does it cost to observe each hidden value?"",""How many hidden values am I allowed to observe in each round?"",""How is your bonus determined?""]","[""True"",""$1.25"",""As many or as few as I wish"",""1 cent for every $1 I earn in each round""]",16400,,190117,,,survey-multi-choice,,2
,,,,"[True, False, True, True]",,,,,,,,"[""True or false: The hidden values will change each time I start a new round."",""How much does it cost to observe each hidden value?"",""How many hidden values am I allowed to observe in each round?"",""How is your bonus determined?""]","[""True"",""$1.00"",""As many or as few as I wish"",""1 cent for every $1 I earn in each round""]",39507,,202953,,,survey-multi-choice,,3
,,,,"[True, True, True, True]",,,,,,,,"[""True or false: The hidden values will change each time I start a new round."",""How much does it cost to observe each hidden value?"",""How many hidden values am I allowed to observe in each round?"",""How is your bonus determined?""]","[""True"",""$1.25"",""As many or as few as I wish"",""1 cent for every $1 I earn in each round""]",14101,,250849,,,survey-multi-choice,,3
,,,,"[True, True, True, True]",,,,,,,,"[""True or false: The hidden values will change each time I start a new round."",""How much does it cost to observe each hidden value?"",""How many hidden values am I allowed to observe in each round?"",""How is your bonus determined?""]","[""True"",""$0.05"",""As many or as few as I wish"",""1 cent for every $1 I earn in each round""]",23305,,126681,,,survey-multi-choice,,4
,,,,"[True, True, True, True]",,,,,,,,"[""True or false: The hidden values will change each time I start a new round."",""How much does it cost to observe each hidden value?"",""How many hidden values am I allowed to observe in each round?"",""How is your bonus determined?""]","[""True"",""$0.05"",""As many or as few as I wish"",""1 cent for every $1 I earn in each round""]",17947,,205182,,,survey-multi-choice,,5
,,,,"[True, True, True, True]",,,,,,,,"[""True or false: The hidden values will change each time I start a new round."",""How much does it cost to observe each hidden value?"",""How many hidden values am I allowed to observe in each round?"",""How is your bonus determined?""]","[""True"",""$0.01"",""As many or as few as I wish"",""1 cent for every $1 I earn in each round""]",21807,,108267,,,survey-multi-choice,,6
,,,,"[True, True, True, True]",,,,,,,,"[""True or false: The hidden values will change each time I start a new round."",""How much does it cost to observe each hidden value?"",""How many hidden values am I allowed to observe in each round?"",""How is your bonus determined?""]","[""True"",""$1.25"",""As many or as few as I wish"",""1 cent for every $1 I earn in each round""]",46741,,262864,,,survey-multi-choice,,7
,,,,"[True, True, True, True]",,,,,,,,"[""True or false: The hidden values will change each time I start a new round."",""How much does it cost to observe each hidden value?"",""How many hidden values am I allowed to observe in each round?"",""How is your bonus determined?""]","[""True"",""$0.05"",""As many or as few as I wish"",""1 cent for every $1 I earn in each round""]",13493,,95494,,,survey-multi-choice,,8
,,,,"[True, False, True, False]",,,,,,,,"[""True or false: The hidden values will change each time I start a new round."",""How much does it cost to observe each hidden value?"",""How many hidden values am I allowed to observe in each round?"",""How is your bonus determined?""]","[""True"",""$0.10"",""As many or as few as I wish"",""10% of my best score on any round""]",14286,,55542,,,survey-multi-choice,,9
,,,,"[True, True, True, True]",,,,,,,,"[""True or false: The hidden values will change each time I start a new round."",""How much does it cost to observe each hidden value?"",""How many hidden values am I allowed to observe in each round?"",""How is your bonus determined?""]","[""True"",""$1.25"",""As many or as few as I wish"",""1 cent for every $1 I earn in each round""]",10512,,98393,,,survey-multi-choice,,9
,,,,"[True, True, True, True]",,,,,,,,"[""True or false: The hidden values will change each time I start a new round."",""How much does it cost to observe each hidden value?"",""How many hidden values am I allowed to observe in each round?"",""How is your bonus determined?""]","[""True"",""$0.05"",""As many or as few as I wish"",""1 cent for every $1 I earn in each round""]",12326,,110099,,,survey-multi-choice,,10
,,,,"[True, True, True, True]",,,,,,,,"[""True or false: The hidden values will change each time I start a new round."",""How much does it cost to observe each hidden value?"",""How many hidden values am I allowed to observe in each round?"",""How is your bonus determined?""]","[""True"",""$0.01"",""As many or as few as I wish"",""1 cent for every $1 I earn in each round""]",20991,,177953,,,survey-multi-choice,,11
,,,,"[True, True, True, True]",,,,,,,,"[""True or false: The hidden values will change each time I start a new round."",""How much does it cost to observe each hidden value?"",""How many hidden values am I allowed to observe in each round?"",""How is your bonus determined?""]","[""True"",""$0.01"",""As many or as few as I wish"",""1 cent for every $1 I earn in each round""]",13406,,100237,,,survey-multi-choice,,12
,,,,"[True, True, True, True]",,,,,,,,"[""True or false: The hidden values will change each time I start a new round."",""How much does it cost to observe each hidden value?"",""How many hidden values am I allowed to observe in each round?"",""How is your bonus determined?""]","[""True"",""$0.05"",""As many or as few as I wish"",""1 cent for every $1 I earn in each round""]",14436,,110218,,,survey-multi-choice,,13
,,,,"[True, True, False, True]",,,,,,,,"[""True or false: The hidden values will change each time I start a new round."",""How much does it cost to observe each hidden value?"",""How many hidden values am I allowed to observe in each round?"",""How is your bonus determined?""]","[""True"",""$0.01"",""At most 15"",""1 cent for every $1 I earn in each round""]",13751,,163072,,,survey-multi-choice,,14
,,,,"[True, True, True, True]",,,,,,,,"[""True or false: The hidden values will change each time I start a new round."",""How much does it cost to observe each hidden value?"",""How many hidden values am I allowed to observe in each round?"",""How is your bonus determined?""]","[""True"",""$0.01"",""As many or as few as I wish"",""1 cent for every $1 I earn in each round""]",7121,,196491,,,survey-multi-choice,,14
,,,,"[True, True, True, True]",,,,,,,,"[""True or false: The hidden values will change each time I start a new round."",""How much does it cost to observe each hidden value?"",""How many hidden values am I allowed to observe in each round?"",""How is your bonus determined?""]","[""True"",""$0.10"",""As many or as few as I wish"",""1 cent for every $1 I earn in each round""]",19152,,169919,,,survey-multi-choice,,15
,,,,"[True, True, True, False]",,,,,,,,"[""True or false: The hidden values will change each time I start a new round."",""How much does it cost to observe each hidden value?"",""How many hidden values am I allowed to observe in each round?"",""How is your bonus determined?""]","[""True"",""$0.01"",""As many or as few as I wish"",""1% of my best score on any round""]",33241,,125492,,,survey-multi-choice,,16
,,,,"[True, True, True, True]",,,,,,,,"[""True or false: The hidden values will change each time I start a new round."",""How much does it cost to observe each hidden value?"",""How many hidden values am I allowed to observe in each round?"",""How is your bonus determined?""]","[""True"",""$0.01"",""As many or as few as I wish"",""1 cent for every $1 I earn in each round""]",10783,,239906,,,survey-multi-choice,,16
,,,,"[True, True, True, True]",,,,,,,,"[""True or false: The hidden values will change each time I start a new round."",""How much does it cost to observe each hidden value?"",""How many hidden values am I allowed to observe in each round?"",""How is your bonus determined?""]","[""True"",""$0.01"",""As many or as few as I wish"",""1 cent for every $1 I earn in each round""]",27121,,90270,,,survey-multi-choice,,17
,,,,"[True, True, True, True]",,,,,,,,"[""True or false: The hidden values will change each time I start a new round."",""How much does it cost to observe each hidden value?"",""How many hidden values am I allowed to observe in each round?"",""How is your bonus determined?""]","[""True"",""$1.25"",""As many or as few as I wish"",""1 cent for every $1 I earn in each round""]",19734,,203244,,,survey-multi-choice,,18
,,,,"[True, True, False, True]",,,,,,,,"[""True or false: The hidden values will change each time I start a new round."",""How much does it cost to observe each hidden value?"",""How many hidden values am I allowed to observe in each round?"",""How is your bonus determined?""]","[""True"",""$0.05"",""At most 5"",""1 cent for every $1 I earn in each round""]",45652,,286217,,,survey-multi-choice,,19
,,,,"[True, True, True, True]",,,,,,,,"[""True or false: The hidden values will change each time I start a new round."",""How much does it cost to observe each hidden value?"",""How many hidden values am I allowed to observe in each round?"",""How is your bonus determined?""]","[""True"",""$0.05"",""As many or as few as I wish"",""1 cent for every $1 I earn in each round""]",16721,,382076,,,survey-multi-choice,,19
,,,,"[True, True, True, True]",,,,,,,,"[""True or false: The hidden values will change each time I start a new round."",""How much does it cost to observe each hidden value?"",""How many hidden values am I allowed to observe in each round?"",""How is your bonus determined?""]","[""True"",""$0.05"",""As many or as few as I wish"",""1 cent for every $1 I earn in each round""]",172822,,218736,,,survey-multi-choice,,20
,,,,"[True, True, True, True]",,,,,,,,"[""True or false: The hidden values will change each time I start a new round."",""How much does it cost to observe each hidden value?"",""How many hidden values am I allowed to observe in each round?"",""How is your bonus determined?""]","[""True"",""$0.05"",""As many or as few as I wish"",""1 cent for every $1 I earn in each round""]",15561,,42247,,,survey-multi-choice,,21
,,,,"[True, True, True, True]",,,,,,,,"[""True or false: The hidden values will change each time I start a new round."",""How much does it cost to observe each hidden value?"",""How many hidden values am I allowed to observe in each round?"",""How is your bonus determined?""]","[""True"",""$0.01"",""As many or as few as I wish"",""1 cent for every $1 I earn in each round""]",15519,,173063,,,survey-multi-choice,,22
,,,,"[True, True, True, True]",,,,,,,,"[""True or false: The hidden values will change each time I start a new round."",""How much does it cost to observe each hidden value?"",""How many hidden values am I allowed to observe in each round?"",""How is your bonus determined?""]","[""True"",""$0.05"",""As many or as few as I wish"",""1 cent for every $1 I earn in each round""]",18251,,185499,,,survey-multi-choice,,23
,,,,"[True, True, True, True]",,,,,,,,"[""True or false: The hidden values will change each time I start a new round."",""How much does it cost to observe each hidden value?"",""How many hidden values am I allowed to observe in each round?"",""How is your bonus determined?""]","[""True"",""$0.10"",""As many or as few as I wish"",""1 cent for every $1 I earn in each round""]",23447,,169564,,,survey-multi-choice,,24
,,,,"[True, True, True, True]",,,,,,,,"[""True or false: The hidden values will change each time I start a new round."",""How much does it cost to observe each hidden value?"",""How many hidden values am I allowed to observe in each round?"",""How is your bonus determined?""]","[""True"",""$0.10"",""As many or as few as I wish"",""1 cent for every $1 I earn in each round""]",27203,,174319,,,survey-multi-choice,,25
,,,,"[True, True, True, True]",,,,,,,,"[""True or false: The hidden values will change each time I start a new round."",""How much does it cost to observe each hidden value?"",""How many hidden values am I allowed to observe in each round?"",""How is your bonus determined?""]","[""True"",""$1.25"",""As many or as few as I wish"",""1 cent for every $1 I earn in each round""]",34106,,183015,,,survey-multi-choice,,26
,,,,"[True, True, True, True]",,,,,,,,"[""True or false: The hidden values will change each time I start a new round."",""How much does it cost to observe each hidden value?"",""How many hidden values am I allowed to observe in each round?"",""How is your bonus determined?""]","[""True"",""$1.25"",""As many or as few as I wish"",""1 cent for every $1 I earn in each round""]",17814,,213053,,,survey-multi-choice,,27
,,,,"[True, True, False, True]",,,,,,,,"[""True or false: The hidden values will change each time I start a new round."",""How much does it cost to observe each hidden value?"",""How many hidden values am I allowed to observe in each round?"",""How is your bonus determined?""]","[""True"",""$0.05"",""At most 10"",""1 cent for every $1 I earn in each round""]",23665,,115860,,,survey-multi-choice,,28
,,,,"[False, True, True, True]",,,,,,,,"[""True or false: The hidden values will change each time I start a new round."",""How much does it cost to observe each hidden value?"",""How many hidden values am I allowed to observe in each round?"",""How is your bonus determined?""]","[""False"",""$0.05"",""As many or as few as I wish"",""1 cent for every $1 I earn in each round""]",10982,,171030,,,survey-multi-choice,,28
,,,,"[True, True, True, True]",,,,,,,,"[""True or false: The hidden values will change each time I start a new round."",""How much does it cost to observe each hidden value?"",""How many hidden values am I allowed to observe in each round?"",""How is your bonus determined?""]","[""True"",""$0.05"",""As many or as few as I wish"",""1 cent for every $1 I earn in each round""]",5884,,182724,,,survey-multi-choice,,28
,,,,"[True, False, False, True]",,,,,,,,"[""True or false: The hidden values will change each time I start a new round."",""How much does it cost to observe each hidden value?"",""How many hidden values am I allowed to observe in each round?"",""How is your bonus determined?""]","[""True"",""$0.10"",""At most 1"",""1 cent for every $1 I earn in each round""]",16643,,77616,,,survey-multi-choice,,29
,,,,"[True, True, True, True]",,,,,,,,"[""True or false: The hidden values will change each time I start a new round."",""How much does it cost to observe each hidden value?"",""How many hidden values am I allowed to observe in each round?"",""How is your bonus determined?""]","[""True"",""$0.01"",""As many or as few as I wish"",""1 cent for every $1 I earn in each round""]",7776,,126070,,,survey-multi-choice,,29
,,,,"[True, True, True, True]",,,,,,,,"[""True or false: The hidden values will change each time I start a new round."",""How much does it cost to observe each hidden value?"",""How many hidden values am I allowed to observe in each round?"",""How is your bonus determined?""]","[""True"",""$1.25"",""As many or as few as I wish"",""1 cent for every $1 I earn in each round""]",53493,,242597,,,survey-multi-choice,,30
,,,,"[True, True, True, True]",,,,,,,,"[""True or false: The hidden values will change each time I start a new round."",""How much does it cost to observe each hidden value?"",""How many hidden values am I allowed to observe in each round?"",""How is your bonus determined?""]","[""True"",""$0.05"",""As many or as few as I wish"",""1 cent for every $1 I earn in each round""]",14848,,173326,,,survey-multi-choice,,31
,,,,"[True, True, True, True]",,,,,,,,"[""True or false: The hidden values will change each time I start a new round."",""How much does it cost to observe each hidden value?"",""How many hidden values am I allowed to observe in each round?"",""How is your bonus determined?""]","[""True"",""$1.25"",""As many or as few as I wish"",""1 cent for every $1 I earn in each round""]",19692,,110435,,,survey-multi-choice,,32
,,,,"[True, True, True, True]",,,,,,,,"[""True or false: The hidden values will change each time I start a new round."",""How much does it cost to observe each hidden value?"",""How many hidden values am I allowed to observe in each round?"",""How is your bonus determined?""]","[""True"",""$0.01"",""As many or as few as I wish"",""1 cent for every $1 I earn in each round""]",16072,,193083,,,survey-multi-choice,,33
,,,,"[True, True, True, True]",,,,,,,,"[""True or false: The hidden values will change each time I start a new round."",""How much does it cost to observe each hidden value?"",""How many hidden values am I allowed to observe in each round?"",""How is your bonus determined?""]","[""True"",""$0.01"",""As many or as few as I wish"",""1 cent for every $1 I earn in each round""]",21284,,103104,,,survey-multi-choice,,34
,,,,"[True, True, True, True]",,,,,,,,"[""True or false: The hidden values will change each time I start a new round."",""How much does it cost to observe each hidden value?"",""How many hidden values am I allowed to observe in each round?"",""How is your bonus determined?""]","[""True"",""$0.01"",""As many or as few as I wish"",""1 cent for every $1 I earn in each round""]",25080,,123097,,,survey-multi-choice,,35
,,,,"[True, True, True, True]",,,,,,,,"[""True or false: The hidden values will change each time I start a new round."",""How much does it cost to observe each hidden value?"",""How many hidden values am I allowed to observe in each round?"",""How is your bonus determined?""]","[""True"",""$0.05"",""As many or as few as I wish"",""1 cent for every $1 I earn in each round""]",9269,,62054,,,survey-multi-choice,,36
,,,,"[True, False, False, True]",,,,,,,,"[""True or false: The hidden values will change each time I start a new round."",""How much does it cost to observe each hidden value?"",""How many hidden values am I allowed to observe in each round?"",""How is your bonus determined?""]","[""True"",""$0.05"",""At most 5"",""1 cent for every $1 I earn in each round""]",17481,,47342,,,survey-multi-choice,,37
,,,,"[True, True, True, False]",,,,,,,,"[""True or false: The hidden values will change each time I start a new round."",""How much does it cost to observe each hidden value?"",""How many hidden values am I allowed to observe in each round?"",""How is your bonus determined?""]","[""True"",""$0.01"",""As many or as few as I wish"",""1% of my best score on any round""]",13184,,97457,,,survey-multi-choice,,37
,,,,"[True, True, True, True]",,,,,,,,"[""True or false: The hidden values will change each time I start a new round."",""How much does it cost to observe each hidden value?"",""How many hidden values am I allowed to observe in each round?"",""How is your bonus determined?""]","[""True"",""$0.01"",""As many or as few as I wish"",""1 cent for every $1 I earn in each round""]",10489,,143425,,,survey-multi-choice,,37
,,,,"[True, False, True, True]",,,,,,,,"[""True or false: The hidden values will change each time I start a new round."",""How much does it cost to observe each hidden value?"",""How many hidden values am I allowed to observe in each round?"",""How is your bonus determined?""]","[""True"",""$1.00"",""As many or as few as I wish"",""1 cent for every $1 I earn in each round""]",52494,,294045,,,survey-multi-choice,,38
,,,,"[True, True, True, True]",,,,,,,,"[""True or false: The hidden values will change each time I start a new round."",""How much does it cost to observe each hidden value?"",""How many hidden values am I allowed to observe in each round?"",""How is your bonus determined?""]","[""True"",""$1.25"",""As many or as few as I wish"",""1 cent for every $1 I earn in each round""]",32060,,432016,,,survey-multi-choice,,38
,,,,"[True, True, True, True]",,,,,,,,"[""True or false: The hidden values will change each time I start a new round."",""How much does it cost to observe each hidden value?"",""How many hidden values am I allowed to observe in each round?"",""How is your bonus determined?""]","[""True"",""$0.10"",""As many or as few as I wish"",""1 cent for every $1 I earn in each round""]",15662,,303063,,,survey-multi-choice,,39
,,,,"[True, False, True, True]",,,,,,,,"[""True or false: The hidden values will change each time I start a new round."",""How much does it cost to observe each hidden value?"",""How many hidden values am I allowed to observe in each round?"",""How is your bonus determined?""]","[""True"",""$1.00"",""As many or as few as I wish"",""1 cent for every $1 I earn in each round""]",29654,,112261,,,survey-multi-choice,,40
,,,,"[True, True, True, True]",,,,,,,,"[""True or false: The hidden values will change each time I start a new round."",""How much does it cost to observe each hidden value?"",""How many hidden values am I allowed to observe in each round?"",""How is your bonus determined?""]","[""True"",""$0.10"",""As many or as few as I wish"",""1 cent for every $1 I earn in each round""]",9452,,165363,,,survey-multi-choice,,40
,,,,"[True, True, True, True]",,,,,,,,"[""True or false: The hidden values will change each time I start a new round."",""How much does it cost to observe each hidden value?"",""How many hidden values am I allowed to observe in each round?"",""How is your bonus determined?""]","[""True"",""$0.01"",""As many or as few as I wish"",""1 cent for every $1 I earn in each round""]",15849,,95465,,,survey-multi-choice,,41
,,,,"[True, True, True, True]",,,,,,,,"[""True or false: The hidden values will change each time I start a new round."",""How much does it cost to observe each hidden value?"",""How many hidden values am I allowed to observe in each round?"",""How is your bonus determined?""]","[""True"",""$0.10"",""As many or as few as I wish"",""1 cent for every $1 I earn in each round""]",66180,,195360,,,survey-multi-choice,,42
,,,,"[True, False, False, True]",,,,,,,,"[""True or false: The hidden values will change each time I start a new round."",""How much does it cost to observe each hidden value?"",""How many hidden values am I allowed to observe in each round?"",""How is your bonus determined?""]","[""True"",""$1.00"",""At most 1"",""1 cent for every $1 I earn in each round""]",15970,,100206,,,survey-multi-choice,,43
,,,,"[True, True, True, True]",,,,,,,,"[""True or false: The hidden values will change each time I start a new round."",""How much does it cost to observe each hidden value?"",""How many hidden values am I allowed to observe in each round?"",""How is your bonus determined?""]","[""True"",""$1.25"",""As many or as few as I wish"",""1 cent for every $1 I earn in each round""]",11232,,149852,,,survey-multi-choice,,43
,,,,"[True, True, True, True]",,,,,,,,"[""True or false: The hidden values will change each time I start a new round."",""How much does it cost to observe each hidden value?"",""How many hidden values am I allowed to observe in each round?"",""How is your bonus determined?""]","[""True"",""$0.10"",""As many or as few as I wish"",""1 cent for every $1 I earn in each round""]",18041,,207371,,,survey-multi-choice,,44
,,,,"[True, True, True, True]",,,,,,,,"[""True or false: The hidden values will change each time I start a new round."",""How much does it cost to observe each hidden value?"",""How many hidden values am I allowed to observe in each round?"",""How is your bonus determined?""]","[""True"",""$0.05"",""As many or as few as I wish"",""1 cent for every $1 I earn in each round""]",19629,,133683,,,survey-multi-choice,,45
,,,,"[True, True, True, True]",,,,,,,,"[""True or false: The hidden values will change each time I start a new round."",""How much does it cost to observe each hidden value?"",""How many hidden values am I allowed to observe in each round?"",""How is your bonus determined?""]","[""True"",""$0.10"",""As many or as few as I wish"",""1 cent for every $1 I earn in each round""]",120374,,312346,,,survey-multi-choice,,46
,,,,"[True, True, True, True]",,,,,,,,"[""True or false: The hidden values will change each time I start a new round."",""How much does it cost to observe each hidden value?"",""How many hidden values am I allowed to observe in each round?"",""How is your bonus determined?""]","[""True"",""$0.05"",""As many or as few as I wish"",""1 cent for every $1 I earn in each round""]",25440,,286753,,,survey-multi-choice,,47
,,,,"[True, True, True, True]",,,,,,,,"[""True or false: The hidden values will change each time I start a new round."",""How much does it cost to observe each hidden value?"",""How many hidden values am I allowed to observe in each round?"",""How is your bonus determined?""]","[""True"",""$0.10"",""As many or as few as I wish"",""1 cent for every $1 I earn in each round""]",14106,,73079,,,survey-multi-choice,,48
,,,,"[True, True, True, True]",,,,,,,,"[""True or false: The hidden values will change each time I start a new round."",""How much does it cost to observe each hidden value?"",""How many hidden values am I allowed to observe in each round?"",""How is your bonus determined?""]","[""True"",""$1.25"",""As many or as few as I wish"",""1 cent for every $1 I earn in each round""]",19139,,171029,,,survey-multi-choice,,49
,,,,"[True, True, True, True]",,,,,,,,"[""True or false: The hidden values will change each time I start a new round."",""How much does it cost to observe each hidden value?"",""How many hidden values am I allowed to observe in each round?"",""How is your bonus determined?""]","[""True"",""$0.10"",""As many or as few as I wish"",""1 cent for every $1 I earn in each round""]",19492,,132744,,,survey-multi-choice,,50
,,,,"[True, True, True, True]",,,,,,,,"[""True or false: The hidden values will change each time I start a new round."",""How much does it cost to observe each hidden value?"",""How many hidden values am I allowed to observe in each round?"",""How is your bonus determined?""]","[""True"",""$0.01"",""As many or as few as I wish"",""1 cent for every $1 I earn in each round""]",24492,,186958,,,survey-multi-choice,,51
,,,,"[True, True, True, True]",,,,,,,,"[""True or false: The hidden values will change each time I start a new round."",""How much does it cost to observe each hidden value?"",""How many hidden values am I allowed to observe in each round?"",""How is your bonus determined?""]","[""True"",""$1.25"",""As many or as few as I wish"",""1 cent for every $1 I earn in each round""]",17641,,240292,,,survey-multi-choice,,52
,,,,"[True, True, False, True]",,,,,,,,"[""True or false: The hidden values will change each time I start a new round."",""How much does it cost to observe each hidden value?"",""How many hidden values am I allowed to observe in each round?"",""How is your bonus determined?""]","[""True"",""$0.10"",""At most 5"",""1 cent for every $1 I earn in each round""]",18056,,133756,,,survey-multi-choice,,53
,,,,"[True, True, True, True]",,,,,,,,"[""True or false: The hidden values will change each time I start a new round."",""How much does it cost to observe each hidden value?"",""How many hidden values am I allowed to observe in each round?"",""How is your bonus determined?""]","[""True"",""$0.10"",""As many or as few as I wish"",""1 cent for every $1 I earn in each round""]",9188,,165270,,,survey-multi-choice,,53
,,,,"[True, True, True, True]",,,,,,,,"[""True or false: The hidden values will change each time I start a new round."",""How much does it cost to observe each hidden value?"",""How many hidden values am I allowed to observe in each round?"",""How is your bonus determined?""]","[""True"",""$0.05"",""As many or as few as I wish"",""1 cent for every $1 I earn in each round""]",21966,,161064,,,survey-multi-choice,,54
,,,,"[True, True, True, True]",,,,,,,,"[""True or false: The hidden values will change each time I start a new round."",""How much does it cost to observe each hidden value?"",""How many hidden values am I allowed to observe in each round?"",""How is your bonus determined?""]","[""True"",""$1.25"",""As many or as few as I wish"",""1 cent for every $1 I earn in each round""]",24121,,219920,,,survey-multi-choice,,55
,,,,"[True, True, False, False]",,,,,,,,"[""True or false: The hidden values will change each time I start a new round."",""How much does it cost to observe each hidden value?"",""How many hidden values am I allowed to observe in each round?"",""How is your bonus determined?""]","[""True"",""$0.01"",""At most 1"",""10% of my score on a random round""]",28208,,117303,,,survey-multi-choice,,56
,,,,"[True, True, False, True]",,,,,,,,"[""True or false: The hidden values will change each time I start a new round."",""How much does it cost to observe each hidden value?"",""How many hidden values am I allowed to observe in each round?"",""How is your bonus determined?""]","[""True"",""$0.01"",""At most 1"",""1 cent for every $1 I earn in each round""]",14671,,201989,,,survey-multi-choice,,56
,,,,"[True, True, True, True]",,,,,,,,"[""True or false: The hidden values will change each time I start a new round."",""How much does it cost to observe each hidden value?"",""How many hidden values am I allowed to observe in each round?"",""How is your bonus determined?""]","[""True"",""$0.01"",""As many or as few as I wish"",""1 cent for every $1 I earn in each round""]",14232,,242917,,,survey-multi-choice,,56
,,,,"[True, True, True, True]",,,,,,,,"[""True or false: The hidden values will change each time I start a new round."",""How much does it cost to observe each hidden value?"",""How many hidden values am I allowed to observe in each round?"",""How is your bonus determined?""]","[""True"",""$1.25"",""As many or as few as I wish"",""1 cent for every $1 I earn in each round""]",14704,,141738,,,survey-multi-choice,,57
,,,,"[True, True, True, True]",,,,,,,,"[""True or false: The hidden values will change each time I start a new round."",""How much does it cost to observe each hidden value?"",""How many hidden values am I allowed to observe in each round?"",""How is your bonus determined?""]","[""True"",""$0.10"",""As many or as few as I wish"",""1 cent for every $1 I earn in each round""]",13644,,28476,,,survey-multi-choice,,58
,,,,"[True, True, True, True]",,,,,,,,"[""True or false: The hidden values will change each time I start a new round."",""How much does it cost to observe each hidden value?"",""How many hidden values am I allowed to observe in each round?"",""How is your bonus determined?""]","[""True"",""$1.25"",""As many or as few as I wish"",""1 cent for every $1 I earn in each round""]",15769,,235132,,,survey-multi-choice,,59
,,,,"[True, True, True, True]",,,,,,,,"[""True or false: The hidden values will change each time I start a new round."",""How much does it cost to observe each hidden value?"",""How many hidden values am I allowed to observe in each round?"",""How is your bonus determined?""]","[""True"",""$0.01"",""As many or as few as I wish"",""1 cent for every $1 I earn in each round""]",19554,,103170,,,survey-multi-choice,,60
,,,,"[True, False, True, True]",,,,,,,,"[""True or false: The hidden values will change each time I start a new round."",""How much does it cost to observe each hidden value?"",""How many hidden values am I allowed to observe in each round?"",""How is your bonus determined?""]","[""True"",""$1.00"",""As many or as few as I wish"",""1 cent for every $1 I earn in each round""]",60779,,276327,,,survey-multi-choice,,61
,,,,"[True, True, True, True]",,,,,,,,"[""True or false: The hidden values will change each time I start a new round."",""How much does it cost to observe each hidden value?"",""How many hidden values am I allowed to observe in each round?"",""How is your bonus determined?""]","[""True"",""$0.05"",""As many or as few as I wish"",""1 cent for every $1 I earn in each round""]",65495,,441979,,,survey-multi-choice,,61
,,,,"[True, True, True, True]",,,,,,,,"[""True or false: The hidden values will change each time I start a new round."",""How much does it cost to observe each hidden value?"",""How many hidden values am I allowed to observe in each round?"",""How is your bonus determined?""]","[""True"",""$0.05"",""As many or as few as I wish"",""1 cent for every $1 I earn in each round""]",25915,,163662,,,survey-multi-choice,,62
,,,,"[True, True, True, True]",,,,,,,,"[""True or false: The hidden values will change each time I start a new round."",""How much does it cost to observe each hidden value?"",""How many hidden values am I allowed to observe in each round?"",""How is your bonus determined?""]","[""True"",""$0.05"",""As many or as few as I wish"",""1 cent for every $1 I earn in each round""]",27673,,179845,,,survey-multi-choice,,63
,,,,"[False, False, True, True]",,,,,,,,"[""True or false: The hidden values will change each time I start a new round."",""How much does it cost to observe each hidden value?"",""How many hidden values am I allowed to observe in each round?"",""How is your bonus determined?""]","[""False"",""$1.00"",""As many or as few as I wish"",""1 cent for every $1 I earn in each round""]",26423,,241244,,,survey-multi-choice,,64
,,,,"[True, False, True, True]",,,,,,,,"[""True or false: The hidden values will change each time I start a new round."",""How much does it cost to observe each hidden value?"",""How many hidden values am I allowed to observe in each round?"",""How is your bonus determined?""]","[""True"",""$10.00"",""As many or as few as I wish"",""1 cent for every $1 I earn in each round""]",44742,,373970,,,survey-multi-choice,,64
,,,,"[True, True, True, True]",,,,,,,,"[""True or false: The hidden values will change each time I start a new round."",""How much does it cost to observe each hidden value?"",""How many hidden values am I allowed to observe in each round?"",""How is your bonus determined?""]","[""True"",""$1.25"",""As many or as few as I wish"",""1 cent for every $1 I earn in each round""]",12841,,482605,,,survey-multi-choice,,64
,,,,"[True, True, True, True]",,,,,,,,"[""True or false: The hidden values will change each time I start a new round."",""How much does it cost to observe each hidden value?"",""How many hidden values am I allowed to observe in each round?"",""How is your bonus determined?""]","[""True"",""$0.05"",""As many or as few as I wish"",""1 cent for every $1 I earn in each round""]",31919,,259216,,,survey-multi-choice,,65
,,,,"[True, True, True, True]",,,,,,,,"[""True or false: The hidden values will change each time I start a new round."",""How much does it cost to observe each hidden value?"",""How many hidden values am I allowed to observe in each round?"",""How is your bonus determined?""]","[""True"",""$1.25"",""As many or as few as I wish"",""1 cent for every $1 I earn in each round""]",17833,,157523,,,survey-multi-choice,,66
,,,,"[True, True, True, True]",,,,,,,,"[""True or false: The hidden values will change each time I start a new round."",""How much does it cost to observe each hidden value?"",""How many hidden values am I allowed to observe in each round?"",""How is your bonus determined?""]","[""True"",""$0.10"",""As many or as few as I wish"",""1 cent for every $1 I earn in each round""]",11684,,81139,,,survey-multi-choice,,67
,,,,"[False, True, True, True]",,,,,,,,"[""True or false: The hidden values will change each time I start a new round."",""How much does it cost to observe each hidden value?"",""How many hidden values am I allowed to observe in each round?"",""How is your bonus determined?""]","[""False"",""$0.10"",""As many or as few as I wish"",""1 cent for every $1 I earn in each round""]",26985,,174718,,,survey-multi-choice,,68
,,,,"[True, True, True, True]",,,,,,,,"[""True or false: The hidden values will change each time I start a new round."",""How much does it cost to observe each hidden value?"",""How many hidden values am I allowed to observe in each round?"",""How is your bonus determined?""]","[""True"",""$0.10"",""As many or as few as I wish"",""1 cent for every $1 I earn in each round""]",34578,,265541,,,survey-multi-choice,,68
,,,,"[False, True, True, False]",,,,,,,,"[""True or false: The hidden values will change each time I start a new round."",""How much does it cost to observe each hidden value?"",""How many hidden values am I allowed to observe in each round?"",""How is your bonus determined?""]","[""False"",""$1.25"",""As many or as few as I wish"",""10% of my best score on any round""]",38757,,87530,,,survey-multi-choice,,69
,,,,"[True, True, True, True]",,,,,,,,"[""True or false: The hidden values will change each time I start a new round."",""How much does it cost to observe each hidden value?"",""How many hidden values am I allowed to observe in each round?"",""How is your bonus determined?""]","[""True"",""$1.25"",""As many or as few as I wish"",""1 cent for every $1 I earn in each round""]",16537,,237828,,,survey-multi-choice,,69
,,,,"[True, False, True, True]",,,,,,,,"[""True or false: The hidden values will change each time I start a new round."",""How much does it cost to observe each hidden value?"",""How many hidden values am I allowed to observe in each round?"",""How is your bonus determined?""]","[""True"",""$1.00"",""As many or as few as I wish"",""1 cent for every $1 I earn in each round""]",26690,,92291,,,survey-multi-choice,,70
,,,,"[True, True, True, True]",,,,,,,,"[""True or false: The hidden values will change each time I start a new round."",""How much does it cost to observe each hidden value?"",""How many hidden values am I allowed to observe in each round?"",""How is your bonus determined?""]","[""True"",""$0.01"",""As many or as few as I wish"",""1 cent for every $1 I earn in each round""]",8708,,124627,,,survey-multi-choice,,70
,,,,"[True, True, True, True]",,,,,,,,"[""True or false: The hidden values will change each time I start a new round."",""How much does it cost to observe each hidden value?"",""How many hidden values am I allowed to observe in each round?"",""How is your bonus determined?""]","[""True"",""$0.01"",""As many or as few as I wish"",""1 cent for every $1 I earn in each round""]",27305,,170186,,,survey-multi-choice,,71
,,,,"[True, True, True, True]",,,,,,,,"[""True or false: The hidden values will change each time I start a new round."",""How much does it cost to observe each hidden value?"",""How many hidden values am I allowed to observe in each round?"",""How is your bonus determined?""]","[""True"",""$0.05"",""As many or as few as I wish"",""1 cent for every $1 I earn in each round""]",25132,,116923,,,survey-multi-choice,,72
,,,,"[True, True, True, True]",,,,,,,,"[""True or false: The hidden values will change each time I start a new round."",""How much does it cost to observe each hidden value?"",""How many hidden values am I allowed to observe in each round?"",""How is your bonus determined?""]","[""True"",""$0.01"",""As many or as few as I wish"",""1 cent for every $1 I earn in each round""]",9789,,43995,,,survey-multi-choice,,73
,,,,"[True, False, True, True]",,,,,,,,"[""True or false: The hidden values will change each time I start a new round."",""How much does it cost to observe each hidden value?"",""How many hidden values am I allowed to observe in each round?"",""How is your bonus determined?""]","[""True"",""$0.01"",""As many or as few as I wish"",""1 cent for every $1 I earn in each round""]",9443,,26214,,,survey-multi-choice,,74
,,,,"[True, False, True, True]",,,,,,,,"[""True or false: The hidden values will change each time I start a new round."",""How much does it cost to observe each hidden value?"",""How many hidden values am I allowed to observe in each round?"",""How is your bonus determined?""]","[""True"",""$0.01"",""As many or as few as I wish"",""1 cent for every $1 I earn in each round""]",13769,,53902,,,survey-multi-choice,,74
,,,,"[True, True, True, True]",,,,,,,,"[""True or false: The hidden values will change each time I start a new round."",""How much does it cost to observe each hidden value?"",""How many hidden values am I allowed to observe in each round?"",""How is your bonus determined?""]","[""True"",""$1.25"",""As many or as few as I wish"",""1 cent for every $1 I earn in each round""]",21771,,161856,,,survey-multi-choice,,74
,,,,"[True, True, True, True]",,,,,,,,"[""True or false: The hidden values will change each time I start a new round."",""How much does it cost to observe each hidden value?"",""How many hidden values am I allowed to observe in each round?"",""How is your bonus determined?""]","[""True"",""$0.10"",""As many or as few as I wish"",""1 cent for every $1 I earn in each round""]",19222,,112758,,,survey-multi-choice,,75
,,,,"[True, True, True, False]",,,,,,,,"[""True or false: The hidden values will change each time I start a new round."",""How much does it cost to observe each hidden value?"",""How many hidden values am I allowed to observe in each round?"",""How is your bonus determined?""]","[""True"",""$0.01"",""As many or as few as I wish"",""10% of my best score on any round""]",29517,,88313,,,survey-multi-choice,,76
,,,,"[True, True, True, True]",,,,,,,,"[""True or false: The hidden values will change each time I start a new round."",""How much does it cost to observe each hidden value?"",""How many hidden values am I allowed to observe in each round?"",""How is your bonus determined?""]","[""True"",""$0.01"",""As many or as few as I wish"",""1 cent for every $1 I earn in each round""]",10049,,314774,,,survey-multi-choice,,76
,,,,"[True, True, False, True]",,,,,,,,"[""True or false: The hidden values will change each time I start a new round."",""How much does it cost to observe each hidden value?"",""How many hidden values am I allowed to observe in each round?"",""How is your bonus determined?""]","[""True"",""$1.25"",""At most 1"",""1 cent for every $1 I earn in each round""]",28848,,124589,,,survey-multi-choice,,77
,,,,"[True, True, True, True]",,,,,,,,"[""True or false: The hidden values will change each time I start a new round."",""How much does it cost to observe each hidden value?"",""How many hidden values am I allowed to observe in each round?"",""How is your bonus determined?""]","[""True"",""$1.25"",""As many or as few as I wish"",""1 cent for every $1 I earn in each round""]",12454,,166734,,,survey-multi-choice,,77
,,,,"[True, True, True, True]",,,,,,,,"[""True or false: The hidden values will change each time I start a new round."",""How much does it cost to observe each hidden value?"",""How many hidden values am I allowed to observe in each round?"",""How is your bonus determined?""]","[""True"",""$1.25"",""As many or as few as I wish"",""1 cent for every $1 I earn in each round""]",84799,,317984,,,survey-multi-choice,,78
,,,,"[True, True, True, True]",,,,,,,,"[""True or false: The hidden values will change each time I start a new round."",""How much does it cost to observe each hidden value?"",""How many hidden values am I allowed to observe in each round?"",""How is your bonus determined?""]","[""True"",""$0.01"",""As many or as few as I wish"",""1 cent for every $1 I earn in each round""]",21079,,128951,,,survey-multi-choice,,79
,,,,"[True, False, True, True]",,,,,,,,"[""True or false: The hidden values will change each time I start a new round."",""How much does it cost to observe each hidden value?"",""How many hidden values am I allowed to observe in each round?"",""How is your bonus determined?""]","[""True"",""$1.00"",""As many or as few as I wish"",""1 cent for every $1 I earn in each round""]",35095,,125979,,,survey-multi-choice,,80
,,,,"[True, True, True, True]",,,,,,,,"[""True or false: The hidden values will change each time I start a new round."",""How much does it cost to observe each hidden value?"",""How many hidden values am I allowed to observe in each round?"",""How is your bonus determined?""]","[""True"",""$1.25"",""As many or as few as I wish"",""1 cent for every $1 I earn in each round""]",15964,,182597,,,survey-multi-choice,,80
,,,,"[True, True, True, True]",,,,,,,,"[""True or false: The hidden values will change each time I start a new round."",""How much does it cost to observe each hidden value?"",""How many hidden values am I allowed to observe in each round?"",""How is your bonus determined?""]","[""True"",""$0.10"",""As many or as few as I wish"",""1 cent for every $1 I earn in each round""]",31020,,164308,,,survey-multi-choice,,81
,,,,"[True, True, True, True]",,,,,,,,"[""True or false: The hidden values will change each time I start a new round."",""How much does it cost to observe each hidden value?"",""How many hidden values am I allowed to observe in each round?"",""How is your bonus determined?""]","[""True"",""$0.05"",""As many or as few as I wish"",""1 cent for every $1 I earn in each round""]",19235,,148421,,,survey-multi-choice,,82
,,,,"[True, True, True, True]",,,,,,,,"[""True or false: The hidden values will change each time I start a new round."",""How much does it cost to observe each hidden value?"",""How many hidden values am I allowed to observe in each round?"",""How is your bonus determined?""]","[""True"",""$0.10"",""As many or as few as I wish"",""1 cent for every $1 I earn in each round""]",21361,,168595,,,survey-multi-choice,,83
,,,,"[True, False, True, True]",,,,,,,,"[""True or false: The hidden values will change each time I start a new round."",""How much does it cost to observe each hidden value?"",""How many hidden values am I allowed to observe in each round?"",""How is your bonus determined?""]","[""True"",""$1.00"",""As many or as few as I wish"",""1 cent for every $1 I earn in each round""]",26831,,131800,,,survey-multi-choice,,84
,,,,"[True, True, True, True]",,,,,,,,"[""True or false: The hidden values will change each time I start a new round."",""How much does it cost to observe each hidden value?"",""How many hidden values am I allowed to observe in each round?"",""How is your bonus determined?""]","[""True"",""$0.05"",""As many or as few as I wish"",""1 cent for every $1 I earn in each round""]",13987,,176719,,,survey-multi-choice,,84
,,,,"[True, True, True, True]",,,,,,,,"[""True or false: The hidden values will change each time I start a new round."",""How much does it cost to observe each hidden value?"",""How many hidden values am I allowed to observe in each round?"",""How is your bonus determined?""]","[""True"",""$0.10"",""As many or as few as I wish"",""1 cent for every $1 I earn in each round""]",19539,,305811,,,survey-multi-choice,,85
,,,,"[True, True, False, False]",,,,,,,,"[""True or false: The hidden values will change each time I start a new round."",""How much does it cost to observe each hidden value?"",""How many hidden values am I allowed to observe in each round?"",""How is your bonus determined?""]","[""True"",""$0.10"",""At most 5"",""10% of my best score on any round""]",20830,,48340,,,survey-multi-choice,,86
,,,,"[False, True, True, True]",,,,,,,,"[""True or false: The hidden values will change each time I start a new round."",""How much does it cost to observe each hidden value?"",""How many hidden values am I allowed to observe in each round?"",""How is your bonus determined?""]","[""False"",""$0.10"",""As many or as few as I wish"",""1 cent for every $1 I earn in each round""]",23867,,119268,,,survey-multi-choice,,86
,,,,"[True, True, True, True]",,,,,,,,"[""True or false: The hidden values will change each time I start a new round."",""How much does it cost to observe each hidden value?"",""How many hidden values am I allowed to observe in each round?"",""How is your bonus determined?""]","[""True"",""$0.10"",""As many or as few as I wish"",""1 cent for every $1 I earn in each round""]",12268,,155107,,,survey-multi-choice,,86
,,,,"[True, True, True, True]",,,,,,,,"[""True or false: The hidden values will change each time I start a new round."",""How much does it cost to observe each hidden value?"",""How many hidden values am I allowed to observe in each round?"",""How is your bonus determined?""]","[""True"",""$1.25"",""As many or as few as I wish"",""1 cent for every $1 I earn in each round""]",19922,,98514,,,survey-multi-choice,,87
,,,,"[True, True, True, True]",,,,,,,,"[""True or false: The hidden values will change each time I start a new round."",""How much does it cost to observe each hidden value?"",""How many hidden values am I allowed to observe in each round?"",""How is your bonus determined?""]","[""True"",""$0.10"",""As many or as few as I wish"",""1 cent for every $1 I earn in each round""]",37622,,201107,,,survey-multi-choice,,88
,,,,"[True, True, True, True]",,,,,,,,"[""True or false: The hidden values will change each time I start a new round."",""How much does it cost to observe each hidden value?"",""How many hidden values am I allowed to observe in each round?"",""How is your bonus determined?""]","[""True"",""$0.01"",""As many or as few as I wish"",""1 cent for every $1 I earn in each round""]",17512,,98458,,,survey-multi-choice,,89
,,,,"[True, False, False, False]",,,,,,,,"[""True or false: The hidden values will change each time I start a new round."",""How much does it cost to observe each hidden value?"",""How many hidden values am I allowed to observe in each round?"",""How is your bonus determined?""]","[""True"",""$1.00"",""At most 1"",""10% of my best score on any round""]",9554,,41955,,,survey-multi-choice,,90
,,,,"[True, True, True, True]",,,,,,,,"[""True or false: The hidden values will change each time I start a new round."",""How much does it cost to observe each hidden value?"",""How many hidden values am I allowed to observe in each round?"",""How is your bonus determined?""]","[""True"",""$0.10"",""As many or as few as I wish"",""1 cent for every $1 I earn in each round""]",17702,,150191,,,survey-multi-choice,,90
,,,,"[True, True, True, True]",,,,,,,,"[""True or false: The hidden values will change each time I start a new round."",""How much does it cost to observe each hidden value?"",""How many hidden values am I allowed to observe in each round?"",""How is your bonus determined?""]","[""True"",""$1.25"",""As many or as few as I wish"",""1 cent for every $1 I earn in each round""]",21115,,154018,,,survey-multi-choice,,91
,,,,"[True, True, True, True]",,,,,,,,"[""True or false: The hidden values will change each time I start a new round."",""How much does it cost to observe each hidden value?"",""How many hidden values am I allowed to observe in each round?"",""How is your bonus determined?""]","[""True"",""$0.05"",""As many or as few as I wish"",""1 cent for every $1 I earn in each round""]",15501,,111699,,,survey-multi-choice,,92
,,,,"[True, True, True, True]",,,,,,,,"[""True or false: The hidden values will change each time I start a new round."",""How much does it cost to observe each hidden value?"",""How many hidden values am I allowed to observe in each round?"",""How is your bonus determined?""]","[""True"",""$0.05"",""As many or as few as I wish"",""1 cent for every $1 I earn in each round""]",18387,,98169,,,survey-multi-choice,,93
,,,,"[True, True, False, True]",,,,,,,,"[""True or false: The hidden values will change each time I start a new round."",""How much does it cost to observe each hidden value?"",""How many hidden values am I allowed to observe in each round?"",""How is your bonus determined?""]","[""True"",""$0.05"",""At most 5"",""1 cent for every $1 I earn in each round""]",29793,,281786,,,survey-multi-choice,,94
,,,,"[True, True, True, True]",,,,,,,,"[""True or false: The hidden values will change each time I start a new round."",""How much does it cost to observe each hidden value?"",""How many hidden values am I allowed to observe in each round?"",""How is your bonus determined?""]","[""True"",""$0.05"",""As many or as few as I wish"",""1 cent for every $1 I earn in each round""]",26719,,362766,,,survey-multi-choice,,94
,,,,"[True, True, False, True]",,,,,,,,"[""True or false: The hidden values will change each time I start a new round."",""How much does it cost to observe each hidden value?"",""How many hidden values am I allowed to observe in each round?"",""How is your bonus determined?""]","[""True"",""$1.25"",""At most 1"",""1 cent for every $1 I earn in each round""]",64789,,193333,,,survey-multi-choice,,95
,,,,"[True, True, True, True]",,,,,,,,"[""True or false: The hidden values will change each time I start a new round."",""How much does it cost to observe each hidden value?"",""How many hidden values am I allowed to observe in each round?"",""How is your bonus determined?""]","[""True"",""$1.25"",""As many or as few as I wish"",""1 cent for every $1 I earn in each round""]",22376,,225856,,,survey-multi-choice,,95
,,,,"[True, True, True, True]",,,,,,,,"[""True or false: The hidden values will change each time I start a new round."",""How much does it cost to observe each hidden value?"",""How many hidden values am I allowed to observe in each round?"",""How is your bonus determined?""]","[""True"",""$1.25"",""As many or as few as I wish"",""1 cent for every $1 I earn in each round""]",50309,,228343,,,survey-multi-choice,,96
,,,,"[False, False, True, True]",,,,,,,,"[""True or false: The hidden values will change each time I start a new round."",""How much does it cost to observe each hidden value?"",""How many hidden values am I allowed to observe in each round?"",""How is your bonus determined?""]","[""False"",""$0.01"",""As many or as few as I wish"",""1 cent for every $1 I earn in each round""]",37072,,141224,,,survey-multi-choice,,97
,,,,"[False, True, True, True]",,,,,,,,"[""True or false: The hidden values will change each time I start a new round."",""How much does it cost to observe each hidden value?"",""How many hidden values am I allowed to observe in each round?"",""How is your bonus determined?""]","[""False"",""$0.10"",""As many or as few as I wish"",""1 cent for every $1 I earn in each round""]",20083,,208251,,,survey-multi-choice,,97
,,,,"[True, True, True, True]",,,,,,,,"[""True or false: The hidden values will change each time I start a new round."",""How much does it cost to observe each hidden value?"",""How many hidden values am I allowed to observe in each round?"",""How is your bonus determined?""]","[""True"",""$0.10"",""As many or as few as I wish"",""1 cent for every $1 I earn in each round""]",10550,,241633,,,survey-multi-choice,,97
,,,,"[True, True, False, True]",,,,,,,,"[""True or false: The hidden values will change each time I start a new round."",""How much does it cost to observe each hidden value?"",""How many hidden values am I allowed to observe in each round?"",""How is your bonus determined?""]","[""True"",""$0.10"",""At most 5"",""1 cent for every $1 I earn in each round""]",42881,,329908,,,survey-multi-choice,,98
,,,,"[True, True, True, True]",,,,,,,,"[""True or false: The hidden values will change each time I start a new round."",""How much does it cost to observe each hidden value?"",""How many hidden values am I allowed to observe in each round?"",""How is your bonus determined?""]","[""True"",""$0.10"",""As many or as few as I wish"",""1 cent for every $1 I earn in each round""]",11799,,364413,,,survey-multi-choice,,98
,,,,"[True, True, True, True]",,,,,,,,"[""True or false: The hidden values will change each time I start a new round."",""How much does it cost to observe each hidden value?"",""How many hidden values am I allowed to observe in each round?"",""How is your bonus determined?""]","[""True"",""$0.10"",""As many or as few as I wish"",""1 cent for every $1 I earn in each round""]",26122,,206261,,,survey-multi-choice,,99
,,,,"[True, True, True, True]",,,,,,,,"[""True or false: The hidden values will change each time I start a new round."",""How much does it cost to observe each hidden value?"",""How many hidden values am I allowed to observe in each round?"",""How is your bonus determined?""]","[""True"",""$0.10"",""As many or as few as I wish"",""1 cent for every $1 I earn in each round""]",22974,,217558,,,survey-multi-choice,,100
,,,,"[True, True, True, True]",,,,,,,,"[""True or false: The hidden values will change each time I start a new round."",""How much does it cost to observe each hidden value?"",""How many hidden values am I allowed to observe in each round?"",""How is your bonus determined?""]","[""True"",""$0.01"",""As many or as few as I wish"",""1 cent for every $1 I earn in each round""]",19237,,264952,,,survey-multi-choice,,101
,,,,"[False, False, True, True]",,,,,,,,"[""True or false: The hidden values will change each time I start a new round."",""How much does it cost to observe each hidden value?"",""How many hidden values am I allowed to observe in each round?"",""How is your bonus determined?""]","[""False"",""$0.01"",""As many or as few as I wish"",""1 cent for every $1 I earn in each round""]",30590,,138039,,,survey-multi-choice,,102
,,,,"[True, True, True, False]",,,,,,,,"[""True or false: The hidden values will change each time I start a new round."",""How much does it cost to observe each hidden value?"",""How many hidden values am I allowed to observe in each round?"",""How is your bonus determined?""]","[""True"",""$1.25"",""As many or as few as I wish"",""1% of my best score on any round""]",22192,,247845,,,survey-multi-choice,,102
,,,,"[True, True, True, True]",,,,,,,,"[""True or false: The hidden values will change each time I start a new round."",""How much does it cost to observe each hidden value?"",""How many hidden values am I allowed to observe in each round?"",""How is your bonus determined?""]","[""True"",""$1.25"",""As many or as few as I wish"",""1 cent for every $1 I earn in each round""]",11867,,290310,,,survey-multi-choice,,102
,,,,"[True, True, True, True]",,,,,,,,"[""True or false: The hidden values will change each time I start a new round."",""How much does it cost to observe each hidden value?"",""How many hidden values am I allowed to observe in each round?"",""How is your bonus determined?""]","[""True"",""$0.10"",""As many or as few as I wish"",""1 cent for every $1 I earn in each round""]",15696,,127282,,,survey-multi-choice,,103
,,,,"[True, False, False, True]",,,,,,,,"[""True or false: The hidden values will change each time I start a new round."",""How much does it cost to observe each hidden value?"",""How many hidden values am I allowed to observe in each round?"",""How is your bonus determined?""]","[""True"",""$2.50"",""At most 1"",""1 cent for every $1 I earn in each round""]",14452,,286664,,,survey-multi-choice,,104
,,,,"[True, False, True, True]",,,,,,,,"[""True or false: The hidden values will change each time I start a new round."",""How much does it cost to observe each hidden value?"",""How many hidden values am I allowed to observe in each round?"",""How is your bonus determined?""]","[""True"",""$2.50"",""As many or as few as I wish"",""1 cent for every $1 I earn in each round""]",9837,,370864,,,survey-multi-choice,,104
,,,,"[True, True, True, True]",,,,,,,,"[""True or false: The hidden values will change each time I start a new round."",""How much does it cost to observe each hidden value?"",""How many hidden values am I allowed to observe in each round?"",""How is your bonus determined?""]","[""True"",""$1.25"",""As many or as few as I wish"",""1 cent for every $1 I earn in each round""]",8158,,467858,,,survey-multi-choice,,104
,,,,"[True, True, True, True]",,,,,,,,"[""True or false: The hidden values will change each time I start a new round."",""How much does it cost to observe each hidden value?"",""How many hidden values am I allowed to observe in each round?"",""How is your bonus determined?""]","[""True"",""$0.05"",""As many or as few as I wish"",""1 cent for every $1 I earn in each round""]",13525,,126132,,,survey-multi-choice,,105
,,,,"[True, True, True, True]",,,,,,,,"[""True or false: The hidden values will change each time I start a new round."",""How much does it cost to observe each hidden value?"",""How many hidden values am I allowed to observe in each round?"",""How is your bonus determined?""]","[""True"",""$0.10"",""As many or as few as I wish"",""1 cent for every $1 I earn in each round""]",21562,,147252,,,survey-multi-choice,,106
,,,,"[True, False, False, True]",,,,,,,,"[""True or false: The hidden values will change each time I start a new round."",""How much does it cost to observe each hidden value?"",""How many hidden values am I allowed to observe in each round?"",""How is your bonus determined?""]","[""True"",""$0.01"",""At most 1"",""1 cent for every $1 I earn in each round""]",79129,,259589,,,survey-multi-choice,,107
,,,,"[True, False, True, True]",,,,,,,,"[""True or false: The hidden values will change each time I start a new round."",""How much does it cost to observe each hidden value?"",""How many hidden values am I allowed to observe in each round?"",""How is your bonus determined?""]","[""True"",""$0.01"",""As many or as few as I wish"",""1 cent for every $1 I earn in each round""]",31563,,427776,,,survey-multi-choice,,107
,,,,"[True, True, True, True]",,,,,,,,"[""True or false: The hidden values will change each time I start a new round."",""How much does it cost to observe each hidden value?"",""How many hidden values am I allowed to observe in each round?"",""How is your bonus determined?""]","[""True"",""$0.10"",""As many or as few as I wish"",""1 cent for every $1 I earn in each round""]",13546,,461715,,,survey-multi-choice,,107
,,,,"[True, True, True, True]",,,,,,,,"[""True or false: The hidden values will change each time I start a new round."",""How much does it cost to observe each hidden value?"",""How many hidden values am I allowed to observe in each round?"",""How is your bonus determined?""]","[""True"",""$0.01"",""As many or as few as I wish"",""1 cent for every $1 I earn in each round""]",15604,,122353,,,survey-multi-choice,,108
,,,,"[True, True, True, True]",,,,,,,,"[""True or false: The hidden values will change each time I start a new round."",""How much does it cost to observe each hidden value?"",""How many hidden values am I allowed to observe in each round?"",""How is your bonus determined?""]","[""True"",""$0.01"",""As many or as few as I wish"",""1 cent for every $1 I earn in each round""]",16913,,193190,,,survey-multi-choice,,109
,,,,"[True, True, True, True]",,,,,,,,"[""True or false: The hidden values will change each time I start a new round."",""How much does it cost to observe each hidden value?"",""How many hidden values am I allowed to observe in each round?"",""How is your bonus determined?""]","[""True"",""$1.25"",""As many or as few as I wish"",""1 cent for every $1 I earn in each round""]",26400,,169613,,,survey-multi-choice,,110
,,,,"[True, True, True, True]",,,,,,,,"[""True or false: The hidden values will change each time I start a new round."",""How much does it cost to observe each hidden value?"",""How many hidden values am I allowed to observe in each round?"",""How is your bonus determined?""]","[""True"",""$0.05"",""As many or as few as I wish"",""1 cent for every $1 I earn in each round""]",17460,,191125,,,survey-multi-choice,,111
,,,,"[True, True, True, True]",,,,,,,,"[""True or false: The hidden values will change each time I start a new round."",""How much does it cost to observe each hidden value?"",""How many hidden values am I allowed to observe in each round?"",""How is your bonus determined?""]","[""True"",""$1.25"",""As many or as few as I wish"",""1 cent for every $1 I earn in each round""]",22270,,154594,,,survey-multi-choice,,112
,,,,"[True, True, True, True]",,,,,,,,"[""True or false: The hidden values will change each time I start a new round."",""How much does it cost to observe each hidden value?"",""How many hidden values am I allowed to observe in each round?"",""How is your bonus determined?""]","[""True"",""$1.25"",""As many or as few as I wish"",""1 cent for every $1 I earn in each round""]",24124,,234804,,,survey-multi-choice,,113
,,,,"[True, False, False, False]",,,,,,,,"[""True or false: The hidden values will change each time I start a new round."",""How much does it cost to observe each hidden value?"",""How many hidden values am I allowed to observe in each round?"",""How is your bonus determined?""]","[""True"",""$0.05"",""At most 5"",""1% of my best score on any round""]",19732,,127837,,,survey-multi-choice,,114
,,,,"[True, True, True, True]",,,,,,,,"[""True or false: The hidden values will change each time I start a new round."",""How much does it cost to observe each hidden value?"",""How many hidden values am I allowed to observe in each round?"",""How is your bonus determined?""]","[""True"",""$1.25"",""As many or as few as I wish"",""1 cent for every $1 I earn in each round""]",24187,,229426,,,survey-multi-choice,,114
,,,,"[True, True, True, True]",,,,,,,,"[""True or false: The hidden values will change each time I start a new round."",""How much does it cost to observe each hidden value?"",""How many hidden values am I allowed to observe in each round?"",""How is your bonus determined?""]","[""True"",""$0.01"",""As many or as few as I wish"",""1 cent for every $1 I earn in each round""]",19748,,144881,,,survey-multi-choice,,115
,,,,"[True, True, True, False]",,,,,,,,"[""True or false: The hidden values will change each time I start a new round."",""How much does it cost to observe each hidden value?"",""How many hidden values am I allowed to observe in each round?"",""How is your bonus determined?""]","[""True"",""$0.01"",""As many or as few as I wish"",""1% of my best score on any round""]",26907,,166193,,,survey-multi-choice,,116
,,,,"[True, True, True, True]",,,,,,,,"[""True or false: The hidden values will change each time I start a new round."",""How much does it cost to observe each hidden value?"",""How many hidden values am I allowed to observe in each round?"",""How is your bonus determined?""]","[""True"",""$0.01"",""As many or as few as I wish"",""1 cent for every $1 I earn in each round""]",19929,,221690,,,survey-multi-choice,,116
,,,,"[True, True, True, True]",,,,,,,,"[""True or false: The hidden values will change each time I start a new round."",""How much does it cost to observe each hidden value?"",""How many hidden values am I allowed to observe in each round?"",""How is your bonus determined?""]","[""True"",""$0.01"",""As many or as few as I wish"",""1 cent for every $1 I earn in each round""]",17520,,131951,,,survey-multi-choice,,117
,,,,"[True, True, True, True]",,,,,,,,"[""True or false: The hidden values will change each time I start a new round."",""How much does it cost to observe each hidden value?"",""How many hidden values am I allowed to observe in each round?"",""How is your bonus determined?""]","[""True"",""$0.10"",""As many or as few as I wish"",""1 cent for every $1 I earn in each round""]",17616,,130114,,,survey-multi-choice,,118
,,,,"[True, True, True, True]",,,,,,,,"[""True or false: The hidden values will change each time I start a new round."",""How much does it cost to observe each hidden value?"",""How many hidden values am I allowed to observe in each round?"",""How is your bonus determined?""]","[""True"",""$1.25"",""As many or as few as I wish"",""1 cent for every $1 I earn in each round""]",23123,,163386,,,survey-multi-choice,,119
,,,,"[True, True, False, True]",,,,,,,,"[""True or false: The hidden values will change each time I start a new round."",""How much does it cost to observe each hidden value?"",""How many hidden values am I allowed to observe in each round?"",""How is your bonus determined?""]","[""True"",""$0.01"",""At most 1"",""1 cent for every $1 I earn in each round""]",19818,,110713,,,survey-multi-choice,,120
,,,,"[True, True, True, True]",,,,,,,,"[""True or false: The hidden values will change each time I start a new round."",""How much does it cost to observe each hidden value?"",""How many hidden values am I allowed to observe in each round?"",""How is your bonus determined?""]","[""True"",""$0.01"",""As many or as few as I wish"",""1 cent for every $1 I earn in each round""]",15307,,201994,,,survey-multi-choice,,120
,,,,"[True, True, True, True]",,,,,,,,"[""True or false: The hidden values will change each time I start a new round."",""How much does it cost to observe each hidden value?"",""How many hidden values am I allowed to observe in each round?"",""How is your bonus determined?""]","[""True"",""$1.25"",""As many or as few as I wish"",""1 cent for every $1 I earn in each round""]",129711,,227154,,,survey-multi-choice,,121
,,,,"[True, True, True, True]",,,,,,,,"[""True or false: The hidden values will change each time I start a new round."",""How much does it cost to observe each hidden value?"",""How many hidden values am I allowed to observe in each round?"",""How is your bonus determined?""]","[""True"",""$0.01"",""As many or as few as I wish"",""1 cent for every $1 I earn in each round""]",22824,,223425,,,survey-multi-choice,,122
,,,,"[True, True, True, True]",,,,,,,,"[""True or false: The hidden values will change each time I start a new round."",""How much does it cost to observe each hidden value?"",""How many hidden values am I allowed to observe in each round?"",""How is your bonus determined?""]","[""True"",""$0.10"",""As many or as few as I wish"",""1 cent for every $1 I earn in each round""]",25126,,284954,,,survey-multi-choice,,123
,,,,"[True, True, True, True]",,,,,,,,"[""True or false: The hidden values will change each time I start a new round."",""How much does it cost to observe each hidden value?"",""How many hidden values am I allowed to observe in each round?"",""How is your bonus determined?""]","[""True"",""$0.01"",""As many or as few as I wish"",""1 cent for every $1 I earn in each round""]",25398,,262773,,,survey-multi-choice,,124
,,,,"[True, True, True, True]",,,,,,,,"[""True or false: The hidden values will change each time I start a new round."",""How much does it cost to observe each hidden value?"",""How many hidden values am I allowed to observe in each round?"",""How is your bonus determined?""]","[""True"",""$1.25"",""As many or as few as I wish"",""1 cent for every $1 I earn in each round""]",35704,,206685,,,survey-multi-choice,,125
,,,,"[True, True, True, True]",,,,,,,,"[""True or false: The hidden values will change each time I start a new round."",""How much does it cost to observe each hidden value?"",""How many hidden values am I allowed to observe in each round?"",""How is your bonus determined?""]","[""True"",""$0.01"",""As many or as few as I wish"",""1 cent for every $1 I earn in each round""]",27292,,71480,,,survey-multi-choice,,126
,,,,"[True, True, True, True]",,,,,,,,"[""True or false: The hidden values will change each time I start a new round."",""How much does it cost to observe each hidden value?"",""How many hidden values am I allowed to observe in each round?"",""How is your bonus determined?""]","[""True"",""$0.10"",""As many or as few as I wish"",""1 cent for every $1 I earn in each round""]",16505,,155779,,,survey-multi-choice,,127
,,,,"[True, False, True, False]",,,,,,,,"[""True or false: The hidden values will change each time I start a new round."",""How much does it cost to observe each hidden value?"",""How many hidden values am I allowed to observe in each round?"",""How is your bonus determined?""]","[""True"",""$0.10"",""As many or as few as I wish"",""10% of my best score on any round""]",20464,,65369,,,survey-multi-choice,,128
,,,,"[True, True, True, True]",,,,,,,,"[""True or false: The hidden values will change each time I start a new round."",""How much does it cost to observe each hidden value?"",""How many hidden values am I allowed to observe in each round?"",""How is your bonus determined?""]","[""True"",""$0.05"",""As many or as few as I wish"",""1 cent for every $1 I earn in each round""]",13063,,164955,,,survey-multi-choice,,128
,,,,"[True, True, True, True]",,,,,,,,"[""True or false: The hidden values will change each time I start a new round."",""How much does it cost to observe each hidden value?"",""How many hidden values am I allowed to observe in each round?"",""How is your bonus determined?""]","[""True"",""$0.05"",""As many or as few as I wish"",""1 cent for every $1 I earn in each round""]",23305,,158921,,,survey-multi-choice,,129
,,,,"[True, False, False, True]",,,,,,,,"[""True or false: The hidden values will change each time I start a new round."",""How much does it cost to observe each hidden value?"",""How many hidden values am I allowed to observe in each round?"",""How is your bonus determined?""]","[""True"",""$1.00"",""At most 1"",""1 cent for every $1 I earn in each round""]",30223,,164799,,,survey-multi-choice,,130
,,,,"[True, True, True, True]",,,,,,,,"[""True or false: The hidden values will change each time I start a new round."",""How much does it cost to observe each hidden value?"",""How many hidden values am I allowed to observe in each round?"",""How is your bonus determined?""]","[""True"",""$0.10"",""As many or as few as I wish"",""1 cent for every $1 I earn in each round""]",11290,,244440,,,survey-multi-choice,,130
,,,,"[True, True, False, True]",,,,,,,,"[""True or false: The hidden values will change each time I start a new round."",""How much does it cost to observe each hidden value?"",""How many hidden values am I allowed to observe in each round?"",""How is your bonus determined?""]","[""True"",""$0.05"",""At most 1"",""1 cent for every $1 I earn in each round""]",19815,,113723,,,survey-multi-choice,,131
,,,,"[True, True, True, True]",,,,,,,,"[""True or false: The hidden values will change each time I start a new round."",""How much does it cost to observe each hidden value?"",""How many hidden values am I allowed to observe in each round?"",""How is your bonus determined?""]","[""True"",""$0.05"",""As many or as few as I wish"",""1 cent for every $1 I earn in each round""]",15706,,159440,,,survey-multi-choice,,131
,,,,"[True, True, True, True]",,,,,,,,"[""True or false: The hidden values will change each time I start a new round."",""How much does it cost to observe each hidden value?"",""How many hidden values am I allowed to observe in each round?"",""How is your bonus determined?""]","[""True"",""$0.05"",""As many or as few as I wish"",""1 cent for every $1 I earn in each round""]",13973,,98036,,,survey-multi-choice,,132
,,,,"[True, True, True, True]",,,,,,,,"[""True or false: The hidden values will change each time I start a new round."",""How much does it cost to observe each hidden value?"",""How many hidden values am I allowed to observe in each round?"",""How is your bonus determined?""]","[""True"",""$0.01"",""As many or as few as I wish"",""1 cent for every $1 I earn in each round""]",16846,,102942,,,survey-multi-choice,,133
,,,,"[True, True, True, True]",,,,,,,,"[""True or false: The hidden values will change each time I start a new round."",""How much does it cost to observe each hidden value?"",""How many hidden values am I allowed to observe in each round?"",""How is your bonus determined?""]","[""True"",""$0.05"",""As many or as few as I wish"",""1 cent for every $1 I earn in each round""]",16457,,52997,,,survey-multi-choice,,134
,,,,"[True, True, True, True]",,,,,,,,"[""True or false: The hidden values will change each time I start a new round."",""How much does it cost to observe each hidden value?"",""How many hidden values am I allowed to observe in each round?"",""How is your bonus determined?""]","[""True"",""$1.25"",""As many or as few as I wish"",""1 cent for every $1 I earn in each round""]",18613,,50488,,,survey-multi-choice,,135
,,,,"[True, True, True, True]",,,,,,,,"[""True or false: The hidden values will change each time I start a new round."",""How much does it cost to observe each hidden value?"",""How many hidden values am I allowed to observe in each round?"",""How is your bonus determined?""]","[""True"",""$0.10"",""As many or as few as I wish"",""1 cent for every $1 I earn in each round""]",19695,,180689,,,survey-multi-choice,,136
,,,,"[True, False, False, True]",,,,,,,,"[""True or false: The hidden values will change each time I start a new round."",""How much does it cost to observe each hidden value?"",""How many hidden values am I allowed to observe in each round?"",""How is your bonus determined?""]","[""True"",""$0.01"",""At most 1"",""1 cent for every $1 I earn in each round""]",37842,,148192,,,survey-multi-choice,,137
,,,,"[True, True, False, True]",,,,,,,,"[""True or false: The hidden values will change each time I start a new round."",""How much does it cost to observe each hidden value?"",""How many hidden values am I allowed to observe in each round?"",""How is your bonus determined?""]","[""True"",""$0.10"",""At most 1"",""1 cent for every $1 I earn in each round""]",24722,,246027,,,survey-multi-choice,,137
,,,,"[True, True, True, True]",,,,,,,,"[""True or false: The hidden values will change each time I start a new round."",""How much does it cost to observe each hidden value?"",""How many hidden values am I allowed to observe in each round?"",""How is your bonus determined?""]","[""True"",""$0.10"",""As many or as few as I wish"",""1 cent for every $1 I earn in each round""]",14714,,296538,,,survey-multi-choice,,137
,,,,"[True, False, False, False]",,,,,,,,"[""True or false: The hidden values will change each time I start a new round."",""How much does it cost to observe each hidden value?"",""How many hidden values am I allowed to observe in each round?"",""How is your bonus determined?""]","[""True"",""$0.01"",""At most 5"",""10% of my best score on any round""]",22920,,53828,,,survey-multi-choice,,138
,,,,"[True, True, True, True]",,,,,,,,"[""True or false: The hidden values will change each time I start a new round."",""How much does it cost to observe each hidden value?"",""How many hidden values am I allowed to observe in each round?"",""How is your bonus determined?""]","[""True"",""$0.05"",""As many or as few as I wish"",""1 cent for every $1 I earn in each round""]",16123,,108779,,,survey-multi-choice,,138
