action_times,actions,block,button_pressed,key_press,path,queries,responses,rewards,rt,score,simulation_mode,stimulus,time_elapsed,trial_index,trial_id,trial_type,pid
"[21058, 22119]","[u'up', u'right']",train_basic,,,"[u'0', u'1', u'2']","{u'mouseover': {u'state': {u'target': [], u'time': []}, u'edge': {u'target': [], u'time': []}}, u'click': {u'state': {u'target': [], u'time': []}, u'edge': {u'target': [], u'time': []}}, u'mouseout': {u'state': {u'target': [], u'time': []}, u'edge': {u'target': [], u'time': []}}}",,"[9, 7]","[21053, 568]",16.0,"[None, None]",,25163,0.0,44277969.0,mouselab-mdp,0
"[3406, 4062]","[u'up', u'right']",train_basic,,,"[u'0', u'1', u'2']","{u'mouseover': {u'state': {u'target': [], u'time': []}, u'edge': {u'target': [], u'time': []}}, u'click': {u'state': {u'target': [], u'time': []}, u'edge': {u'target': [], u'time': []}}, u'mouseout': {u'state': {u'target': [], u'time': []}, u'edge': {u'target': [], u'time': []}}}",,"[4, 2]","[3405, 140]",6.0,"[None, None]",,32544,1.0,12263236.0,mouselab-mdp,0
"[2373, 3293]","[u'down', u'left']",train_basic,,,"[u'0', u'4', u'6']","{u'mouseover': {u'state': {u'target': [], u'time': []}, u'edge': {u'target': [], u'time': []}}, u'click': {u'state': {u'target': [], u'time': []}, u'edge': {u'target': [], u'time': []}}, u'mouseout': {u'state': {u'target': [], u'time': []}, u'edge': {u'target': [], u'time': []}}}",,"[4, 2]","[2370, 402]",6.0,"[None, None]",,42195,2.0,81610917.0,mouselab-mdp,0
"[2617, 3292]","[u'down', u'right']",train_basic,,,"[u'0', u'4', u'5']","{u'mouseover': {u'state': {u'target': [], u'time': []}, u'edge': {u'target': [], u'time': []}}, u'click': {u'state': {u'target': [], u'time': []}, u'edge': {u'target': [], u'time': []}}, u'mouseout': {u'state': {u'target': [], u'time': []}, u'edge': {u'target': [], u'time': []}}}",,"[2, 7]","[2615, 161]",9.0,"[None, None]",,48375,3.0,15995920.0,mouselab-mdp,0
"[2171, 2872]","[u'down', u'left']",train_basic,,,"[u'0', u'4', u'6']","{u'mouseover': {u'state': {u'target': [], u'time': []}, u'edge': {u'target': [], u'time': []}}, u'click': {u'state': {u'target': [], u'time': []}, u'edge': {u'target': [], u'time': []}}, u'mouseout': {u'state': {u'target': [], u'time': []}, u'edge': {u'target': [], u'time': []}}}",,"[7, 9]","[2170, 185]",16.0,"[None, None]",,53422,4.0,31994242.0,mouselab-mdp,0
"[1474, 2114]","[u'up', u'right']",train_basic,,,"[u'0', u'1', u'2']","{u'mouseover': {u'state': {u'target': [], u'time': []}, u'edge': {u'target': [], u'time': []}}, u'click': {u'state': {u'target': [], u'time': []}, u'edge': {u'target': [], u'time': []}}, u'mouseout': {u'state': {u'target': [], u'time': []}, u'edge': {u'target': [], u'time': []}}}",,"[4, 4]","[1471, 127]",8.0,"[None, None]",,58181,5.0,46613852.0,mouselab-mdp,0
"[1618, 2287]","[u'down', u'left']",train_basic,,,"[u'0', u'4', u'6']","{u'mouseover': {u'state': {u'target': [], u'time': []}, u'edge': {u'target': [], u'time': []}}, u'click': {u'state': {u'target': [], u'time': []}, u'edge': {u'target': [], u'time': []}}, u'mouseout': {u'state': {u'target': [], u'time': []}, u'edge': {u'target': [], u'time': []}}}",,"[2, 7]","[1616, 163]",9.0,"[None, None]",,63735,6.0,5167615.0,mouselab-mdp,0
"[1059, 1685]","[u'down', u'left']",train_basic,,,"[u'0', u'4', u'6']","{u'mouseover': {u'state': {u'target': [], u'time': []}, u'edge': {u'target': [], u'time': []}}, u'click': {u'state': {u'target': [], u'time': []}, u'edge': {u'target': [], u'time': []}}, u'mouseout': {u'state': {u'target': [], u'time': []}, u'edge': {u'target': [], u'time': []}}}",,"[4, 4]","[1057, 120]",8.0,"[None, None]",,70436,7.0,79793648.0,mouselab-mdp,0
"[3320, 3961]","[u'down', u'right']",train_basic,,,"[u'0', u'4', u'5']","{u'mouseover': {u'state': {u'target': [], u'time': []}, u'edge': {u'target': [], u'time': []}}, u'click': {u'state': {u'target': [], u'time': []}, u'edge': {u'target': [], u'time': []}}, u'mouseout': {u'state': {u'target': [], u'time': []}, u'edge': {u'target': [], u'time': []}}}",,"[4, 4]","[3318, 125]",8.0,"[None, None]",,76700,8.0,25334607.0,mouselab-mdp,0
"[2285, 2884]","[u'up', u'left']",train_basic,,,"[u'0', u'1', u'3']","{u'mouseover': {u'state': {u'target': [], u'time': []}, u'edge': {u'target': [], u'time': []}}, u'click': {u'state': {u'target': [], u'time': []}, u'edge': {u'target': [], u'time': []}}, u'mouseout': {u'state': {u'target': [], u'time': []}, u'edge': {u'target': [], u'time': []}}}",,"[7, 2]","[2284, 81]",9.0,"[None, None]",,82244,9.0,66854646.0,mouselab-mdp,0
"[14807, 16544]","[u'up', u'right']",train_hidden,,,"[u'0', u'1', u'2']","{u'mouseover': {u'state': {u'target': [], u'time': []}, u'edge': {u'target': [], u'time': []}}, u'click': {u'state': {u'target': [], u'time': []}, u'edge': {u'target': [], u'time': []}}, u'mouseout': {u'state': {u'target': [], u'time': []}, u'edge': {u'target': [], u'time': []}}}",,"[9, -1]","[14806, 1235]",8.0,"[None, None]",,103717,10.0,73634081.0,mouselab-mdp,0
"[1827, 2870]","[u'up', u'left']",train_hidden,,,"[u'0', u'1', u'3']","{u'mouseover': {u'state': {u'target': [], u'time': []}, u'edge': {u'target': [], u'time': []}}, u'click': {u'state': {u'target': [], u'time': []}, u'edge': {u'target': [], u'time': []}}, u'mouseout': {u'state': {u'target': [], u'time': []}, u'edge': {u'target': [], u'time': []}}}",,"[4, 4]","[1825, 535]",8.0,"[None, None]",,109419,11.0,66466608.0,mouselab-mdp,0
"[518, 1476]","[u'down', u'right']",train_hidden,,,"[u'0', u'4', u'5']","{u'mouseover': {u'state': {u'target': [], u'time': []}, u'edge': {u'target': [], u'time': []}}, u'click': {u'state': {u'target': [], u'time': []}, u'edge': {u'target': [], u'time': []}}, u'mouseout': {u'state': {u'target': [], u'time': []}, u'edge': {u'target': [], u'time': []}}}",,"[4, 7]","[517, 445]",11.0,"[None, None]",,113512,12.0,13079465.0,mouselab-mdp,0
"[488, 1397]","[u'down', u'left']",train_hidden,,,"[u'0', u'4', u'6']","{u'mouseover': {u'state': {u'target': [], u'time': []}, u'edge': {u'target': [], u'time': []}}, u'click': {u'state': {u'target': [], u'time': []}, u'edge': {u'target': [], u'time': []}}, u'mouseout': {u'state': {u'target': [], u'time': []}, u'edge': {u'target': [], u'time': []}}}",,"[4, 2]","[487, 395]",6.0,"[None, None]",,117288,13.0,74380110.0,mouselab-mdp,0
"[1475, 2314]","[u'up', u'left']",train_hidden,,,"[u'0', u'1', u'3']","{u'mouseover': {u'state': {u'target': [], u'time': []}, u'edge': {u'target': [], u'time': []}}, u'click': {u'state': {u'target': [], u'time': []}, u'edge': {u'target': [], u'time': []}}, u'mouseout': {u'state': {u'target': [], u'time': []}, u'edge': {u'target': [], u'time': []}}}",,"[4, 2]","[1474, 332]",6.0,"[None, None]",,121673,14.0,81855562.0,mouselab-mdp,0
"[36334, 36999]","[u'down', u'right']",train_inspector,,,"[u'0', u'4', u'5']","{u'mouseover': {u'state': {u'target': [], u'time': []}, u'edge': {u'target': [], u'time': []}}, u'click': {u'state': {u'target': [u'1', u'4', u'6'], u'time': [27383, 33619, 34659]}, u'edge': {u'target': [], u'time': []}}, u'mouseout': {u'state': {u'target': [], u'time': []}, u'edge': {u'target': [], u'time': []}}}",,"[4, -3]","[36332, 160]",1.0,"[None, None]",,163714,15.0,93247373.0,mouselab-mdp,0
"[6206, 6802]","[u'up', u'right']",train_inspector,,,"[u'0', u'1', u'2']","{u'mouseover': {u'state': {u'target': [], u'time': []}, u'edge': {u'target': [], u'time': []}}, u'click': {u'state': {u'target': [u'1', u'4', u'3'], u'time': [1948, 3008, 5015]}, u'edge': {u'target': [], u'time': []}}, u'mouseout': {u'state': {u'target': [], u'time': []}, u'edge': {u'target': [], u'time': []}}}",,"[7, 2]","[6204, 90]",9.0,"[None, None]",,173289,16.0,57132525.0,mouselab-mdp,0
"[4637, 5208]","[u'up', u'right']",train_inspector,,,"[u'0', u'1', u'2']","{u'mouseover': {u'state': {u'target': [], u'time': []}, u'edge': {u'target': [], u'time': []}}, u'click': {u'state': {u'target': [u'1', u'4', u'2'], u'time': [1698, 2642, 3720]}, u'edge': {u'target': [], u'time': []}}, u'mouseout': {u'state': {u'target': [], u'time': []}, u'edge': {u'target': [], u'time': []}}}",,"[9, 4]","[4635, 56]",13.0,"[None, None]",,181132,17.0,86148638.0,mouselab-mdp,0
"[5578, 6204]","[u'down', u'right']",train_inspector,,,"[u'0', u'4', u'5']","{u'mouseover': {u'state': {u'target': [], u'time': []}, u'edge': {u'target': [], u'time': []}}, u'click': {u'state': {u'target': [u'1', u'4', u'5'], u'time': [2234, 3509, 4454]}, u'edge': {u'target': [], u'time': []}}, u'mouseout': {u'state': {u'target': [], u'time': []}, u'edge': {u'target': [], u'time': []}}}",,"[4, 7]","[5575, 116]",11.0,"[None, None]",,189779,18.0,91416205.0,mouselab-mdp,0
"[4347, 4864]","[u'up', u'right']",train_inspector,,,"[u'0', u'1', u'2']","{u'mouseover': {u'state': {u'target': [], u'time': []}, u'edge': {u'target': [], u'time': []}}, u'click': {u'state': {u'target': [u'4', u'1', u'2'], u'time': [1632, 2553, 3438]}, u'edge': {u'target': [], u'time': []}}, u'mouseout': {u'state': {u'target': [], u'time': []}, u'edge': {u'target': [], u'time': []}}}",,"[7, 7]","[4344, 1]",14.0,"[None, None]",,198148,19.0,77642130.0,mouselab-mdp,0
"[19568, 20740]","[u'up', u'left']",train_inspect_cost,,,"[u'0', u'1', u'3']","{u'mouseover': {u'state': {u'target': [], u'time': []}, u'edge': {u'target': [], u'time': []}}, u'click': {u'state': {u'target': [u'1'], u'time': [17314]}, u'edge': {u'target': [], u'time': []}}, u'mouseout': {u'state': {u'target': [], u'time': []}, u'edge': {u'target': [], u'time': []}}}",,"[4, 4]","[19566, 652]",7.0,"[None, None]",,224084,20.0,91460409.0,mouselab-mdp,0
"[5151, 5950]","[u'up', u'right']",train_inspect_cost,,,"[u'0', u'1', u'2']","{u'mouseover': {u'state': {u'target': [], u'time': []}, u'edge': {u'target': [], u'time': []}}, u'click': {u'state': {u'target': [u'1'], u'time': [2492]}, u'edge': {u'target': [], u'time': []}}, u'mouseout': {u'state': {u'target': [], u'time': []}, u'edge': {u'target': [], u'time': []}}}",,"[4, 2]","[5148, 294]",5.0,"[None, None]",,232737,21.0,60478881.0,mouselab-mdp,0
"[2913, 3593]","[u'up', u'right']",train_inspect_cost,,,"[u'0', u'1', u'2']","{u'mouseover': {u'state': {u'target': [], u'time': []}, u'edge': {u'target': [], u'time': []}}, u'click': {u'state': {u'target': [u'1'], u'time': [1647]}, u'edge': {u'target': [], u'time': []}}, u'mouseout': {u'state': {u'target': [], u'time': []}, u'edge': {u'target': [], u'time': []}}}",,"[7, 2]","[2912, 170]",8.0,"[None, None]",,238930,22.0,28834891.0,mouselab-mdp,0
"[2027, 2666]","[u'up', u'right']",train_inspect_cost,,,"[u'0', u'1', u'2']","{u'mouseover': {u'state': {u'target': [], u'time': []}, u'edge': {u'target': [], u'time': []}}, u'click': {u'state': {u'target': [u'1'], u'time': [687]}, u'edge': {u'target': [], u'time': []}}, u'mouseout': {u'state': {u'target': [], u'time': []}, u'edge': {u'target': [], u'time': []}}}",,"[4, 4]","[2025, 123]",7.0,"[None, None]",,244438,23.0,73113375.0,mouselab-mdp,0
"[3419, 5031]","[u'down', u'right']",train_inspect_cost,,,"[u'0', u'4', u'5']","{u'mouseover': {u'state': {u'target': [], u'time': []}, u'edge': {u'target': [], u'time': []}}, u'click': {u'state': {u'target': [u'1'], u'time': [1585]}, u'edge': {u'target': [], u'time': []}}, u'mouseout': {u'state': {u'target': [], u'time': []}, u'edge': {u'target': [], u'time': []}}}",,"[-3, -1]","[3416, 1095]",-5.0,"[None, None]",,252898,24.0,33246409.0,mouselab-mdp,0
"[22348, 23346]","[u'down', u'left']",train_final,,,"[u'0', u'4', u'6']","{u'mouseover': {u'state': {u'target': [], u'time': []}, u'edge': {u'target': [], u'time': []}}, u'click': {u'state': {u'target': [u'1', u'4'], u'time': [19067, 20528]}, u'edge': {u'target': [], u'time': []}}, u'mouseout': {u'state': {u'target': [], u'time': []}, u'edge': {u'target': [], u'time': []}}}",,"[9, 4]","[22347, 479]",11.0,"[None, None]",,281568,25.0,23844424.0,mouselab-mdp,0
"[4941, 5617]","[u'down', u'left']",train_final,,,"[u'0', u'4', u'6']","{u'mouseover': {u'state': {u'target': [], u'time': []}, u'edge': {u'target': [], u'time': []}}, u'click': {u'state': {u'target': [u'1', u'4', u'6'], u'time': [2809, 3679, 4388]}, u'edge': {u'target': [], u'time': []}}, u'mouseout': {u'state': {u'target': [], u'time': []}, u'edge': {u'target': [], u'time': []}}}",,"[7, 4]","[4940, 160]",8.0,"[None, None]",,289699,26.0,59869220.0,mouselab-mdp,0
"[3432, 4018]","[u'up', u'left']",train_final,,,"[u'0', u'1', u'3']","{u'mouseover': {u'state': {u'target': [], u'time': []}, u'edge': {u'target': [], u'time': []}}, u'click': {u'state': {u'target': [u'1', u'4'], u'time': [1739, 2771]}, u'edge': {u'target': [], u'time': []}}, u'mouseout': {u'state': {u'target': [], u'time': []}, u'edge': {u'target': [], u'time': []}}}",,"[4, 7]","[3431, 81]",9.0,"[None, None]",,296287,27.0,22965017.0,mouselab-mdp,0
"[3737, 4372]","[u'down', u'left']",train_final,,,"[u'0', u'4', u'6']","{u'mouseover': {u'state': {u'target': [], u'time': []}, u'edge': {u'target': [], u'time': []}}, u'click': {u'state': {u'target': [u'1', u'4'], u'time': [1939, 3215]}, u'edge': {u'target': [], u'time': []}}, u'mouseout': {u'state': {u'target': [], u'time': []}, u'edge': {u'target': [], u'time': []}}}",,"[2, 2]","[3736, 126]",2.0,"[None, None]",,303112,28.0,57176004.0,mouselab-mdp,0
"[2289, 2979]","[u'up', u'left']",train_final,,,"[u'0', u'1', u'3']","{u'mouseover': {u'state': {u'target': [], u'time': []}, u'edge': {u'target': [], u'time': []}}, u'click': {u'state': {u'target': [u'4', u'1'], u'time': [739, 1618]}, u'edge': {u'target': [], u'time': []}}, u'mouseout': {u'state': {u'target': [], u'time': []}, u'edge': {u'target': [], u'time': []}}}",,"[7, 4]","[2287, 178]",9.0,"[None, None]",,308442,29.0,36722949.0,mouselab-mdp,0
"[6654, 7558]","[u'up', u'right']",test,,,"[u'0', u'1', u'2']","{u'mouseover': {u'state': {u'target': [], u'time': []}, u'edge': {u'target': [], u'time': []}}, u'click': {u'state': {u'target': [u'1', u'4'], u'time': [2309, 5380]}, u'edge': {u'target': [], u'time': []}}, u'mouseout': {u'state': {u'target': [], u'time': []}, u'edge': {u'target': [], u'time': []}}}",,"[4, 4]","[6652, 386]",6.0,"[None, None]",,320972,30.0,80942098.0,mouselab-mdp,0
"[10812, 11390]","[u'up', u'right']",test,,,"[u'0', u'1', u'2']","{u'mouseover': {u'state': {u'target': [], u'time': []}, u'edge': {u'target': [], u'time': []}}, u'click': {u'state': {u'target': [u'4', u'1', u'2'], u'time': [5965, 7113, 9791]}, u'edge': {u'target': [], u'time': []}}, u'mouseout': {u'state': {u'target': [], u'time': []}, u'edge': {u'target': [], u'time': []}}}",,"[2, 4]","[10811, 69]",3.0,"[None, None]",,334985,31.0,63853708.0,mouselab-mdp,0
"[5737, 6389]","[u'down', u'left']",test,,,"[u'0', u'4', u'6']","{u'mouseover': {u'state': {u'target': [], u'time': []}, u'edge': {u'target': [], u'time': []}}, u'click': {u'state': {u'target': [u'1', u'4', u'6'], u'time': [919, 2711, 4271]}, u'edge': {u'target': [], u'time': []}}, u'mouseout': {u'state': {u'target': [], u'time': []}, u'edge': {u'target': [], u'time': []}}}",,"[4, 2]","[5736, 136]",3.0,"[None, None]",,343323,32.0,57366580.0,mouselab-mdp,0
"[2371, 3056]","[u'up', u'right']",test,,,"[u'0', u'1', u'2']","{u'mouseover': {u'state': {u'target': [], u'time': []}, u'edge': {u'target': [], u'time': []}}, u'click': {u'state': {u'target': [u'1'], u'time': [1093]}, u'edge': {u'target': [], u'time': []}}, u'mouseout': {u'state': {u'target': [], u'time': []}, u'edge': {u'target': [], u'time': []}}}",,"[9, 4]","[2369, 176]",12.0,"[None, None]",,349420,33.0,71806265.0,mouselab-mdp,0
"[3905, 4512]","[u'up', u'right']",test,,,"[u'0', u'1', u'2']","{u'mouseover': {u'state': {u'target': [], u'time': []}, u'edge': {u'target': [], u'time': []}}, u'click': {u'state': {u'target': [u'1', u'2'], u'time': [1166, 2989]}, u'edge': {u'target': [], u'time': []}}, u'mouseout': {u'state': {u'target': [], u'time': []}, u'edge': {u'target': [], u'time': []}}}",,"[4, 9]","[3903, 103]",11.0,"[None, None]",,356522,34.0,15438400.0,mouselab-mdp,0
"[3685, 4291]","[u'up', u'right']",test,,,"[u'0', u'1', u'2']","{u'mouseover': {u'state': {u'target': [], u'time': []}, u'edge': {u'target': [], u'time': []}}, u'click': {u'state': {u'target': [u'1', u'2'], u'time': [1243, 2735]}, u'edge': {u'target': [], u'time': []}}, u'mouseout': {u'state': {u'target': [], u'time': []}, u'edge': {u'target': [], u'time': []}}}",,"[9, 4]","[3684, 90]",11.0,"[None, None]",,363261,35.0,90837847.0,mouselab-mdp,0
"[3956, 4546]","[u'up', u'right']",test,,,"[u'0', u'1', u'2']","{u'mouseover': {u'state': {u'target': [], u'time': []}, u'edge': {u'target': [], u'time': []}}, u'click': {u'state': {u'target': [u'1', u'2'], u'time': [1088, 2199]}, u'edge': {u'target': [], u'time': []}}, u'mouseout': {u'state': {u'target': [], u'time': []}, u'edge': {u'target': [], u'time': []}}}",,"[4, 2]","[3955, 72]",4.0,"[None, None]",,370705,36.0,38005933.0,mouselab-mdp,0
"[4657, 5307]","[u'down', u'left']",test,,,"[u'0', u'4', u'6']","{u'mouseover': {u'state': {u'target': [], u'time': []}, u'edge': {u'target': [], u'time': []}}, u'click': {u'state': {u'target': [u'1', u'4', u'6'], u'time': [1214, 2566, 3777]}, u'edge': {u'target': [], u'time': []}}, u'mouseout': {u'state': {u'target': [], u'time': []}, u'edge': {u'target': [], u'time': []}}}",,"[9, 4]","[4654, 138]",10.0,"[None, None]",,378486,37.0,20498746.0,mouselab-mdp,0
"[3148, 3729]","[u'up', u'right']",test,,,"[u'0', u'1', u'2']","{u'mouseover': {u'state': {u'target': [], u'time': []}, u'edge': {u'target': [], u'time': []}}, u'click': {u'state': {u'target': [u'1', u'2'], u'time': [1218, 2285]}, u'edge': {u'target': [], u'time': []}}, u'mouseout': {u'state': {u'target': [], u'time': []}, u'edge': {u'target': [], u'time': []}}}",,"[2, 9]","[3146, 61]",9.0,"[None, None]",,384415,38.0,80034056.0,mouselab-mdp,0
"[4214, 4860]","[u'down', u'right']",test,,,"[u'0', u'4', u'5']","{u'mouseover': {u'state': {u'target': [], u'time': []}, u'edge': {u'target': [], u'time': []}}, u'click': {u'state': {u'target': [u'1', u'4', u'5'], u'time': [1047, 2241, 3460]}, u'edge': {u'target': [], u'time': []}}, u'mouseout': {u'state': {u'target': [], u'time': []}, u'edge': {u'target': [], u'time': []}}}",,"[7, 2]","[4212, 139]",6.0,"[None, None]",,391820,39.0,16053274.0,mouselab-mdp,0
"[3753, 4389]","[u'down', u'left']",test,,,"[u'0', u'4', u'6']","{u'mouseover': {u'state': {u'target': [], u'time': []}, u'edge': {u'target': [], u'time': []}}, u'click': {u'state': {u'target': [u'1', u'4', u'6'], u'time': [809, 1877, 2876]}, u'edge': {u'target': [], u'time': []}}, u'mouseout': {u'state': {u'target': [], u'time': []}, u'edge': {u'target': [], u'time': []}}}",,"[4, 7]","[3751, 116]",8.0,"[None, None]",,398459,40.0,80349185.0,mouselab-mdp,0
"[4328, 4903]","[u'up', u'right']",test,,,"[u'0', u'1', u'2']","{u'mouseover': {u'state': {u'target': [], u'time': []}, u'edge': {u'target': [], u'time': []}}, u'click': {u'state': {u'target': [u'1', u'4', u'2'], u'time': [736, 1884, 3472]}, u'edge': {u'target': [], u'time': []}}, u'mouseout': {u'state': {u'target': [], u'time': []}, u'edge': {u'target': [], u'time': []}}}",,"[4, 9]","[4327, 58]",10.0,"[None, None]",,405914,41.0,49389700.0,mouselab-mdp,0
"[6170, 6811]","[u'down', u'left']",test,,,"[u'0', u'4', u'6']","{u'mouseover': {u'state': {u'target': [], u'time': []}, u'edge': {u'target': [], u'time': []}}, u'click': {u'state': {u'target': [u'1', u'4', u'6'], u'time': [1066, 4245, 5365]}, u'edge': {u'target': [], u'time': []}}, u'mouseout': {u'state': {u'target': [], u'time': []}, u'edge': {u'target': [], u'time': []}}}",,"[4, 7]","[6167, 123]",8.0,"[None, None]",,415406,42.0,26088300.0,mouselab-mdp,0
"[4071, 4702]","[u'down', u'right']",test,,,"[u'0', u'4', u'5']","{u'mouseover': {u'state': {u'target': [], u'time': []}, u'edge': {u'target': [], u'time': []}}, u'click': {u'state': {u'target': [u'1', u'4', u'6'], u'time': [1124, 2119, 3099]}, u'edge': {u'target': [], u'time': []}}, u'mouseout': {u'state': {u'target': [], u'time': []}, u'edge': {u'target': [], u'time': []}}}",,"[4, 2]","[4070, 115]",3.0,"[None, None]",,422673,43.0,49803607.0,mouselab-mdp,0
"[6168, 6709]","[u'up', u'left']",test,,,"[u'0', u'1', u'3']","{u'mouseover': {u'state': {u'target': [], u'time': []}, u'edge': {u'target': [], u'time': []}}, u'click': {u'state': {u'target': [u'1', u'3'], u'time': [3737, 5156]}, u'edge': {u'target': [], u'time': []}}, u'mouseout': {u'state': {u'target': [], u'time': []}, u'edge': {u'target': [], u'time': []}}}",,"[9, 2]","[6166, 31]",9.0,"[None, None]",,431912,44.0,63816155.0,mouselab-mdp,0
"[12727, 13353]","[u'up', u'left']",test,,,"[u'0', u'1', u'3']","{u'mouseover': {u'state': {u'target': [], u'time': []}, u'edge': {u'target': [], u'time': []}}, u'click': {u'state': {u'target': [u'4', u'1', u'2', u'3'], u'time': [3888, 5087, 6476, 11083]}, u'edge': {u'target': [], u'time': []}}, u'mouseout': {u'state': {u'target': [], u'time': []}, u'edge': {u'target': [], u'time': []}}}",,"[-1, 9]","[12725, 112]",4.0,"[None, None]",,448130,45.0,39240222.0,mouselab-mdp,0
"[8457, 9053]","[u'up', u'right']",test,,,"[u'0', u'1', u'2']","{u'mouseover': {u'state': {u'target': [], u'time': []}, u'edge': {u'target': [], u'time': []}}, u'click': {u'state': {u'target': [u'1', u'2'], u'time': [2133, 7246]}, u'edge': {u'target': [], u'time': []}}, u'mouseout': {u'state': {u'target': [], u'time': []}, u'edge': {u'target': [], u'time': []}}}",,"[7, 9]","[8455, 84]",14.0,"[None, None]",,461518,46.0,89799143.0,mouselab-mdp,0
"[8299, 8930]","[u'down', u'right']",test,,,"[u'0', u'4', u'5']","{u'mouseover': {u'state': {u'target': [], u'time': []}, u'edge': {u'target': [], u'time': []}}, u'click': {u'state': {u'target': [u'1', u'4', u'6', u'5'], u'time': [2307, 4006, 5047, 7178]}, u'edge': {u'target': [], u'time': []}}, u'mouseout': {u'state': {u'target': [], u'time': []}, u'edge': {u'target': [], u'time': []}}}",,"[4, 2]","[8298, 113]",2.0,"[None, None]",,472833,47.0,79386179.0,mouselab-mdp,0
"[6433, 7078]","[u'down', u'left']",test,,,"[u'0', u'4', u'6']","{u'mouseover': {u'state': {u'target': [], u'time': []}, u'edge': {u'target': [], u'time': []}}, u'click': {u'state': {u'target': [u'1', u'4', u'6'], u'time': [2682, 4330, 5408]}, u'edge': {u'target': [], u'time': []}}, u'mouseout': {u'state': {u'target': [], u'time': []}, u'edge': {u'target': [], u'time': []}}}",,"[2, 4]","[6432, 137]",3.0,"[None, None]",,482706,48.0,8631477.0,mouselab-mdp,0
"[7008, 7645]","[u'down', u'left']",test,,,"[u'0', u'4', u'6']","{u'mouseover': {u'state': {u'target': [], u'time': []}, u'edge': {u'target': [], u'time': []}}, u'click': {u'state': {u'target': [u'1', u'3', u'4', u'6'], u'time': [1264, 2531, 4882, 6045]}, u'edge': {u'target': [], u'time': []}}, u'mouseout': {u'state': {u'target': [], u'time': []}, u'edge': {u'target': [], u'time': []}}}",,"[4, 2]","[7007, 120]",2.0,"[None, None]",,492847,49.0,40448355.0,mouselab-mdp,0
"[5800, 6401]","[u'down', u'right']",test,,,"[u'0', u'4', u'5']","{u'mouseover': {u'state': {u'target': [], u'time': []}, u'edge': {u'target': [], u'time': []}}, u'click': {u'state': {u'target': [u'4', u'5'], u'time': [3843, 4999]}, u'edge': {u'target': [], u'time': []}}, u'mouseout': {u'state': {u'target': [], u'time': []}, u'edge': {u'target': [], u'time': []}}}",,"[4, 7]","[5799, 87]",9.0,"[None, None]",,501811,50.0,12967036.0,mouselab-mdp,0
"[6699, 7260]","[u'up', u'right']",test,,,"[u'0', u'1', u'2']","{u'mouseover': {u'state': {u'target': [], u'time': []}, u'edge': {u'target': [], u'time': []}}, u'click': {u'state': {u'target': [u'4', u'1', u'2'], u'time': [1212, 3225, 5772]}, u'edge': {u'target': [], u'time': []}}, u'mouseout': {u'state': {u'target': [], u'time': []}, u'edge': {u'target': [], u'time': []}}}",,"[2, 7]","[6697, 51]",6.0,"[None, None]",,511643,51.0,53002611.0,mouselab-mdp,0
"[5764, 6384]","[u'down', u'left']",test,,,"[u'0', u'4', u'6']","{u'mouseover': {u'state': {u'target': [], u'time': []}, u'edge': {u'target': [], u'time': []}}, u'click': {u'state': {u'target': [u'1', u'4', u'6'], u'time': [995, 3602, 4905]}, u'edge': {u'target': [], u'time': []}}, u'mouseout': {u'state': {u'target': [], u'time': []}, u'edge': {u'target': [], u'time': []}}}",,"[-1, 7]","[5763, 116]",3.0,"[None, None]",,520869,52.0,64508986.0,mouselab-mdp,0
"[8968, 9589]","[u'down', u'right']",test,,,"[u'0', u'4', u'5']","{u'mouseover': {u'state': {u'target': [], u'time': []}, u'edge': {u'target': [], u'time': []}}, u'click': {u'state': {u'target': [u'4', u'5'], u'time': [3250, 7873]}, u'edge': {u'target': [], u'time': []}}, u'mouseout': {u'state': {u'target': [], u'time': []}, u'edge': {u'target': [], u'time': []}}}",,"[9, 4]","[8967, 108]",11.0,"[None, None]",,533107,53.0,90876549.0,mouselab-mdp,0
"[3570, 4206]","[u'down', u'right']",test,,,"[u'0', u'4', u'5']","{u'mouseover': {u'state': {u'target': [], u'time': []}, u'edge': {u'target': [], u'time': []}}, u'click': {u'state': {u'target': [u'4', u'5'], u'time': [876, 2718]}, u'edge': {u'target': [], u'time': []}}, u'mouseout': {u'state': {u'target': [], u'time': []}, u'edge': {u'target': [], u'time': []}}}",,"[9, 7]","[3569, 120]",14.0,"[None, None]",,539978,54.0,26062214.0,mouselab-mdp,0
"[3498, 4100]","[u'down', u'right']",test,,,"[u'0', u'4', u'5']","{u'mouseover': {u'state': {u'target': [], u'time': []}, u'edge': {u'target': [], u'time': []}}, u'click': {u'state': {u'target': [u'4', u'5'], u'time': [1317, 2512]}, u'edge': {u'target': [], u'time': []}}, u'mouseout': {u'state': {u'target': [], u'time': []}, u'edge': {u'target': [], u'time': []}}}",,"[4, 2]","[3497, 89]",4.0,"[None, None]",,546790,55.0,87180601.0,mouselab-mdp,0
"[8774, 9350]","[u'up', u'right']",test,,,"[u'0', u'1', u'2']","{u'mouseover': {u'state': {u'target': [], u'time': []}, u'edge': {u'target': [], u'time': []}}, u'click': {u'state': {u'target': [u'4', u'1', u'2'], u'time': [2034, 6408, 7651]}, u'edge': {u'target': [], u'time': []}}, u'mouseout': {u'state': {u'target': [], u'time': []}, u'edge': {u'target': [], u'time': []}}}",,"[2, 4]","[8772, 61]",3.0,"[None, None]",,558814,56.0,42719688.0,mouselab-mdp,0
"[5979, 6604]","[u'down', u'right']",test,,,"[u'0', u'4', u'5']","{u'mouseover': {u'state': {u'target': [], u'time': []}, u'edge': {u'target': [], u'time': []}}, u'click': {u'state': {u'target': [u'4', u'5'], u'time': [2567, 3781]}, u'edge': {u'target': [], u'time': []}}, u'mouseout': {u'state': {u'target': [], u'time': []}, u'edge': {u'target': [], u'time': []}}}",,"[7, 2]","[5977, 111]",7.0,"[None, None]",,568487,57.0,95218744.0,mouselab-mdp,0
"[3569, 4210]","[u'up', u'right']",test,,,"[u'0', u'1', u'2']","{u'mouseover': {u'state': {u'target': [], u'time': []}, u'edge': {u'target': [], u'time': []}}, u'click': {u'state': {u'target': [u'1', u'2'], u'time': [1598, 2688]}, u'edge': {u'target': [], u'time': []}}, u'mouseout': {u'state': {u'target': [], u'time': []}, u'edge': {u'target': [], u'time': []}}}",,"[2, 7]","[3568, 130]",7.0,"[None, None]",,575506,58.0,40112455.0,mouselab-mdp,0
"[5951, 6626]","[u'up', u'left']",test,,,"[u'0', u'1', u'3']","{u'mouseover': {u'state': {u'target': [], u'time': []}, u'edge': {u'target': [], u'time': []}}, u'click': {u'state': {u'target': [u'1', u'3'], u'time': [3051, 4339]}, u'edge': {u'target': [], u'time': []}}, u'mouseout': {u'state': {u'target': [], u'time': []}, u'edge': {u'target': [], u'time': []}}}",,"[-1, 4]","[5949, 158]",1.0,"[None, None]",,584741,59.0,25873888.0,mouselab-mdp,0
"[2339, 4820]","[u'down', u'right']",train_basic,,,"[u'0', u'4', u'5']","{u'mouseover': {u'state': {u'target': [], u'time': []}, u'edge': {u'target': [], u'time': []}}, u'click': {u'state': {u'target': [], u'time': []}, u'edge': {u'target': [], u'time': []}}, u'mouseout': {u'state': {u'target': [], u'time': []}, u'edge': {u'target': [], u'time': []}}}",,"[2, 9]","[2330, 1960]",11.0,"[None, None]",,6753,0.0,42719688.0,mouselab-mdp,1
"[2517, 3642]","[u'down', u'left']",train_basic,,,"[u'0', u'4', u'6']","{u'mouseover': {u'state': {u'target': [], u'time': []}, u'edge': {u'target': [], u'time': []}}, u'click': {u'state': {u'target': [], u'time': []}, u'edge': {u'target': [], u'time': []}}, u'mouseout': {u'state': {u'target': [], u'time': []}, u'edge': {u'target': [], u'time': []}}}",,"[2, 7]","[2512, 619]",9.0,"[None, None]",,13398,1.0,5167615.0,mouselab-mdp,1
"[1845, 3192]","[u'up', u'left']",train_basic,,,"[u'0', u'1', u'3']","{u'mouseover': {u'state': {u'target': [], u'time': []}, u'edge': {u'target': [], u'time': []}}, u'click': {u'state': {u'target': [], u'time': []}, u'edge': {u'target': [], u'time': []}}, u'mouseout': {u'state': {u'target': [], u'time': []}, u'edge': {u'target': [], u'time': []}}}",,"[7, 2]","[1840, 851]",9.0,"[None, None]",,20150,2.0,66854646.0,mouselab-mdp,1
"[2002, 3377]","[u'down', u'left']",train_basic,,,"[u'0', u'4', u'6']","{u'mouseover': {u'state': {u'target': [], u'time': []}, u'edge': {u'target': [], u'time': []}}, u'click': {u'state': {u'target': [], u'time': []}, u'edge': {u'target': [], u'time': []}}, u'mouseout': {u'state': {u'target': [], u'time': []}, u'edge': {u'target': [], u'time': []}}}",,"[9, 7]","[1996, 875]",16.0,"[None, None]",,26442,3.0,90876549.0,mouselab-mdp,1
"[1772, 2537]","[u'up', u'right']",train_basic,,,"[u'0', u'1', u'2']","{u'mouseover': {u'state': {u'target': [], u'time': []}, u'edge': {u'target': [], u'time': []}}, u'click': {u'state': {u'target': [], u'time': []}, u'edge': {u'target': [], u'time': []}}, u'mouseout': {u'state': {u'target': [], u'time': []}, u'edge': {u'target': [], u'time': []}}}",,"[7, 2]","[1764, 260]",9.0,"[None, None]",,31640,4.0,57132525.0,mouselab-mdp,1
"[1303, 2225]","[u'down', u'right']",train_basic,,,"[u'0', u'4', u'5']","{u'mouseover': {u'state': {u'target': [], u'time': []}, u'edge': {u'target': [], u'time': []}}, u'click': {u'state': {u'target': [], u'time': []}, u'edge': {u'target': [], u'time': []}}, u'mouseout': {u'state': {u'target': [], u'time': []}, u'edge': {u'target': [], u'time': []}}}",,"[4, 2]","[1296, 427]",6.0,"[None, None]",,36471,5.0,79386179.0,mouselab-mdp,1
"[3965, 4817]","[u'up', u'right']",train_basic,,,"[u'0', u'1', u'2']","{u'mouseover': {u'state': {u'target': [], u'time': []}, u'edge': {u'target': [], u'time': []}}, u'click': {u'state': {u'target': [], u'time': []}, u'edge': {u'target': [], u'time': []}}, u'mouseout': {u'state': {u'target': [], u'time': []}, u'edge': {u'target': [], u'time': []}}}",,"[4, 9]","[3959, 354]",13.0,"[None, None]",,43921,6.0,15438400.0,mouselab-mdp,1
"[1333, 2287]","[u'up', u'right']",train_basic,,,"[u'0', u'1', u'2']","{u'mouseover': {u'state': {u'target': [], u'time': []}, u'edge': {u'target': [], u'time': []}}, u'click': {u'state': {u'target': [], u'time': []}, u'edge': {u'target': [], u'time': []}}, u'mouseout': {u'state': {u'target': [], u'time': []}, u'edge': {u'target': [], u'time': []}}}",,"[7, 7]","[1328, 443]",14.0,"[None, None]",,48861,7.0,31209256.0,mouselab-mdp,1
"[2592, 3464]","[u'up', u'right']",train_basic,,,"[u'0', u'1', u'2']","{u'mouseover': {u'state': {u'target': [], u'time': []}, u'edge': {u'target': [], u'time': []}}, u'click': {u'state': {u'target': [], u'time': []}, u'edge': {u'target': [], u'time': []}}, u'mouseout': {u'state': {u'target': [], u'time': []}, u'edge': {u'target': [], u'time': []}}}",,"[9, -1]","[2588, 363]",8.0,"[None, None]",,55628,8.0,19360252.0,mouselab-mdp,1
"[1564, 2499]","[u'up', u'right']",train_basic,,,"[u'0', u'1', u'2']","{u'mouseover': {u'state': {u'target': [], u'time': []}, u'edge': {u'target': [], u'time': []}}, u'click': {u'state': {u'target': [], u'time': []}, u'edge': {u'target': [], u'time': []}}, u'mouseout': {u'state': {u'target': [], u'time': []}, u'edge': {u'target': [], u'time': []}}}",,"[2, 7]","[1558, 439]",9.0,"[None, None]",,61028,9.0,53002611.0,mouselab-mdp,1
"[7019, 7922]","[u'up', u'right']",train_hidden,,,"[u'0', u'1', u'2']","{u'mouseover': {u'state': {u'target': [], u'time': []}, u'edge': {u'target': [], u'time': []}}, u'click': {u'state': {u'target': [], u'time': []}, u'edge': {u'target': [], u'time': []}}, u'mouseout': {u'state': {u'target': [], u'time': []}, u'edge': {u'target': [], u'time': []}}}",,"[9, 4]","[7015, 385]",13.0,"[None, None]",,77338,10.0,63816155.0,mouselab-mdp,1
"[1482, 2496]","[u'up', u'left']",train_hidden,,,"[u'0', u'1', u'3']","{u'mouseover': {u'state': {u'target': [], u'time': []}, u'edge': {u'target': [], u'time': []}}, u'click': {u'state': {u'target': [], u'time': []}, u'edge': {u'target': [], u'time': []}}, u'mouseout': {u'state': {u'target': [], u'time': []}, u'edge': {u'target': [], u'time': []}}}",,"[9, 4]","[1477, 520]",13.0,"[None, None]",,82543,11.0,73634081.0,mouselab-mdp,1
"[559, 1949]","[u'down', u'left']",train_hidden,,,"[u'0', u'4', u'6']","{u'mouseover': {u'state': {u'target': [], u'time': []}, u'edge': {u'target': [], u'time': []}}, u'click': {u'state': {u'target': [], u'time': []}, u'edge': {u'target': [], u'time': []}}, u'mouseout': {u'state': {u'target': [], u'time': []}, u'edge': {u'target': [], u'time': []}}}",,"[-1, 7]","[553, 876]",6.0,"[None, None]",,87236,12.0,66466608.0,mouselab-mdp,1
"[736, 1811]","[u'up', u'right']",train_hidden,,,"[u'0', u'1', u'2']","{u'mouseover': {u'state': {u'target': [], u'time': []}, u'edge': {u'target': [], u'time': []}}, u'click': {u'state': {u'target': [], u'time': []}, u'edge': {u'target': [], u'time': []}}, u'mouseout': {u'state': {u'target': [], u'time': []}, u'edge': {u'target': [], u'time': []}}}",,"[2, 9]","[728, 568]",11.0,"[None, None]",,91990,13.0,80034056.0,mouselab-mdp,1
"[1170, 2254]","[u'down', u'right']",train_hidden,,,"[u'0', u'4', u'5']","{u'mouseover': {u'state': {u'target': [], u'time': []}, u'edge': {u'target': [], u'time': []}}, u'click': {u'state': {u'target': [], u'time': []}, u'edge': {u'target': [], u'time': []}}, u'mouseout': {u'state': {u'target': [], u'time': []}, u'edge': {u'target': [], u'time': []}}}",,"[2, 7]","[1165, 592]",9.0,"[None, None]",,97050,14.0,22965017.0,mouselab-mdp,1
"[16217, 16996]","[u'up', u'left']",train_inspector,,,"[u'0', u'1', u'3']","{u'mouseover': {u'state': {u'target': [], u'time': []}, u'edge': {u'target': [], u'time': []}}, u'click': {u'state': {u'target': [u'3', u'4', u'5'], u'time': [7010, 9147, 10605]}, u'edge': {u'target': [], u'time': []}}, u'mouseout': {u'state': {u'target': [], u'time': []}, u'edge': {u'target': [], u'time': []}}}",,"[2, 4]","[16210, 267]",6.0,"[None, None]",,119602,15.0,71072776.0,mouselab-mdp,1
"[11373, 12385]","[u'down', u'right']",train_inspector,,,"[u'0', u'4', u'5']","{u'mouseover': {u'state': {u'target': [], u'time': []}, u'edge': {u'target': [], u'time': []}}, u'click': {u'state': {u'target': [u'5', u'4', u'1'], u'time': [1597, 7005, 9401]}, u'edge': {u'target': [], u'time': []}}, u'mouseout': {u'state': {u'target': [], u'time': []}, u'edge': {u'target': [], u'time': []}}}",,"[2, 4]","[11364, 509]",6.0,"[None, None]",,135134,16.0,80942098.0,mouselab-mdp,1
"[6088, 7121]","[u'down', u'right']",train_inspector,,,"[u'0', u'4', u'5']","{u'mouseover': {u'state': {u'target': [], u'time': []}, u'edge': {u'target': [], u'time': []}}, u'click': {u'state': {u'target': [u'1', u'4', u'6'], u'time': [1951, 3570, 4991]}, u'edge': {u'target': [], u'time': []}}, u'mouseout': {u'state': {u'target': [], u'time': []}, u'edge': {u'target': [], u'time': []}}}",,"[4, 7]","[6082, 523]",11.0,"[None, None]",,145472,17.0,13079465.0,mouselab-mdp,1
"[16151, 17539]","[u'up', u'right']",train_inspector,,,"[u'0', u'1', u'2']","{u'mouseover': {u'state': {u'target': [], u'time': []}, u'edge': {u'target': [], u'time': []}}, u'click': {u'state': {u'target': [u'1', u'5', u'2'], u'time': [2135, 11976, 13772]}, u'edge': {u'target': [], u'time': []}}, u'mouseout': {u'state': {u'target': [], u'time': []}, u'edge': {u'target': [], u'time': []}}}",,"[-3, 7]","[16147, 890]",4.0,"[None, None]",,165803,18.0,87180601.0,mouselab-mdp,1
"[6189, 7197]","[u'down', u'left']",train_inspector,,,"[u'0', u'4', u'6']","{u'mouseover': {u'state': {u'target': [], u'time': []}, u'edge': {u'target': [], u'time': []}}, u'click': {u'state': {u'target': [u'1', u'4', u'5'], u'time': [1936, 3744, 5106]}, u'edge': {u'target': [], u'time': []}}, u'mouseout': {u'state': {u'target': [], u'time': []}, u'edge': {u'target': [], u'time': []}}}",,"[7, 7]","[6184, 498]",14.0,"[None, None]",,176408,19.0,95218744.0,mouselab-mdp,1
"[19966, 21124]","[u'down', u'right']",train_inspect_cost,,,"[u'0', u'4', u'5']","{u'mouseover': {u'state': {u'target': [], u'time': []}, u'edge': {u'target': [], u'time': []}}, u'click': {u'state': {u'target': [u'1', u'4'], u'time': [15229, 17197]}, u'edge': {u'target': [], u'time': []}}, u'mouseout': {u'state': {u'target': [], u'time': []}, u'edge': {u'target': [], u'time': []}}}",,"[-1, -1]","[19962, 668]",-4.0,"[None, None]",,203221,20.0,64508986.0,mouselab-mdp,1
"[6005, 6956]","[u'up', u'right']",train_inspect_cost,,,"[u'0', u'1', u'2']","{u'mouseover': {u'state': {u'target': [], u'time': []}, u'edge': {u'target': [], u'time': []}}, u'click': {u'state': {u'target': [u'1'], u'time': [3356]}, u'edge': {u'target': [], u'time': []}}, u'mouseout': {u'state': {u'target': [], u'time': []}, u'edge': {u'target': [], u'time': []}}}",,"[4, 4]","[6000, 452]",7.0,"[None, None]",,213556,21.0,46613852.0,mouselab-mdp,1
"[5673, 7821]","[u'up', u'right']",train_inspect_cost,,,"[u'0', u'1', u'2']","{u'mouseover': {u'state': {u'target': [], u'time': []}, u'edge': {u'target': [], u'time': []}}, u'click': {u'state': {u'target': [u'1'], u'time': [4258]}, u'edge': {u'target': [], u'time': []}}, u'mouseout': {u'state': {u'target': [], u'time': []}, u'edge': {u'target': [], u'time': []}}}",,"[2, 4]","[5668, 1642]",5.0,"[None, None]",,224264,22.0,62858052.0,mouselab-mdp,1
"[3761, 5268]","[u'down', u'right']",train_inspect_cost,,,"[u'0', u'4', u'5']","{u'mouseover': {u'state': {u'target': [], u'time': []}, u'edge': {u'target': [], u'time': []}}, u'click': {u'state': {u'target': [u'1'], u'time': [1753]}, u'edge': {u'target': [], u'time': []}}, u'mouseout': {u'state': {u'target': [], u'time': []}, u'edge': {u'target': [], u'time': []}}}",,"[4, 7]","[3755, 995]",10.0,"[None, None]",,232261,23.0,80349185.0,mouselab-mdp,1
"[5021, 6473]","[u'up', u'left']",train_inspect_cost,,,"[u'0', u'1', u'3']","{u'mouseover': {u'state': {u'target': [], u'time': []}, u'edge': {u'target': [], u'time': []}}, u'click': {u'state': {u'target': [u'4'], u'time': [3666]}, u'edge': {u'target': [], u'time': []}}, u'mouseout': {u'state': {u'target': [], u'time': []}, u'edge': {u'target': [], u'time': []}}}",,"[-1, 9]","[5011, 953]",7.0,"[None, None]",,242253,24.0,39240222.0,mouselab-mdp,1
"[20157, 21378]","[u'down', u'right']",train_final,,,"[u'0', u'4', u'5']","{u'mouseover': {u'state': {u'target': [], u'time': []}, u'edge': {u'target': [], u'time': []}}, u'click': {u'state': {u'target': [u'4'], u'time': [19051]}, u'edge': {u'target': [], u'time': []}}, u'mouseout': {u'state': {u'target': [], u'time': []}, u'edge': {u'target': [], u'time': []}}}",,"[4, -1]","[20153, 709]",2.0,"[None, None]",,269846,25.0,31508986.0,mouselab-mdp,1
"[1534, 3233]","[u'up', u'left']",train_final,,,"[u'0', u'1', u'3']","{u'mouseover': {u'state': {u'target': [], u'time': []}, u'edge': {u'target': [], u'time': []}}, u'click': {u'state': {u'target': [], u'time': []}, u'edge': {u'target': [], u'time': []}}, u'mouseout': {u'state': {u'target': [], u'time': []}, u'edge': {u'target': [], u'time': []}}}",,"[2, 2]","[1531, 1206]",4.0,"[None, None]",,275960,26.0,12967036.0,mouselab-mdp,1
"[1197, 2658]","[u'down', u'right']",train_final,,,"[u'0', u'4', u'5']","{u'mouseover': {u'state': {u'target': [], u'time': []}, u'edge': {u'target': [], u'time': []}}, u'click': {u'state': {u'target': [], u'time': []}, u'edge': {u'target': [], u'time': []}}, u'mouseout': {u'state': {u'target': [], u'time': []}, u'edge': {u'target': [], u'time': []}}}",,"[-1, -3]","[1185, 955]",-4.0,"[None, None]",,281879,27.0,32071918.0,mouselab-mdp,1
"[2224, 3588]","[u'up', u'left']",train_final,,,"[u'0', u'1', u'3']","{u'mouseover': {u'state': {u'target': [], u'time': []}, u'edge': {u'target': [], u'time': []}}, u'click': {u'state': {u'target': [], u'time': []}, u'edge': {u'target': [], u'time': []}}, u'mouseout': {u'state': {u'target': [], u'time': []}, u'edge': {u'target': [], u'time': []}}}",,"[-1, 2]","[2219, 855]",1.0,"[None, None]",,288369,28.0,75620818.0,mouselab-mdp,1
"[2488, 3878]","[u'down', u'right']",train_final,,,"[u'0', u'4', u'5']","{u'mouseover': {u'state': {u'target': [], u'time': []}, u'edge': {u'target': [], u'time': []}}, u'click': {u'state': {u'target': [], u'time': []}, u'edge': {u'target': [], u'time': []}}, u'mouseout': {u'state': {u'target': [], u'time': []}, u'edge': {u'target': [], u'time': []}}}",,"[7, 4]","[2482, 879]",11.0,"[None, None]",,295289,29.0,17194749.0,mouselab-mdp,1
"[1465, 2799]","[u'up', u'right']",test,,,"[u'0', u'1', u'2']","{u'mouseover': {u'state': {u'target': [], u'time': []}, u'edge': {u'target': [], u'time': []}}, u'click': {u'state': {u'target': [], u'time': []}, u'edge': {u'target': [], u'time': []}}, u'mouseout': {u'state': {u'target': [], u'time': []}, u'edge': {u'target': [], u'time': []}}}",,"[7, -1]","[1459, 837]",6.0,"[None, None]",,315443,30.0,44804656.0,mouselab-mdp,1
"[1254, 2449]","[u'down', u'left']",test,,,"[u'0', u'4', u'6']","{u'mouseover': {u'state': {u'target': [], u'time': []}, u'edge': {u'target': [], u'time': []}}, u'click': {u'state': {u'target': [], u'time': []}, u'edge': {u'target': [], u'time': []}}, u'mouseout': {u'state': {u'target': [], u'time': []}, u'edge': {u'target': [], u'time': []}}}",,"[4, -3]","[1251, 686]",1.0,"[None, None]",,320998,31.0,55535495.0,mouselab-mdp,1
"[1541, 2752]","[u'down', u'right']",test,,,"[u'0', u'4', u'5']","{u'mouseover': {u'state': {u'target': [], u'time': []}, u'edge': {u'target': [], u'time': []}}, u'click': {u'state': {u'target': [], u'time': []}, u'edge': {u'target': [], u'time': []}}, u'mouseout': {u'state': {u'target': [], u'time': []}, u'edge': {u'target': [], u'time': []}}}",,"[-1, 2]","[1535, 720]",1.0,"[None, None]",,326497,32.0,91460409.0,mouselab-mdp,1
"[4271, 6092]","[u'down', u'left']",test,,,"[u'0', u'4', u'6']","{u'mouseover': {u'state': {u'target': [], u'time': []}, u'edge': {u'target': [], u'time': []}}, u'click': {u'state': {u'target': [u'1'], u'time': [2327]}, u'edge': {u'target': [], u'time': []}}, u'mouseout': {u'state': {u'target': [], u'time': []}, u'edge': {u'target': [], u'time': []}}}",,"[7, 7]","[4266, 1315]",13.0,"[None, None]",,335561,33.0,19287515.0,mouselab-mdp,1
"[4723, 5851]","[u'down', u'right']",test,,,"[u'0', u'4', u'5']","{u'mouseover': {u'state': {u'target': [], u'time': []}, u'edge': {u'target': [], u'time': []}}, u'click': {u'state': {u'target': [u'1'], u'time': [3652]}, u'edge': {u'target': [], u'time': []}}, u'mouseout': {u'state': {u'target': [], u'time': []}, u'edge': {u'target': [], u'time': []}}}",,"[4, 4]","[4717, 630]",7.0,"[None, None]",,344210,34.0,25562375.0,mouselab-mdp,1
"[5055, 6083]","[u'down', u'left']",test,,,"[u'0', u'4', u'6']","{u'mouseover': {u'state': {u'target': [], u'time': []}, u'edge': {u'target': [], u'time': []}}, u'click': {u'state': {u'target': [u'4'], u'time': [3938]}, u'edge': {u'target': [], u'time': []}}, u'mouseout': {u'state': {u'target': [], u'time': []}, u'edge': {u'target': [], u'time': []}}}",,"[4, -3]","[5050, 517]",0.0,"[None, None]",,353910,35.0,93799282.0,mouselab-mdp,1
"[9733, 10527]","[u'up', u'right']",test,,,"[u'0', u'1', u'2']","{u'mouseover': {u'state': {u'target': [], u'time': []}, u'edge': {u'target': [], u'time': []}}, u'click': {u'state': {u'target': [u'1', u'2'], u'time': [3188, 8369]}, u'edge': {u'target': [], u'time': []}}, u'mouseout': {u'state': {u'target': [], u'time': []}, u'edge': {u'target': [], u'time': []}}}",,"[4, 9]","[9687, 299]",11.0,"[None, None]",,367222,36.0,57366580.0,mouselab-mdp,1
"[9026, 10004]","[u'down', u'right']",test,,,"[u'0', u'4', u'5']","{u'mouseover': {u'state': {u'target': [], u'time': []}, u'edge': {u'target': [], u'time': []}}, u'click': {u'state': {u'target': [u'1', u'4', u'5'], u'time': [2441, 4341, 7979]}, u'edge': {u'target': [], u'time': []}}, u'mouseout': {u'state': {u'target': [], u'time': []}, u'edge': {u'target': [], u'time': []}}}",,"[2, 7]","[9020, 473]",6.0,"[None, None]",,380125,37.0,15995920.0,mouselab-mdp,1
"[11690, 12576]","[u'down', u'right']",test,,,"[u'0', u'4', u'5']","{u'mouseover': {u'state': {u'target': [], u'time': []}, u'edge': {u'target': [], u'time': []}}, u'click': {u'state': {u'target': [u'5', u'4'], u'time': [8537, 10312]}, u'edge': {u'target': [], u'time': []}}, u'mouseout': {u'state': {u'target': [], u'time': []}, u'edge': {u'target': [], u'time': []}}}",,"[4, 4]","[11685, 368]",6.0,"[None, None]",,395708,38.0,50990879.0,mouselab-mdp,1
"[5043, 5838]","[u'up', u'right']",test,,,"[u'0', u'1', u'2']","{u'mouseover': {u'state': {u'target': [], u'time': []}, u'edge': {u'target': [], u'time': []}}, u'click': {u'state': {u'target': [u'1', u'3'], u'time': [1751, 4033]}, u'edge': {u'target': [], u'time': []}}, u'mouseout': {u'state': {u'target': [], u'time': []}, u'edge': {u'target': [], u'time': []}}}",,"[4, 4]","[5037, 284]",6.0,"[None, None]",,404645,39.0,17490447.0,mouselab-mdp,1
"[4348, 6269]","[u'up', u'right']",test,,,"[u'0', u'1', u'2']","{u'mouseover': {u'state': {u'target': [], u'time': []}, u'edge': {u'target': [], u'time': []}}, u'click': {u'state': {u'target': [u'1'], u'time': [2193]}, u'edge': {u'target': [], u'time': []}}, u'mouseout': {u'state': {u'target': [], u'time': []}, u'edge': {u'target': [], u'time': []}}}",,"[7, 2]","[4343, 1417]",8.0,"[None, None]",,413733,40.0,28834891.0,mouselab-mdp,1
"[8447, 9420]","[u'down', u'right']",test,,,"[u'0', u'4', u'5']","{u'mouseover': {u'state': {u'target': [], u'time': []}, u'edge': {u'target': [], u'time': []}}, u'click': {u'state': {u'target': [u'1', u'5'], u'time': [3475, 7258]}, u'edge': {u'target': [], u'time': []}}, u'mouseout': {u'state': {u'target': [], u'time': []}, u'edge': {u'target': [], u'time': []}}}",,"[4, 7]","[8443, 461]",9.0,"[None, None]",,425778,41.0,49417938.0,mouselab-mdp,1
"[5446, 6285]","[u'up', u'right']",test,,,"[u'0', u'1', u'2']","{u'mouseover': {u'state': {u'target': [], u'time': []}, u'edge': {u'target': [], u'time': []}}, u'click': {u'state': {u'target': [u'1', u'4'], u'time': [2520, 4291]}, u'edge': {u'target': [], u'time': []}}, u'mouseout': {u'state': {u'target': [], u'time': []}, u'edge': {u'target': [], u'time': []}}}",,"[-1, 4]","[5440, 332]",1.0,"[None, None]",,434786,42.0,33246409.0,mouselab-mdp,1
"[6261, 8181]","[u'up', u'right']",test,,,"[u'0', u'1', u'2']","{u'mouseover': {u'state': {u'target': [], u'time': []}, u'edge': {u'target': [], u'time': []}}, u'click': {u'state': {u'target': [u'4', u'1'], u'time': [3086, 4784]}, u'edge': {u'target': [], u'time': []}}, u'mouseout': {u'state': {u'target': [], u'time': []}, u'edge': {u'target': [], u'time': []}}}",,"[9, 4]","[6257, 1410]",11.0,"[None, None]",,445765,43.0,90837847.0,mouselab-mdp,1
"[11652, 12523]","[u'up', u'right']",test,,,"[u'0', u'1', u'2']","{u'mouseover': {u'state': {u'target': [], u'time': []}, u'edge': {u'target': [], u'time': []}}, u'click': {u'state': {u'target': [u'4', u'1', u'3'], u'time': [4650, 6085, 10198]}, u'edge': {u'target': [], u'time': []}}, u'mouseout': {u'state': {u'target': [], u'time': []}, u'edge': {u'target': [], u'time': []}}}",,"[4, 9]","[11648, 373]",10.0,"[None, None]",,461092,44.0,49389700.0,mouselab-mdp,1
"[6807, 7694]","[u'down', u'right']",test,,,"[u'0', u'4', u'5']","{u'mouseover': {u'state': {u'target': [], u'time': []}, u'edge': {u'target': [], u'time': []}}, u'click': {u'state': {u'target': [u'1', u'4', u'5'], u'time': [2076, 3589, 5776]}, u'edge': {u'target': [], u'time': []}}, u'mouseout': {u'state': {u'target': [], u'time': []}, u'edge': {u'target': [], u'time': []}}}",,"[7, 4]","[6803, 394]",8.0,"[None, None]",,471827,45.0,49148957.0,mouselab-mdp,1
"[10120, 11000]","[u'down', u'left']",test,,,"[u'0', u'4', u'6']","{u'mouseover': {u'state': {u'target': [], u'time': []}, u'edge': {u'target': [], u'time': []}}, u'click': {u'state': {u'target': [u'1', u'4', u'6'], u'time': [4143, 5503, 8990]}, u'edge': {u'target': [], u'time': []}}, u'mouseout': {u'state': {u'target': [], u'time': []}, u'edge': {u'target': [], u'time': []}}}",,"[2, 4]","[10116, 377]",3.0,"[None, None]",,485602,46.0,8631477.0,mouselab-mdp,1
"[11300, 12041]","[u'up', u'left']",test,,,"[u'0', u'1', u'3']","{u'mouseover': {u'state': {u'target': [], u'time': []}, u'edge': {u'target': [], u'time': []}}, u'click': {u'state': {u'target': [u'1', u'3', u'2'], u'time': [3282, 7986, 10121]}, u'edge': {u'target': [], u'time': []}}, u'mouseout': {u'state': {u'target': [], u'time': []}, u'edge': {u'target': [], u'time': []}}}",,"[7, 2]","[11297, 247]",6.0,"[None, None]",,500798,47.0,61186104.0,mouselab-mdp,1
"[8565, 9523]","[u'down', u'right']",test,,,"[u'0', u'4', u'5']","{u'mouseover': {u'state': {u'target': [], u'time': []}, u'edge': {u'target': [], u'time': []}}, u'click': {u'state': {u'target': [u'1', u'4', u'6', u'5'], u'time': [1796, 3394, 5678, 7730]}, u'edge': {u'target': [], u'time': []}}, u'mouseout': {u'state': {u'target': [], u'time': []}, u'edge': {u'target': [], u'time': []}}}",,"[9, 4]","[8560, 443]",9.0,"[None, None]",,512943,48.0,20498746.0,mouselab-mdp,1
"[13968, 14677]","[u'up', u'right']",test,,,"[u'0', u'1', u'2']","{u'mouseover': {u'state': {u'target': [], u'time': []}, u'edge': {u'target': [], u'time': []}}, u'click': {u'state': {u'target': [u'1', u'3'], u'time': [2042, 6826]}, u'edge': {u'target': [], u'time': []}}, u'mouseout': {u'state': {u'target': [], u'time': []}, u'edge': {u'target': [], u'time': []}}}",,"[7, 9]","[13962, 180]",14.0,"[None, None]",,530638,49.0,89799143.0,mouselab-mdp,1
"[9037, 9886]","[u'down', u'right']",test,,,"[u'0', u'4', u'5']","{u'mouseover': {u'state': {u'target': [], u'time': []}, u'edge': {u'target': [], u'time': []}}, u'click': {u'state': {u'target': [u'1', u'4', u'5'], u'time': [2389, 4354, 5736]}, u'edge': {u'target': [], u'time': []}}, u'mouseout': {u'state': {u'target': [], u'time': []}, u'edge': {u'target': [], u'time': []}}}",,"[7, 4]","[9031, 333]",8.0,"[None, None]",,543431,50.0,59869220.0,mouselab-mdp,1
"[9101, 10001]","[u'down', u'right']",test,,,"[u'0', u'4', u'5']","{u'mouseover': {u'state': {u'target': [], u'time': []}, u'edge': {u'target': [], u'time': []}}, u'click': {u'state': {u'target': [u'1', u'4', u'2'], u'time': [1861, 3247, 7737]}, u'edge': {u'target': [], u'time': []}}, u'mouseout': {u'state': {u'target': [], u'time': []}, u'edge': {u'target': [], u'time': []}}}",,"[4, 2]","[9096, 360]",3.0,"[None, None]",,555909,51.0,60478881.0,mouselab-mdp,1
"[7481, 8282]","[u'up', u'right']",test,,,"[u'0', u'1', u'2']","{u'mouseover': {u'state': {u'target': [], u'time': []}, u'edge': {u'target': [], u'time': []}}, u'click': {u'state': {u'target': [u'1', u'3', u'2'], u'time': [2185, 4298, 5968]}, u'edge': {u'target': [], u'time': []}}, u'mouseout': {u'state': {u'target': [], u'time': []}, u'edge': {u'target': [], u'time': []}}}",,"[7, 7]","[7476, 302]",11.0,"[None, None]",,566676,52.0,77642130.0,mouselab-mdp,1
"[6696, 7449]","[u'up', u'left']",test,,,"[u'0', u'1', u'3']","{u'mouseover': {u'state': {u'target': [], u'time': []}, u'edge': {u'target': [], u'time': []}}, u'click': {u'state': {u'target': [u'1', u'4', u'2'], u'time': [1618, 3354, 5489]}, u'edge': {u'target': [], u'time': []}}, u'mouseout': {u'state': {u'target': [], u'time': []}, u'edge': {u'target': [], u'time': []}}}",,"[4, 4]","[6692, 260]",5.0,"[None, None]",,577357,53.0,29811764.0,mouselab-mdp,1
"[5980, 6843]","[u'down', u'left']",test,,,"[u'0', u'4', u'6']","{u'mouseover': {u'state': {u'target': [], u'time': []}, u'edge': {u'target': [], u'time': []}}, u'click': {u'state': {u'target': [u'1', u'4', u'5'], u'time': [1456, 3069, 5227]}, u'edge': {u'target': [], u'time': []}}, u'mouseout': {u'state': {u'target': [], u'time': []}, u'edge': {u'target': [], u'time': []}}}",,"[2, -3]","[5975, 366]",-4.0,"[None, None]",,587194,54.0,72579034.0,mouselab-mdp,1
"[10409, 11416]","[u'up', u'right']",test,,,"[u'0', u'1', u'2']","{u'mouseover': {u'state': {u'target': [], u'time': []}, u'edge': {u'target': [], u'time': []}}, u'click': {u'state': {u'target': [u'4', u'1', u'2'], u'time': [2472, 6737, 8801]}, u'edge': {u'target': [], u'time': []}}, u'mouseout': {u'state': {u'target': [], u'time': []}, u'edge': {u'target': [], u'time': []}}}",,"[2, 2]","[10405, 494]",1.0,"[None, None]",,601249,55.0,37775460.0,mouselab-mdp,1
"[9185, 10057]","[u'down', u'left']",test,,,"[u'0', u'4', u'6']","{u'mouseover': {u'state': {u'target': [], u'time': []}, u'edge': {u'target': [], u'time': []}}, u'click': {u'state': {u'target': [u'1', u'4', u'5'], u'time': [1684, 3213, 7473]}, u'edge': {u'target': [], u'time': []}}, u'mouseout': {u'state': {u'target': [], u'time': []}, u'edge': {u'target': [], u'time': []}}}",,"[7, 9]","[9180, 356]",13.0,"[None, None]",,614104,56.0,31994242.0,mouselab-mdp,1
"[5855, 6822]","[u'up', u'left']",test,,,"[u'0', u'1', u'3']","{u'mouseover': {u'state': {u'target': [], u'time': []}, u'edge': {u'target': [], u'time': []}}, u'click': {u'state': {u'target': [u'4', u'1', u'3'], u'time': [1559, 2970, 4406]}, u'edge': {u'target': [], u'time': []}}, u'mouseout': {u'state': {u'target': [], u'time': []}, u'edge': {u'target': [], u'time': []}}}",,"[4, 4]","[5850, 465]",5.0,"[None, None]",,623691,57.0,18034296.0,mouselab-mdp,1
"[9392, 10274]","[u'down', u'right']",test,,,"[u'0', u'4', u'5']","{u'mouseover': {u'state': {u'target': [], u'time': []}, u'edge': {u'target': [], u'time': []}}, u'click': {u'state': {u'target': [u'1', u'4', u'5'], u'time': [1578, 5712, 8360]}, u'edge': {u'target': [], u'time': []}}, u'mouseout': {u'state': {u'target': [], u'time': []}, u'edge': {u'target': [], u'time': []}}}",,"[4, 7]","[9387, 373]",8.0,"[None, None]",,636613,58.0,26088300.0,mouselab-mdp,1
"[5908, 6591]","[u'up', u'right']",test,,,"[u'0', u'1', u'2']","{u'mouseover': {u'state': {u'target': [], u'time': []}, u'edge': {u'target': [], u'time': []}}, u'click': {u'state': {u'target': [u'4', u'1', u'2'], u'time': [1986, 3423, 4773]}, u'edge': {u'target': [], u'time': []}}, u'mouseout': {u'state': {u'target': [], u'time': []}, u'edge': {u'target': [], u'time': []}}}",,"[4, 4]","[5904, 189]",5.0,"[None, None]",,646214,59.0,73113375.0,mouselab-mdp,1
"[5676, 6203]","[u'up', u'right']",train_basic,,,"[u'0', u'1', u'2']","{u'mouseover': {u'state': {u'target': [], u'time': []}, u'edge': {u'target': [], u'time': []}}, u'click': {u'state': {u'target': [], u'time': []}, u'edge': {u'target': [], u'time': []}}, u'mouseout': {u'state': {u'target': [], u'time': []}, u'edge': {u'target': [], u'time': []}}}",,"[4, 4]","[5671, 9]",8.0,"[None, None]",,8181,0.0,59096434.0,mouselab-mdp,2
"[3445, 3996]","[u'up', u'right']",train_basic,,,"[u'0', u'1', u'2']","{u'mouseover': {u'state': {u'target': [], u'time': []}, u'edge': {u'target': [], u'time': []}}, u'click': {u'state': {u'target': [], u'time': []}, u'edge': {u'target': [], u'time': []}}, u'mouseout': {u'state': {u'target': [], u'time': []}, u'edge': {u'target': [], u'time': []}}}",,"[9, 9]","[3440, 31]",18.0,"[None, None]",,14328,1.0,14499657.0,mouselab-mdp,2
"[3471, 4037]","[u'up', u'right']",train_basic,,,"[u'0', u'1', u'2']","{u'mouseover': {u'state': {u'target': [], u'time': []}, u'edge': {u'target': [], u'time': []}}, u'click': {u'state': {u'target': [], u'time': []}, u'edge': {u'target': [], u'time': []}}, u'mouseout': {u'state': {u'target': [], u'time': []}, u'edge': {u'target': [], u'time': []}}}",,"[4, 4]","[3467, 56]",8.0,"[None, None]",,21928,2.0,32071918.0,mouselab-mdp,2
"[1927, 2518]","[u'up', u'right']",train_basic,,,"[u'0', u'1', u'2']","{u'mouseover': {u'state': {u'target': [], u'time': []}, u'edge': {u'target': [], u'time': []}}, u'click': {u'state': {u'target': [], u'time': []}, u'edge': {u'target': [], u'time': []}}, u'mouseout': {u'state': {u'target': [], u'time': []}, u'edge': {u'target': [], u'time': []}}}",,"[4, 4]","[1923, 72]",8.0,"[None, None]",,26567,3.0,73113375.0,mouselab-mdp,2
"[4765, 5604]","[u'down', u'right']",train_basic,,,"[u'0', u'4', u'5']","{u'mouseover': {u'state': {u'target': [], u'time': []}, u'edge': {u'target': [], u'time': []}}, u'click': {u'state': {u'target': [], u'time': []}, u'edge': {u'target': [], u'time': []}}, u'mouseout': {u'state': {u'target': [], u'time': []}, u'edge': {u'target': [], u'time': []}}}",,"[2, 9]","[4762, 312]",11.0,"[None, None]",,34872,4.0,42719688.0,mouselab-mdp,2
"[2199, 2863]","[u'down', u'right']",train_basic,,,"[u'0', u'4', u'5']","{u'mouseover': {u'state': {u'target': [], u'time': []}, u'edge': {u'target': [], u'time': []}}, u'click': {u'state': {u'target': [], u'time': []}, u'edge': {u'target': [], u'time': []}}, u'mouseout': {u'state': {u'target': [], u'time': []}, u'edge': {u'target': [], u'time': []}}}",,"[2, 7]","[2195, 147]",9.0,"[None, None]",,40886,5.0,18034296.0,mouselab-mdp,2
"[1621, 2402]","[u'down', u'left']",train_basic,,,"[u'0', u'4', u'6']","{u'mouseover': {u'state': {u'target': [], u'time': []}, u'edge': {u'target': [], u'time': []}}, u'click': {u'state': {u'target': [], u'time': []}, u'edge': {u'target': [], u'time': []}}, u'mouseout': {u'state': {u'target': [], u'time': []}, u'edge': {u'target': [], u'time': []}}}",,"[7, 7]","[1617, 264]",14.0,"[None, None]",,45607,6.0,95218744.0,mouselab-mdp,2
"[7720, 8375]","[u'down', u'right']",train_basic,,,"[u'0', u'4', u'5']","{u'mouseover': {u'state': {u'target': [], u'time': []}, u'edge': {u'target': [], u'time': []}}, u'click': {u'state': {u'target': [], u'time': []}, u'edge': {u'target': [], u'time': []}}, u'mouseout': {u'state': {u'target': [], u'time': []}, u'edge': {u'target': [], u'time': []}}}",,"[4, 7]","[7717, 135]",11.0,"[None, None]",,56175,7.0,91416205.0,mouselab-mdp,2
"[2692, 3242]","[u'up', u'right']",train_basic,,,"[u'0', u'1', u'2']","{u'mouseover': {u'state': {u'target': [], u'time': []}, u'edge': {u'target': [], u'time': []}}, u'click': {u'state': {u'target': [], u'time': []}, u'edge': {u'target': [], u'time': []}}, u'mouseout': {u'state': {u'target': [], u'time': []}, u'edge': {u'target': [], u'time': []}}}",,"[7, 7]","[2688, 41]",14.0,"[None, None]",,61616,8.0,77642130.0,mouselab-mdp,2
"[4820, 9722]","[u'up', u'left']",train_basic,,,"[u'0', u'1', u'3']","{u'mouseover': {u'state': {u'target': [], u'time': []}, u'edge': {u'target': [], u'time': []}}, u'click': {u'state': {u'target': [], u'time': []}, u'edge': {u'target': [], u'time': []}}, u'mouseout': {u'state': {u'target': [], u'time': []}, u'edge': {u'target': [], u'time': []}}}",,"[7, 2]","[4817, 4389]",9.0,"[None, None]",,73567,9.0,61186104.0,mouselab-mdp,2
"[3627, 4248]","[u'down', u'left']",train_hidden,,,"[u'0', u'4', u'6']","{u'mouseover': {u'state': {u'target': [], u'time': []}, u'edge': {u'target': [], u'time': []}}, u'click': {u'state': {u'target': [], u'time': []}, u'edge': {u'target': [], u'time': []}}, u'mouseout': {u'state': {u'target': [], u'time': []}, u'edge': {u'target': [], u'time': []}}}",,"[4, 7]","[3624, 100]",11.0,"[None, None]",,82498,10.0,50990879.0,mouselab-mdp,2
"[696, 1335]","[u'up', u'left']",train_hidden,,,"[u'0', u'1', u'3']","{u'mouseover': {u'state': {u'target': [], u'time': []}, u'edge': {u'target': [], u'time': []}}, u'click': {u'state': {u'target': [], u'time': []}, u'edge': {u'target': [], u'time': []}}, u'mouseout': {u'state': {u'target': [], u'time': []}, u'edge': {u'target': [], u'time': []}}}",,"[-1, 7]","[693, 118]",6.0,"[None, None]",,86263,11.0,13024364.0,mouselab-mdp,2
"[582, 1599]","[u'up', u'right']",train_hidden,,,"[u'0', u'1', u'2']","{u'mouseover': {u'state': {u'target': [], u'time': []}, u'edge': {u'target': [], u'time': []}}, u'click': {u'state': {u'target': [], u'time': []}, u'edge': {u'target': [], u'time': []}}, u'mouseout': {u'state': {u'target': [], u'time': []}, u'edge': {u'target': [], u'time': []}}}",,"[7, 2]","[580, 498]",9.0,"[None, None]",,90198,12.0,26062214.0,mouselab-mdp,2
"[761, 1359]","[u'up', u'left']",train_hidden,,,"[u'0', u'1', u'3']","{u'mouseover': {u'state': {u'target': [], u'time': []}, u'edge': {u'target': [], u'time': []}}, u'click': {u'state': {u'target': [], u'time': []}, u'edge': {u'target': [], u'time': []}}, u'mouseout': {u'state': {u'target': [], u'time': []}, u'edge': {u'target': [], u'time': []}}}",,"[2, 4]","[757, 88]",6.0,"[None, None]",,93855,13.0,80034056.0,mouselab-mdp,2
"[418, 1121]","[u'down', u'left']",train_hidden,,,"[u'0', u'4', u'6']","{u'mouseover': {u'state': {u'target': [], u'time': []}, u'edge': {u'target': [], u'time': []}}, u'click': {u'state': {u'target': [], u'time': []}, u'edge': {u'target': [], u'time': []}}, u'mouseout': {u'state': {u'target': [], u'time': []}, u'edge': {u'target': [], u'time': []}}}",,"[-1, 4]","[416, 193]",3.0,"[None, None]",,97222,14.0,17490447.0,mouselab-mdp,2
"[18123, 19137]","[u'up', u'left']",train_inspector,,,"[u'0', u'1', u'3']","{u'mouseover': {u'state': {u'target': [], u'time': []}, u'edge': {u'target': [], u'time': []}}, u'click': {u'state': {u'target': [u'6', u'1', u'3', u'5', u'2', u'4'], u'time': [2945, 4595, 5484, 7049, 9763, 10496]}, u'edge': {u'target': [], u'time': []}}, u'mouseout': {u'state': {u'target': [], u'time': []}, u'edge': {u'target': [], u'time': []}}}",,"[2, 2]","[18119, 500]",4.0,"[None, None]",,120646,15.0,40947937.0,mouselab-mdp,2
"[8725, 9308]","[u'down', u'left']",train_inspector,,,"[u'0', u'4', u'6']","{u'mouseover': {u'state': {u'target': [], u'time': []}, u'edge': {u'target': [], u'time': []}}, u'click': {u'state': {u'target': [u'3', u'1', u'6', u'4'], u'time': [3444, 4394, 6235, 6879]}, u'edge': {u'target': [], u'time': []}}, u'mouseout': {u'state': {u'target': [], u'time': []}, u'edge': {u'target': [], u'time': []}}}",,"[7, 4]","[8720, 60]",11.0,"[None, None]",,132710,16.0,16053274.0,mouselab-mdp,2
"[8401, 9448]","[u'down', u'left']",train_inspector,,,"[u'0', u'4', u'6']","{u'mouseover': {u'state': {u'target': [], u'time': []}, u'edge': {u'target': [], u'time': []}}, u'click': {u'state': {u'target': [u'3', u'1', u'4', u'5', u'6'], u'time': [1086, 1593, 3983, 4580, 5691]}, u'edge': {u'target': [], u'time': []}}, u'mouseout': {u'state': {u'target': [], u'time': []}, u'edge': {u'target': [], u'time': []}}}",,"[7, 4]","[8398, 529]",11.0,"[None, None]",,144677,17.0,17194749.0,mouselab-mdp,2
"[7305, 8232]","[u'up', u'left']",train_inspector,,,"[u'0', u'1', u'3']","{u'mouseover': {u'state': {u'target': [], u'time': []}, u'edge': {u'target': [], u'time': []}}, u'click': {u'state': {u'target': [u'3', u'2', u'1', u'6', u'4', u'5'], u'time': [1564, 2752, 3585, 4333, 4703, 5065]}, u'edge': {u'target': [], u'time': []}}, u'mouseout': {u'state': {u'target': [], u'time': []}, u'edge': {u'target': [], u'time': []}}}",,"[4, 7]","[7302, 406]",11.0,"[None, None]",,155038,18.0,22965017.0,mouselab-mdp,2
"[6106, 6697]","[u'down', u'left']",train_inspector,,,"[u'0', u'4', u'6']","{u'mouseover': {u'state': {u'target': [], u'time': []}, u'edge': {u'target': [], u'time': []}}, u'click': {u'state': {u'target': [u'3', u'1', u'2', u'6', u'4', u'5'], u'time': [2088, 2412, 2776, 3379, 3648, 3946]}, u'edge': {u'target': [], u'time': []}}, u'mouseout': {u'state': {u'target': [], u'time': []}, u'edge': {u'target': [], u'time': []}}}",,"[4, 2]","[6102, 82]",6.0,"[None, None]",,164077,19.0,81610917.0,mouselab-mdp,2
"[21322, 22115]","[u'up', u'right']",train_inspect_cost,,,"[u'0', u'1', u'2']","{u'mouseover': {u'state': {u'target': [], u'time': []}, u'edge': {u'target': [], u'time': []}}, u'click': {u'state': {u'target': [u'3', u'1', u'2', u'6', u'5', u'4'], u'time': [12658, 14107, 14571, 15377, 16069, 17991]}, u'edge': {u'target': [], u'time': []}}, u'mouseout': {u'state': {u'target': [], u'time': []}, u'edge': {u'target': [], u'time': []}}}",,"[4, 9]","[21318, 270]",7.0,"[None, None]",,190750,20.0,49389700.0,mouselab-mdp,2
"[6507, 7098]","[u'up', u'left']",train_inspect_cost,,,"[u'0', u'1', u'3']","{u'mouseover': {u'state': {u'target': [], u'time': []}, u'edge': {u'target': [], u'time': []}}, u'click': {u'state': {u'target': [u'1', u'4'], u'time': [3342, 4042]}, u'edge': {u'target': [], u'time': []}}, u'mouseout': {u'state': {u'target': [], u'time': []}, u'edge': {u'target': [], u'time': []}}}",,"[2, 4]","[6503, 72]",4.0,"[None, None]",,200469,21.0,40112455.0,mouselab-mdp,2
"[1240, 1949]","[u'down', u'right']",train_inspect_cost,,,"[u'0', u'4', u'5']","{u'mouseover': {u'state': {u'target': [], u'time': []}, u'edge': {u'target': [], u'time': []}}, u'click': {u'state': {u'target': [], u'time': []}, u'edge': {u'target': [], u'time': []}}, u'mouseout': {u'state': {u'target': [], u'time': []}, u'edge': {u'target': [], u'time': []}}}",,"[2, 2]","[1237, 186]",4.0,"[None, None]",,204877,22.0,90837847.0,mouselab-mdp,2
"[559, 1350]","[u'up', u'left']",train_inspect_cost,,,"[u'0', u'1', u'3']","{u'mouseover': {u'state': {u'target': [], u'time': []}, u'edge': {u'target': [], u'time': []}}, u'click': {u'state': {u'target': [], u'time': []}, u'edge': {u'target': [], u'time': []}}, u'mouseout': {u'state': {u'target': [], u'time': []}, u'edge': {u'target': [], u'time': []}}}",,"[2, 2]","[555, 269]",4.0,"[None, None]",,208659,23.0,53002611.0,mouselab-mdp,2
"[892, 1572]","[u'down', u'right']",train_inspect_cost,,,"[u'0', u'4', u'5']","{u'mouseover': {u'state': {u'target': [], u'time': []}, u'edge': {u'target': [], u'time': []}}, u'click': {u'state': {u'target': [], u'time': []}, u'edge': {u'target': [], u'time': []}}, u'mouseout': {u'state': {u'target': [], u'time': []}, u'edge': {u'target': [], u'time': []}}}",,"[2, 7]","[889, 159]",9.0,"[None, None]",,212685,24.0,15995920.0,mouselab-mdp,2
"[12496, 13104]","[u'down', u'left']",train_final,,,"[u'0', u'4', u'6']","{u'mouseover': {u'state': {u'target': [], u'time': []}, u'edge': {u'target': [], u'time': []}}, u'click': {u'state': {u'target': [], u'time': []}, u'edge': {u'target': [], u'time': []}}, u'mouseout': {u'state': {u'target': [], u'time': []}, u'edge': {u'target': [], u'time': []}}}",,"[7, 4]","[12494, 97]",11.0,"[None, None]",,230836,25.0,11020712.0,mouselab-mdp,2
"[756, 1455]","[u'up', u'right']",train_final,,,"[u'0', u'1', u'2']","{u'mouseover': {u'state': {u'target': [], u'time': []}, u'edge': {u'target': [], u'time': []}}, u'click': {u'state': {u'target': [], u'time': []}, u'edge': {u'target': [], u'time': []}}, u'mouseout': {u'state': {u'target': [], u'time': []}, u'edge': {u'target': [], u'time': []}}}",,"[-1, 9]","[754, 183]",8.0,"[None, None]",,234421,26.0,80349185.0,mouselab-mdp,2
"[373, 1021]","[u'down', u'right']",train_final,,,"[u'0', u'4', u'5']","{u'mouseover': {u'state': {u'target': [], u'time': []}, u'edge': {u'target': [], u'time': []}}, u'click': {u'state': {u'target': [], u'time': []}, u'edge': {u'target': [], u'time': []}}, u'mouseout': {u'state': {u'target': [], u'time': []}, u'edge': {u'target': [], u'time': []}}}",,"[7, 2]","[370, 128]",9.0,"[None, None]",,237788,27.0,31209256.0,mouselab-mdp,2
"[460, 1195]","[u'down', u'left']",train_final,,,"[u'0', u'4', u'6']","{u'mouseover': {u'state': {u'target': [], u'time': []}, u'edge': {u'target': [], u'time': []}}, u'click': {u'state': {u'target': [], u'time': []}, u'edge': {u'target': [], u'time': []}}, u'mouseout': {u'state': {u'target': [], u'time': []}, u'edge': {u'target': [], u'time': []}}}",,"[-1, 9]","[458, 209]",8.0,"[None, None]",,241468,28.0,71313889.0,mouselab-mdp,2
"[412, 1028]","[u'up', u'left']",train_final,,,"[u'0', u'1', u'3']","{u'mouseover': {u'state': {u'target': [], u'time': []}, u'edge': {u'target': [], u'time': []}}, u'click': {u'state': {u'target': [], u'time': []}, u'edge': {u'target': [], u'time': []}}, u'mouseout': {u'state': {u'target': [], u'time': []}, u'edge': {u'target': [], u'time': []}}}",,"[-3, 9]","[409, 100]",6.0,"[None, None]",,244948,29.0,13079465.0,mouselab-mdp,2
"[3331, 3988]","[u'down', u'left']",test,,,"[u'0', u'4', u'6']","{u'mouseover': {u'state': {u'target': [], u'time': []}, u'edge': {u'target': [], u'time': []}}, u'click': {u'state': {u'target': [], u'time': []}, u'edge': {u'target': [], u'time': []}}, u'mouseout': {u'state': {u'target': [], u'time': []}, u'edge': {u'target': [], u'time': []}}}",,"[4, 7]","[3328, 144]",11.0,"[None, None]",,264100,30.0,15438400.0,mouselab-mdp,2
"[836, 1571]","[u'down', u'right']",test,,,"[u'0', u'4', u'5']","{u'mouseover': {u'state': {u'target': [], u'time': []}, u'edge': {u'target': [], u'time': []}}, u'click': {u'state': {u'target': [], u'time': []}, u'edge': {u'target': [], u'time': []}}, u'mouseout': {u'state': {u'target': [], u'time': []}, u'edge': {u'target': [], u'time': []}}}",,"[2, -1]","[833, 208]",1.0,"[None, None]",,268148,31.0,37775460.0,mouselab-mdp,2
"[380, 1605]","[u'down', u'left']",test,,,"[u'0', u'4', u'6']","{u'mouseover': {u'state': {u'target': [], u'time': []}, u'edge': {u'target': [], u'time': []}}, u'click': {u'state': {u'target': [], u'time': []}, u'edge': {u'target': [], u'time': []}}, u'mouseout': {u'state': {u'target': [], u'time': []}, u'edge': {u'target': [], u'time': []}}}",,"[4, 2]","[376, 716]",6.0,"[None, None]",,272284,32.0,81855562.0,mouselab-mdp,2
"[786, 1951]","[u'up', u'right']",test,,,"[u'0', u'1', u'2']","{u'mouseover': {u'state': {u'target': [], u'time': []}, u'edge': {u'target': [], u'time': []}}, u'click': {u'state': {u'target': [], u'time': []}, u'edge': {u'target': [], u'time': []}}, u'mouseout': {u'state': {u'target': [], u'time': []}, u'edge': {u'target': [], u'time': []}}}",,"[-3, 7]","[783, 645]",4.0,"[None, None]",,276805,33.0,87180601.0,mouselab-mdp,2
"[624, 1519]","[u'down', u'left']",test,,,"[u'0', u'4', u'6']","{u'mouseover': {u'state': {u'target': [], u'time': []}, u'edge': {u'target': [], u'time': []}}, u'click': {u'state': {u'target': [], u'time': []}, u'edge': {u'target': [], u'time': []}}, u'mouseout': {u'state': {u'target': [], u'time': []}, u'edge': {u'target': [], u'time': []}}}",,"[4, -1]","[621, 376]",3.0,"[None, None]",,280707,34.0,12263236.0,mouselab-mdp,2
"[383, 987]","[u'up', u'left']",test,,,"[u'0', u'1', u'3']","{u'mouseover': {u'state': {u'target': [], u'time': []}, u'edge': {u'target': [], u'time': []}}, u'click': {u'state': {u'target': [], u'time': []}, u'edge': {u'target': [], u'time': []}}, u'mouseout': {u'state': {u'target': [], u'time': []}, u'edge': {u'target': [], u'time': []}}}",,"[-1, 4]","[381, 93]",3.0,"[None, None]",,283995,35.0,33246409.0,mouselab-mdp,2
"[445, 1156]","[u'down', u'right']",test,,,"[u'0', u'4', u'5']","{u'mouseover': {u'state': {u'target': [], u'time': []}, u'edge': {u'target': [], u'time': []}}, u'click': {u'state': {u'target': [], u'time': []}, u'edge': {u'target': [], u'time': []}}, u'mouseout': {u'state': {u'target': [], u'time': []}, u'edge': {u'target': [], u'time': []}}}",,"[2, 7]","[442, 190]",9.0,"[None, None]",,287403,36.0,63853708.0,mouselab-mdp,2
"[368, 1671]","[u'down', u'right']",test,,,"[u'0', u'4', u'5']","{u'mouseover': {u'state': {u'target': [], u'time': []}, u'edge': {u'target': [], u'time': []}}, u'click': {u'state': {u'target': [], u'time': []}, u'edge': {u'target': [], u'time': []}}, u'mouseout': {u'state': {u'target': [], u'time': []}, u'edge': {u'target': [], u'time': []}}}",,"[4, 2]","[364, 781]",6.0,"[None, None]",,291331,37.0,36722949.0,mouselab-mdp,2
"[628, 1244]","[u'down', u'left']",test,,,"[u'0', u'4', u'6']","{u'mouseover': {u'state': {u'target': [], u'time': []}, u'edge': {u'target': [], u'time': []}}, u'click': {u'state': {u'target': [], u'time': []}, u'edge': {u'target': [], u'time': []}}, u'mouseout': {u'state': {u'target': [], u'time': []}, u'edge': {u'target': [], u'time': []}}}",,"[7, 4]","[625, 106]",11.0,"[None, None]",,294875,38.0,71806265.0,mouselab-mdp,2
"[783, 2078]","[u'up', u'right']",test,,,"[u'0', u'1', u'2']","{u'mouseover': {u'state': {u'target': [], u'time': []}, u'edge': {u'target': [], u'time': []}}, u'click': {u'state': {u'target': [], u'time': []}, u'edge': {u'target': [], u'time': []}}, u'mouseout': {u'state': {u'target': [], u'time': []}, u'edge': {u'target': [], u'time': []}}}",,"[9, 7]","[780, 785]",16.0,"[None, None]",,299059,39.0,31508986.0,mouselab-mdp,2
"[729, 1889]","[u'up', u'left']",test,,,"[u'0', u'1', u'3']","{u'mouseover': {u'state': {u'target': [], u'time': []}, u'edge': {u'target': [], u'time': []}}, u'click': {u'state': {u'target': [], u'time': []}, u'edge': {u'target': [], u'time': []}}, u'mouseout': {u'state': {u'target': [], u'time': []}, u'edge': {u'target': [], u'time': []}}}",,"[-1, 4]","[727, 640]",3.0,"[None, None]",,303170,40.0,23844424.0,mouselab-mdp,2
"[426, 1363]","[u'down', u'right']",test,,,"[u'0', u'4', u'5']","{u'mouseover': {u'state': {u'target': [], u'time': []}, u'edge': {u'target': [], u'time': []}}, u'click': {u'state': {u'target': [], u'time': []}, u'edge': {u'target': [], u'time': []}}, u'mouseout': {u'state': {u'target': [], u'time': []}, u'edge': {u'target': [], u'time': []}}}",,"[4, 2]","[422, 420]",6.0,"[None, None]",,306707,41.0,73634081.0,mouselab-mdp,2
"[417, 1038]","[u'down', u'left']",test,,,"[u'0', u'4', u'6']","{u'mouseover': {u'state': {u'target': [], u'time': []}, u'edge': {u'target': [], u'time': []}}, u'click': {u'state': {u'target': [], u'time': []}, u'edge': {u'target': [], u'time': []}}, u'mouseout': {u'state': {u'target': [], u'time': []}, u'edge': {u'target': [], u'time': []}}}",,"[2, 7]","[413, 115]",9.0,"[None, None]",,309856,42.0,5167615.0,mouselab-mdp,2
"[328, 855]","[u'up', u'right']",test,,,"[u'0', u'1', u'2']","{u'mouseover': {u'state': {u'target': [], u'time': []}, u'edge': {u'target': [], u'time': []}}, u'click': {u'state': {u'target': [], u'time': []}, u'edge': {u'target': [], u'time': []}}, u'mouseout': {u'state': {u'target': [], u'time': []}, u'edge': {u'target': [], u'time': []}}}",,"[-1, -1]","[324, 6]",-2.0,"[None, None]",,312836,43.0,50691247.0,mouselab-mdp,2
"[457, 1632]","[u'up', u'left']",test,,,"[u'0', u'1', u'3']","{u'mouseover': {u'state': {u'target': [], u'time': []}, u'edge': {u'target': [], u'time': []}}, u'click': {u'state': {u'target': [], u'time': []}, u'edge': {u'target': [], u'time': []}}, u'mouseout': {u'state': {u'target': [], u'time': []}, u'edge': {u'target': [], u'time': []}}}",,"[2, 4]","[454, 653]",6.0,"[None, None]",,316496,44.0,62858052.0,mouselab-mdp,2
"[415, 1129]","[u'down', u'left']",test,,,"[u'0', u'4', u'6']","{u'mouseover': {u'state': {u'target': [], u'time': []}, u'edge': {u'target': [], u'time': []}}, u'click': {u'state': {u'target': [], u'time': []}, u'edge': {u'target': [], u'time': []}}, u'mouseout': {u'state': {u'target': [], u'time': []}, u'edge': {u'target': [], u'time': []}}}",,"[4, -3]","[412, 198]",1.0,"[None, None]",,319746,45.0,93799282.0,mouselab-mdp,2
"[345, 1031]","[u'down', u'right']",test,,,"[u'0', u'4', u'5']","{u'mouseover': {u'state': {u'target': [], u'time': []}, u'edge': {u'target': [], u'time': []}}, u'click': {u'state': {u'target': [], u'time': []}, u'edge': {u'target': [], u'time': []}}, u'mouseout': {u'state': {u'target': [], u'time': []}, u'edge': {u'target': [], u'time': []}}}",,"[4, 2]","[342, 166]",6.0,"[None, None]",,322931,46.0,55535495.0,mouselab-mdp,2
"[305, 1201]","[u'up', u'right']",test,,,"[u'0', u'1', u'2']","{u'mouseover': {u'state': {u'target': [], u'time': []}, u'edge': {u'target': [], u'time': []}}, u'click': {u'state': {u'target': [], u'time': []}, u'edge': {u'target': [], u'time': []}}, u'mouseout': {u'state': {u'target': [], u'time': []}, u'edge': {u'target': [], u'time': []}}}",,"[2, 2]","[302, 371]",4.0,"[None, None]",,326234,47.0,79793648.0,mouselab-mdp,2
"[1093, 1693]","[u'up', u'left']",test,,,"[u'0', u'1', u'3']","{u'mouseover': {u'state': {u'target': [], u'time': []}, u'edge': {u'target': [], u'time': []}}, u'click': {u'state': {u'target': [], u'time': []}, u'edge': {u'target': [], u'time': []}}, u'mouseout': {u'state': {u'target': [], u'time': []}, u'edge': {u'target': [], u'time': []}}}",,"[-1, 2]","[1090, 88]",1.0,"[None, None]",,329932,48.0,20498746.0,mouselab-mdp,2
"[639, 1173]","[u'up', u'right']",test,,,"[u'0', u'1', u'2']","{u'mouseover': {u'state': {u'target': [], u'time': []}, u'edge': {u'target': [], u'time': []}}, u'click': {u'state': {u'target': [], u'time': []}, u'edge': {u'target': [], u'time': []}}, u'mouseout': {u'state': {u'target': [], u'time': []}, u'edge': {u'target': [], u'time': []}}}",,"[9, 4]","[636, 26]",13.0,"[None, None]",,333170,49.0,63816155.0,mouselab-mdp,2
"[481, 1768]","[u'up', u'left']",test,,,"[u'0', u'1', u'3']","{u'mouseover': {u'state': {u'target': [], u'time': []}, u'edge': {u'target': [], u'time': []}}, u'click': {u'state': {u'target': [], u'time': []}, u'edge': {u'target': [], u'time': []}}, u'mouseout': {u'state': {u'target': [], u'time': []}, u'edge': {u'target': [], u'time': []}}}",,"[-3, -1]","[479, 776]",-4.0,"[None, None]",,336793,50.0,25562375.0,mouselab-mdp,2
"[418, 1114]","[u'down', u'right']",test,,,"[u'0', u'4', u'5']","{u'mouseover': {u'state': {u'target': [], u'time': []}, u'edge': {u'target': [], u'time': []}}, u'click': {u'state': {u'target': [], u'time': []}, u'edge': {u'target': [], u'time': []}}, u'mouseout': {u'state': {u'target': [], u'time': []}, u'edge': {u'target': [], u'time': []}}}",,"[9, 4]","[415, 187]",13.0,"[None, None]",,339908,51.0,42223011.0,mouselab-mdp,2
"[733, 1267]","[u'up', u'right']",test,,,"[u'0', u'1', u'2']","{u'mouseover': {u'state': {u'target': [], u'time': []}, u'edge': {u'target': [], u'time': []}}, u'click': {u'state': {u'target': [], u'time': []}, u'edge': {u'target': [], u'time': []}}, u'mouseout': {u'state': {u'target': [], u'time': []}, u'edge': {u'target': [], u'time': []}}}",,"[9, -1]","[730, 25]",8.0,"[None, None]",,343185,52.0,19360252.0,mouselab-mdp,2
"[511, 1637]","[u'down', u'right']",test,,,"[u'0', u'4', u'5']","{u'mouseover': {u'state': {u'target': [], u'time': []}, u'edge': {u'target': [], u'time': []}}, u'click': {u'state': {u'target': [], u'time': []}, u'edge': {u'target': [], u'time': []}}, u'mouseout': {u'state': {u'target': [], u'time': []}, u'edge': {u'target': [], u'time': []}}}",,"[4, 7]","[506, 613]",11.0,"[None, None]",,346868,53.0,12967036.0,mouselab-mdp,2
"[664, 1293]","[u'up', u'left']",test,,,"[u'0', u'1', u'3']","{u'mouseover': {u'state': {u'target': [], u'time': []}, u'edge': {u'target': [], u'time': []}}, u'click': {u'state': {u'target': [], u'time': []}, u'edge': {u'target': [], u'time': []}}, u'mouseout': {u'state': {u'target': [], u'time': []}, u'edge': {u'target': [], u'time': []}}}",,"[2, 4]","[659, 110]",6.0,"[None, None]",,350243,54.0,25334607.0,mouselab-mdp,2
"[366, 956]","[u'down', u'left']",test,,,"[u'0', u'4', u'6']","{u'mouseover': {u'state': {u'target': [], u'time': []}, u'edge': {u'target': [], u'time': []}}, u'click': {u'state': {u'target': [], u'time': []}, u'edge': {u'target': [], u'time': []}}, u'mouseout': {u'state': {u'target': [], u'time': []}, u'edge': {u'target': [], u'time': []}}}",,"[-1, 9]","[363, 73]",8.0,"[None, None]",,353225,55.0,7655277.0,mouselab-mdp,2
"[357, 998]","[u'down', u'right']",test,,,"[u'0', u'4', u'5']","{u'mouseover': {u'state': {u'target': [], u'time': []}, u'edge': {u'target': [], u'time': []}}, u'click': {u'state': {u'target': [], u'time': []}, u'edge': {u'target': [], u'time': []}}, u'mouseout': {u'state': {u'target': [], u'time': []}, u'edge': {u'target': [], u'time': []}}}",,"[2, 4]","[354, 121]",6.0,"[None, None]",,356378,56.0,46613852.0,mouselab-mdp,2
"[375, 1215]","[u'up', u'right']",test,,,"[u'0', u'1', u'2']","{u'mouseover': {u'state': {u'target': [], u'time': []}, u'edge': {u'target': [], u'time': []}}, u'click': {u'state': {u'target': [], u'time': []}, u'edge': {u'target': [], u'time': []}}, u'mouseout': {u'state': {u'target': [], u'time': []}, u'edge': {u'target': [], u'time': []}}}",,"[7, 2]","[372, 316]",9.0,"[None, None]",,359603,57.0,28834891.0,mouselab-mdp,2
"[1206, 2461]","[u'down', u'right']",test,,,"[u'0', u'4', u'5']","{u'mouseover': {u'state': {u'target': [], u'time': []}, u'edge': {u'target': [], u'time': []}}, u'click': {u'state': {u'target': [], u'time': []}, u'edge': {u'target': [], u'time': []}}, u'mouseout': {u'state': {u'target': [], u'time': []}, u'edge': {u'target': [], u'time': []}}}",,"[4, 7]","[1203, 741]",11.0,"[None, None]",,364107,58.0,49417938.0,mouselab-mdp,2
"[319, 1279]","[u'up', u'left']",test,,,"[u'0', u'1', u'3']","{u'mouseover': {u'state': {u'target': [], u'time': []}, u'edge': {u'target': [], u'time': []}}, u'click': {u'state': {u'target': [], u'time': []}, u'edge': {u'target': [], u'time': []}}, u'mouseout': {u'state': {u'target': [], u'time': []}, u'edge': {u'target': [], u'time': []}}}",,"[7, 2]","[316, 442]",9.0,"[None, None]",,367433,59.0,57132525.0,mouselab-mdp,2
"[1726, 2322]","[u'up', u'right']",train_basic,,,"[u'0', u'1', u'2']","{u'mouseover': {u'state': {u'target': [], u'time': []}, u'edge': {u'target': [], u'time': []}}, u'click': {u'state': {u'target': [], u'time': []}, u'edge': {u'target': [], u'time': []}}, u'mouseout': {u'state': {u'target': [], u'time': []}, u'edge': {u'target': [], u'time': []}}}",,"[9, 7]","[1723, 77]",16.0,"[None, None]",,4190,0.0,31508986.0,mouselab-mdp,3
"[1702, 2279]","[u'down', u'left']",train_basic,,,"[u'0', u'4', u'6']","{u'mouseover': {u'state': {u'target': [], u'time': []}, u'edge': {u'target': [], u'time': []}}, u'click': {u'state': {u'target': [], u'time': []}, u'edge': {u'target': [], u'time': []}}, u'mouseout': {u'state': {u'target': [], u'time': []}, u'edge': {u'target': [], u'time': []}}}",,"[4, 7]","[1700, 64]",11.0,"[None, None]",,8877,1.0,82543559.0,mouselab-mdp,3
"[1747, 2283]","[u'up', u'right']",train_basic,,,"[u'0', u'1', u'2']","{u'mouseover': {u'state': {u'target': [], u'time': []}, u'edge': {u'target': [], u'time': []}}, u'click': {u'state': {u'target': [], u'time': []}, u'edge': {u'target': [], u'time': []}}, u'mouseout': {u'state': {u'target': [], u'time': []}, u'edge': {u'target': [], u'time': []}}}",,"[2, 7]","[1745, 17]",9.0,"[None, None]",,13132,2.0,40112455.0,mouselab-mdp,3
"[1313, 1897]","[u'down', u'right']",train_basic,,,"[u'0', u'4', u'5']","{u'mouseover': {u'state': {u'target': [], u'time': []}, u'edge': {u'target': [], u'time': []}}, u'click': {u'state': {u'target': [], u'time': []}, u'edge': {u'target': [], u'time': []}}, u'mouseout': {u'state': {u'target': [], u'time': []}, u'edge': {u'target': [], u'time': []}}}",,"[9, 4]","[1311, 72]",13.0,"[None, None]",,17077,3.0,42223011.0,mouselab-mdp,3
"[1132, 1682]","[u'up', u'right']",train_basic,,,"[u'0', u'1', u'2']","{u'mouseover': {u'state': {u'target': [], u'time': []}, u'edge': {u'target': [], u'time': []}}, u'click': {u'state': {u'target': [], u'time': []}, u'edge': {u'target': [], u'time': []}}, u'mouseout': {u'state': {u'target': [], u'time': []}, u'edge': {u'target': [], u'time': []}}}",,"[7, 7]","[1131, 42]",14.0,"[None, None]",,20660,4.0,77642130.0,mouselab-mdp,3
"[1289, 1937]","[u'up', u'right']",train_basic,,,"[u'0', u'1', u'2']","{u'mouseover': {u'state': {u'target': [], u'time': []}, u'edge': {u'target': [], u'time': []}}, u'click': {u'state': {u'target': [], u'time': []}, u'edge': {u'target': [], u'time': []}}, u'mouseout': {u'state': {u'target': [], u'time': []}, u'edge': {u'target': [], u'time': []}}}",,"[9, 4]","[1286, 133]",13.0,"[None, None]",,24924,5.0,71806265.0,mouselab-mdp,3
"[1529, 2137]","[u'down', u'right']",train_basic,,,"[u'0', u'4', u'5']","{u'mouseover': {u'state': {u'target': [], u'time': []}, u'edge': {u'target': [], u'time': []}}, u'click': {u'state': {u'target': [], u'time': []}, u'edge': {u'target': [], u'time': []}}, u'mouseout': {u'state': {u'target': [], u'time': []}, u'edge': {u'target': [], u'time': []}}}",,"[4, 7]","[1527, 98]",11.0,"[None, None]",,29004,6.0,80349185.0,mouselab-mdp,3
"[820, 1339]","[u'up', u'left']",train_basic,,,"[u'0', u'1', u'3']","{u'mouseover': {u'state': {u'target': [], u'time': []}, u'edge': {u'target': [], u'time': []}}, u'click': {u'state': {u'target': [], u'time': []}, u'edge': {u'target': [], u'time': []}}, u'mouseout': {u'state': {u'target': [], u'time': []}, u'edge': {u'target': [], u'time': []}}}",,"[4, 4]","[818, 13]",8.0,"[None, None]",,32524,7.0,66466608.0,mouselab-mdp,3
"[820, 1372]","[u'up', u'right']",train_basic,,,"[u'0', u'1', u'2']","{u'mouseover': {u'state': {u'target': [], u'time': []}, u'edge': {u'target': [], u'time': []}}, u'click': {u'state': {u'target': [], u'time': []}, u'edge': {u'target': [], u'time': []}}, u'mouseout': {u'state': {u'target': [], u'time': []}, u'edge': {u'target': [], u'time': []}}}",,"[9, 4]","[819, 40]",13.0,"[None, None]",,35916,8.0,90837847.0,mouselab-mdp,3
"[1338, 1914]","[u'down', u'left']",train_basic,,,"[u'0', u'4', u'6']","{u'mouseover': {u'state': {u'target': [], u'time': []}, u'edge': {u'target': [], u'time': []}}, u'click': {u'state': {u'target': [], u'time': []}, u'edge': {u'target': [], u'time': []}}, u'mouseout': {u'state': {u'target': [], u'time': []}, u'edge': {u'target': [], u'time': []}}}",,"[4, 9]","[1336, 57]",13.0,"[None, None]",,40260,9.0,97243443.0,mouselab-mdp,3
"[4946, 5906]","[u'up', u'right']",train_hidden,,,"[u'0', u'1', u'2']","{u'mouseover': {u'state': {u'target': [], u'time': []}, u'edge': {u'target': [], u'time': []}}, u'click': {u'state': {u'target': [], u'time': []}, u'edge': {u'target': [], u'time': []}}, u'mouseout': {u'state': {u'target': [], u'time': []}, u'edge': {u'target': [], u'time': []}}}",,"[2, -3]","[4944, 441]",-1.0,"[None, None]",,50316,10.0,17194749.0,mouselab-mdp,3
"[587, 1683]","[u'up', u'left']",train_hidden,,,"[u'0', u'1', u'3']","{u'mouseover': {u'state': {u'target': [], u'time': []}, u'edge': {u'target': [], u'time': []}}, u'click': {u'state': {u'target': [], u'time': []}, u'edge': {u'target': [], u'time': []}}, u'mouseout': {u'state': {u'target': [], u'time': []}, u'edge': {u'target': [], u'time': []}}}",,"[4, 9]","[586, 578]",13.0,"[None, None]",,54460,11.0,31994242.0,mouselab-mdp,3
"[407, 1623]","[u'down', u'right']",train_hidden,,,"[u'0', u'4', u'5']","{u'mouseover': {u'state': {u'target': [], u'time': []}, u'edge': {u'target': [], u'time': []}}, u'click': {u'state': {u'target': [], u'time': []}, u'edge': {u'target': [], u'time': []}}, u'mouseout': {u'state': {u'target': [], u'time': []}, u'edge': {u'target': [], u'time': []}}}",,"[2, 7]","[406, 707]",9.0,"[None, None]",,59012,12.0,8631477.0,mouselab-mdp,3
"[390, 1453]","[u'down', u'right']",train_hidden,,,"[u'0', u'4', u'5']","{u'mouseover': {u'state': {u'target': [], u'time': []}, u'edge': {u'target': [], u'time': []}}, u'click': {u'state': {u'target': [], u'time': []}, u'edge': {u'target': [], u'time': []}}, u'mouseout': {u'state': {u'target': [], u'time': []}, u'edge': {u'target': [], u'time': []}}}",,"[7, 2]","[388, 557]",9.0,"[None, None]",,62651,13.0,95218744.0,mouselab-mdp,3
"[300, 1284]","[u'up', u'right']",train_hidden,,,"[u'0', u'1', u'2']","{u'mouseover': {u'state': {u'target': [], u'time': []}, u'edge': {u'target': [], u'time': []}}, u'click': {u'state': {u'target': [], u'time': []}, u'edge': {u'target': [], u'time': []}}, u'mouseout': {u'state': {u'target': [], u'time': []}, u'edge': {u'target': [], u'time': []}}}",,"[-1, 4]","[298, 464]",3.0,"[None, None]",,66035,14.0,20498746.0,mouselab-mdp,3
"[21581, 22404]","[u'down', u'right']",train_inspector,,,"[u'0', u'4', u'5']","{u'mouseover': {u'state': {u'target': [], u'time': []}, u'edge': {u'target': [], u'time': []}}, u'click': {u'state': {u'target': [u'1', u'4', u'5'], u'time': [13703, 16016, 17993]}, u'edge': {u'target': [], u'time': []}}, u'mouseout': {u'state': {u'target': [], u'time': []}, u'edge': {u'target': [], u'time': []}}}",,"[7, 7]","[21579, 303]",14.0,"[None, None]",,93379,15.0,75620818.0,mouselab-mdp,3
"[10380, 11019]","[u'down', u'left']",train_inspector,,,"[u'0', u'4', u'6']","{u'mouseover': {u'state': {u'target': [], u'time': []}, u'edge': {u'target': [], u'time': []}}, u'click': {u'state': {u'target': [u'1', u'6', u'2', u'4'], u'time': [806, 2021, 4322, 6914]}, u'edge': {u'target': [], u'time': []}}, u'mouseout': {u'state': {u'target': [], u'time': []}, u'edge': {u'target': [], u'time': []}}}",,"[7, 4]","[10378, 119]",11.0,"[None, None]",,107196,16.0,11020712.0,mouselab-mdp,3
"[6425, 7232]","[u'up', u'right']",train_inspector,,,"[u'0', u'1', u'2']","{u'mouseover': {u'state': {u'target': [], u'time': []}, u'edge': {u'target': [], u'time': []}}, u'click': {u'state': {u'target': [u'4', u'1', u'2'], u'time': [1383, 3522, 5139]}, u'edge': {u'target': [], u'time': []}}, u'mouseout': {u'state': {u'target': [], u'time': []}, u'edge': {u'target': [], u'time': []}}}",,"[4, 4]","[6422, 291]",8.0,"[None, None]",,116819,17.0,32071918.0,mouselab-mdp,3
"[11267, 11946]","[u'down', u'left']",train_inspector,,,"[u'0', u'4', u'6']","{u'mouseover': {u'state': {u'target': [], u'time': []}, u'edge': {u'target': [], u'time': []}}, u'click': {u'state': {u'target': [u'4', u'2', u'1'], u'time': [2690, 3725, 6816]}, u'edge': {u'target': [], u'time': []}}, u'mouseout': {u'state': {u'target': [], u'time': []}, u'edge': {u'target': [], u'time': []}}}",,"[2, 2]","[11265, 163]",4.0,"[None, None]",,131324,18.0,71072776.0,mouselab-mdp,3
"[5206, 5910]","[u'up', u'right']",train_inspector,,,"[u'0', u'1', u'2']","{u'mouseover': {u'state': {u'target': [], u'time': []}, u'edge': {u'target': [], u'time': []}}, u'click': {u'state': {u'target': [u'4', u'5', u'1'], u'time': [742, 1652, 4052]}, u'edge': {u'target': [], u'time': []}}, u'mouseout': {u'state': {u'target': [], u'time': []}, u'edge': {u'target': [], u'time': []}}}",,"[4, 4]","[5204, 193]",8.0,"[None, None]",,140011,19.0,17490447.0,mouselab-mdp,3
"[17103, 22972]","[u'up', u'right']",train_inspect_cost,,,"[u'0', u'1', u'2']","{u'mouseover': {u'state': {u'target': [], u'time': []}, u'edge': {u'target': [], u'time': []}}, u'click': {u'state': {u'target': [], u'time': []}, u'edge': {u'target': [], u'time': []}}, u'mouseout': {u'state': {u'target': [], u'time': []}, u'edge': {u'target': [], u'time': []}}}",,"[9, 7]","[17101, 5355]",16.0,"[None, None]",,168074,20.0,44277969.0,mouselab-mdp,3
"[3314, 4715]","[u'down', u'right']",train_inspect_cost,,,"[u'0', u'4', u'5']","{u'mouseover': {u'state': {u'target': [], u'time': []}, u'edge': {u'target': [], u'time': []}}, u'click': {u'state': {u'target': [u'1'], u'time': [2312]}, u'edge': {u'target': [], u'time': []}}, u'mouseout': {u'state': {u'target': [], u'time': []}, u'edge': {u'target': [], u'time': []}}}",,"[4, 4]","[3312, 886]",7.0,"[None, None]",,175466,21.0,25562375.0,mouselab-mdp,3
"[1959, 2767]","[u'down', u'right']",train_inspect_cost,,,"[u'0', u'4', u'5']","{u'mouseover': {u'state': {u'target': [], u'time': []}, u'edge': {u'target': [], u'time': []}}, u'click': {u'state': {u'target': [u'4'], u'time': [853]}, u'edge': {u'target': [], u'time': []}}, u'mouseout': {u'state': {u'target': [], u'time': []}, u'edge': {u'target': [], u'time': []}}}",,"[4, 4]","[1958, 300]",7.0,"[None, None]",,180754,22.0,30843817.0,mouselab-mdp,3
"[5293, 6045]","[u'up', u'right']",train_inspect_cost,,,"[u'0', u'1', u'2']","{u'mouseover': {u'state': {u'target': [], u'time': []}, u'edge': {u'target': [], u'time': []}}, u'click': {u'state': {u'target': [u'1'], u'time': [1367]}, u'edge': {u'target': [], u'time': []}}, u'mouseout': {u'state': {u'target': [], u'time': []}, u'edge': {u'target': [], u'time': []}}}",,"[-1, 4]","[5291, 229]",2.0,"[None, None]",,189354,23.0,57176004.0,mouselab-mdp,3
"[2510, 3231]","[u'down', u'left']",train_inspect_cost,,,"[u'0', u'4', u'6']","{u'mouseover': {u'state': {u'target': [], u'time': []}, u'edge': {u'target': [], u'time': []}}, u'click': {u'state': {u'target': [u'4'], u'time': [1461]}, u'edge': {u'target': [], u'time': []}}, u'mouseout': {u'state': {u'target': [], u'time': []}, u'edge': {u'target': [], u'time': []}}}",,"[4, 4]","[2508, 206]",7.0,"[None, None]",,195546,24.0,79793648.0,mouselab-mdp,3
"[18731, 19562]","[u'down', u'right']",train_final,,,"[u'0', u'4', u'5']","{u'mouseover': {u'state': {u'target': [], u'time': []}, u'edge': {u'target': [], u'time': []}}, u'click': {u'state': {u'target': [u'4'], u'time': [17713]}, u'edge': {u'target': [], u'time': []}}, u'mouseout': {u'state': {u'target': [], u'time': []}, u'edge': {u'target': [], u'time': []}}}",,"[2, 7]","[18730, 313]",8.0,"[None, None]",,219496,25.0,38005933.0,mouselab-mdp,3
"[2999, 3727]","[u'up', u'right']",train_final,,,"[u'0', u'1', u'2']","{u'mouseover': {u'state': {u'target': [], u'time': []}, u'edge': {u'target': [], u'time': []}}, u'click': {u'state': {u'target': [u'1'], u'time': [2075]}, u'edge': {u'target': [], u'time': []}}, u'mouseout': {u'state': {u'target': [], u'time': []}, u'edge': {u'target': [], u'time': []}}}",,"[7, 4]","[2998, 221]",10.0,"[None, None]",,225744,26.0,90876549.0,mouselab-mdp,3
"[2298, 2962]","[u'up', u'left']",train_final,,,"[u'0', u'1', u'3']","{u'mouseover': {u'state': {u'target': [], u'time': []}, u'edge': {u'target': [], u'time': []}}, u'click': {u'state': {u'target': [u'1'], u'time': [1269]}, u'edge': {u'target': [], u'time': []}}, u'mouseout': {u'state': {u'target': [], u'time': []}, u'edge': {u'target': [], u'time': []}}}",,"[4, -1]","[2295, 140]",2.0,"[None, None]",,231440,27.0,46613852.0,mouselab-mdp,3
"[1870, 3054]","[u'down', u'right']",train_final,,,"[u'0', u'4', u'5']","{u'mouseover': {u'state': {u'target': [], u'time': []}, u'edge': {u'target': [], u'time': []}}, u'click': {u'state': {u'target': [u'4'], u'time': [907]}, u'edge': {u'target': [], u'time': []}}, u'mouseout': {u'state': {u'target': [], u'time': []}, u'edge': {u'target': [], u'time': []}}}",,"[9, 7]","[1869, 668]",15.0,"[None, None]",,237242,28.0,23844424.0,mouselab-mdp,3
"[2058, 2746]","[u'down', u'right']",train_final,,,"[u'0', u'4', u'5']","{u'mouseover': {u'state': {u'target': [], u'time': []}, u'edge': {u'target': [], u'time': []}}, u'click': {u'state': {u'target': [u'4'], u'time': [1107]}, u'edge': {u'target': [], u'time': []}}, u'mouseout': {u'state': {u'target': [], u'time': []}, u'edge': {u'target': [], u'time': []}}}",,"[2, 7]","[2057, 171]",8.0,"[None, None]",,242440,29.0,22965017.0,mouselab-mdp,3
"[2894, 3847]","[u'up', u'right']",test,,,"[u'0', u'1', u'2']","{u'mouseover': {u'state': {u'target': [], u'time': []}, u'edge': {u'target': [], u'time': []}}, u'click': {u'state': {u'target': [u'1'], u'time': [1847]}, u'edge': {u'target': [], u'time': []}}, u'mouseout': {u'state': {u'target': [], u'time': []}, u'edge': {u'target': [], u'time': []}}}",,"[9, -1]","[2893, 442]",7.0,"[None, None]",,254896,30.0,73634081.0,mouselab-mdp,3
"[1935, 3454]","[u'up', u'left']",test,,,"[u'0', u'1', u'3']","{u'mouseover': {u'state': {u'target': [], u'time': []}, u'edge': {u'target': [], u'time': []}}, u'click': {u'state': {u'target': [u'4'], u'time': [1009]}, u'edge': {u'target': [], u'time': []}}, u'mouseout': {u'state': {u'target': [], u'time': []}, u'edge': {u'target': [], u'time': []}}}",,"[-1, 4]","[1933, 999]",2.0,"[None, None]",,260927,31.0,33246409.0,mouselab-mdp,3
"[3176, 3863]","[u'down', u'right']",test,,,"[u'0', u'4', u'5']","{u'mouseover': {u'state': {u'target': [], u'time': []}, u'edge': {u'target': [], u'time': []}}, u'click': {u'state': {u'target': [u'4'], u'time': [1971]}, u'edge': {u'target': [], u'time': []}}, u'mouseout': {u'state': {u'target': [], u'time': []}, u'edge': {u'target': [], u'time': []}}}",,"[-1, 2]","[3174, 165]",0.0,"[None, None]",,267240,32.0,66854646.0,mouselab-mdp,3
"[359, 1856]","[u'up', u'left']",test,,,"[u'0', u'1', u'3']","{u'mouseover': {u'state': {u'target': [], u'time': []}, u'edge': {u'target': [], u'time': []}}, u'click': {u'state': {u'target': [], u'time': []}, u'edge': {u'target': [], u'time': []}}, u'mouseout': {u'state': {u'target': [], u'time': []}, u'edge': {u'target': [], u'time': []}}}",,"[-1, 2]","[358, 986]",1.0,"[None, None]",,271751,33.0,59869220.0,mouselab-mdp,3
"[1360, 2214]","[u'down', u'left']",test,,,"[u'0', u'4', u'6']","{u'mouseover': {u'state': {u'target': [], u'time': []}, u'edge': {u'target': [], u'time': []}}, u'click': {u'state': {u'target': [u'4'], u'time': [494]}, u'edge': {u'target': [], u'time': []}}, u'mouseout': {u'state': {u'target': [], u'time': []}, u'edge': {u'target': [], u'time': []}}}",,"[4, -3]","[1358, 340]",0.0,"[None, None]",,276391,34.0,60478881.0,mouselab-mdp,3
"[1685, 4476]","[u'up', u'right']",test,,,"[u'0', u'1', u'2']","{u'mouseover': {u'state': {u'target': [], u'time': []}, u'edge': {u'target': [], u'time': []}}, u'click': {u'state': {u'target': [u'1'], u'time': [733]}, u'edge': {u'target': [], u'time': []}}, u'mouseout': {u'state': {u'target': [], u'time': []}, u'edge': {u'target': [], u'time': []}}}",,"[9, 9]","[1683, 2271]",17.0,"[None, None]",,283647,35.0,14499657.0,mouselab-mdp,3
"[1838, 2653]","[u'up', u'right']",test,,,"[u'0', u'1', u'2']","{u'mouseover': {u'state': {u'target': [], u'time': []}, u'edge': {u'target': [], u'time': []}}, u'click': {u'state': {u'target': [u'1'], u'time': [801]}, u'edge': {u'target': [], u'time': []}}, u'mouseout': {u'state': {u'target': [], u'time': []}, u'edge': {u'target': [], u'time': []}}}",,"[7, 7]","[1836, 291]",13.0,"[None, None]",,288839,36.0,7655277.0,mouselab-mdp,3
"[1882, 3169]","[u'down', u'left']",test,,,"[u'0', u'4', u'6']","{u'mouseover': {u'state': {u'target': [], u'time': []}, u'edge': {u'target': [], u'time': []}}, u'click': {u'state': {u'target': [u'4'], u'time': [908]}, u'edge': {u'target': [], u'time': []}}, u'mouseout': {u'state': {u'target': [], u'time': []}, u'edge': {u'target': [], u'time': []}}}",,"[4, 7]","[1880, 781]",10.0,"[None, None]",,294775,37.0,50990879.0,mouselab-mdp,3
"[5107, 5851]","[u'up', u'left']",test,,,"[u'0', u'1', u'3']","{u'mouseover': {u'state': {u'target': [], u'time': []}, u'edge': {u'target': [], u'time': []}}, u'click': {u'state': {u'target': [u'4', u'1'], u'time': [2108, 4316]}, u'edge': {u'target': [], u'time': []}}, u'mouseout': {u'state': {u'target': [], u'time': []}, u'edge': {u'target': [], u'time': []}}}",,"[4, -1]","[5104, 230]",1.0,"[None, None]",,303766,38.0,59096434.0,mouselab-mdp,3
"[3251, 3881]","[u'up', u'right']",test,,,"[u'0', u'1', u'2']","{u'mouseover': {u'state': {u'target': [], u'time': []}, u'edge': {u'target': [], u'time': []}}, u'click': {u'state': {u'target': [u'1', u'5'], u'time': [913, 2232]}, u'edge': {u'target': [], u'time': []}}, u'mouseout': {u'state': {u'target': [], u'time': []}, u'edge': {u'target': [], u'time': []}}}",,"[2, 9]","[3250, 113]",9.0,"[None, None]",,310415,39.0,525781.0,mouselab-mdp,3
"[11595, 12243]","[u'up', u'right']",test,,,"[u'0', u'1', u'2']","{u'mouseover': {u'state': {u'target': [], u'time': []}, u'edge': {u'target': [], u'time': []}}, u'click': {u'state': {u'target': [u'1', u'5'], u'time': [5337, 9506]}, u'edge': {u'target': [], u'time': []}}, u'mouseout': {u'state': {u'target': [], u'time': []}, u'edge': {u'target': [], u'time': []}}}",,"[-1, 7]","[11591, 132]",4.0,"[None, None]",,325358,40.0,79386179.0,mouselab-mdp,3
"[2451, 3108]","[u'down', u'right']",test,,,"[u'0', u'4', u'5']","{u'mouseover': {u'state': {u'target': [], u'time': []}, u'edge': {u'target': [], u'time': []}}, u'click': {u'state': {u'target': [u'4'], u'time': [1167]}, u'edge': {u'target': [], u'time': []}}, u'mouseout': {u'state': {u'target': [], u'time': []}, u'edge': {u'target': [], u'time': []}}}",,"[7, -1]","[2449, 140]",5.0,"[None, None]",,330918,41.0,64055861.0,mouselab-mdp,3
"[3209, 4737]","[u'down', u'left']",test,,,"[u'0', u'4', u'6']","{u'mouseover': {u'state': {u'target': [], u'time': []}, u'edge': {u'target': [], u'time': []}}, u'click': {u'state': {u'target': [u'1'], u'time': [1850]}, u'edge': {u'target': [], u'time': []}}, u'mouseout': {u'state': {u'target': [], u'time': []}, u'edge': {u'target': [], u'time': []}}}",,"[9, 4]","[3208, 1005]",12.0,"[None, None]",,338326,42.0,25873888.0,mouselab-mdp,3
