action_times,actions,block,button_pressed,key_press,path,queries,responses,rewards,rt,score,simulation_mode,stimulus,time_elapsed,trial_index,trial_id,trial_type,pid
"[1746, 2641, 3275]","[u'up', u'up', u'left']",train_basic,,,"[0, 2, 6, 11]","{u'mouseover': {u'state': {u'target': [], u'time': []}, u'edge': {u'target': [], u'time': []}}, u'click': {u'state': {u'target': [], u'time': []}, u'edge': {u'target': [], u'time': []}}, u'mouseout': {u'state': {u'target': [], u'time': []}, u'edge': {u'target': [], u'time': []}}}",,"[8, -40, -8]","[1732, 367, 113]",-40.0,"[None, None, None]",,5264,0.0,2320292.0,mouselab-mdp,0
"[128, 1050, 2056]","[u'down', u'down', u'right']",train_basic,,,"[0, 4, 8, 16]","{u'mouseover': {u'state': {u'target': [], u'time': []}, u'edge': {u'target': [], u'time': []}}, u'click': {u'state': {u'target': [], u'time': []}, u'edge': {u'target': [], u'time': []}}, u'mouseout': {u'state': {u'target': [], u'time': []}, u'edge': {u'target': [], u'time': []}}}",,"[40, -8, 8]","[122, 396, 488]",40.0,"[None, None, None]",,9697,1.0,6514303.0,mouselab-mdp,0
"[2346, 3184, 3995]","[u'right', u'right', u'down']",train_basic,,,"[0, 1, 5, 10]","{u'mouseover': {u'state': {u'target': [], u'time': []}, u'edge': {u'target': [], u'time': []}}, u'click': {u'state': {u'target': [], u'time': []}, u'edge': {u'target': [], u'time': []}}, u'mouseout': {u'state': {u'target': [], u'time': []}, u'edge': {u'target': [], u'time': []}}}",,"[-8, 24, 8]","[2339, 302, 290]",24.0,"[None, None, None]",,15866,2.0,1992923.0,mouselab-mdp,0
"[1303, 2471, 3125]","[u'left', u'left', u'down']",train_basic,,,"[0, 3, 7, 14]","{u'mouseover': {u'state': {u'target': [], u'time': []}, u'edge': {u'target': [], u'time': []}}, u'click': {u'state': {u'target': [], u'time': []}, u'edge': {u'target': [], u'time': []}}, u'mouseout': {u'state': {u'target': [], u'time': []}, u'edge': {u'target': [], u'time': []}}}",,"[40, 40, -8]","[1296, 639, 133]",72.0,"[None, None, None]",,21242,3.0,17866229.0,mouselab-mdp,0
"[1991, 2826, 3428]","[u'left', u'left', u'up']",train_basic,,,"[0, 3, 7, 13]","{u'mouseover': {u'state': {u'target': [], u'time': []}, u'edge': {u'target': [], u'time': []}}, u'click': {u'state': {u'target': [], u'time': []}, u'edge': {u'target': [], u'time': []}}, u'mouseout': {u'state': {u'target': [], u'time': []}, u'edge': {u'target': [], u'time': []}}}",,"[-24, 24, 24]","[1985, 309, 83]",24.0,"[None, None, None]",,26568,4.0,34385071.0,mouselab-mdp,0
"[2009, 3523, 5663]","[u'left', u'left', u'up']",train_basic,,,"[0, 3, 7, 13]","{u'mouseover': {u'state': {u'target': [], u'time': []}, u'edge': {u'target': [], u'time': []}}, u'click': {u'state': {u'target': [], u'time': []}, u'edge': {u'target': [], u'time': []}}, u'mouseout': {u'state': {u'target': [], u'time': []}, u'edge': {u'target': [], u'time': []}}}",,"[24, -8, 8]","[2004, 991, 1617]",24.0,"[None, None, None]",,34834,5.0,17148350.0,mouselab-mdp,0
"[1689, 2253, 3028]","[u'left', u'left', u'up']",train_basic,,,"[0, 3, 7, 13]","{u'mouseover': {u'state': {u'target': [], u'time': []}, u'edge': {u'target': [], u'time': []}}, u'click': {u'state': {u'target': [], u'time': []}, u'edge': {u'target': [], u'time': []}}, u'mouseout': {u'state': {u'target': [], u'time': []}, u'edge': {u'target': [], u'time': []}}}",,"[-24, 8, 40]","[1684, 55, 263]",24.0,"[None, None, None]",,39771,6.0,69389568.0,mouselab-mdp,0
"[1708, 2835, 5595]","[u'left', u'left', u'down']",train_basic,,,"[0, 3, 7, 14]","{u'mouseover': {u'state': {u'target': [], u'time': []}, u'edge': {u'target': [], u'time': []}}, u'click': {u'state': {u'target': [], u'time': []}, u'edge': {u'target': [], u'time': []}}, u'mouseout': {u'state': {u'target': [], u'time': []}, u'edge': {u'target': [], u'time': []}}}",,"[-40, 24, -8]","[1700, 612, 2240]",-24.0,"[None, None, None]",,47233,7.0,51724516.0,mouselab-mdp,0
"[773, 2176, 3404]","[u'up', u'up', u'right']",train_basic,,,"[0, 2, 6, 12]","{u'mouseover': {u'state': {u'target': [], u'time': []}, u'edge': {u'target': [], u'time': []}}, u'click': {u'state': {u'target': [], u'time': []}, u'edge': {u'target': [], u'time': []}}, u'mouseout': {u'state': {u'target': [], u'time': []}, u'edge': {u'target': [], u'time': []}}}",,"[24, 8, -24]","[767, 890, 704]",8.0,"[None, None, None]",,52828,8.0,56648737.0,mouselab-mdp,0
"[1827, 2401, 3154]","[u'left', u'left', u'up']",train_basic,,,"[0, 3, 7, 13]","{u'mouseover': {u'state': {u'target': [], u'time': []}, u'edge': {u'target': [], u'time': []}}, u'click': {u'state': {u'target': [], u'time': []}, u'edge': {u'target': [], u'time': []}}, u'mouseout': {u'state': {u'target': [], u'time': []}, u'edge': {u'target': [], u'time': []}}}",,"[-8, 8, 8]","[1818, 49, 238]",8.0,"[None, None, None]",,57961,9.0,82322028.0,mouselab-mdp,0
"[2977, 4078, 5287]","[u'right', u'right', u'up']",train_hidden,,,"[0, 1, 5, 9]","{u'mouseover': {u'state': {u'target': [], u'time': []}, u'edge': {u'target': [], u'time': []}}, u'click': {u'state': {u'target': [], u'time': []}, u'edge': {u'target': [], u'time': []}}, u'mouseout': {u'state': {u'target': [], u'time': []}, u'edge': {u'target': [], u'time': []}}}",,"[-8, 24, -8]","[2968, 569, 688]",8.0,"[None, None, None]",,67735,10.0,88708259.0,mouselab-mdp,0
"[556, 2033, 2736]","[u'right', u'right', u'down']",train_hidden,,,"[0, 1, 5, 10]","{u'mouseover': {u'state': {u'target': [], u'time': []}, u'edge': {u'target': [], u'time': []}}, u'click': {u'state': {u'target': [], u'time': []}, u'edge': {u'target': [], u'time': []}}, u'mouseout': {u'state': {u'target': [], u'time': []}, u'edge': {u'target': [], u'time': []}}}",,"[-8, -24, -40]","[551, 963, 185]",-72.0,"[None, None, None]",,72707,11.0,41343719.0,mouselab-mdp,0
"[398, 1240, 2111]","[u'left', u'left', u'up']",train_hidden,,,"[0, 3, 7, 13]","{u'mouseover': {u'state': {u'target': [], u'time': []}, u'edge': {u'target': [], u'time': []}}, u'click': {u'state': {u'target': [], u'time': []}, u'edge': {u'target': [], u'time': []}}, u'mouseout': {u'state': {u'target': [], u'time': []}, u'edge': {u'target': [], u'time': []}}}",,"[24, 24, 24]","[392, 330, 351]",72.0,"[None, None, None]",,77535,12.0,79153833.0,mouselab-mdp,0
"[403, 1474, 2806]","[u'down', u'down', u'left']",train_hidden,,,"[0, 4, 8, 15]","{u'mouseover': {u'state': {u'target': [], u'time': []}, u'edge': {u'target': [], u'time': []}}, u'click': {u'state': {u'target': [], u'time': []}, u'edge': {u'target': [], u'time': []}}, u'mouseout': {u'state': {u'target': [], u'time': []}, u'edge': {u'target': [], u'time': []}}}",,"[-8, -40, 8]","[398, 540, 813]",-40.0,"[None, None, None]",,82519,13.0,94650616.0,mouselab-mdp,0
"[544, 1425, 2473]","[u'up', u'up', u'right']",train_hidden,,,"[0, 2, 6, 12]","{u'mouseover': {u'state': {u'target': [], u'time': []}, u'edge': {u'target': [], u'time': []}}, u'click': {u'state': {u'target': [], u'time': []}, u'edge': {u'target': [], u'time': []}}, u'mouseout': {u'state': {u'target': [], u'time': []}, u'edge': {u'target': [], u'time': []}}}",,"[-24, 40, -8]","[537, 357, 524]",8.0,"[None, None, None]",,87344,14.0,46935555.0,mouselab-mdp,0
"[18661, 20978, 21661]","[u'left', u'left', u'down']",train_inspector,,,"[0, 3, 7, 14]","{u'mouseover': {u'state': {u'target': [], u'time': []}, u'edge': {u'target': [], u'time': []}}, u'click': {u'state': {u'target': [u'4', u'2', u'6', u'12', u'11', u'3', u'7', u'13', u'1', u'5', u'10', u'9', u'8', u'15', u'16', u'14'], u'time': [3144, 4715, 5696, 6350, 6966, 7905, 8604, 9727, 10590, 11259, 11936, 12835, 14600, 15142, 15637, 16846]}, u'edge': {u'target': [], u'time': []}}, u'mouseout': {u'state': {u'target': [], u'time': []}, u'edge': {u'target': [], u'time': []}}}",,"[8, -24, 8]","[18652, 1798, 171]",-8.0,"[None, None, None]",,113474,15.0,2407791.0,mouselab-mdp,0
"[16251, 16911, 17444]","[u'left', u'left', u'down']",train_inspector,,,"[0, 3, 7, 14]","{u'mouseover': {u'state': {u'target': [], u'time': []}, u'edge': {u'target': [], u'time': []}}, u'click': {u'state': {u'target': [u'4', u'1', u'2', u'3', u'7', u'13', u'14', u'15', u'8', u'16', u'10', u'5', u'9', u'12', u'6', u'11'], u'time': [1483, 2247, 3418, 5076, 6030, 6484, 7453, 8220, 9249, 9733, 10560, 11024, 12316, 13748, 14352, 14982]}, u'edge': {u'target': [], u'time': []}}, u'mouseout': {u'state': {u'target': [], u'time': []}, u'edge': {u'target': [], u'time': []}}}",,"[24, 24, 8]","[16246, 132, 7]",56.0,"[None, None, None]",,133306,16.0,13327080.0,mouselab-mdp,0
"[7084, 7750, 8733]","[u'up', u'up', u'left']",train_inspector,,,"[0, 2, 6, 11]","{u'mouseover': {u'state': {u'target': [], u'time': []}, u'edge': {u'target': [], u'time': []}}, u'click': {u'state': {u'target': [u'4', u'1', u'2', u'3', u'7', u'13', u'6', u'11', u'12'], u'time': [1070, 1660, 2155, 2649, 3143, 4103, 4858, 5322, 5866]}, u'edge': {u'target': [], u'time': []}}, u'mouseout': {u'state': {u'target': [], u'time': []}, u'edge': {u'target': [], u'time': []}}}",,"[24, 24, 24]","[7076, 149, 473]",72.0,"[None, None, None]",,145839,17.0,33499252.0,mouselab-mdp,0
"[23219, 23928, 24633]","[u'up', u'up', u'right']",train_inspector,,,"[0, 2, 6, 12]","{u'mouseover': {u'state': {u'target': [], u'time': []}, u'edge': {u'target': [], u'time': []}}, u'click': {u'state': {u'target': [u'1', u'2', u'3', u'7', u'13', u'14', u'4', u'8', u'15', u'16', u'10', u'5', u'9', u'12', u'6', u'11'], u'time': [2696, 3432, 3968, 5320, 5874, 6580, 7334, 7770, 8204, 8708, 9333, 9767, 10322, 12493, 12956, 13440]}, u'edge': {u'target': [], u'time': []}}, u'mouseout': {u'state': {u'target': [], u'time': []}, u'edge': {u'target': [], u'time': []}}}",,"[8, -24, 24]","[23211, 188, 195]",8.0,"[None, None, None]",,173517,18.0,33603321.0,mouselab-mdp,0
"[12056, 12877, 13470]","[u'down', u'down', u'right']",train_inspector,,,"[0, 4, 8, 16]","{u'mouseover': {u'state': {u'target': [], u'time': []}, u'edge': {u'target': [], u'time': []}}, u'click': {u'state': {u'target': [u'4', u'2', u'3', u'8', u'16', u'15', u'1', u'5', u'9', u'10'], u'time': [1152, 2311, 3260, 4197, 4661, 5772, 7467, 8699, 9456, 10220]}, u'edge': {u'target': [], u'time': []}}, u'mouseout': {u'state': {u'target': [], u'time': []}, u'edge': {u'target': [], u'time': []}}}",,"[24, -8, -8]","[12046, 308, 72]",8.0,"[None, None, None]",,189555,19.0,8242142.0,mouselab-mdp,0
"[22505, 23095, 26307]","[u'up', u'up', u'right']",train_inspect_cost,,,"[0, 2, 6, 12]","{u'mouseover': {u'state': {u'target': [], u'time': []}, u'edge': {u'target': [], u'time': []}}, u'click': {u'state': {u'target': [u'4', u'1', u'2', u'3', u'8', u'6', u'12'], u'time': [12506, 13069, 13695, 14581, 18648, 20135, 21371]}, u'edge': {u'target': [], u'time': []}}, u'mouseout': {u'state': {u'target': [], u'time': []}, u'edge': {u'target': [], u'time': []}}}",,"[8, 8, 8]","[22496, 76, 2690]",17.0,"[None, None, None]",,220569,20.0,57926881.0,mouselab-mdp,0
"[7094, 7842, 8453]","[u'right', u'right', u'up']",train_inspect_cost,,,"[0, 1, 5, 9]","{u'mouseover': {u'state': {u'target': [], u'time': []}, u'edge': {u'target': [], u'time': []}}, u'click': {u'state': {u'target': [u'2', u'4', u'1', u'5'], u'time': [1257, 1872, 2518, 4970]}, u'edge': {u'target': [], u'time': []}}, u'mouseout': {u'state': {u'target': [], u'time': []}, u'edge': {u'target': [], u'time': []}}}",,"[24, 40, 24]","[7087, 226, 88]",84.0,"[None, None, None]",,232067,21.0,15887038.0,mouselab-mdp,0
"[7323, 7971, 9531]","[u'right', u'right', u'up']",train_inspect_cost,,,"[0, 1, 5, 9]","{u'mouseover': {u'state': {u'target': [], u'time': []}, u'edge': {u'target': [], u'time': []}}, u'click': {u'state': {u'target': [u'2', u'6', u'4', u'3', u'1', u'5'], u'time': [1292, 1988, 2683, 3552, 4842, 5931]}, u'edge': {u'target': [], u'time': []}}, u'mouseout': {u'state': {u'target': [], u'time': []}, u'edge': {u'target': [], u'time': []}}}",,"[8, 40, 24]","[7312, 138, 1049]",66.0,"[None, None, None]",,244574,22.0,70946724.0,mouselab-mdp,0
"[6755, 7464, 8238]","[u'left', u'left', u'down']",train_inspect_cost,,,"[0, 3, 7, 14]","{u'mouseover': {u'state': {u'target': [], u'time': []}, u'edge': {u'target': [], u'time': []}}, u'click': {u'state': {u'target': [u'1', u'2', u'3', u'4', u'7'], u'time': [1087, 2124, 2941, 4181, 5171]}, u'edge': {u'target': [], u'time': []}}, u'mouseout': {u'state': {u'target': [], u'time': []}, u'edge': {u'target': [], u'time': []}}}",,"[8, 8, -24]","[6748, 192, 253]",-13.0,"[None, None, None]",,256879,23.0,20822846.0,mouselab-mdp,0
"[17047, 17621, 18198]","[u'left', u'left', u'down']",train_inspect_cost,,,"[0, 3, 7, 14]","{u'mouseover': {u'state': {u'target': [], u'time': []}, u'edge': {u'target': [], u'time': []}}, u'click': {u'state': {u'target': [u'2', u'6', u'1', u'3', u'5', u'7', u'13', u'9', u'10', u'14'], u'time': [1150, 1781, 3062, 3688, 5869, 6805, 9441, 11668, 13968, 14970]}, u'edge': {u'target': [], u'time': []}}, u'mouseout': {u'state': {u'target': [], u'time': []}, u'edge': {u'target': [], u'time': []}}}",,"[24, 8, 8]","[17040, 54, 66]",30.0,"[None, None, None]",,278100,24.0,72251478.0,mouselab-mdp,0
"[23892, 25800, 27028]","[u'left', u'left', u'up']",train_final,,,"[0, 3, 7, 13]","{u'mouseover': {u'state': {u'target': [], u'time': []}, u'edge': {u'target': [], u'time': []}}, u'click': {u'state': {u'target': [u'2', u'6', u'11', u'12', u'3', u'1', u'4'], u'time': [16721, 17274, 17881, 18637, 20361, 22238, 22882]}, u'edge': {u'target': [], u'time': []}}, u'mouseout': {u'state': {u'target': [], u'time': []}, u'edge': {u'target': [], u'time': []}}}",,"[-40, 24, 24]","[23886, 1378, 667]",1.0,"[None, None, None]",,509606,25.0,80257913.0,mouselab-mdp,0
"[1928, 2873, 3409]","[u'up', u'up', u'right']",train_final,,,"[0, 2, 6, 12]","{u'mouseover': {u'state': {u'target': [], u'time': []}, u'edge': {u'target': [], u'time': []}}, u'click': {u'state': {u'target': [], u'time': []}, u'edge': {u'target': [], u'time': []}}, u'mouseout': {u'state': {u'target': [], u'time': []}, u'edge': {u'target': [], u'time': []}}}",,"[8, 40, -8]","[1924, 423, 9]",40.0,"[None, None, None]",,515292,26.0,2994777.0,mouselab-mdp,0
"[132, 1001, 1766]","[u'down', u'down', u'right']",train_final,,,"[0, 4, 8, 16]","{u'mouseover': {u'state': {u'target': [], u'time': []}, u'edge': {u'target': [], u'time': []}}, u'click': {u'state': {u'target': [], u'time': []}, u'edge': {u'target': [], u'time': []}}, u'mouseout': {u'state': {u'target': [], u'time': []}, u'edge': {u'target': [], u'time': []}}}",,"[8, -24, 24]","[126, 346, 250]",8.0,"[None, None, None]",,519224,27.0,21317219.0,mouselab-mdp,0
"[1262, 1783, 2911]","[u'down', u'down', u'left']",train_final,,,"[0, 4, 8, 15]","{u'mouseover': {u'state': {u'target': [], u'time': []}, u'edge': {u'target': [], u'time': []}}, u'click': {u'state': {u'target': [], u'time': []}, u'edge': {u'target': [], u'time': []}}, u'mouseout': {u'state': {u'target': [], u'time': []}, u'edge': {u'target': [], u'time': []}}}",,"[24, 24, -8]","[1257, 5, 600]",40.0,"[None, None, None]",,524722,28.0,62760486.0,mouselab-mdp,0
"[1286, 2032, 2750]","[u'down', u'down', u'right']",train_final,,,"[0, 4, 8, 16]","{u'mouseover': {u'state': {u'target': [], u'time': []}, u'edge': {u'target': [], u'time': []}}, u'click': {u'state': {u'target': [], u'time': []}, u'edge': {u'target': [], u'time': []}}, u'mouseout': {u'state': {u'target': [], u'time': []}, u'edge': {u'target': [], u'time': []}}}",,"[8, 24, 40]","[1283, 221, 207]",72.0,"[None, None, None]",,530351,29.0,52874461.0,mouselab-mdp,0
"[23847, 24551, 25907]","[u'right', u'right', u'up']",test,,,"[0, 1, 5, 9]","{u'mouseover': {u'state': {u'target': [], u'time': []}, u'edge': {u'target': [], u'time': []}}, u'click': {u'state': {u'target': [u'2', u'6', u'11', u'12', u'1', u'3', u'7', u'13', u'14', u'4', u'8', u'15', u'16', u'5', u'9'], u'time': [2208, 2732, 5265, 6022, 7627, 9988, 11363, 11956, 13499, 15799, 17686, 18554, 19422, 21339, 22448]}, u'edge': {u'target': [], u'time': []}}, u'mouseout': {u'state': {u'target': [], u'time': []}, u'edge': {u'target': [], u'time': []}}}",,"[-8, 24, 24]","[23841, 180, 837]",25.0,"[None, None, None]",,724494,30.0,66575077.0,mouselab-mdp,0
"[13844, 15095, 15831]","[u'right', u'right', u'down']",test,,,"[0, 1, 5, 10]","{u'mouseover': {u'state': {u'target': [], u'time': []}, u'edge': {u'target': [], u'time': []}}, u'click': {u'state': {u'target': [u'2', u'6', u'4', u'1', u'3', u'7', u'13', u'14', u'5', u'9', u'10', u'8', u'16'], u'time': [1499, 2443, 3656, 4249, 4754, 5399, 5924, 7024, 7942, 8650, 9607, 10555, 11120]}, u'edge': {u'target': [], u'time': []}}, u'mouseout': {u'state': {u'target': [], u'time': []}, u'edge': {u'target': [], u'time': []}}}",,"[-24, 24, 8]","[13835, 728, 185]",-5.0,"[None, None, None]",,742797,31.0,15535487.0,mouselab-mdp,0
"[8777, 9485, 10050]","[u'up', u'up', u'right']",test,,,"[0, 2, 6, 12]","{u'mouseover': {u'state': {u'target': [], u'time': []}, u'edge': {u'target': [], u'time': []}}, u'click': {u'state': {u'target': [u'4', u'2', u'1', u'3', u'6', u'12'], u'time': [919, 1886, 3055, 4580, 6175, 7101]}, u'edge': {u'target': [], u'time': []}}, u'mouseout': {u'state': {u'target': [], u'time': []}, u'edge': {u'target': [], u'time': []}}}",,"[-8, -8, 8]","[8769, 190, 39]",-14.0,"[None, None, None]",,755095,32.0,25744833.0,mouselab-mdp,0
"[6475, 7130, 8062]","[u'left', u'left', u'up']",test,,,"[0, 3, 7, 13]","{u'mouseover': {u'state': {u'target': [], u'time': []}, u'edge': {u'target': [], u'time': []}}, u'click': {u'state': {u'target': [u'2', u'4', u'1', u'3', u'7', u'13'], u'time': [1121, 2077, 2652, 3691, 4953, 5517]}, u'edge': {u'target': [], u'time': []}}, u'mouseout': {u'state': {u'target': [], u'time': []}, u'edge': {u'target': [], u'time': []}}}",,"[24, 8, 24]","[6469, 132, 410]",50.0,"[None, None, None]",,765349,33.0,420161.0,mouselab-mdp,0
"[11819, 12574, 13429]","[u'right', u'right', u'down']",test,,,"[0, 1, 5, 10]","{u'mouseover': {u'state': {u'target': [], u'time': []}, u'edge': {u'target': [], u'time': []}}, u'click': {u'state': {u'target': [u'1', u'4', u'2', u'3', u'5', u'6', u'7', u'13'], u'time': [1059, 2208, 3005, 4095, 5477, 6476, 8445, 9058]}, u'edge': {u'target': [], u'time': []}}, u'mouseout': {u'state': {u'target': [], u'time': []}, u'edge': {u'target': [], u'time': []}}}",,"[8, -8, 8]","[11814, 244, 335]",0.0,"[None, None, None]",,782005,34.0,76790504.0,mouselab-mdp,0
"[7568, 8177, 8921]","[u'up', u'up', u'right']",test,,,"[0, 2, 6, 12]","{u'mouseover': {u'state': {u'target': [], u'time': []}, u'edge': {u'target': [], u'time': []}}, u'click': {u'state': {u'target': [u'4', u'1', u'8', u'3', u'2', u'6', u'12'], u'time': [1061, 1675, 2542, 4278, 4793, 5725, 6427]}, u'edge': {u'target': [], u'time': []}}, u'mouseout': {u'state': {u'target': [], u'time': []}, u'edge': {u'target': [], u'time': []}}}",,"[8, 8, 24]","[7563, 97, 224]",33.0,"[None, None, None]",,793103,35.0,47142652.0,mouselab-mdp,0
"[13572, 14373, 14969]","[u'down', u'down', u'left']",test,,,"[0, 4, 8, 15]","{u'mouseover': {u'state': {u'target': [], u'time': []}, u'edge': {u'target': [], u'time': []}}, u'click': {u'state': {u'target': [u'1', u'2', u'4', u'3', u'8', u'16', u'15', u'6', u'12', u'5', u'9'], u'time': [2373, 2929, 3739, 4352, 5380, 5955, 6551, 9306, 9840, 11292, 11787]}, u'edge': {u'target': [], u'time': []}}, u'mouseout': {u'state': {u'target': [], u'time': []}, u'edge': {u'target': [], u'time': []}}}",,"[24, -24, 8]","[13565, 283, 80]",-3.0,"[None, None, None]",,810312,36.0,23055091.0,mouselab-mdp,0
"[245025, 245613, 246149]","[u'left', u'left', u'down']",test,,,"[0, 3, 7, 14]","{u'mouseover': {u'state': {u'target': [], u'time': []}, u'edge': {u'target': [], u'time': []}}, u'click': {u'state': {u'target': [u'2', u'6', u'3', u'7', u'13', u'14'], u'time': [240702, 241286, 242145, 242749, 243405, 244113]}, u'edge': {u'target': [], u'time': []}}, u'mouseout': {u'state': {u'target': [], u'time': []}, u'edge': {u'target': [], u'time': []}}}",,"[8, 8, 24]","[245020, 62, 18]",34.0,"[None, None, None]",,1058517,37.0,68966599.0,mouselab-mdp,0
"[5477, 6177, 6711]","[u'right', u'right', u'down']",test,,,"[0, 1, 5, 10]","{u'mouseover': {u'state': {u'target': [], u'time': []}, u'edge': {u'target': [], u'time': []}}, u'click': {u'state': {u'target': [u'2', u'6', u'1'], u'time': [754, 2303, 3898]}, u'edge': {u'target': [], u'time': []}}, u'mouseout': {u'state': {u'target': [], u'time': []}, u'edge': {u'target': [], u'time': []}}}",,"[24, 8, -8]","[5472, 178, 13]",21.0,"[None, None, None]",,1067636,38.0,49024411.0,mouselab-mdp,0
"[4921, 6359, 7405]","[u'left', u'left', u'down']",test,,,"[0, 3, 7, 14]","{u'mouseover': {u'state': {u'target': [], u'time': []}, u'edge': {u'target': [], u'time': []}}, u'click': {u'state': {u'target': [u'2', u'6', u'12', u'4'], u'time': [1310, 1949, 2534, 3839]}, u'edge': {u'target': [], u'time': []}}, u'mouseout': {u'state': {u'target': [], u'time': []}, u'edge': {u'target': [], u'time': []}}}",,"[8, -8, -24]","[4915, 917, 531]",-28.0,"[None, None, None]",,1077217,39.0,62347637.0,mouselab-mdp,0
"[3593, 4653, 5444]","[u'down', u'down', u'right']",test,,,"[0, 4, 8, 16]","{u'mouseover': {u'state': {u'target': [], u'time': []}, u'edge': {u'target': [], u'time': []}}, u'click': {u'state': {u'target': [u'4'], u'time': [1914]}, u'edge': {u'target': [], u'time': []}}, u'mouseout': {u'state': {u'target': [], u'time': []}, u'edge': {u'target': [], u'time': []}}}",,"[24, 8, -8]","[3589, 537, 280]",23.0,"[None, None, None]",,1084895,40.0,18428125.0,mouselab-mdp,0
"[10772, 11305, 11995]","[u'right', u'right', u'up']",test,,,"[0, 1, 5, 9]","{u'mouseover': {u'state': {u'target': [], u'time': []}, u'edge': {u'target': [], u'time': []}}, u'click': {u'state': {u'target': [u'1', u'2', u'6', u'3', u'4', u'8', u'16'], u'time': [1443, 3883, 4750, 5791, 6644, 7212, 9088]}, u'edge': {u'target': [], u'time': []}}, u'mouseout': {u'state': {u'target': [], u'time': []}, u'edge': {u'target': [], u'time': []}}}",,"[-8, -8, -24]","[10766, 20, 176]",-47.0,"[None, None, None]",,1099119,41.0,7546193.0,mouselab-mdp,0
"[2890, 3847, 4733]","[u'down', u'down', u'right']",test,,,"[0, 4, 8, 16]","{u'mouseover': {u'state': {u'target': [], u'time': []}, u'edge': {u'target': [], u'time': []}}, u'click': {u'state': {u'target': [u'4', u'1'], u'time': [880, 1614]}, u'edge': {u'target': [], u'time': []}}, u'mouseout': {u'state': {u'target': [], u'time': []}, u'edge': {u'target': [], u'time': []}}}",,"[8, -24, 24]","[2883, 439, 360]",6.0,"[None, None, None]",,1105914,42.0,46753980.0,mouselab-mdp,0
"[3737, 4315, 5534]","[u'right', u'right', u'down']",test,,,"[0, 1, 5, 10]","{u'mouseover': {u'state': {u'target': [], u'time': []}, u'edge': {u'target': [], u'time': []}}, u'click': {u'state': {u'target': [u'2', u'1'], u'time': [1901, 2517]}, u'edge': {u'target': [], u'time': []}}, u'mouseout': {u'state': {u'target': [], u'time': []}, u'edge': {u'target': [], u'time': []}}}",,"[24, -40, 8]","[3728, 65, 703]",-10.0,"[None, None, None]",,1113698,43.0,9743184.0,mouselab-mdp,0
"[7957, 8549, 9361]","[u'up', u'up', u'right']",test,,,"[0, 2, 6, 12]","{u'mouseover': {u'state': {u'target': [], u'time': []}, u'edge': {u'target': [], u'time': []}}, u'click': {u'state': {u'target': [u'4', u'1', u'2', u'3', u'7'], u'time': [1568, 2246, 4029, 4604, 5886]}, u'edge': {u'target': [], u'time': []}}, u'mouseout': {u'state': {u'target': [], u'time': []}, u'edge': {u'target': [], u'time': []}}}",,"[24, 8, 8]","[7949, 70, 299]",35.0,"[None, None, None]",,1125176,44.0,72905213.0,mouselab-mdp,0
"[5279, 6210, 7273]","[u'down', u'down', u'right']",test,,,"[0, 4, 8, 16]","{u'mouseover': {u'state': {u'target': [], u'time': []}, u'edge': {u'target': [], u'time': []}}, u'click': {u'state': {u'target': [u'4', u'2', u'8', u'15'], u'time': [1084, 1733, 2575, 3815]}, u'edge': {u'target': [], u'time': []}}, u'mouseout': {u'state': {u'target': [], u'time': []}, u'edge': {u'target': [], u'time': []}}}",,"[24, 24, -8]","[5271, 411, 538]",36.0,"[None, None, None]",,1134739,45.0,59702951.0,mouselab-mdp,0
"[6562, 7239, 7774]","[u'up', u'up', u'right']",test,,,"[0, 2, 6, 12]","{u'mouseover': {u'state': {u'target': [], u'time': []}, u'edge': {u'target': [], u'time': []}}, u'click': {u'state': {u'target': [u'4', u'1', u'6', u'2', u'3'], u'time': [1432, 1926, 4026, 4599, 5184]}, u'edge': {u'target': [], u'time': []}}, u'mouseout': {u'state': {u'target': [], u'time': []}, u'edge': {u'target': [], u'time': []}}}",,"[-24, 24, -24]","[6554, 168, 20]",-29.0,"[None, None, None]",,1144714,46.0,8929385.0,mouselab-mdp,0
"[4183, 4794, 5447]","[u'right', u'right', u'up']",test,,,"[0, 1, 5, 9]","{u'mouseover': {u'state': {u'target': [], u'time': []}, u'edge': {u'target': [], u'time': []}}, u'click': {u'state': {u'target': [u'4', u'1', u'5'], u'time': [1012, 1756, 2886]}, u'edge': {u'target': [], u'time': []}}, u'mouseout': {u'state': {u'target': [], u'time': []}, u'edge': {u'target': [], u'time': []}}}",,"[24, 8, 24]","[4176, 97, 133]",53.0,"[None, None, None]",,1152646,47.0,56543306.0,mouselab-mdp,0
"[3444, 4492, 5688]","[u'up', u'up', u'right']",test,,,"[0, 2, 6, 12]","{u'mouseover': {u'state': {u'target': [], u'time': []}, u'edge': {u'target': [], u'time': []}}, u'click': {u'state': {u'target': [u'4', u'1', u'2'], u'time': [917, 1397, 2035]}, u'edge': {u'target': [], u'time': []}}, u'mouseout': {u'state': {u'target': [], u'time': []}, u'edge': {u'target': [], u'time': []}}}",,"[8, -40, 40]","[3435, 524, 671]",5.0,"[None, None, None]",,1160548,48.0,23557899.0,mouselab-mdp,0
"[2377, 3157, 3944]","[u'up', u'up', u'left']",test,,,"[0, 2, 6, 11]","{u'mouseover': {u'state': {u'target': [], u'time': []}, u'edge': {u'target': [], u'time': []}}, u'click': {u'state': {u'target': [u'4'], u'time': [860]}, u'edge': {u'target': [], u'time': []}}, u'mouseout': {u'state': {u'target': [], u'time': []}, u'edge': {u'target': [], u'time': []}}}",,"[8, 24, -24]","[2372, 269, 275]",7.0,"[None, None, None]",,1166933,49.0,82199968.0,mouselab-mdp,0
"[38700, 39968, 41654]","[u'up', u'up', u'right']",train_basic,,,"[0, 2, 6, 12]","{u'mouseover': {u'state': {u'target': [], u'time': []}, u'edge': {u'target': [], u'time': []}}, u'click': {u'state': {u'target': [], u'time': []}, u'edge': {u'target': [], u'time': []}}, u'mouseout': {u'state': {u'target': [], u'time': []}, u'edge': {u'target': [], u'time': []}}}",,"[-8, 24, 8]","[38694, 765, 1172]",24.0,"[None, None, None]",,95320,0.0,28662249.0,mouselab-mdp,1
"[6128, 10261, 11340]","[u'up', u'up', u'left']",train_basic,,,"[0, 2, 6, 11]","{u'mouseover': {u'state': {u'target': [], u'time': []}, u'edge': {u'target': [], u'time': []}}, u'click': {u'state': {u'target': [], u'time': []}, u'edge': {u'target': [], u'time': []}}, u'mouseout': {u'state': {u'target': [], u'time': []}, u'edge': {u'target': [], u'time': []}}}",,"[40, -8, 8]","[6123, 3636, 578]",40.0,"[None, None, None]",,110492,1.0,80251542.0,mouselab-mdp,1
"[14924, 15732, 16472]","[u'left', u'left', u'down']",train_basic,,,"[0, 3, 7, 14]","{u'mouseover': {u'state': {u'target': [], u'time': []}, u'edge': {u'target': [], u'time': []}}, u'click': {u'state': {u'target': [], u'time': []}, u'edge': {u'target': [], u'time': []}}, u'mouseout': {u'state': {u'target': [], u'time': []}, u'edge': {u'target': [], u'time': []}}}",,"[40, -8, 24]","[14920, 313, 248]",56.0,"[None, None, None]",,130361,2.0,34923546.0,mouselab-mdp,1
"[18396, 19171, 20059]","[u'right', u'right', u'down']",train_basic,,,"[0, 1, 5, 10]","{u'mouseover': {u'state': {u'target': [], u'time': []}, u'edge': {u'target': [], u'time': []}}, u'click': {u'state': {u'target': [], u'time': []}, u'edge': {u'target': [], u'time': []}}, u'mouseout': {u'state': {u'target': [], u'time': []}, u'edge': {u'target': [], u'time': []}}}",,"[-8, 24, 8]","[18392, 280, 364]",24.0,"[None, None, None]",,155486,3.0,8748895.0,mouselab-mdp,1
"[22166, 23217, 25906]","[u'up', u'up', u'right']",train_basic,,,"[0, 2, 6, 12]","{u'mouseover': {u'state': {u'target': [], u'time': []}, u'edge': {u'target': [], u'time': []}}, u'click': {u'state': {u'target': [], u'time': []}, u'edge': {u'target': [], u'time': []}}, u'mouseout': {u'state': {u'target': [], u'time': []}, u'edge': {u'target': [], u'time': []}}}",,"[8, 40, 24]","[22162, 537, 2180]",72.0,"[None, None, None]",,185008,4.0,40656088.0,mouselab-mdp,1
"[8238, 9084, 10931]","[u'up', u'up', u'right']",train_basic,,,"[0, 2, 6, 12]","{u'mouseover': {u'state': {u'target': [], u'time': []}, u'edge': {u'target': [], u'time': []}}, u'click': {u'state': {u'target': [], u'time': []}, u'edge': {u'target': [], u'time': []}}, u'mouseout': {u'state': {u'target': [], u'time': []}, u'edge': {u'target': [], u'time': []}}}",,"[24, 8, 40]","[8234, 334, 1339]",72.0,"[None, None, None]",,198841,5.0,45650777.0,mouselab-mdp,1
"[6770, 7540, 8165]","[u'left', u'left', u'up']",train_basic,,,"[0, 3, 7, 13]","{u'mouseover': {u'state': {u'target': [], u'time': []}, u'edge': {u'target': [], u'time': []}}, u'click': {u'state': {u'target': [], u'time': []}, u'edge': {u'target': [], u'time': []}}, u'mouseout': {u'state': {u'target': [], u'time': []}, u'edge': {u'target': [], u'time': []}}}",,"[24, -8, 40]","[6767, 254, 119]",56.0,"[None, None, None]",,209542,6.0,35728321.0,mouselab-mdp,1
"[5757, 6621, 7195]","[u'right', u'right', u'down']",train_basic,,,"[0, 1, 5, 10]","{u'mouseover': {u'state': {u'target': [], u'time': []}, u'edge': {u'target': [], u'time': []}}, u'click': {u'state': {u'target': [], u'time': []}, u'edge': {u'target': [], u'time': []}}, u'mouseout': {u'state': {u'target': [], u'time': []}, u'edge': {u'target': [], u'time': []}}}",,"[40, 8, 24]","[5752, 358, 73]",72.0,"[None, None, None]",,220359,7.0,3279475.0,mouselab-mdp,1
"[6777, 7595, 8216]","[u'right', u'right', u'up']",train_basic,,,"[0, 1, 5, 9]","{u'mouseover': {u'state': {u'target': [], u'time': []}, u'edge': {u'target': [], u'time': []}}, u'click': {u'state': {u'target': [], u'time': []}, u'edge': {u'target': [], u'time': []}}, u'mouseout': {u'state': {u'target': [], u'time': []}, u'edge': {u'target': [], u'time': []}}}",,"[8, 8, 8]","[6774, 312, 100]",24.0,"[None, None, None]",,230783,8.0,24281412.0,mouselab-mdp,1
"[8589, 9518, 10155]","[u'right', u'right', u'down']",train_basic,,,"[0, 1, 5, 10]","{u'mouseover': {u'state': {u'target': [], u'time': []}, u'edge': {u'target': [], u'time': []}}, u'click': {u'state': {u'target': [], u'time': []}, u'edge': {u'target': [], u'time': []}}, u'mouseout': {u'state': {u'target': [], u'time': []}, u'edge': {u'target': [], u'time': []}}}",,"[-8, 8, 8]","[8586, 429, 129]",8.0,"[None, None, None]",,243828,9.0,99493116.0,mouselab-mdp,1
"[15353, 16819, 18220]","[u'left', u'left', u'up']",train_hidden,,,"[0, 3, 7, 13]","{u'mouseover': {u'state': {u'target': [], u'time': []}, u'edge': {u'target': [], u'time': []}}, u'click': {u'state': {u'target': [], u'time': []}, u'edge': {u'target': [], u'time': []}}, u'mouseout': {u'state': {u'target': [], u'time': []}, u'edge': {u'target': [], u'time': []}}}",,"[8, 40, 24]","[15349, 966, 893]",72.0,"[None, None, None]",,270320,10.0,30565542.0,mouselab-mdp,1
"[1487, 2462, 3554]","[u'left', u'left', u'up']",train_hidden,,,"[0, 3, 7, 13]","{u'mouseover': {u'state': {u'target': [], u'time': []}, u'edge': {u'target': [], u'time': []}}, u'click': {u'state': {u'target': [], u'time': []}, u'edge': {u'target': [], u'time': []}}, u'mouseout': {u'state': {u'target': [], u'time': []}, u'edge': {u'target': [], u'time': []}}}",,"[8, 8, 8]","[1483, 473, 585]",24.0,"[None, None, None]",,276625,11.0,26922274.0,mouselab-mdp,1
"[733, 1574, 2394]","[u'left', u'left', u'up']",train_hidden,,,"[0, 3, 7, 13]","{u'mouseover': {u'state': {u'target': [], u'time': []}, u'edge': {u'target': [], u'time': []}}, u'click': {u'state': {u'target': [], u'time': []}, u'edge': {u'target': [], u'time': []}}, u'mouseout': {u'state': {u'target': [], u'time': []}, u'edge': {u'target': [], u'time': []}}}",,"[24, 24, 40]","[729, 343, 326]",88.0,"[None, None, None]",,282620,12.0,10559527.0,mouselab-mdp,1
"[446, 1535, 2161]","[u'left', u'left', u'up']",train_hidden,,,"[0, 3, 7, 13]","{u'mouseover': {u'state': {u'target': [], u'time': []}, u'edge': {u'target': [], u'time': []}}, u'click': {u'state': {u'target': [], u'time': []}, u'edge': {u'target': [], u'time': []}}, u'mouseout': {u'state': {u'target': [], u'time': []}, u'edge': {u'target': [], u'time': []}}}",,"[8, 8, 40]","[443, 587, 118]",56.0,"[None, None, None]",,287174,13.0,88280221.0,mouselab-mdp,1
"[782, 1617, 2245]","[u'left', u'left', u'up']",train_hidden,,,"[0, 3, 7, 13]","{u'mouseover': {u'state': {u'target': [], u'time': []}, u'edge': {u'target': [], u'time': []}}, u'click': {u'state': {u'target': [], u'time': []}, u'edge': {u'target': [], u'time': []}}, u'mouseout': {u'state': {u'target': [], u'time': []}, u'edge': {u'target': [], u'time': []}}}",,"[8, -40, -8]","[778, 325, 120]",-40.0,"[None, None, None]",,291936,14.0,27865689.0,mouselab-mdp,1
"[45537, 46483, 47226]","[u'down', u'down', u'right']",train_inspector,,,"[0, 4, 8, 16]","{u'mouseover': {u'state': {u'target': [], u'time': []}, u'edge': {u'target': [], u'time': []}}, u'click': {u'state': {u'target': [u'3', u'4', u'15', u'8', u'16'], u'time': [34194, 36677, 41560, 42332, 43124]}, u'edge': {u'target': [], u'time': []}}, u'mouseout': {u'state': {u'target': [], u'time': []}, u'edge': {u'target': [], u'time': []}}}",,"[40, 8, 8]","[45533, 441, 237]",56.0,"[None, None, None]",,345166,15.0,7308366.0,mouselab-mdp,1
"[9367, 10298, 10897]","[u'left', u'left', u'up']",train_inspector,,,"[0, 3, 7, 13]","{u'mouseover': {u'state': {u'target': [], u'time': []}, u'edge': {u'target': [], u'time': []}}, u'click': {u'state': {u'target': [u'3', u'7', u'13', u'14'], u'time': [2347, 3125, 4903, 7332]}, u'edge': {u'target': [], u'time': []}}, u'mouseout': {u'state': {u'target': [], u'time': []}, u'edge': {u'target': [], u'time': []}}}",,"[8, 24, 24]","[9363, 426, 104]",56.0,"[None, None, None]",,358258,16.0,42292107.0,mouselab-mdp,1
"[16380, 17239, 17834]","[u'right', u'right', u'up']",train_inspector,,,"[0, 1, 5, 9]","{u'mouseover': {u'state': {u'target': [], u'time': []}, u'edge': {u'target': [], u'time': []}}, u'click': {u'state': {u'target': [u'3', u'4', u'8', u'16', u'15', u'1', u'5', u'9'], u'time': [5675, 7177, 9017, 9953, 10976, 12765, 14311, 15063]}, u'edge': {u'target': [], u'time': []}}, u'mouseout': {u'state': {u'target': [], u'time': []}, u'edge': {u'target': [], u'time': []}}}",,"[24, 8, 24]","[16376, 357, 88]",56.0,"[None, None, None]",,380635,17.0,14006463.0,mouselab-mdp,1
"[8643, 9471, 10036]","[u'down', u'down', u'right']",train_inspector,,,"[0, 4, 8, 16]","{u'mouseover': {u'state': {u'target': [], u'time': []}, u'edge': {u'target': [], u'time': []}}, u'click': {u'state': {u'target': [u'3', u'7', u'13', u'4', u'8', u'16'], u'time': [2242, 2741, 3240, 5182, 6461, 7138]}, u'edge': {u'target': [], u'time': []}}, u'mouseout': {u'state': {u'target': [], u'time': []}, u'edge': {u'target': [], u'time': []}}}",,"[8, 8, 40]","[8639, 312, 57]",56.0,"[None, None, None]",,394040,18.0,24359234.0,mouselab-mdp,1
"[11373, 12273, 12822]","[u'right', u'right', u'up']",train_inspector,,,"[0, 1, 5, 9]","{u'mouseover': {u'state': {u'target': [], u'time': []}, u'edge': {u'target': [], u'time': []}}, u'click': {u'state': {u'target': [u'3', u'4', u'1', u'5', u'10', u'9'], u'time': [4543, 5660, 6600, 7573, 9663, 10422]}, u'edge': {u'target': [], u'time': []}}, u'mouseout': {u'state': {u'target': [], u'time': []}, u'edge': {u'target': [], u'time': []}}}",,"[24, 40, 24]","[11368, 393, 55]",88.0,"[None, None, None]",,409782,19.0,90469380.0,mouselab-mdp,1
"[22594, 23394, 24029]","[u'right', u'right', u'up']",train_inspect_cost,,,"[0, 1, 5, 9]","{u'mouseover': {u'state': {u'target': [], u'time': []}, u'edge': {u'target': [], u'time': []}}, u'click': {u'state': {u'target': [u'3', u'4', u'1', u'5', u'10', u'9'], u'time': [16128, 17470, 18234, 19185, 20236, 21537]}, u'edge': {u'target': [], u'time': []}}, u'mouseout': {u'state': {u'target': [], u'time': []}, u'edge': {u'target': [], u'time': []}}}",,"[24, 8, 24]","[22590, 304, 138]",50.0,"[None, None, None]",,438715,20.0,63123446.0,mouselab-mdp,1
"[25887, 26716, 27736]","[u'up', u'up', u'left']",train_inspect_cost,,,"[0, 2, 6, 11]","{u'mouseover': {u'state': {u'target': [], u'time': []}, u'edge': {u'target': [], u'time': []}}, u'click': {u'state': {u'target': [u'3', u'4', u'1', u'2', u'6', u'12', u'7', u'11'], u'time': [13543, 15578, 16649, 19182, 20732, 21450, 22981, 24821]}, u'edge': {u'target': [], u'time': []}}, u'mouseout': {u'state': {u'target': [], u'time': []}, u'edge': {u'target': [], u'time': []}}}",,"[8, -8, 24]","[25882, 318, 509]",16.0,"[None, None, None]",,469563,21.0,81293356.0,mouselab-mdp,1
"[12126, 13079, 16803]","[u'down', u'down', u'right']",train_inspect_cost,,,"[0, 4, 8, 16]","{u'mouseover': {u'state': {u'target': [], u'time': []}, u'edge': {u'target': [], u'time': []}}, u'click': {u'state': {u'target': [u'3', u'4', u'8', u'1', u'2', u'15'], u'time': [1986, 3518, 5491, 7695, 9260, 11141]}, u'edge': {u'target': [], u'time': []}}, u'mouseout': {u'state': {u'target': [], u'time': []}, u'edge': {u'target': [], u'time': []}}}",,"[8, 8, 8]","[12122, 447, 3218]",18.0,"[None, None, None]",,489539,22.0,135220.0,mouselab-mdp,1
"[10545, 11457, 11977]","[u'right', u'right', u'up']",train_inspect_cost,,,"[0, 1, 5, 9]","{u'mouseover': {u'state': {u'target': [], u'time': []}, u'edge': {u'target': [], u'time': []}}, u'click': {u'state': {u'target': [u'3', u'4', u'8', u'16', u'15', u'1', u'5', u'9', u'10'], u'time': [1705, 3123, 4399, 5155, 5990, 7223, 7965, 8688, 9787]}, u'edge': {u'target': [], u'time': []}}, u'mouseout': {u'state': {u'target': [], u'time': []}, u'edge': {u'target': [], u'time': []}}}",,"[24, 24, -8]","[10542, 411, 11]",31.0,"[None, None, None]",,504225,23.0,82054290.0,mouselab-mdp,1
"[8447, 9343, 9906]","[u'down', u'down', u'left']",train_inspect_cost,,,"[0, 4, 8, 15]","{u'mouseover': {u'state': {u'target': [], u'time': []}, u'edge': {u'target': [], u'time': []}}, u'click': {u'state': {u'target': [u'3', u'2', u'1', u'4', u'8', u'16', u'15'], u'time': [2272, 3080, 3893, 4965, 5861, 6591, 7478]}, u'edge': {u'target': [], u'time': []}}, u'mouseout': {u'state': {u'target': [], u'time': []}, u'edge': {u'target': [], u'time': []}}}",,"[8, 24, 24]","[8443, 398, 52]",49.0,"[None, None, None]",,516759,24.0,92981089.0,mouselab-mdp,1
"[30607, 31484, 32062]","[u'down', u'down', u'left']",train_final,,,"[0, 4, 8, 15]","{u'mouseover': {u'state': {u'target': [], u'time': []}, u'edge': {u'target': [], u'time': []}}, u'click': {u'state': {u'target': [u'3', u'4', u'8', u'16', u'15'], u'time': [25472, 26649, 27615, 28443, 29545]}, u'edge': {u'target': [], u'time': []}}, u'mouseout': {u'state': {u'target': [], u'time': []}, u'edge': {u'target': [], u'time': []}}}",,"[24, 24, 24]","[30604, 368, 75]",67.0,"[None, None, None]",,553723,25.0,60545180.0,mouselab-mdp,1
"[12732, 13583, 14124]","[u'up', u'up', u'left']",train_final,,,"[0, 2, 6, 11]","{u'mouseover': {u'state': {u'target': [], u'time': []}, u'edge': {u'target': [], u'time': []}}, u'click': {u'state': {u'target': [u'3', u'4', u'1', u'5', u'2', u'6', u'11'], u'time': [2833, 3841, 4725, 6295, 8144, 10600, 11501]}, u'edge': {u'target': [], u'time': []}}, u'mouseout': {u'state': {u'target': [], u'time': []}, u'edge': {u'target': [], u'time': []}}}",,"[-8, 8, 24]","[12729, 351, 38]",17.0,"[None, None, None]",,570020,26.0,99931963.0,mouselab-mdp,1
"[8651, 9411, 10369]","[u'left', u'left', u'down']",train_final,,,"[0, 3, 7, 14]","{u'mouseover': {u'state': {u'target': [], u'time': []}, u'edge': {u'target': [], u'time': []}}, u'click': {u'state': {u'target': [u'3', u'7', u'13', u'14'], u'time': [1817, 2878, 3858, 7541]}, u'edge': {u'target': [], u'time': []}}, u'mouseout': {u'state': {u'target': [], u'time': []}, u'edge': {u'target': [], u'time': []}}}",,"[8, 40, 24]","[8648, 262, 450]",68.0,"[None, None, None]",,583277,27.0,56639090.0,mouselab-mdp,1
"[20914, 21502, 22088]","[u'down', u'down', u'left']",train_final,,,"[0, 4, 8, 15]","{u'mouseover': {u'state': {u'target': [], u'time': []}, u'edge': {u'target': [], u'time': []}}, u'click': {u'state': {u'target': [u'3', u'2', u'1', u'5', u'4', u'8', u'15'], u'time': [4089, 5951, 6909, 7793, 13755, 16359, 19684]}, u'edge': {u'target': [], u'time': []}}, u'mouseout': {u'state': {u'target': [], u'time': []}, u'edge': {u'target': [], u'time': []}}}",,"[-8, 8, 24]","[20910, 95, 70]",17.0,"[None, None, None]",,608862,28.0,9743184.0,mouselab-mdp,1
"[19729, 20484, 21082]","[u'down', u'down', u'left']",train_final,,,"[0, 4, 8, 15]","{u'mouseover': {u'state': {u'target': [], u'time': []}, u'edge': {u'target': [], u'time': []}}, u'click': {u'state': {u'target': [u'3', u'2', u'6', u'11', u'1', u'5', u'9', u'10', u'4', u'8', u'16', u'15'], u'time': [1091, 2815, 4130, 5075, 6193, 6884, 7751, 8523, 11084, 11869, 12902, 15012]}, u'edge': {u'target': [], u'time': []}}, u'mouseout': {u'state': {u'target': [], u'time': []}, u'edge': {u'target': [], u'time': []}}}",,"[40, -24, -8]","[19722, 261, 90]",-4.0,"[None, None, None]",,632095,29.0,12402758.0,mouselab-mdp,1
"[10077, 10665, 11543]","[u'left', u'left', u'down']",test,,,"[0, 3, 7, 14]","{u'mouseover': {u'state': {u'target': [], u'time': []}, u'edge': {u'target': [], u'time': []}}, u'click': {u'state': {u'target': [u'3', u'7', u'13', u'4', u'8', u'14'], u'time': [1048, 1964, 2709, 5051, 7839, 9035]}, u'edge': {u'target': [], u'time': []}}, u'mouseout': {u'state': {u'target': [], u'time': []}, u'edge': {u'target': [], u'time': []}}}",,"[8, 8, 8]","[10071, 87, 360]",18.0,"[None, None, None]",,660769,30.0,92822686.0,mouselab-mdp,1
"[10802, 11593, 12142]","[u'down', u'down', u'right']",test,,,"[0, 4, 8, 16]","{u'mouseover': {u'state': {u'target': [], u'time': []}, u'edge': {u'target': [], u'time': []}}, u'click': {u'state': {u'target': [u'3', u'4', u'8', u'15', u'16'], u'time': [1361, 5316, 7822, 8670, 9810]}, u'edge': {u'target': [], u'time': []}}, u'mouseout': {u'state': {u'target': [], u'time': []}, u'edge': {u'target': [], u'time': []}}}",,"[24, 8, 24]","[10799, 296, 57]",51.0,"[None, None, None]",,674842,31.0,53281206.0,mouselab-mdp,1
"[28646, 29180, 29757]","[u'up', u'up', u'left']",test,,,"[0, 2, 6, 11]","{u'mouseover': {u'state': {u'target': [], u'time': []}, u'edge': {u'target': [], u'time': []}}, u'click': {u'state': {u'target': [u'3', u'7', u'4', u'8', u'1', u'2', u'15', u'16', u'5', u'9', u'6', u'11'], u'time': [2991, 4146, 5379, 7811, 9310, 13849, 18077, 18817, 19884, 20742, 24008, 24746]}, u'edge': {u'target': [], u'time': []}}, u'mouseout': {u'state': {u'target': [], u'time': []}, u'edge': {u'target': [], u'time': []}}}",,"[-24, 8, 8]","[28642, 25, 82]",-20.0,"[None, None, None]",,708109,32.0,26263657.0,mouselab-mdp,1
"[9489, 10069, 10594]","[u'right', u'right', u'up']",test,,,"[0, 1, 5, 9]","{u'mouseover': {u'state': {u'target': [], u'time': []}, u'edge': {u'target': [], u'time': []}}, u'click': {u'state': {u'target': [u'3', u'1', u'5', u'9', u'10'], u'time': [1356, 2654, 3522, 4305, 6244]}, u'edge': {u'target': [], u'time': []}}, u'mouseout': {u'state': {u'target': [], u'time': []}, u'edge': {u'target': [], u'time': []}}}",,"[24, 8, -8]","[9486, 88, 14]",19.0,"[None, None, None]",,721929,33.0,64857197.0,mouselab-mdp,1
"[6552, 7179, 7970]","[u'up', u'up', u'left']",test,,,"[0, 2, 6, 11]","{u'mouseover': {u'state': {u'target': [], u'time': []}, u'edge': {u'target': [], u'time': []}}, u'click': {u'state': {u'target': [u'3', u'2', u'6', u'12', u'11'], u'time': [1024, 1891, 2675, 4470, 5273]}, u'edge': {u'target': [], u'time': []}}, u'mouseout': {u'state': {u'target': [], u'time': []}, u'edge': {u'target': [], u'time': []}}}",,"[40, -8, 24]","[6548, 116, 290]",51.0,"[None, None, None]",,732033,34.0,98147301.0,mouselab-mdp,1
"[13214, 13813, 14499]","[u'up', u'up', u'left']",test,,,"[0, 2, 6, 11]","{u'mouseover': {u'state': {u'target': [], u'time': []}, u'edge': {u'target': [], u'time': []}}, u'click': {u'state': {u'target': [u'3', u'1', u'5', u'2', u'6', u'11', u'12'], u'time': [3950, 5178, 6277, 7642, 8871, 10036, 12038]}, u'edge': {u'target': [], u'time': []}}, u'mouseout': {u'state': {u'target': [], u'time': []}, u'edge': {u'target': [], u'time': []}}}",,"[24, 8, 8]","[13209, 107, 187]",33.0,"[None, None, None]",,748796,35.0,66179773.0,mouselab-mdp,1
"[12282, 12885, 13556]","[u'right', u'right', u'down']",test,,,"[0, 1, 5, 10]","{u'mouseover': {u'state': {u'target': [], u'time': []}, u'edge': {u'target': [], u'time': []}}, u'click': {u'state': {u'target': [u'3', u'7', u'1', u'5', u'9', u'10'], u'time': [3762, 4621, 6695, 7679, 9341, 10314]}, u'edge': {u'target': [], u'time': []}}, u'mouseout': {u'state': {u'target': [], u'time': []}, u'edge': {u'target': [], u'time': []}}}",,"[8, 24, 8]","[12278, 99, 162]",34.0,"[None, None, None]",,764736,36.0,75242872.0,mouselab-mdp,1
"[12083, 12674, 13627]","[u'left', u'left', u'down']",test,,,"[0, 3, 7, 14]","{u'mouseover': {u'state': {u'target': [], u'time': []}, u'edge': {u'target': [], u'time': []}}, u'click': {u'state': {u'target': [u'2', u'6', u'3', u'7', u'14'], u'time': [5246, 6246, 7742, 8488, 9994]}, u'edge': {u'target': [], u'time': []}}, u'mouseout': {u'state': {u'target': [], u'time': []}, u'edge': {u'target': [], u'time': []}}}",,"[8, 8, 8]","[12073, 88, 455]",19.0,"[None, None, None]",,780384,37.0,97938861.0,mouselab-mdp,1
"[5443, 6076, 6800]","[u'left', u'left', u'up']",test,,,"[0, 3, 7, 13]","{u'mouseover': {u'state': {u'target': [], u'time': []}, u'edge': {u'target': [], u'time': []}}, u'click': {u'state': {u'target': [u'3', u'7', u'13'], u'time': [1359, 2818, 4251]}, u'edge': {u'target': [], u'time': []}}, u'mouseout': {u'state': {u'target': [], u'time': []}, u'edge': {u'target': [], u'time': []}}}",,"[24, 8, 24]","[5440, 111, 231]",53.0,"[None, None, None]",,791106,38.0,98379605.0,mouselab-mdp,1
"[12615, 13527, 14144]","[u'left', u'left', u'up']",test,,,"[0, 3, 7, 13]","{u'mouseover': {u'state': {u'target': [], u'time': []}, u'edge': {u'target': [], u'time': []}}, u'click': {u'state': {u'target': [u'3', u'4', u'7', u'14', u'13'], u'time': [869, 4887, 7574, 8817, 10629]}, u'edge': {u'target': [], u'time': []}}, u'mouseout': {u'state': {u'target': [], u'time': []}, u'edge': {u'target': [], u'time': []}}}",,"[8, 24, 8]","[12612, 413, 98]",35.0,"[None, None, None]",,807268,39.0,77471892.0,mouselab-mdp,1
"[13533, 14092, 14793]","[u'left', u'left', u'up']",test,,,"[0, 3, 7, 13]","{u'mouseover': {u'state': {u'target': [], u'time': []}, u'edge': {u'target': [], u'time': []}}, u'click': {u'state': {u'target': [u'3', u'4', u'1', u'2', u'8', u'15', u'7', u'13'], u'time': [3324, 4805, 6078, 6957, 7914, 8750, 10484, 12091]}, u'edge': {u'target': [], u'time': []}}, u'mouseout': {u'state': {u'target': [], u'time': []}, u'edge': {u'target': [], u'time': []}}}",,"[-8, 24, 8]","[13531, 47, 201]",16.0,"[None, None, None]",,826005,40.0,2389448.0,mouselab-mdp,1
"[9613, 10146, 10671]","[u'right', u'right', u'up']",test,,,"[0, 1, 5, 9]","{u'mouseover': {u'state': {u'target': [], u'time': []}, u'edge': {u'target': [], u'time': []}}, u'click': {u'state': {u'target': [u'3', u'2', u'1', u'5', u'9', u'10'], u'time': [2642, 4736, 5700, 6566, 7311, 8419]}, u'edge': {u'target': [], u'time': []}}, u'mouseout': {u'state': {u'target': [], u'time': []}, u'edge': {u'target': [], u'time': []}}}",,"[40, 8, -8]","[9610, 26, 23]",34.0,"[None, None, None]",,839443,41.0,83525567.0,mouselab-mdp,1
"[10740, 11351, 12117]","[u'right', u'right', u'down']",test,,,"[0, 1, 5, 10]","{u'mouseover': {u'state': {u'target': [], u'time': []}, u'edge': {u'target': [], u'time': []}}, u'click': {u'state': {u'target': [u'3', u'7', u'4', u'8', u'1', u'5', u'9', u'10'], u'time': [1711, 2569, 4363, 5391, 6768, 7963, 8700, 9858]}, u'edge': {u'target': [], u'time': []}}, u'mouseout': {u'state': {u'target': [], u'time': []}, u'edge': {u'target': [], u'time': []}}}",,"[40, -8, 8]","[10737, 110, 261]",32.0,"[None, None, None]",,854146,42.0,30311682.0,mouselab-mdp,1
"[8440, 9115, 9895]","[u'right', u'right', u'down']",test,,,"[0, 1, 5, 10]","{u'mouseover': {u'state': {u'target': [], u'time': []}, u'edge': {u'target': [], u'time': []}}, u'click': {u'state': {u'target': [u'3', u'7', u'1', u'5', u'9', u'10'], u'time': [1736, 2508, 4209, 4959, 5669, 7538]}, u'edge': {u'target': [], u'time': []}}, u'mouseout': {u'state': {u'target': [], u'time': []}, u'edge': {u'target': [], u'time': []}}}",,"[8, 24, 8]","[8437, 180, 270]",34.0,"[None, None, None]",,866938,43.0,43837251.0,mouselab-mdp,1
"[22177, 22715, 23410]","[u'left', u'left', u'up']",test,,,"[0, 3, 7, 13]","{u'mouseover': {u'state': {u'target': [], u'time': []}, u'edge': {u'target': [], u'time': []}}, u'click': {u'state': {u'target': [u'4', u'8', u'3', u'7', u'1', u'5', u'9', u'2', u'13'], u'time': [2662, 3441, 5166, 13373, 14752, 15501, 16333, 17552, 19797]}, u'edge': {u'target': [], u'time': []}}, u'mouseout': {u'state': {u'target': [], u'time': []}, u'edge': {u'target': [], u'time': []}}}",,"[24, -24, 8]","[22173, 33, 175]",-1.0,"[None, None, None]",,892566,44.0,535564.0,mouselab-mdp,1
"[11947, 12454, 13019]","[u'left', u'left', u'down']",test,,,"[0, 3, 7, 14]","{u'mouseover': {u'state': {u'target': [], u'time': []}, u'edge': {u'target': [], u'time': []}}, u'click': {u'state': {u'target': [u'3', u'1', u'2', u'4', u'6', u'7', u'14'], u'time': [1830, 2833, 5803, 7001, 8293, 9590, 10898]}, u'edge': {u'target': [], u'time': []}}, u'mouseout': {u'state': {u'target': [], u'time': []}, u'edge': {u'target': [], u'time': []}}}",,"[-8, 8, 24]","[11936, 3, 47]",17.0,"[None, None, None]",,907857,45.0,45811378.0,mouselab-mdp,1
"[14635, 15251, 15893]","[u'right', u'right', u'down']",test,,,"[0, 1, 5, 10]","{u'mouseover': {u'state': {u'target': [], u'time': []}, u'edge': {u'target': [], u'time': []}}, u'click': {u'state': {u'target': [u'3', u'1', u'4', u'8', u'2', u'5', u'9', u'10'], u'time': [644, 2778, 4323, 5301, 9928, 11185, 12185, 13568]}, u'edge': {u'target': [], u'time': []}}, u'mouseout': {u'state': {u'target': [], u'time': []}, u'edge': {u'target': [], u'time': []}}}",,"[-8, -8, 24]","[14632, 105, 138]",0.0,"[None, None, None]",,926041,46.0,7546193.0,mouselab-mdp,1
"[6246, 6836, 7473]","[u'left', u'left', u'down']",test,,,"[0, 3, 7, 14]","{u'mouseover': {u'state': {u'target': [], u'time': []}, u'edge': {u'target': [], u'time': []}}, u'click': {u'state': {u'target': [u'3', u'7', u'14'], u'time': [1282, 4095, 4959]}, u'edge': {u'target': [], u'time': []}}, u'mouseout': {u'state': {u'target': [], u'time': []}, u'edge': {u'target': [], u'time': []}}}",,"[8, 24, 24]","[6242, 93, 143]",53.0,"[None, None, None]",,936724,47.0,63501921.0,mouselab-mdp,1
"[8778, 9329, 10190]","[u'right', u'right', u'down']",test,,,"[0, 1, 5, 10]","{u'mouseover': {u'state': {u'target': [], u'time': []}, u'edge': {u'target': [], u'time': []}}, u'click': {u'state': {u'target': [u'3', u'1', u'5', u'9', u'10'], u'time': [1221, 4817, 5942, 6842, 7557]}, u'edge': {u'target': [], u'time': []}}, u'mouseout': {u'state': {u'target': [], u'time': []}, u'edge': {u'target': [], u'time': []}}}",,"[40, -8, 8]","[8774, 41, 368]",35.0,"[None, None, None]",,949539,48.0,9574584.0,mouselab-mdp,1
"[16698, 17345, 17892]","[u'up', u'up', u'right']",test,,,"[0, 2, 6, 12]","{u'mouseover': {u'state': {u'target': [], u'time': []}, u'edge': {u'target': [], u'time': []}}, u'click': {u'state': {u'target': [u'3', u'7', u'1', u'2', u'4', u'13', u'6', u'11', u'12'], u'time': [752, 3021, 4200, 6518, 8489, 10671, 12994, 13912, 14612]}, u'edge': {u'target': [], u'time': []}}, u'mouseout': {u'state': {u'target': [], u'time': []}, u'edge': {u'target': [], u'time': []}}}",,"[-8, 8, 8]","[16694, 153, 49]",-1.0,"[None, None, None]",,969556,49.0,78647411.0,mouselab-mdp,1
"[13695, 14581, 15302]","[u'down', u'down', u'left']",train_basic,,,"[0, 4, 8, 15]","{u'mouseover': {u'state': {u'target': [], u'time': []}, u'edge': {u'target': [], u'time': []}}, u'click': {u'state': {u'target': [], u'time': []}, u'edge': {u'target': [], u'time': []}}, u'mouseout': {u'state': {u'target': [], u'time': []}, u'edge': {u'target': [], u'time': []}}}",,"[8, 24, 40]","[13692, 394, 230]",72.0,"[None, None, None]",,18168,0.0,32667306.0,mouselab-mdp,2
"[7732, 8947, 9627]","[u'left', u'left', u'down']",train_basic,,,"[0, 3, 7, 14]","{u'mouseover': {u'state': {u'target': [], u'time': []}, u'edge': {u'target': [], u'time': []}}, u'click': {u'state': {u'target': [], u'time': []}, u'edge': {u'target': [], u'time': []}}, u'mouseout': {u'state': {u'target': [], u'time': []}, u'edge': {u'target': [], u'time': []}}}",,"[8, 8, 8]","[7728, 709, 189]",24.0,"[None, None, None]",,30128,1.0,9030365.0,mouselab-mdp,2
"[7477, 8484, 9092]","[u'right', u'right', u'down']",train_basic,,,"[0, 1, 5, 10]","{u'mouseover': {u'state': {u'target': [], u'time': []}, u'edge': {u'target': [], u'time': []}}, u'click': {u'state': {u'target': [], u'time': []}, u'edge': {u'target': [], u'time': []}}, u'mouseout': {u'state': {u'target': [], u'time': []}, u'edge': {u'target': [], u'time': []}}}",,"[-24, 40, 24]","[7475, 513, 119]",40.0,"[None, None, None]",,41391,2.0,75678060.0,mouselab-mdp,2
"[5354, 6155, 6682]","[u'up', u'up', u'left']",train_basic,,,"[0, 2, 6, 11]","{u'mouseover': {u'state': {u'target': [], u'time': []}, u'edge': {u'target': [], u'time': []}}, u'click': {u'state': {u'target': [], u'time': []}, u'edge': {u'target': [], u'time': []}}, u'mouseout': {u'state': {u'target': [], u'time': []}, u'edge': {u'target': [], u'time': []}}}",,"[24, 8, 24]","[5352, 297, 21]",56.0,"[None, None, None]",,50103,3.0,89790579.0,mouselab-mdp,2
"[5869, 6469, 7246]","[u'right', u'right', u'up']",train_basic,,,"[0, 1, 5, 9]","{u'mouseover': {u'state': {u'target': [], u'time': []}, u'edge': {u'target': [], u'time': []}}, u'click': {u'state': {u'target': [], u'time': []}, u'edge': {u'target': [], u'time': []}}, u'mouseout': {u'state': {u'target': [], u'time': []}, u'edge': {u'target': [], u'time': []}}}",,"[-8, 8, 24]","[5867, 109, 285]",24.0,"[None, None, None]",,59639,4.0,27243145.0,mouselab-mdp,2
"[2311, 3583, 4215]","[u'down', u'down', u'left']",train_basic,,,"[0, 4, 8, 15]","{u'mouseover': {u'state': {u'target': [], u'time': []}, u'edge': {u'target': [], u'time': []}}, u'click': {u'state': {u'target': [], u'time': []}, u'edge': {u'target': [], u'time': []}}, u'mouseout': {u'state': {u'target': [], u'time': []}, u'edge': {u'target': [], u'time': []}}}",,"[8, 24, 8]","[2310, 768, 135]",40.0,"[None, None, None]",,65783,5.0,934249.0,mouselab-mdp,2
"[6016, 6544, 7096]","[u'left', u'left', u'down']",train_basic,,,"[0, 3, 7, 14]","{u'mouseover': {u'state': {u'target': [], u'time': []}, u'edge': {u'target': [], u'time': []}}, u'click': {u'state': {u'target': [], u'time': []}, u'edge': {u'target': [], u'time': []}}, u'mouseout': {u'state': {u'target': [], u'time': []}, u'edge': {u'target': [], u'time': []}}}",,"[8, 8, 8]","[6014, 30, 46]",24.0,"[None, None, None]",,74935,6.0,7078425.0,mouselab-mdp,2
"[5427, 6395, 6972]","[u'up', u'up', u'left']",train_basic,,,"[0, 2, 6, 11]","{u'mouseover': {u'state': {u'target': [], u'time': []}, u'edge': {u'target': [], u'time': []}}, u'click': {u'state': {u'target': [], u'time': []}, u'edge': {u'target': [], u'time': []}}, u'mouseout': {u'state': {u'target': [], u'time': []}, u'edge': {u'target': [], u'time': []}}}",,"[24, 24, 8]","[5426, 478, 85]",56.0,"[None, None, None]",,83999,7.0,76131431.0,mouselab-mdp,2
"[2824, 3352, 3960]","[u'down', u'down', u'left']",train_basic,,,"[0, 4, 8, 15]","{u'mouseover': {u'state': {u'target': [], u'time': []}, u'edge': {u'target': [], u'time': []}}, u'click': {u'state': {u'target': [], u'time': []}, u'edge': {u'target': [], u'time': []}}, u'mouseout': {u'state': {u'target': [], u'time': []}, u'edge': {u'target': [], u'time': []}}}",,"[24, 8, 40]","[2822, 35, 109]",72.0,"[None, None, None]",,90103,8.0,93854731.0,mouselab-mdp,2
"[5215, 5790, 6398]","[u'down', u'down', u'left']",train_basic,,,"[0, 4, 8, 15]","{u'mouseover': {u'state': {u'target': [], u'time': []}, u'edge': {u'target': [], u'time': []}}, u'click': {u'state': {u'target': [], u'time': []}, u'edge': {u'target': [], u'time': []}}, u'mouseout': {u'state': {u'target': [], u'time': []}, u'edge': {u'target': [], u'time': []}}}",,"[-8, 24, 24]","[5213, 83, 108]",40.0,"[None, None, None]",,98479,9.0,46156062.0,mouselab-mdp,2
"[6796, 8428, 9654]","[u'down', u'down', u'left']",train_hidden,,,"[0, 4, 8, 15]","{u'mouseover': {u'state': {u'target': [], u'time': []}, u'edge': {u'target': [], u'time': []}}, u'click': {u'state': {u'target': [], u'time': []}, u'edge': {u'target': [], u'time': []}}, u'mouseout': {u'state': {u'target': [], u'time': []}, u'edge': {u'target': [], u'time': []}}}",,"[-24, 24, 24]","[6794, 1134, 727]",24.0,"[None, None, None]",,112518,10.0,28216978.0,mouselab-mdp,2
"[798, 1662, 2926]","[u'down', u'down', u'left']",train_hidden,,,"[0, 4, 8, 15]","{u'mouseover': {u'state': {u'target': [], u'time': []}, u'edge': {u'target': [], u'time': []}}, u'click': {u'state': {u'target': [], u'time': []}, u'edge': {u'target': [], u'time': []}}, u'mouseout': {u'state': {u'target': [], u'time': []}, u'edge': {u'target': [], u'time': []}}}",,"[24, -8, -8]","[797, 374, 772]",8.0,"[None, None, None]",,118143,11.0,74911269.0,mouselab-mdp,2
"[442, 1026, 1618]","[u'down', u'down', u'left']",train_hidden,,,"[0, 4, 8, 15]","{u'mouseover': {u'state': {u'target': [], u'time': []}, u'edge': {u'target': [], u'time': []}}, u'click': {u'state': {u'target': [], u'time': []}, u'edge': {u'target': [], u'time': []}}, u'mouseout': {u'state': {u'target': [], u'time': []}, u'edge': {u'target': [], u'time': []}}}",,"[-8, -24, 8]","[441, 89, 97]",-24.0,"[None, None, None]",,121958,12.0,36262944.0,mouselab-mdp,2
"[665, 1209, 1881]","[u'down', u'down', u'left']",train_hidden,,,"[0, 4, 8, 15]","{u'mouseover': {u'state': {u'target': [], u'time': []}, u'edge': {u'target': [], u'time': []}}, u'click': {u'state': {u'target': [], u'time': []}, u'edge': {u'target': [], u'time': []}}, u'mouseout': {u'state': {u'target': [], u'time': []}, u'edge': {u'target': [], u'time': []}}}",,"[8, -8, 8]","[664, 47, 169]",8.0,"[None, None, None]",,125854,13.0,96190369.0,mouselab-mdp,2
"[627, 1219, 1851]","[u'down', u'down', u'left']",train_hidden,,,"[0, 4, 8, 15]","{u'mouseover': {u'state': {u'target': [], u'time': []}, u'edge': {u'target': [], u'time': []}}, u'click': {u'state': {u'target': [], u'time': []}, u'edge': {u'target': [], u'time': []}}, u'mouseout': {u'state': {u'target': [], u'time': []}, u'edge': {u'target': [], u'time': []}}}",,"[-8, -8, -8]","[626, 100, 133]",-24.0,"[None, None, None]",,129871,14.0,48862142.0,mouselab-mdp,2
"[14973, 15549, 16213]","[u'down', u'down', u'right']",train_inspector,,,"[0, 4, 8, 16]","{u'mouseover': {u'state': {u'target': [], u'time': []}, u'edge': {u'target': [], u'time': []}}, u'click': {u'state': {u'target': [u'4', u'8', u'16'], u'time': [10936, 12278, 13422]}, u'edge': {u'target': [], u'time': []}}, u'mouseout': {u'state': {u'target': [], u'time': []}, u'edge': {u'target': [], u'time': []}}}",,"[-8, -8, 24]","[14972, 86, 167]",8.0,"[None, None, None]",,151271,15.0,36355982.0,mouselab-mdp,2
"[6065, 6861, 8246]","[u'right', u'right', u'up']",train_inspector,,,"[0, 1, 5, 9]","{u'mouseover': {u'state': {u'target': [], u'time': []}, u'edge': {u'target': [], u'time': []}}, u'click': {u'state': {u'target': [u'3', u'2', u'6', u'1'], u'time': [1296, 2288, 3175, 4695]}, u'edge': {u'target': [], u'time': []}}, u'mouseout': {u'state': {u'target': [], u'time': []}, u'edge': {u'target': [], u'time': []}}}",,"[8, 8, 24]","[6063, 303, 888]",40.0,"[None, None, None]",,162615,16.0,12835005.0,mouselab-mdp,2
"[5502, 6596, 7915]","[u'down', u'down', u'left']",train_inspector,,,"[0, 4, 8, 15]","{u'mouseover': {u'state': {u'target': [], u'time': []}, u'edge': {u'target': [], u'time': []}}, u'click': {u'state': {u'target': [u'3', u'2', u'1'], u'time': [1630, 2917, 3645]}, u'edge': {u'target': [], u'time': []}}, u'mouseout': {u'state': {u'target': [], u'time': []}, u'edge': {u'target': [], u'time': []}}}",,"[-8, -24, -40]","[5500, 598, 817]",-72.0,"[None, None, None]",,173726,17.0,4122613.0,mouselab-mdp,2
"[6594, 7202, 8482]","[u'up', u'up', u'right']",train_inspector,,,"[0, 2, 6, 12]","{u'mouseover': {u'state': {u'target': [], u'time': []}, u'edge': {u'target': [], u'time': []}}, u'click': {u'state': {u'target': [u'4', u'1', u'2'], u'time': [2707, 3339, 4306]}, u'edge': {u'target': [], u'time': []}}, u'mouseout': {u'state': {u'target': [], u'time': []}, u'edge': {u'target': [], u'time': []}}}",,"[-8, 24, 8]","[6592, 106, 786]",24.0,"[None, None, None]",,185006,18.0,20822846.0,mouselab-mdp,2
"[5342, 5918, 6510]","[u'up', u'up', u'left']",train_inspector,,,"[0, 2, 6, 11]","{u'mouseover': {u'state': {u'target': [], u'time': []}, u'edge': {u'target': [], u'time': []}}, u'click': {u'state': {u'target': [u'2', u'6', u'11'], u'time': [1880, 3463, 4336]}, u'edge': {u'target': [], u'time': []}}, u'mouseout': {u'state': {u'target': [], u'time': []}, u'edge': {u'target': [], u'time': []}}}",,"[8, 24, 24]","[5341, 78, 101]",56.0,"[None, None, None]",,193734,19.0,5714224.0,mouselab-mdp,2
"[15629, 16210, 16810]","[u'up', u'up', u'right']",train_inspect_cost,,,"[0, 2, 6, 12]","{u'mouseover': {u'state': {u'target': [], u'time': []}, u'edge': {u'target': [], u'time': []}}, u'click': {u'state': {u'target': [u'1', u'2', u'6'], u'time': [8220, 10988, 13004]}, u'edge': {u'target': [], u'time': []}}, u'mouseout': {u'state': {u'target': [], u'time': []}, u'edge': {u'target': [], u'time': []}}}",,"[8, 8, -8]","[15626, 91, 107]",5.0,"[None, None, None]",,214944,20.0,92742913.0,mouselab-mdp,2
"[6982, 7622, 8303]","[u'left', u'left', u'up']",train_inspect_cost,,,"[0, 3, 7, 13]","{u'mouseover': {u'state': {u'target': [], u'time': []}, u'edge': {u'target': [], u'time': []}}, u'click': {u'state': {u'target': [u'2', u'3', u'7'], u'time': [2416, 3399, 5020]}, u'edge': {u'target': [], u'time': []}}, u'mouseout': {u'state': {u'target': [], u'time': []}, u'edge': {u'target': [], u'time': []}}}",,"[8, 24, 8]","[6981, 141, 188]",37.0,"[None, None, None]",,225847,21.0,31841728.0,mouselab-mdp,2
"[4934, 5450, 6434]","[u'down', u'down', u'right']",train_inspect_cost,,,"[0, 4, 8, 16]","{u'mouseover': {u'state': {u'target': [], u'time': []}, u'edge': {u'target': [], u'time': []}}, u'click': {u'state': {u'target': [u'3', u'4'], u'time': [1292, 2716]}, u'edge': {u'target': [], u'time': []}}, u'mouseout': {u'state': {u'target': [], u'time': []}, u'edge': {u'target': [], u'time': []}}}",,"[24, 24, -8]","[4932, 14, 483]",38.0,"[None, None, None]",,234806,22.0,48513889.0,mouselab-mdp,2
"[3524, 4037, 4692]","[u'down', u'down', u'right']",train_inspect_cost,,,"[0, 4, 8, 16]","{u'mouseover': {u'state': {u'target': [], u'time': []}, u'edge': {u'target': [], u'time': []}}, u'click': {u'state': {u'target': [u'4'], u'time': [1974]}, u'edge': {u'target': [], u'time': []}}, u'mouseout': {u'state': {u'target': [], u'time': []}, u'edge': {u'target': [], u'time': []}}}",,"[40, 24, 40]","[3522, 5, 146]",103.0,"[None, None, None]",,242135,23.0,81189365.0,mouselab-mdp,2
"[4500, 5004, 5846]","[u'right', u'right', u'up']",train_inspect_cost,,,"[0, 1, 5, 9]","{u'mouseover': {u'state': {u'target': [], u'time': []}, u'edge': {u'target': [], u'time': []}}, u'click': {u'state': {u'target': [u'1'], u'time': [1030]}, u'edge': {u'target': [], u'time': []}}, u'mouseout': {u'state': {u'target': [], u'time': []}, u'edge': {u'target': [], u'time': []}}}",,"[8, 40, 8]","[4498, 11, 334]",55.0,"[None, None, None]",,250287,24.0,46365358.0,mouselab-mdp,2
"[32862, 33382, 34054]","[u'down', u'down', u'left']",train_final,,,"[0, 4, 8, 15]","{u'mouseover': {u'state': {u'target': [], u'time': []}, u'edge': {u'target': [], u'time': []}}, u'click': {u'state': {u'target': [u'2', u'6', u'12', u'1', u'9', u'10', u'5', u'4', u'8', u'16', u'15', u'3', u'14', u'7', u'13', u'11'], u'time': [12513, 15008, 15672, 17952, 19320, 20544, 21064, 22425, 22891, 23312, 23826, 24302, 24920, 25321, 26699, 28128]}, u'edge': {u'target': [], u'time': []}}, u'mouseout': {u'state': {u'target': [], u'time': []}, u'edge': {u'target': [], u'time': []}}}",,"[8, -8, 24]","[32861, 30, 185]",8.0,"[None, None, None]",,288464,25.0,84800935.0,mouselab-mdp,2
"[18303, 18814, 19398]","[u'right', u'right', u'down']",train_final,,,"[0, 1, 5, 10]","{u'mouseover': {u'state': {u'target': [], u'time': []}, u'edge': {u'target': [], u'time': []}}, u'click': {u'state': {u'target': [u'11', u'2', u'6', u'12', u'9', u'1', u'5', u'10', u'16', u'8', u'15', u'4', u'14', u'7', u'3', u'13'], u'time': [888, 1752, 2195, 4184, 4776, 5360, 5792, 6472, 7080, 7488, 8616, 9016, 9736, 10200, 10600, 11075]}, u'edge': {u'target': [], u'time': []}}, u'mouseout': {u'state': {u'target': [], u'time': []}, u'edge': {u'target': [], u'time': []}}}",,"[8, 8, -8]","[18302, 18, 85]",-8.0,"[None, None, None]",,310518,26.0,87597888.0,mouselab-mdp,2
"[9399, 9897, 10487]","[u'left', u'left', u'up']",train_final,,,"[0, 3, 7, 13]","{u'mouseover': {u'state': {u'target': [], u'time': []}, u'edge': {u'target': [], u'time': []}}, u'click': {u'state': {u'target': [u'11', u'6', u'2', u'12', u'9', u'5', u'10', u'1', u'3', u'13', u'7', u'14', u'15', u'8', u'16', u'4'], u'time': [1006, 1473, 1996, 2600, 3166, 3641, 4249, 4833, 5489, 5987, 6385, 6769, 7193, 7544, 7896, 8377]}, u'edge': {u'target': [], u'time': []}}, u'mouseout': {u'state': {u'target': [], u'time': []}, u'edge': {u'target': [], u'time': []}}}",,"[40, 8, 8]","[9398, 2, 76]",40.0,"[None, None, None]",,322942,27.0,89654940.0,mouselab-mdp,2
"[11299, 12378, 13138]","[u'down', u'down', u'left']",train_final,,,"[0, 4, 8, 15]","{u'mouseover': {u'state': {u'target': [], u'time': []}, u'edge': {u'target': [], u'time': []}}, u'click': {u'state': {u'target': [u'11', u'2', u'6', u'12', u'9', u'10', u'1', u'5', u'8', u'16', u'4', u'15', u'14', u'7', u'3', u'13'], u'time': [1012, 1491, 1868, 2276, 2700, 3420, 4446, 4852, 6268, 6644, 7084, 7506, 8324, 8714, 9180, 9626]}, u'edge': {u'target': [], u'time': []}}, u'mouseout': {u'state': {u'target': [], u'time': []}, u'edge': {u'target': [], u'time': []}}}",,"[24, 24, 8]","[11297, 583, 260]",40.0,"[None, None, None]",,338046,28.0,21964243.0,mouselab-mdp,2
"[13712, 14272, 14864]","[u'down', u'down', u'left']",train_final,,,"[0, 4, 8, 15]","{u'mouseover': {u'state': {u'target': [], u'time': []}, u'edge': {u'target': [], u'time': []}}, u'click': {u'state': {u'target': [u'11', u'6', u'12', u'2', u'13', u'7', u'14', u'3', u'15', u'8', u'4', u'16', u'10', u'5', u'1', u'9'], u'time': [971, 1373, 1737, 2273, 3194, 3574, 3890, 4274, 4698, 8398, 8961, 9449, 9929, 10302, 10745, 11146]}, u'edge': {u'target': [], u'time': []}}, u'mouseout': {u'state': {u'target': [], u'time': []}, u'edge': {u'target': [], u'time': []}}}",,"[-8, 24, 8]","[13711, 62, 103]",8.0,"[None, None, None]",,355099,29.0,8438842.0,mouselab-mdp,2
"[8961, 9619, 10208]","[u'up', u'up', u'left']",test,,,"[0, 2, 6, 11]","{u'mouseover': {u'state': {u'target': [], u'time': []}, u'edge': {u'target': [], u'time': []}}, u'click': {u'state': {u'target': [u'11', u'6', u'2', u'12', u'9', u'5', u'10', u'1', u'4', u'8', u'16', u'15', u'14', u'7', u'3', u'13'], u'time': [701, 1089, 1466, 2465, 3009, 3697, 4209, 4629, 5129, 5553, 5879, 6345, 6708, 7049, 7417, 7786]}, u'edge': {u'target': [], u'time': []}}, u'mouseout': {u'state': {u'target': [], u'time': []}, u'edge': {u'target': [], u'time': []}}}",,"[8, 8, 24]","[8959, 159, 98]",24.0,"[None, None, None]",,372902,30.0,25596472.0,mouselab-mdp,2
"[10320, 11607, 12224]","[u'down', u'down', u'right']",test,,,"[0, 4, 8, 16]","{u'mouseover': {u'state': {u'target': [], u'time': []}, u'edge': {u'target': [], u'time': []}}, u'click': {u'state': {u'target': [u'11', u'6', u'2', u'12', u'9', u'5', u'1', u'10', u'4', u'8', u'16', u'15', u'14', u'7', u'3', u'13'], u'time': [1346, 1697, 2041, 2388, 2817, 3145, 3560, 3905, 4660, 5073, 5427, 5897, 7009, 7969, 8313, 8729]}, u'edge': {u'target': [], u'time': []}}, u'mouseout': {u'state': {u'target': [], u'time': []}, u'edge': {u'target': [], u'time': []}}}",,"[40, -8, 24]","[10319, 793, 125]",40.0,"[None, None, None]",,387557,31.0,94842534.0,mouselab-mdp,2
"[11883, 12401, 12946]","[u'right', u'right', u'down']",test,,,"[0, 1, 5, 10]","{u'mouseover': {u'state': {u'target': [], u'time': []}, u'edge': {u'target': [], u'time': []}}, u'click': {u'state': {u'target': [u'11', u'6', u'12', u'2', u'7', u'13', u'3', u'14', u'15', u'8', u'4', u'16', u'1', u'5', u'9', u'10'], u'time': [846, 1195, 1523, 1892, 3507, 3948, 4411, 5212, 6179, 6531, 6875, 7822, 8275, 9628, 10091, 10571]}, u'edge': {u'target': [], u'time': []}}, u'mouseout': {u'state': {u'target': [], u'time': []}, u'edge': {u'target': [], u'time': []}}}",,"[8, 24, 8]","[11882, 18, 41]",24.0,"[None, None, None]",,402598,32.0,43837251.0,mouselab-mdp,2
"[11405, 11933, 12501]","[u'down', u'down', u'right']",test,,,"[0, 4, 8, 16]","{u'mouseover': {u'state': {u'target': [], u'time': []}, u'edge': {u'target': [], u'time': []}}, u'click': {u'state': {u'target': [u'11', u'6', u'12', u'2', u'9', u'5', u'10', u'1', u'16', u'4', u'8', u'15', u'14', u'13', u'3', u'7'], u'time': [550, 950, 1675, 2775, 3281, 3622, 4047, 4455, 4991, 5598, 5935, 7078, 7570, 8470, 9431, 9846]}, u'edge': {u'target': [], u'time': []}}, u'mouseout': {u'state': {u'target': [], u'time': []}, u'edge': {u'target': [], u'time': []}}}",,"[24, 8, 24]","[11404, 25, 76]",40.0,"[None, None, None]",,417310,33.0,11625890.0,mouselab-mdp,2
"[11236, 12235, 12883]","[u'up', u'up', u'left']",test,,,"[0, 2, 6, 11]","{u'mouseover': {u'state': {u'target': [], u'time': []}, u'edge': {u'target': [], u'time': []}}, u'click': {u'state': {u'target': [u'11', u'6', u'2', u'12', u'9', u'5', u'10', u'1', u'4', u'8', u'16', u'15', u'14', u'3', u'13', u'7'], u'time': [605, 940, 1324, 1716, 2181, 2500, 3245, 3613, 4636, 5021, 5412, 6252, 7372, 7914, 8645, 9060]}, u'edge': {u'target': [], u'time': []}}, u'mouseout': {u'state': {u'target': [], u'time': []}, u'edge': {u'target': [], u'time': []}}}",,"[8, 8, 8]","[11234, 502, 151]",8.0,"[None, None, None]",,432159,34.0,35642234.0,mouselab-mdp,2
"[4718, 5222, 5791]","[u'up', u'up', u'right']",test,,,"[0, 2, 6, 12]","{u'mouseover': {u'state': {u'target': [], u'time': []}, u'edge': {u'target': [], u'time': []}}, u'click': {u'state': {u'target': [u'11', u'2', u'6', u'12'], u'time': [784, 1167, 2359, 2759]}, u'edge': {u'target': [], u'time': []}}, u'mouseout': {u'state': {u'target': [], u'time': []}, u'edge': {u'target': [], u'time': []}}}",,"[24, 8, 40]","[4717, 16, 67]",68.0,"[None, None, None]",,441013,35.0,54919555.0,mouselab-mdp,2
"[10519, 11143, 11735]","[u'down', u'down', u'right']",test,,,"[0, 4, 8, 16]","{u'mouseover': {u'state': {u'target': [], u'time': []}, u'edge': {u'target': [], u'time': []}}, u'click': {u'state': {u'target': [u'11', u'6', u'2', u'12', u'9', u'5', u'1', u'10', u'4', u'8', u'15', u'16', u'7', u'14', u'3', u'13'], u'time': [521, 864, 1232, 1616, 2210, 2568, 2989, 3376, 3912, 4392, 5856, 6329, 7801, 8185, 8963, 9456]}, u'edge': {u'target': [], u'time': []}}, u'mouseout': {u'state': {u'target': [], u'time': []}, u'edge': {u'target': [], u'time': []}}}",,"[-8, 24, 24]","[10518, 128, 104]",24.0,"[None, None, None]",,455502,36.0,86292414.0,mouselab-mdp,2
"[17860, 18404, 18908]","[u'right', u'right', u'up']",test,,,"[0, 1, 5, 9]","{u'mouseover': {u'state': {u'target': [], u'time': []}, u'edge': {u'target': [], u'time': []}}, u'click': {u'state': {u'target': [u'11', u'6', u'2', u'9', u'12', u'5', u'10', u'1', u'16', u'8', u'4', u'15', u'14', u'3', u'7', u'13'], u'time': [517, 853, 1238, 2293, 3205, 4078, 4397, 4909, 6917, 7318, 7701, 8613, 9125, 9997, 10846, 11669]}, u'edge': {u'target': [], u'time': []}}, u'mouseout': {u'state': {u'target': [], u'time': []}, u'edge': {u'target': [], u'time': []}}}",,"[-8, 24, 24]","[17859, 40, 11]",24.0,"[None, None, None]",,476509,37.0,27203283.0,mouselab-mdp,2
"[4422, 4950, 5470]","[u'up', u'up', u'right']",test,,,"[0, 2, 6, 12]","{u'mouseover': {u'state': {u'target': [], u'time': []}, u'edge': {u'target': [], u'time': []}}, u'click': {u'state': {u'target': [u'11', u'6', u'12', u'2', u'9', u'5', u'1'], u'time': [551, 895, 1639, 2263, 2863, 3215, 3719]}, u'edge': {u'target': [], u'time': []}}, u'mouseout': {u'state': {u'target': [], u'time': []}, u'edge': {u'target': [], u'time': []}}}",,"[40, 8, 8]","[4421, 24, 28]",49.0,"[None, None, None]",,484013,38.0,92822686.0,mouselab-mdp,2
"[12017, 12543, 13174]","[u'right', u'right', u'down']",test,,,"[0, 1, 5, 10]","{u'mouseover': {u'state': {u'target': [], u'time': []}, u'edge': {u'target': [], u'time': []}}, u'click': {u'state': {u'target': [u'2', u'6', u'11', u'12', u'1', u'9', u'10', u'5', u'4', u'8', u'16', u'15', u'3', u'14', u'7', u'13'], u'time': [1640, 2024, 2568, 2952, 3872, 4272, 5038, 5432, 6265, 6640, 6982, 7448, 8257, 9216, 9600, 9952]}, u'edge': {u'target': [], u'time': []}}, u'mouseout': {u'state': {u'target': [], u'time': []}, u'edge': {u'target': [], u'time': []}}}",,"[8, 8, 8]","[12016, 29, 128]",8.0,"[None, None, None]",,499112,39.0,41718004.0,mouselab-mdp,2
"[18139, 19138, 19756]","[u'up', u'up', u'right']",test,,,"[0, 2, 6, 12]","{u'mouseover': {u'state': {u'target': [], u'time': []}, u'edge': {u'target': [], u'time': []}}, u'click': {u'state': {u'target': [u'11', u'2', u'6', u'12', u'9', u'1', u'5', u'10', u'4', u'8', u'16', u'15', u'3', u'14', u'7', u'13'], u'time': [751, 1692, 3172, 3540, 3975, 4372, 5556, 6413, 6940, 7308, 8548, 9004, 9580, 10060, 10460, 10812]}, u'edge': {u'target': [], u'time': []}}, u'mouseout': {u'state': {u'target': [], u'time': []}, u'edge': {u'target': [], u'time': []}}}",,"[-8, -8, 8]","[18138, 505, 120]",-24.0,"[None, None, None]",,521294,40.0,89040484.0,mouselab-mdp,2
"[10149, 10660, 11204]","[u'up', u'up', u'right']",test,,,"[0, 2, 6, 12]","{u'mouseover': {u'state': {u'target': [], u'time': []}, u'edge': {u'target': [], u'time': []}}, u'click': {u'state': {u'target': [u'11', u'6', u'2', u'12', u'9', u'5', u'1', u'10', u'4', u'8', u'15', u'16', u'3', u'14', u'7', u'13'], u'time': [614, 1006, 1412, 2942, 3854, 4230, 4628, 5030, 5542, 5861, 6838, 7294, 7846, 8230, 8622, 9262]}, u'edge': {u'target': [], u'time': []}}, u'mouseout': {u'state': {u'target': [], u'time': []}, u'edge': {u'target': [], u'time': []}}}",,"[24, 40, -8]","[10148, 12, 39]",40.0,"[None, None, None]",,534662,41.0,69694888.0,mouselab-mdp,2
"[3114, 3621, 4220]","[u'up', u'up', u'left']",test,,,"[0, 2, 6, 11]","{u'mouseover': {u'state': {u'target': [], u'time': []}, u'edge': {u'target': [], u'time': []}}, u'click': {u'state': {u'target': [u'11', u'2', u'6'], u'time': [646, 1478, 1870]}, u'edge': {u'target': [], u'time': []}}, u'mouseout': {u'state': {u'target': [], u'time': []}, u'edge': {u'target': [], u'time': []}}}",,"[24, 40, 8]","[3112, 15, 97]",69.0,"[None, None, None]",,541318,42.0,70262042.0,mouselab-mdp,2
"[11001, 11952, 12466]","[u'down', u'down', u'right']",test,,,"[0, 4, 8, 16]","{u'mouseover': {u'state': {u'target': [], u'time': []}, u'edge': {u'target': [], u'time': []}}, u'click': {u'state': {u'target': [u'11', u'6', u'2', u'12', u'9', u'1', u'5', u'10', u'16', u'8', u'4', u'15', u'14', u'7', u'3', u'13'], u'time': [770, 1154, 1508, 1929, 2512, 3413, 3834, 4273, 4826, 5404, 5826, 6291, 7042, 7516, 8178, 8778]}, u'edge': {u'target': [], u'time': []}}, u'mouseout': {u'state': {u'target': [], u'time': []}, u'edge': {u'target': [], u'time': []}}}",,"[24, 8, 24]","[10999, 450, 10]",40.0,"[None, None, None]",,556189,43.0,38757372.0,mouselab-mdp,2
"[12847, 13822, 14417]","[u'right', u'right', u'up']",test,,,"[0, 1, 5, 9]","{u'mouseover': {u'state': {u'target': [], u'time': []}, u'edge': {u'target': [], u'time': []}}, u'click': {u'state': {u'target': [u'11', u'2', u'6', u'12', u'9', u'1', u'5', u'10', u'16', u'4', u'8', u'15', u'14', u'7', u'13', u'3'], u'time': [1112, 1504, 1904, 2296, 2687, 3473, 3832, 4223, 4736, 5200, 5567, 5960, 6448, 6823, 7208, 7616]}, u'edge': {u'target': [], u'time': []}}, u'mouseout': {u'state': {u'target': [], u'time': []}, u'edge': {u'target': [], u'time': []}}}",,"[40, -8, 8]","[12846, 481, 92]",24.0,"[None, None, None]",,572477,44.0,56300452.0,mouselab-mdp,2
"[12954, 13514, 14090]","[u'left', u'left', u'up']",test,,,"[0, 3, 7, 13]","{u'mouseover': {u'state': {u'target': [], u'time': []}, u'edge': {u'target': [], u'time': []}}, u'click': {u'state': {u'target': [u'11', u'2', u'6', u'12', u'9', u'5', u'1', u'10', u'4', u'8', u'15', u'16', u'3', u'7', u'14', u'13'], u'time': [764, 1443, 1812, 2198, 2692, 3048, 3796, 4192, 5294, 5627, 6788, 8105, 9460, 9915, 10268, 10780]}, u'edge': {u'target': [], u'time': []}}, u'mouseout': {u'state': {u'target': [], u'time': []}, u'edge': {u'target': [], u'time': []}}}",,"[-8, 40, 8]","[12953, 69, 77]",24.0,"[None, None, None]",,589469,45.0,25438861.0,mouselab-mdp,2
"[9735, 10366, 10934]","[u'left', u'left', u'down']",test,,,"[0, 3, 7, 14]","{u'mouseover': {u'state': {u'target': [], u'time': []}, u'edge': {u'target': [], u'time': []}}, u'click': {u'state': {u'target': [u'11', u'2', u'12', u'6', u'5', u'1', u'9', u'10', u'16', u'8', u'15', u'4', u'3', u'14', u'7', u'13'], u'time': [768, 1283, 2067, 2528, 3784, 4260, 4623, 5047, 5520, 5988, 6375, 6856, 7344, 7896, 8287, 8687]}, u'edge': {u'target': [], u'time': []}}, u'mouseout': {u'state': {u'target': [], u'time': []}, u'edge': {u'target': [], u'time': []}}}",,"[24, 40, 8]","[9733, 122, 81]",56.0,"[None, None, None]",,602477,46.0,21048717.0,mouselab-mdp,2
"[4582, 5454, 6111]","[u'right', u'right', u'down']",test,,,"[0, 1, 5, 10]","{u'mouseover': {u'state': {u'target': [], u'time': []}, u'edge': {u'target': [], u'time': []}}, u'click': {u'state': {u'target': [u'11', u'2', u'6', u'12', u'9', u'5', u'1', u'10', u'16'], u'time': [544, 927, 1319, 1711, 2200, 2503, 2856, 3240, 3712]}, u'edge': {u'target': [], u'time': []}}, u'mouseout': {u'state': {u'target': [], u'time': []}, u'edge': {u'target': [], u'time': []}}}",,"[24, 24, 40]","[4581, 370, 162]",79.0,"[None, None, None]",,610853,47.0,21317219.0,mouselab-mdp,2
"[9313, 10241, 10857]","[u'down', u'down', u'right']",test,,,"[0, 4, 8, 16]","{u'mouseover': {u'state': {u'target': [], u'time': []}, u'edge': {u'target': [], u'time': []}}, u'click': {u'state': {u'target': [u'11', u'2', u'6', u'12', u'5', u'9', u'1', u'10', u'16', u'8', u'4', u'15', u'14', u'7', u'3', u'13'], u'time': [867, 1234, 1611, 2027, 2714, 3170, 3580, 3923, 4402, 4771, 5154, 6035, 6590, 6941, 7624, 8106]}, u'edge': {u'target': [], u'time': []}}, u'mouseout': {u'state': {u'target': [], u'time': []}, u'edge': {u'target': [], u'time': []}}}",,"[-8, 24, 40]","[9312, 429, 126]",40.0,"[None, None, None]",,623695,48.0,36225248.0,mouselab-mdp,2
"[14189, 14740, 15356]","[u'left', u'left', u'up']",test,,,"[0, 3, 7, 13]","{u'mouseover': {u'state': {u'target': [], u'time': []}, u'edge': {u'target': [], u'time': []}}, u'click': {u'state': {u'target': [u'11', u'6', u'2', u'12', u'9', u'5', u'1', u'10', u'16', u'4', u'15', u'8', u'14', u'3', u'7', u'13'], u'time': [1245, 2013, 2398, 3118, 3501, 3909, 4253, 5240, 6629, 7664, 8624, 9006, 9613, 10126, 10672, 13229]}, u'edge': {u'target': [], u'time': []}}, u'mouseout': {u'state': {u'target': [], u'time': []}, u'edge': {u'target': [], u'time': []}}}",,"[40, 8, 8]","[14188, 57, 123]",40.0,"[None, None, None]",,641157,49.0,83157483.0,mouselab-mdp,2
"[2366, 3511, 4138]","[u'right', u'right', u'down']",train_basic,,,"[0, 1, 5, 10]","{u'mouseover': {u'state': {u'target': [], u'time': []}, u'edge': {u'target': [], u'time': []}}, u'click': {u'state': {u'target': [], u'time': []}, u'edge': {u'target': [], u'time': []}}, u'mouseout': {u'state': {u'target': [], u'time': []}, u'edge': {u'target': [], u'time': []}}}",,"[8, 8, 24]","[2356, 633, 117]",40.0,"[None, None, None]",,5451,0.0,27200535.0,mouselab-mdp,3
"[9040, 10184, 10944]","[u'left', u'left', u'down']",train_basic,,,"[0, 3, 7, 14]","{u'mouseover': {u'state': {u'target': [], u'time': []}, u'edge': {u'target': [], u'time': []}}, u'click': {u'state': {u'target': [], u'time': []}, u'edge': {u'target': [], u'time': []}}, u'mouseout': {u'state': {u'target': [], u'time': []}, u'edge': {u'target': [], u'time': []}}}",,"[8, 8, 24]","[9035, 630, 253]",40.0,"[None, None, None]",,18320,1.0,90685803.0,mouselab-mdp,3
"[2289, 3021, 3804]","[u'right', u'right', u'down']",train_basic,,,"[0, 1, 5, 10]","{u'mouseover': {u'state': {u'target': [], u'time': []}, u'edge': {u'target': [], u'time': []}}, u'click': {u'state': {u'target': [], u'time': []}, u'edge': {u'target': [], u'time': []}}, u'mouseout': {u'state': {u'target': [], u'time': []}, u'edge': {u'target': [], u'time': []}}}",,"[24, -8, 24]","[2283, 226, 262]",40.0,"[None, None, None]",,24330,2.0,51643446.0,mouselab-mdp,3
"[1987, 2621, 3435]","[u'down', u'down', u'left']",train_basic,,,"[0, 4, 8, 15]","{u'mouseover': {u'state': {u'target': [], u'time': []}, u'edge': {u'target': [], u'time': []}}, u'click': {u'state': {u'target': [], u'time': []}, u'edge': {u'target': [], u'time': []}}, u'mouseout': {u'state': {u'target': [], u'time': []}, u'edge': {u'target': [], u'time': []}}}",,"[24, 8, 40]","[1983, 122, 308]",72.0,"[None, None, None]",,29670,3.0,66974322.0,mouselab-mdp,3
"[2037, 2597, 3273]","[u'up', u'up', u'right']",train_basic,,,"[0, 2, 6, 12]","{u'mouseover': {u'state': {u'target': [], u'time': []}, u'edge': {u'target': [], u'time': []}}, u'click': {u'state': {u'target': [], u'time': []}, u'edge': {u'target': [], u'time': []}}, u'mouseout': {u'state': {u'target': [], u'time': []}, u'edge': {u'target': [], u'time': []}}}",,"[-8, -8, 8]","[2032, 47, 160]",-8.0,"[None, None, None]",,34871,4.0,25744833.0,mouselab-mdp,3
"[2380, 3044, 3792]","[u'down', u'down', u'right']",train_basic,,,"[0, 4, 8, 16]","{u'mouseover': {u'state': {u'target': [], u'time': []}, u'edge': {u'target': [], u'time': []}}, u'click': {u'state': {u'target': [], u'time': []}, u'edge': {u'target': [], u'time': []}}, u'mouseout': {u'state': {u'target': [], u'time': []}, u'edge': {u'target': [], u'time': []}}}",,"[24, 40, -8]","[2375, 158, 242]",56.0,"[None, None, None]",,40593,5.0,86004434.0,mouselab-mdp,3
"[1097, 1725, 2454]","[u'down', u'down', u'right']",train_basic,,,"[0, 4, 8, 16]","{u'mouseover': {u'state': {u'target': [], u'time': []}, u'edge': {u'target': [], u'time': []}}, u'click': {u'state': {u'target': [], u'time': []}, u'edge': {u'target': [], u'time': []}}, u'mouseout': {u'state': {u'target': [], u'time': []}, u'edge': {u'target': [], u'time': []}}}",,"[8, 24, 8]","[1093, 112, 213]",40.0,"[None, None, None]",,44991,6.0,74506585.0,mouselab-mdp,3
"[1313, 2044, 2725]","[u'right', u'right', u'down']",train_basic,,,"[0, 1, 5, 10]","{u'mouseover': {u'state': {u'target': [], u'time': []}, u'edge': {u'target': [], u'time': []}}, u'click': {u'state': {u'target': [], u'time': []}, u'edge': {u'target': [], u'time': []}}, u'mouseout': {u'state': {u'target': [], u'time': []}, u'edge': {u'target': [], u'time': []}}}",,"[24, 8, 8]","[1309, 214, 167]",40.0,"[None, None, None]",,49651,7.0,69076906.0,mouselab-mdp,3
"[637, 1676, 2294]","[u'right', u'right', u'up']",train_basic,,,"[0, 1, 5, 9]","{u'mouseover': {u'state': {u'target': [], u'time': []}, u'edge': {u'target': [], u'time': []}}, u'click': {u'state': {u'target': [], u'time': []}, u'edge': {u'target': [], u'time': []}}, u'mouseout': {u'state': {u'target': [], u'time': []}, u'edge': {u'target': [], u'time': []}}}",,"[8, 8, 8]","[632, 527, 89]",24.0,"[None, None, None]",,54484,8.0,2071479.0,mouselab-mdp,3
"[1847, 2511, 3189]","[u'up', u'up', u'right']",train_basic,,,"[0, 2, 6, 12]","{u'mouseover': {u'state': {u'target': [], u'time': []}, u'edge': {u'target': [], u'time': []}}, u'click': {u'state': {u'target': [], u'time': []}, u'edge': {u'target': [], u'time': []}}, u'mouseout': {u'state': {u'target': [], u'time': []}, u'edge': {u'target': [], u'time': []}}}",,"[-24, 8, 24]","[1841, 138, 170]",8.0,"[None, None, None]",,59706,9.0,4122613.0,mouselab-mdp,3
"[3086, 4766, 5722]","[u'right', u'right', u'down']",train_hidden,,,"[0, 1, 5, 10]","{u'mouseover': {u'state': {u'target': [], u'time': []}, u'edge': {u'target': [], u'time': []}}, u'click': {u'state': {u'target': [], u'time': []}, u'edge': {u'target': [], u'time': []}}, u'mouseout': {u'state': {u'target': [], u'time': []}, u'edge': {u'target': [], u'time': []}}}",,"[-40, 8, -8]","[3082, 1162, 374]",-40.0,"[None, None, None]",,69666,10.0,51724516.0,mouselab-mdp,3
"[6019, 6854, 7806]","[u'left', u'left', u'up']",train_hidden,,,"[0, 3, 7, 13]","{u'mouseover': {u'state': {u'target': [], u'time': []}, u'edge': {u'target': [], u'time': []}}, u'click': {u'state': {u'target': [], u'time': []}, u'edge': {u'target': [], u'time': []}}, u'mouseout': {u'state': {u'target': [], u'time': []}, u'edge': {u'target': [], u'time': []}}}",,"[-8, -24, -8]","[6016, 310, 446]",-40.0,"[None, None, None]",,79682,11.0,58472111.0,mouselab-mdp,3
"[757, 1554, 2350]","[u'down', u'down', u'right']",train_hidden,,,"[0, 4, 8, 16]","{u'mouseover': {u'state': {u'target': [], u'time': []}, u'edge': {u'target': [], u'time': []}}, u'click': {u'state': {u'target': [], u'time': []}, u'edge': {u'target': [], u'time': []}}, u'mouseout': {u'state': {u'target': [], u'time': []}, u'edge': {u'target': [], u'time': []}}}",,"[8, 24, 8]","[754, 277, 275]",40.0,"[None, None, None]",,84365,12.0,4631261.0,mouselab-mdp,3
"[389, 1178, 1991]","[u'down', u'down', u'right']",train_hidden,,,"[0, 4, 8, 16]","{u'mouseover': {u'state': {u'target': [], u'time': []}, u'edge': {u'target': [], u'time': []}}, u'click': {u'state': {u'target': [], u'time': []}, u'edge': {u'target': [], u'time': []}}, u'mouseout': {u'state': {u'target': [], u'time': []}, u'edge': {u'target': [], u'time': []}}}",,"[-24, 8, -24]","[384, 277, 296]",-40.0,"[None, None, None]",,88674,13.0,52857376.0,mouselab-mdp,3
"[1470, 1996, 3462]","[u'up', u'up', u'right']",train_hidden,,,"[0, 2, 6, 12]","{u'mouseover': {u'state': {u'target': [], u'time': []}, u'edge': {u'target': [], u'time': []}}, u'click': {u'state': {u'target': [], u'time': []}, u'edge': {u'target': [], u'time': []}}, u'mouseout': {u'state': {u'target': [], u'time': []}, u'edge': {u'target': [], u'time': []}}}",,"[24, -24, -8]","[1464, 6, 942]",-8.0,"[None, None, None]",,94242,14.0,81376394.0,mouselab-mdp,3
"[8479, 9450, 10693]","[u'right', u'right', u'up']",train_inspector,,,"[0, 1, 5, 9]","{u'mouseover': {u'state': {u'target': [], u'time': []}, u'edge': {u'target': [], u'time': []}}, u'click': {u'state': {u'target': [u'3', u'1', u'2'], u'time': [2930, 4806, 5908]}, u'edge': {u'target': [], u'time': []}}, u'mouseout': {u'state': {u'target': [], u'time': []}, u'edge': {u'target': [], u'time': []}}}",,"[-8, -24, -8]","[8473, 452, 722]",-40.0,"[None, None, None]",,109221,15.0,2389448.0,mouselab-mdp,3
"[4735, 5449, 6660]","[u'up', u'up', u'right']",train_inspector,,,"[0, 2, 6, 12]","{u'mouseover': {u'state': {u'target': [], u'time': []}, u'edge': {u'target': [], u'time': []}}, u'click': {u'state': {u'target': [u'2', u'6', u'4'], u'time': [1244, 2470, 3734]}, u'edge': {u'target': [], u'time': []}}, u'mouseout': {u'state': {u'target': [], u'time': []}, u'edge': {u'target': [], u'time': []}}}",,"[24, 8, 24]","[4730, 206, 703]",56.0,"[None, None, None]",,118718,16.0,19736560.0,mouselab-mdp,3
"[4384, 5307, 6306]","[u'right', u'right', u'up']",train_inspector,,,"[0, 1, 5, 9]","{u'mouseover': {u'state': {u'target': [], u'time': []}, u'edge': {u'target': [], u'time': []}}, u'click': {u'state': {u'target': [u'3', u'1', u'4'], u'time': [1533, 2745, 3412]}, u'edge': {u'target': [], u'time': []}}, u'mouseout': {u'state': {u'target': [], u'time': []}, u'edge': {u'target': [], u'time': []}}}",,"[8, 8, 8]","[4380, 407, 481]",24.0,"[None, None, None]",,127274,17.0,91648611.0,mouselab-mdp,3
"[4121, 4978, 5953]","[u'left', u'left', u'up']",train_inspector,,,"[0, 3, 7, 13]","{u'mouseover': {u'state': {u'target': [], u'time': []}, u'edge': {u'target': [], u'time': []}}, u'click': {u'state': {u'target': [u'2', u'1', u'4'], u'time': [1159, 1946, 2642]}, u'edge': {u'target': [], u'time': []}}, u'mouseout': {u'state': {u'target': [], u'time': []}, u'edge': {u'target': [], u'time': []}}}",,"[-24, -8, -24]","[4116, 350, 461]",-56.0,"[None, None, None]",,135587,18.0,30362545.0,mouselab-mdp,3
"[3955, 4720, 5953]","[u'right', u'right', u'up']",train_inspector,,,"[0, 1, 5, 9]","{u'mouseover': {u'state': {u'target': [], u'time': []}, u'edge': {u'target': [], u'time': []}}, u'click': {u'state': {u'target': [u'2', u'1', u'4'], u'time': [711, 1817, 2455]}, u'edge': {u'target': [], u'time': []}}, u'mouseout': {u'state': {u'target': [], u'time': []}, u'edge': {u'target': [], u'time': []}}}",,"[8, -8, -8]","[3950, 244, 716]",-8.0,"[None, None, None]",,144044,19.0,52273736.0,mouselab-mdp,3
"[10565, 11664, 13603]","[u'up', u'up', u'right']",train_inspect_cost,,,"[0, 2, 6, 12]","{u'mouseover': {u'state': {u'target': [], u'time': []}, u'edge': {u'target': [], u'time': []}}, u'click': {u'state': {u'target': [u'2', u'3', u'4'], u'time': [7552, 8761, 9467]}, u'edge': {u'target': [], u'time': []}}, u'mouseout': {u'state': {u'target': [], u'time': []}, u'edge': {u'target': [], u'time': []}}}",,"[40, -24, 24]","[10561, 576, 1423]",37.0,"[None, None, None]",,162360,20.0,8540317.0,mouselab-mdp,3
"[6557, 7501, 8596]","[u'down', u'down', u'right']",train_inspect_cost,,,"[0, 4, 8, 16]","{u'mouseover': {u'state': {u'target': [], u'time': []}, u'edge': {u'target': [], u'time': []}}, u'click': {u'state': {u'target': [u'2', u'1', u'4'], u'time': [3467, 4850, 5536]}, u'edge': {u'target': [], u'time': []}}, u'mouseout': {u'state': {u'target': [], u'time': []}, u'edge': {u'target': [], u'time': []}}}",,"[24, 24, 24]","[6552, 429, 575]",69.0,"[None, None, None]",,173390,21.0,48713204.0,mouselab-mdp,3
"[5054, 5996, 7184]","[u'up', u'up', u'right']",train_inspect_cost,,,"[0, 2, 6, 12]","{u'mouseover': {u'state': {u'target': [], u'time': []}, u'edge': {u'target': [], u'time': []}}, u'click': {u'state': {u'target': [u'2', u'1', u'4'], u'time': [997, 1826, 2669]}, u'edge': {u'target': [], u'time': []}}, u'mouseout': {u'state': {u'target': [], u'time': []}, u'edge': {u'target': [], u'time': []}}}",,"[24, 8, 8]","[5050, 426, 666]",37.0,"[None, None, None]",,183212,22.0,33335821.0,mouselab-mdp,3
"[4920, 5767, 6850]","[u'up', u'up', u'right']",train_inspect_cost,,,"[0, 2, 6, 12]","{u'mouseover': {u'state': {u'target': [], u'time': []}, u'edge': {u'target': [], u'time': []}}, u'click': {u'state': {u'target': [u'2', u'3', u'4', u'1'], u'time': [965, 1711, 2585, 3306]}, u'edge': {u'target': [], u'time': []}}, u'mouseout': {u'state': {u'target': [], u'time': []}, u'edge': {u'target': [], u'time': []}}}",,"[8, 24, 8]","[4917, 330, 567]",36.0,"[None, None, None]",,192766,23.0,98473278.0,mouselab-mdp,3
"[4519, 5414, 6542]","[u'up', u'up', u'right']",train_inspect_cost,,,"[0, 2, 6, 12]","{u'mouseover': {u'state': {u'target': [], u'time': []}, u'edge': {u'target': [], u'time': []}}, u'click': {u'state': {u'target': [u'2', u'1', u'4', u'3'], u'time': [1046, 1768, 2528, 3591]}, u'edge': {u'target': [], u'time': []}}, u'mouseout': {u'state': {u'target': [], u'time': []}, u'edge': {u'target': [], u'time': []}}}",,"[8, -8, 24]","[4515, 389, 618]",20.0,"[None, None, None]",,201831,24.0,36306251.0,mouselab-mdp,3
"[13594, 14440, 15561]","[u'down', u'down', u'right']",train_final,,,"[0, 4, 8, 16]","{u'mouseover': {u'state': {u'target': [], u'time': []}, u'edge': {u'target': [], u'time': []}}, u'click': {u'state': {u'target': [u'2', u'1', u'4'], u'time': [10283, 11233, 11847]}, u'edge': {u'target': [], u'time': []}}, u'mouseout': {u'state': {u'target': [], u'time': []}, u'edge': {u'target': [], u'time': []}}}",,"[24, -8, 8]","[13589, 334, 609]",21.0,"[None, None, None]",,221447,25.0,27237517.0,mouselab-mdp,3
"[5119, 5969, 7114]","[u'down', u'down', u'right']",train_final,,,"[0, 4, 8, 16]","{u'mouseover': {u'state': {u'target': [], u'time': []}, u'edge': {u'target': [], u'time': []}}, u'click': {u'state': {u'target': [u'2', u'1', u'4'], u'time': [2095, 2788, 3878]}, u'edge': {u'target': [], u'time': []}}, u'mouseout': {u'state': {u'target': [], u'time': []}, u'edge': {u'target': [], u'time': []}}}",,"[24, -24, -40]","[5115, 333, 624]",-43.0,"[None, None, None]",,231217,26.0,85358617.0,mouselab-mdp,3
"[4036, 5070, 6156]","[u'right', u'right', u'up']",train_final,,,"[0, 1, 5, 9]","{u'mouseover': {u'state': {u'target': [], u'time': []}, u'edge': {u'target': [], u'time': []}}, u'click': {u'state': {u'target': [u'2', u'1'], u'time': [841, 1561]}, u'edge': {u'target': [], u'time': []}}, u'mouseout': {u'state': {u'target': [], u'time': []}, u'edge': {u'target': [], u'time': []}}}",,"[40, -40, 40]","[4034, 515, 572]",38.0,"[None, None, None]",,239972,27.0,55731613.0,mouselab-mdp,3
"[3950, 4850, 6071]","[u'right', u'right', u'up']",train_final,,,"[0, 1, 5, 9]","{u'mouseover': {u'state': {u'target': [], u'time': []}, u'edge': {u'target': [], u'time': []}}, u'click': {u'state': {u'target': [u'4', u'1', u'2'], u'time': [1181, 1779, 2475]}, u'edge': {u'target': [], u'time': []}}, u'mouseout': {u'state': {u'target': [], u'time': []}, u'edge': {u'target': [], u'time': []}}}",,"[40, 8, -24]","[3945, 350, 710]",21.0,"[None, None, None]",,248649,28.0,75504710.0,mouselab-mdp,3
"[4614, 5444, 6360]","[u'down', u'down', u'right']",train_final,,,"[0, 4, 8, 16]","{u'mouseover': {u'state': {u'target': [], u'time': []}, u'edge': {u'target': [], u'time': []}}, u'click': {u'state': {u'target': [u'2', u'3', u'4', u'1'], u'time': [1440, 2027, 2786, 3454]}, u'edge': {u'target': [], u'time': []}}, u'mouseout': {u'state': {u'target': [], u'time': []}, u'edge': {u'target': [], u'time': []}}}",,"[8, 8, -24]","[4610, 313, 402]",-12.0,"[None, None, None]",,257540,29.0,40656088.0,mouselab-mdp,3
"[4774, 5764, 6828]","[u'up', u'up', u'right']",test,,,"[0, 2, 6, 12]","{u'mouseover': {u'state': {u'target': [], u'time': []}, u'edge': {u'target': [], u'time': []}}, u'click': {u'state': {u'target': [u'2', u'1', u'4', u'3'], u'time': [1202, 2532, 3091, 3663]}, u'edge': {u'target': [], u'time': []}}, u'mouseout': {u'state': {u'target': [], u'time': []}, u'edge': {u'target': [], u'time': []}}}",,"[8, 40, -8]","[4771, 486, 555]",36.0,"[None, None, None]",,269859,30.0,2994777.0,mouselab-mdp,3
"[5012, 6061, 7405]","[u'right', u'right', u'up']",test,,,"[0, 1, 5, 9]","{u'mouseover': {u'state': {u'target': [], u'time': []}, u'edge': {u'target': [], u'time': []}}, u'click': {u'state': {u'target': [u'2', u'1', u'4', u'3'], u'time': [1126, 1766, 2446, 3752]}, u'edge': {u'target': [], u'time': []}}, u'mouseout': {u'state': {u'target': [], u'time': []}, u'edge': {u'target': [], u'time': []}}}",,"[-8, -24, 24]","[5008, 478, 824]",-12.0,"[None, None, None]",,279619,31.0,89561981.0,mouselab-mdp,3
"[3805, 4514, 5831]","[u'right', u'right', u'up']",test,,,"[0, 1, 5, 9]","{u'mouseover': {u'state': {u'target': [], u'time': []}, u'edge': {u'target': [], u'time': []}}, u'click': {u'state': {u'target': [u'2', u'1', u'4', u'3'], u'time': [695, 1431, 2178, 2818]}, u'edge': {u'target': [], u'time': []}}, u'mouseout': {u'state': {u'target': [], u'time': []}, u'edge': {u'target': [], u'time': []}}}",,"[8, -8, -8]","[3800, 189, 811]",-12.0,"[None, None, None]",,287934,32.0,11370744.0,mouselab-mdp,3
"[3369, 4150, 5105]","[u'up', u'up', u'right']",test,,,"[0, 2, 6, 12]","{u'mouseover': {u'state': {u'target': [], u'time': []}, u'edge': {u'target': [], u'time': []}}, u'click': {u'state': {u'target': [u'2', u'3', u'4', u'1'], u'time': [662, 1218, 1722, 2512]}, u'edge': {u'target': [], u'time': []}}, u'mouseout': {u'state': {u'target': [], u'time': []}, u'edge': {u'target': [], u'time': []}}}",,"[8, 24, 40]","[3365, 269, 443]",68.0,"[None, None, None]",,295586,33.0,84726094.0,mouselab-mdp,3
"[3363, 4208, 5189]","[u'up', u'up', u'right']",test,,,"[0, 2, 6, 12]","{u'mouseover': {u'state': {u'target': [], u'time': []}, u'edge': {u'target': [], u'time': []}}, u'click': {u'state': {u'target': [u'2', u'1', u'4', u'3'], u'time': [669, 1198, 1852, 2494]}, u'edge': {u'target': [], u'time': []}}, u'mouseout': {u'state': {u'target': [], u'time': []}, u'edge': {u'target': [], u'time': []}}}",,"[24, 8, 8]","[3358, 341, 423]",36.0,"[None, None, None]",,303184,34.0,66179773.0,mouselab-mdp,3
"[3877, 4695, 5640]","[u'up', u'up', u'right']",test,,,"[0, 2, 6, 12]","{u'mouseover': {u'state': {u'target': [], u'time': []}, u'edge': {u'target': [], u'time': []}}, u'click': {u'state': {u'target': [u'2', u'1', u'4', u'3'], u'time': [1091, 1690, 2249, 2955]}, u'edge': {u'target': [], u'time': []}}, u'mouseout': {u'state': {u'target': [], u'time': []}, u'edge': {u'target': [], u'time': []}}}",,"[8, -8, -8]","[3872, 312, 429]",-12.0,"[None, None, None]",,311124,35.0,75781642.0,mouselab-mdp,3
"[3757, 4567, 5512]","[u'right', u'right', u'up']",test,,,"[0, 1, 5, 9]","{u'mouseover': {u'state': {u'target': [], u'time': []}, u'edge': {u'target': [], u'time': []}}, u'click': {u'state': {u'target': [u'2', u'1', u'4', u'3'], u'time': [960, 1584, 2451, 3026]}, u'edge': {u'target': [], u'time': []}}, u'mouseout': {u'state': {u'target': [], u'time': []}, u'edge': {u'target': [], u'time': []}}}",,"[24, -8, 24]","[3752, 294, 426]",36.0,"[None, None, None]",,318894,36.0,76019518.0,mouselab-mdp,3
"[6591, 7309, 8265]","[u'right', u'right', u'up']",test,,,"[0, 1, 5, 9]","{u'mouseover': {u'state': {u'target': [], u'time': []}, u'edge': {u'target': [], u'time': []}}, u'click': {u'state': {u'target': [u'4', u'3', u'2', u'1'], u'time': [2742, 3793, 4941, 5752]}, u'edge': {u'target': [], u'time': []}}, u'mouseout': {u'state': {u'target': [], u'time': []}, u'edge': {u'target': [], u'time': []}}}",,"[40, 24, 40]","[6587, 209, 434]",100.0,"[None, None, None]",,329516,37.0,75001164.0,mouselab-mdp,3
"[4622, 5405, 6594]","[u'down', u'down', u'right']",test,,,"[0, 4, 8, 16]","{u'mouseover': {u'state': {u'target': [], u'time': []}, u'edge': {u'target': [], u'time': []}}, u'click': {u'state': {u'target': [u'2', u'1', u'4', u'3'], u'time': [1211, 2449, 3064, 3742]}, u'edge': {u'target': [], u'time': []}}, u'mouseout': {u'state': {u'target': [], u'time': []}, u'edge': {u'target': [], u'time': []}}}",,"[8, -8, -8]","[4617, 271, 641]",-12.0,"[None, None, None]",,338438,38.0,31101503.0,mouselab-mdp,3
"[3174, 3965, 4843]","[u'right', u'right', u'down']",test,,,"[0, 1, 5, 10]","{u'mouseover': {u'state': {u'target': [], u'time': []}, u'edge': {u'target': [], u'time': []}}, u'click': {u'state': {u'target': [u'2', u'1', u'4', u'3'], u'time': [629, 1161, 1896, 2494]}, u'edge': {u'target': [], u'time': []}}, u'mouseout': {u'state': {u'target': [], u'time': []}, u'edge': {u'target': [], u'time': []}}}",,"[24, -24, -8]","[3167, 275, 359]",-12.0,"[None, None, None]",,345771,39.0,97476352.0,mouselab-mdp,3
"[3296, 3962, 5034]","[u'right', u'right', u'up']",test,,,"[0, 1, 5, 9]","{u'mouseover': {u'state': {u'target': [], u'time': []}, u'edge': {u'target': [], u'time': []}}, u'click': {u'state': {u'target': [u'2', u'1', u'4', u'3'], u'time': [610, 1155, 1887, 2542]}, u'edge': {u'target': [], u'time': []}}, u'mouseout': {u'state': {u'target': [], u'time': []}, u'edge': {u'target': [], u'time': []}}}",,"[40, -24, 24]","[3290, 157, 559]",36.0,"[None, None, None]",,353157,40.0,12298375.0,mouselab-mdp,3
"[4441, 5347, 6491]","[u'down', u'down', u'right']",test,,,"[0, 4, 8, 16]","{u'mouseover': {u'state': {u'target': [], u'time': []}, u'edge': {u'target': [], u'time': []}}, u'click': {u'state': {u'target': [u'2', u'1', u'3', u'4'], u'time': [460, 1018, 2447, 3114]}, u'edge': {u'target': [], u'time': []}}, u'mouseout': {u'state': {u'target': [], u'time': []}, u'edge': {u'target': [], u'time': []}}}",,"[-8, 24, -40]","[4435, 371, 636]",-28.0,"[None, None, None]",,361890,41.0,77771434.0,mouselab-mdp,3
