key_press,rt,time_elapsed,trial_type,pid
32.0,1111,97408,text,0
32.0,1007,169632,text,0
32.0,859,214508,text,0
32.0,978,371644,text,0
32.0,1081,435032,text,0
32.0,1454,132841,text,1
32.0,1319,328638,text,1
32.0,1598,394104,text,1
32.0,1641,506409,text,1
32.0,1467,678383,text,1
32.0,1106,54570,text,2
32.0,843,103777,text,2
32.0,774,137422,text,2
32.0,891,195517,text,2
32.0,1059,242043,text,2
32.0,1157,73635,text,3
32.0,778,122595,text,3
32.0,1284,163821,text,3
32.0,1206,249619,text,3
32.0,1470,327942,text,3
32.0,973,55658,text,4
32.0,852,119363,text,4
32.0,636,163549,text,4
32.0,1042,232175,text,4
32.0,992,295330,text,4
32.0,2237,88978,text,5
32.0,1062,160130,text,5
32.0,1199,204364,text,5
32.0,1382,306713,text,5
32.0,1196,374232,text,5
32.0,869,42613,text,6
32.0,571,66324,text,6
37.0,165,91836,text,6
39.0,68,112795,text,6
37.0,214,132443,text,6
32.0,1147,82013,text,7
32.0,1035,147163,text,7
32.0,1149,197502,text,7
32.0,918,270275,text,7
32.0,862,339315,text,7
32.0,852,59092,text,8
32.0,1005,116209,text,8
32.0,699,153813,text,8
32.0,722,207225,text,8
32.0,658,257294,text,8
32.0,1135,83487,text,9
32.0,1647,163863,text,9
32.0,766,220254,text,9
32.0,806,300615,text,9
32.0,776,367224,text,9
32.0,981,72416,text,10
32.0,811,129821,text,10
32.0,794,164637,text,10
32.0,1073,246510,text,10
32.0,896,306126,text,10
32.0,1187,44960,text,11
32.0,1013,93485,text,11
32.0,895,120909,text,11
32.0,632,185228,text,11
32.0,777,229556,text,11
32.0,775,65994,text,12
32.0,1233,111605,text,12
32.0,616,141483,text,12
32.0,776,165467,text,12
32.0,729,259451,text,12
32.0,3497,66450,text,13
32.0,2728,103858,text,13
32.0,990,142732,text,13
32.0,1159,215695,text,13
32.0,1042,271226,text,13
32.0,1348,53155,text,14
32.0,2268,89502,text,14
32.0,2477,120301,text,14
32.0,965,144801,text,14
32.0,695,168793,text,14
32.0,1004,91668,text,15
32.0,836,159974,text,15
32.0,834,211615,text,15
32.0,788,274070,text,15
32.0,1262,328743,text,15
32.0,788,78195,text,16
32.0,801,142922,text,16
32.0,677,182972,text,16
32.0,974,282804,text,16
32.0,759,336848,text,16
32.0,1562,63266,text,17
32.0,1556,117404,text,17
32.0,993,146837,text,17
32.0,884,218886,text,17
32.0,721,265338,text,17
32.0,1199,102595,text,18
32.0,1288,160037,text,18
32.0,1008,195554,text,18
32.0,1230,238490,text,18
32.0,1335,276602,text,18
32.0,1381,108717,text,19
32.0,809,194982,text,19
32.0,401,234534,text,19
32.0,2182,318181,text,19
32.0,570,379577,text,19
32.0,972,73768,text,20
32.0,1021,118151,text,20
32.0,785,148792,text,20
32.0,915,229018,text,20
32.0,1014,286008,text,20
32.0,1133,104293,text,21
32.0,1672,170225,text,21
32.0,1217,223489,text,21
32.0,1276,355618,text,21
32.0,817,434138,text,21
32.0,1283,86387,text,22
32.0,989,156720,text,22
32.0,1030,191072,text,22
32.0,860,274308,text,22
32.0,920,351817,text,22
32.0,1430,62056,text,23
32.0,869,105320,text,23
32.0,927,138816,text,23
32.0,791,202880,text,23
32.0,1351,253607,text,23
32.0,1305,106210,text,24
32.0,975,178255,text,24
32.0,781,226197,text,24
32.0,954,342955,text,24
32.0,875,433825,text,24
32.0,1120,107481,text,25
32.0,1019,181847,text,25
32.0,963,228335,text,25
32.0,870,254163,text,25
32.0,928,287009,text,25
32.0,1757,109839,text,26
32.0,1497,231854,text,26
18.0,871,288895,text,26
32.0,1097,368582,text,26
32.0,1049,441478,text,26
32.0,1592,105157,text,27
32.0,1131,160951,text,27
32.0,1174,210181,text,27
32.0,1759,309228,text,27
32.0,1362,451500,text,27
32.0,741,61182,text,28
32.0,1077,129640,text,28
32.0,503,172877,text,28
32.0,827,270475,text,28
32.0,638,363539,text,28
32.0,791,44094,text,29
32.0,1169,89023,text,29
32.0,1129,122034,text,29
32.0,769,168650,text,29
32.0,573,226862,text,29
32.0,1293,48528,text,30
32.0,711,106018,text,30
32.0,719,138921,text,30
32.0,735,214769,text,30
32.0,1191,277024,text,30
32.0,2241,73024,text,31
32.0,1648,126095,text,31
32.0,1138,159270,text,31
32.0,929,211044,text,31
32.0,1098,278914,text,31
32.0,1770,64915,text,32
32.0,910,113591,text,32
32.0,879,151449,text,32
32.0,1124,193206,text,32
32.0,787,229159,text,32
32.0,747,55976,text,33
32.0,721,98932,text,33
38.0,282,131408,text,33
32.0,564,222655,text,33
32.0,595,299187,text,33
32.0,1286,44859,text,34
32.0,1270,83099,text,34
38.0,23,108298,text,34
32.0,1135,182506,text,34
32.0,1070,230490,text,34
32.0,1110,85076,text,35
32.0,748,125322,text,35
32.0,904,161013,text,35
32.0,576,228641,text,35
32.0,744,288915,text,35
32.0,801,69059,text,36
32.0,827,112600,text,36
32.0,3074,154612,text,36
32.0,1158,245382,text,36
32.0,989,293149,text,36
32.0,1135,92343,text,37
32.0,1252,170904,text,37
32.0,1026,220234,text,37
32.0,900,274131,text,37
32.0,904,357834,text,37
32.0,1066,170310,text,38
32.0,981,233395,text,38
32.0,902,279511,text,38
32.0,694,393945,text,38
32.0,786,454691,text,38
32.0,1393,95911,text,39
32.0,785,154185,text,39
32.0,625,190679,text,39
32.0,974,288387,text,39
32.0,638,385159,text,39
32.0,2022,110130,text,40
32.0,1493,213562,text,40
32.0,1758,275874,text,40
32.0,2357,480322,text,40
32.0,2166,653595,text,40
32.0,727,83170,text,41
32.0,678,132671,text,41
32.0,574,169816,text,41
32.0,792,230804,text,41
32.0,720,281736,text,41
32.0,1580,87147,text,42
32.0,854,142635,text,42
32.0,769,195020,text,42
32.0,690,307557,text,42
32.0,844,375212,text,42
32.0,1332,60198,text,43
32.0,1265,98054,text,43
32.0,1126,132389,text,43
32.0,1057,160246,text,43
32.0,909,188941,text,43
32.0,1174,121490,text,44
32.0,902,194657,text,44
32.0,839,246226,text,44
32.0,743,372577,text,44
32.0,967,448337,text,44
32.0,1753,89183,text,45
32.0,1160,147384,text,45
32.0,1082,231031,text,45
32.0,6803,297807,text,45
32.0,1163,452062,text,45
32.0,1523,89471,text,46
32.0,891,145088,text,46
32.0,848,181826,text,46
32.0,878,276173,text,46
32.0,811,325518,text,46
32.0,963,64696,text,47
32.0,799,116489,text,47
32.0,1382,159992,text,47
32.0,954,215092,text,47
32.0,780,271617,text,47
32.0,1428,83802,text,48
32.0,1205,143209,text,48
32.0,945,184253,text,48
32.0,958,261284,text,48
32.0,756,310526,text,48
32.0,1421,106113,text,49
32.0,1186,180077,text,49
32.0,3973,229701,text,49
32.0,1795,357717,text,49
32.0,3576,455766,text,49
32.0,3144,65959,text,50
32.0,912,126624,text,50
32.0,671,158048,text,50
32.0,629,211288,text,50
32.0,744,262056,text,50
32.0,1450,149290,text,51
32.0,1034,192744,text,51
32.0,1110,229844,text,51
32.0,922,262690,text,51
32.0,845,286446,text,51
32.0,825,81989,text,52
32.0,1631,136835,text,52
32.0,761,184698,text,52
32.0,1040,217249,text,52
32.0,869,265034,text,52
32.0,701,65247,text,53
32.0,713,122775,text,53
32.0,653,151434,text,53
32.0,503,208973,text,53
32.0,3785,284567,text,53
32.0,4983,102178,text,54
32.0,5115,216402,text,54
32.0,1707,303407,text,54
32.0,6753,432918,text,54
32.0,1297,506995,text,54
32.0,1300,53356,text,55
32.0,1153,95567,text,55
32.0,660,130058,text,55
32.0,1083,196317,text,55
32.0,1150,243188,text,55
32.0,1638,95350,text,56
32.0,5431,183093,text,56
32.0,1142,223461,text,56
32.0,1175,301860,text,56
32.0,711,380755,text,56
32.0,1053,72524,text,57
32.0,761,129898,text,57
32.0,619,166058,text,57
32.0,1772,233468,text,57
32.0,1254,295392,text,57
32.0,1054,76267,text,58
32.0,1402,141334,text,58
32.0,640,178356,text,58
32.0,996,261658,text,58
32.0,731,339212,text,58
32.0,2910,80182,text,59
32.0,1114,138503,text,59
32.0,1050,183672,text,59
32.0,617,216421,text,59
32.0,1084,311615,text,59
32.0,791,60721,text,60
32.0,862,94934,text,60
32.0,802,123950,text,60
32.0,1311,169445,text,60
32.0,701,203947,text,60
32.0,858,60396,text,61
32.0,560,106451,text,61
32.0,608,136922,text,61
32.0,599,205387,text,61
32.0,667,262598,text,61
32.0,906,67626,text,62
32.0,860,115689,text,62
32.0,854,156461,text,62
32.0,1221,258127,text,62
32.0,824,305703,text,62
32.0,1551,106952,text,63
32.0,2573,210935,text,63
32.0,3989,266118,text,63
32.0,1367,387735,text,63
32.0,1383,476910,text,63
32.0,1071,30187,text,64
32.0,752,52821,text,64
32.0,716,74851,text,64
32.0,901,105621,text,64
32.0,780,151684,text,64
32.0,825,56936,text,65
32.0,1008,93518,text,65
32.0,845,193940,text,65
32.0,2609,276114,text,65
32.0,1725,371913,text,65
32.0,2103,112514,text,66
32.0,19750,190726,text,66
32.0,1522,243164,text,66
32.0,1407,311221,text,66
32.0,4516,377044,text,66
32.0,678,54952,text,67
32.0,454,99982,text,67
32.0,951,132811,text,67
32.0,575,188468,text,67
32.0,471,232346,text,67
32.0,1042,73485,text,68
32.0,787,129768,text,68
32.0,578,160292,text,68
32.0,618,220365,text,68
32.0,623,269964,text,68
32.0,1601,94934,text,69
32.0,1303,168349,text,69
32.0,1115,214253,text,69
32.0,1152,318820,text,69
32.0,1269,416908,text,69
32.0,981,96237,text,70
32.0,932,166103,text,70
32.0,875,208319,text,70
32.0,1242,285291,text,70
32.0,782,349722,text,70
32.0,772,69380,text,71
32.0,590,120484,text,71
32.0,646,161723,text,71
32.0,688,216726,text,71
32.0,528,262627,text,71
32.0,1144,91908,text,72
32.0,962,151012,text,72
32.0,968,181424,text,72
32.0,946,265776,text,72
32.0,1436,318293,text,72
