action_times,actions,block,button_pressed,key_press,path,queries,responses,rewards,rt,score,simulation_mode,stimulus,time_elapsed,trial_index,trial_id,trial_type,pid
,,,0.0,,,,,,1196,,,"<h1 id=""trainingcompleted"">Training Completed</h1>

<p>Well done! You've completed the training phase and you're ready to
play <em>Web of Cash</em> for real. You will have <strong>30
rounds</strong> to make as much money as you can. Remember, <strong>you will earn 1 cent for every $1 you make in the game.</strong></p>

<p>Good luck!</p>",310647,,,button-response,0
,,,0.0,,,,,,13378,,,"<h1 id=""trainingcompleted"">Training Completed</h1>

<p>Well done! You've completed the training phase and you're ready to
play <em>Web of Cash</em> for real. You will have <strong>30
rounds</strong> to make as much money as you can. Remember, <strong>you will earn 1 cent for every $1 you make in the game.</strong></p>

<p>Good luck!</p>",309691,,,button-response,1
,,,0.0,,,,,,11404,,,"<h1 id=""trainingcompleted"">Training Completed</h1>

<p>Well done! You've completed the training phase and you're ready to
play <em>Web of Cash</em> for real. You will have <strong>30
rounds</strong> to make as much money as you can. Remember, <strong>you will earn 1 cent for every $1 you make in the game.</strong></p>

<p>Good luck!</p>",257381,,,button-response,2
,,,0.0,,,,,,4895,,,"<h1 id=""trainingcompleted"">Training Completed</h1>

<p>Well done! You've completed the training phase and you're ready to
play <em>Web of Cash</em> for real. You will have <strong>30
rounds</strong> to make as much money as you can. Remember, <strong>you will earn 1 cent for every $1 you make in the game.</strong></p>

<p>Good luck!</p>",248345,,,button-response,3
,,,0.0,,,,,,1693,,,"<h1 id=""trainingcompleted"">Training Completed</h1>

<p>Well done! You've completed the training phase and you're ready to
play <em>Web of Cash</em> for real. You will have <strong>30
rounds</strong> to make as much money as you can. Remember, <strong>you will earn 1 cent for every $1 you make in the game.</strong></p>

<p>Good luck!</p>",449045,,,button-response,4
,,,0.0,,,,,,4477,,,"<h1 id=""trainingcompleted"">Training Completed</h1>

<p>Well done! You've completed the training phase and you're ready to
play <em>Web of Cash</em> for real. You will have <strong>30
rounds</strong> to make as much money as you can. Remember, <strong>you will earn 1 cent for every $1 you make in the game.</strong></p>

<p>Good luck!</p>",298863,,,button-response,5
,,,0.0,,,,,,5373,,,"<h1 id=""trainingcompleted"">Training Completed</h1>

<p>Well done! You've completed the training phase and you're ready to
play <em>Web of Cash</em> for real. You will have <strong>30
rounds</strong> to make as much money as you can. Remember, <strong>you will earn 1 cent for every $1 you make in the game.</strong></p>

<p>Good luck!</p>",347188,,,button-response,6
,,,0.0,,,,,,6841,,,"<h1 id=""trainingcompleted"">Training Completed</h1>

<p>Well done! You've completed the training phase and you're ready to
play <em>Web of Cash</em> for real. You will have <strong>30
rounds</strong> to make as much money as you can. Remember, <strong>you will earn 1 cent for every $1 you make in the game.</strong></p>

<p>Good luck!</p>",732869,,,button-response,7
,,,0.0,,,,,,3015,,,"<h1 id=""trainingcompleted"">Training Completed</h1>

<p>Well done! You've completed the training phase and you're ready to
play <em>Web of Cash</em> for real. You will have <strong>30
rounds</strong> to make as much money as you can. Remember, <strong>you will earn 1 cent for every $1 you make in the game.</strong></p>

<p>Good luck!</p>",198309,,,button-response,8
