action_times,actions,button_pressed,correct,delays,path,queries,questions,responses,rt,score,stimulus,time_elapsed,trial_index,trial_i,trial_type,view_history,pid
,,,,,,,,,139948,,,139950,,,instructions,"[{""page_index"":0,""viewing_time"":46185},{""page_index"":1,""viewing_time"":33300},{""page_index"":2,""viewing_time"":37452},{""page_index"":3,""viewing_time"":23010}]",0
,,,,,,,,,40093,,,40095,,,instructions,"[{""page_index"":0,""viewing_time"":9234},{""page_index"":1,""viewing_time"":12413},{""page_index"":2,""viewing_time"":13268},{""page_index"":3,""viewing_time"":5175}]",1
,,,,,,,,,12833,,,67850,,,instructions,"[{""page_index"":0,""viewing_time"":4004},{""page_index"":1,""viewing_time"":2841},{""page_index"":2,""viewing_time"":3472},{""page_index"":3,""viewing_time"":2515}]",1
,,,,,,,,,65603,,,65603,,,instructions,"[{""page_index"":0,""viewing_time"":13846},{""page_index"":1,""viewing_time"":18172},{""page_index"":2,""viewing_time"":10256},{""page_index"":3,""viewing_time"":23328}]",2
,,,,,,,,,25036,,,130433,,,instructions,"[{""page_index"":0,""viewing_time"":7707},{""page_index"":1,""viewing_time"":64},{""page_index"":2,""viewing_time"":12618},{""page_index"":3,""viewing_time"":4646}]",2
,,,,,,,,,34528,,,187502,,,instructions,"[{""page_index"":0,""viewing_time"":10584},{""page_index"":1,""viewing_time"":12838},{""page_index"":2,""viewing_time"":9145},{""page_index"":3,""viewing_time"":1960}]",2
,,,,,,,,,146579,,,146579,,,instructions,"[{""page_index"":0,""viewing_time"":66347},{""page_index"":1,""viewing_time"":34799},{""page_index"":2,""viewing_time"":45432}]",3
,,,,,,,,,180314,,,363385,,,instructions,"[{""page_index"":0,""viewing_time"":65134},{""page_index"":1,""viewing_time"":85480},{""page_index"":2,""viewing_time"":29700}]",3
,,,,,,,,,154770,,,154774,,,instructions,"[{""page_index"":0,""viewing_time"":29640},{""page_index"":1,""viewing_time"":16103},{""page_index"":2,""viewing_time"":13773},{""page_index"":1,""viewing_time"":2693},{""page_index"":0,""viewing_time"":33394},{""page_index"":1,""viewing_time"":20380},{""page_index"":2,""viewing_time"":38784}]",4
,,,,,,,,,79461,,,79461,,,instructions,"[{""page_index"":0,""viewing_time"":26287},{""page_index"":1,""viewing_time"":24334},{""page_index"":2,""viewing_time"":18463},{""page_index"":3,""viewing_time"":10376}]",5
,,,,,,,,,39396,,,143577,,,instructions,"[{""page_index"":0,""viewing_time"":13052},{""page_index"":1,""viewing_time"":6632},{""page_index"":2,""viewing_time"":7656},{""page_index"":3,""viewing_time"":12055}]",5
,,,,,,,,,116685,,,116687,,,instructions,"[{""page_index"":0,""viewing_time"":25939},{""page_index"":1,""viewing_time"":38937},{""page_index"":2,""viewing_time"":29814},{""page_index"":3,""viewing_time"":21993}]",6
,,,,,,,,,329707,,,329711,,,instructions,"[{""page_index"":0,""viewing_time"":138983},{""page_index"":1,""viewing_time"":66156},{""page_index"":2,""viewing_time"":81370},{""page_index"":3,""viewing_time"":43196}]",7
,,,,,,,,,125021,,,125021,,,instructions,"[{""page_index"":0,""viewing_time"":61125},{""page_index"":1,""viewing_time"":34640},{""page_index"":2,""viewing_time"":29255}]",8
,,,,,,,,,264347,,,264349,,,instructions,"[{""page_index"":0,""viewing_time"":130277},{""page_index"":1,""viewing_time"":84615},{""page_index"":2,""viewing_time"":32077},{""page_index"":1,""viewing_time"":16249},{""page_index"":2,""viewing_time"":1127}]",9
,,,,,,,,,96390,,,96394,,,instructions,"[{""page_index"":0,""viewing_time"":35492},{""page_index"":1,""viewing_time"":33083},{""page_index"":2,""viewing_time"":27812}]",10
,,,,,,,,,70729,,,197284,,,instructions,"[{""page_index"":0,""viewing_time"":15904},{""page_index"":1,""viewing_time"":38742},{""page_index"":2,""viewing_time"":16082}]",10
,,,,,,,,,63860,,,306745,,,instructions,"[{""page_index"":0,""viewing_time"":10126},{""page_index"":1,""viewing_time"":26269},{""page_index"":2,""viewing_time"":9837},{""page_index"":1,""viewing_time"":667},{""page_index"":0,""viewing_time"":9345},{""page_index"":1,""viewing_time"":6614},{""page_index"":2,""viewing_time"":1001}]",10
,,,,,,,,,238860,,,238862,,,instructions,"[{""page_index"":0,""viewing_time"":61135},{""page_index"":1,""viewing_time"":95486},{""page_index"":2,""viewing_time"":45280},{""page_index"":3,""viewing_time"":36957}]",11
,,,,,,,,,105812,,,420411,,,instructions,"[{""page_index"":0,""viewing_time"":35373},{""page_index"":1,""viewing_time"":25358},{""page_index"":2,""viewing_time"":26255},{""page_index"":3,""viewing_time"":18824}]",11
,,,,,,,,,19098,,,474422,,,instructions,"[{""page_index"":0,""viewing_time"":12215},{""page_index"":1,""viewing_time"":3370},{""page_index"":2,""viewing_time"":1606},{""page_index"":3,""viewing_time"":1906}]",11
,,,,,,,,,139479,,,657974,,,instructions,"[{""page_index"":0,""viewing_time"":52580},{""page_index"":1,""viewing_time"":29009},{""page_index"":2,""viewing_time"":33980},{""page_index"":3,""viewing_time"":23909}]",11
,,,,,,,,,19389,,,714828,,,instructions,"[{""page_index"":0,""viewing_time"":17248},{""page_index"":1,""viewing_time"":1340},{""page_index"":2,""viewing_time"":271},{""page_index"":3,""viewing_time"":529}]",11
,,,,,,,,,57527,,,801410,,,instructions,"[{""page_index"":0,""viewing_time"":44415},{""page_index"":1,""viewing_time"":11202},{""page_index"":2,""viewing_time"":1034},{""page_index"":3,""viewing_time"":874}]",11
,,,,,,,,,106227,,,935555,,,instructions,"[{""page_index"":0,""viewing_time"":86690},{""page_index"":1,""viewing_time"":3641},{""page_index"":2,""viewing_time"":11405},{""page_index"":3,""viewing_time"":4490}]",11
,,,,,,,,,6182,,,973235,,,instructions,"[{""page_index"":0,""viewing_time"":3509},{""page_index"":1,""viewing_time"":383},{""page_index"":0,""viewing_time"":823},{""page_index"":1,""viewing_time"":935},{""page_index"":2,""viewing_time"":235},{""page_index"":3,""viewing_time"":296}]",11
,,,,,,,,,4524,,,1000335,,,instructions,"[{""page_index"":0,""viewing_time"":3366},{""page_index"":1,""viewing_time"":455},{""page_index"":2,""viewing_time"":407},{""page_index"":3,""viewing_time"":295}]",11
,,,,,,,,,130330,,,130332,,,instructions,"[{""page_index"":0,""viewing_time"":40327},{""page_index"":1,""viewing_time"":30558},{""page_index"":2,""viewing_time"":38888},{""page_index"":3,""viewing_time"":20557}]",12
,,,,,,,,,23485,,,197476,,,instructions,"[{""page_index"":0,""viewing_time"":4944},{""page_index"":1,""viewing_time"":5042},{""page_index"":2,""viewing_time"":7975},{""page_index"":3,""viewing_time"":5524}]",12
,,,,,,,,,27953,,,245750,,,instructions,"[{""page_index"":0,""viewing_time"":2099},{""page_index"":1,""viewing_time"":1796},{""page_index"":2,""viewing_time"":14109},{""page_index"":1,""viewing_time"":2581},{""page_index"":2,""viewing_time"":1505},{""page_index"":3,""viewing_time"":5863}]",12
,,,,,,,,,68928,,,337899,,,instructions,"[{""page_index"":0,""viewing_time"":7046},{""page_index"":1,""viewing_time"":23912},{""page_index"":2,""viewing_time"":23636},{""page_index"":3,""viewing_time"":14334}]",12
,,,,,,,,,15860,,,382542,,,instructions,"[{""page_index"":0,""viewing_time"":1054},{""page_index"":1,""viewing_time"":2588},{""page_index"":2,""viewing_time"":5357},{""page_index"":3,""viewing_time"":6860}]",12
,,,,,,,,,3872,,,402018,,,instructions,"[{""page_index"":0,""viewing_time"":883},{""page_index"":1,""viewing_time"":873},{""page_index"":2,""viewing_time"":1233},{""page_index"":3,""viewing_time"":882}]",12
,,,,,,,,,98183,,,98183,,,instructions,"[{""page_index"":0,""viewing_time"":26503},{""page_index"":1,""viewing_time"":27349},{""page_index"":2,""viewing_time"":27840},{""page_index"":3,""viewing_time"":16490}]",13
,,,,,,,,,248560,,,248564,,,instructions,"[{""page_index"":0,""viewing_time"":71404},{""page_index"":1,""viewing_time"":65063},{""page_index"":2,""viewing_time"":78721},{""page_index"":3,""viewing_time"":33371}]",14
,,,,,,,,,105726,,,429007,,,instructions,"[{""page_index"":0,""viewing_time"":18541},{""page_index"":1,""viewing_time"":19668},{""page_index"":2,""viewing_time"":53921},{""page_index"":3,""viewing_time"":13595}]",14
,,,,,,,,,117315,,,117318,,,instructions,"[{""page_index"":0,""viewing_time"":99461},{""page_index"":1,""viewing_time"":12078},{""page_index"":2,""viewing_time"":5773}]",15
,,,,,,,,,76668,,,224526,,,instructions,"[{""page_index"":0,""viewing_time"":6833},{""page_index"":1,""viewing_time"":43416},{""page_index"":2,""viewing_time"":26417}]",15
,,,,,,,,,201369,,,201370,,,instructions,"[{""page_index"":0,""viewing_time"":84510},{""page_index"":1,""viewing_time"":38897},{""page_index"":2,""viewing_time"":38258},{""page_index"":3,""viewing_time"":39704}]",16
,,,,,,,,,73788,,,329998,,,instructions,"[{""page_index"":0,""viewing_time"":43983},{""page_index"":1,""viewing_time"":22962},{""page_index"":2,""viewing_time"":2032},{""page_index"":3,""viewing_time"":4811}]",16
,,,,,,,,,103326,,,458423,,,instructions,"[{""page_index"":0,""viewing_time"":5244},{""page_index"":1,""viewing_time"":31991},{""page_index"":2,""viewing_time"":39482},{""page_index"":3,""viewing_time"":26609}]",16
,,,,,,,,,162667,,,651470,,,instructions,"[{""page_index"":0,""viewing_time"":54563},{""page_index"":1,""viewing_time"":30292},{""page_index"":2,""viewing_time"":44774},{""page_index"":3,""viewing_time"":33038}]",16
,,,,,,,,,177063,,,177063,,,instructions,"[{""page_index"":0,""viewing_time"":53485},{""page_index"":1,""viewing_time"":42121},{""page_index"":2,""viewing_time"":44783},{""page_index"":3,""viewing_time"":36673}]",17
,,,,,,,,,6168,,,6170,,,instructions,"[{""page_index"":0,""viewing_time"":2293},{""page_index"":1,""viewing_time"":1415},{""page_index"":2,""viewing_time"":1120},{""page_index"":3,""viewing_time"":1330}]",18
,,,,,,,,,72986,,,72988,,,instructions,"[{""page_index"":0,""viewing_time"":12355},{""page_index"":1,""viewing_time"":6945},{""page_index"":2,""viewing_time"":14544},{""page_index"":3,""viewing_time"":39142}]",19
,,,,,,,,,35771,,,134572,,,instructions,"[{""page_index"":0,""viewing_time"":13945},{""page_index"":1,""viewing_time"":7032},{""page_index"":2,""viewing_time"":9160},{""page_index"":3,""viewing_time"":5634}]",19
,,,,,,,,,92840,,,92842,,,instructions,"[{""page_index"":0,""viewing_time"":25360},{""page_index"":1,""viewing_time"":31510},{""page_index"":2,""viewing_time"":21990},{""page_index"":3,""viewing_time"":13979}]",20
,,,,,,,,,110160,,,110161,,,instructions,"[{""page_index"":0,""viewing_time"":47142},{""page_index"":1,""viewing_time"":16220},{""page_index"":2,""viewing_time"":4887},{""page_index"":1,""viewing_time"":31596},{""page_index"":2,""viewing_time"":2734},{""page_index"":3,""viewing_time"":7580}]",21
,,,,,,,,,85275,,,237185,,,instructions,"[{""page_index"":0,""viewing_time"":17168},{""page_index"":1,""viewing_time"":21317},{""page_index"":2,""viewing_time"":24822},{""page_index"":3,""viewing_time"":21967}]",21
,,,,,,,,,8176,,,328403,,,instructions,"[{""page_index"":0,""viewing_time"":3843},{""page_index"":1,""viewing_time"":2601},{""page_index"":2,""viewing_time"":929},{""page_index"":3,""viewing_time"":803}]",21
,,,,,,,,,179646,,,179648,,,instructions,"[{""page_index"":0,""viewing_time"":46254},{""page_index"":1,""viewing_time"":73353},{""page_index"":2,""viewing_time"":40160},{""page_index"":3,""viewing_time"":19878}]",22
,,,,,,,,,70647,,,70649,,,instructions,"[{""page_index"":0,""viewing_time"":24607},{""page_index"":1,""viewing_time"":21423},{""page_index"":2,""viewing_time"":13984},{""page_index"":3,""viewing_time"":10632}]",23
,,,,,,,,,25467,,,118895,,,instructions,"[{""page_index"":0,""viewing_time"":4739},{""page_index"":1,""viewing_time"":6393},{""page_index"":2,""viewing_time"":8071},{""page_index"":3,""viewing_time"":6264}]",23
,,,,,,,,,819661,,,819662,,,instructions,"[{""page_index"":0,""viewing_time"":25345},{""page_index"":1,""viewing_time"":791891},{""page_index"":2,""viewing_time"":1224},{""page_index"":3,""viewing_time"":1200}]",24
,,,,,,,,,72078,,,904590,,,instructions,"[{""page_index"":0,""viewing_time"":1686},{""page_index"":1,""viewing_time"":68887},{""page_index"":2,""viewing_time"":176},{""page_index"":3,""viewing_time"":1328}]",24
,,,,,,,,,9006,,,924945,,,instructions,"[{""page_index"":0,""viewing_time"":1317},{""page_index"":1,""viewing_time"":5912},{""page_index"":2,""viewing_time"":512},{""page_index"":3,""viewing_time"":1264}]",24
,,,,,,,,,4928,,,941755,,,instructions,"[{""page_index"":0,""viewing_time"":2015},{""page_index"":1,""viewing_time"":904},{""page_index"":2,""viewing_time"":1008},{""page_index"":3,""viewing_time"":1000}]",24
,,,,,,,,,51348,,,1007762,,,instructions,"[{""page_index"":0,""viewing_time"":42267},{""page_index"":1,""viewing_time"":1624},{""page_index"":2,""viewing_time"":2697},{""page_index"":3,""viewing_time"":4760}]",24
,,,,,,,,,6200,,,1029292,,,instructions,"[{""page_index"":0,""viewing_time"":3823},{""page_index"":1,""viewing_time"":840},{""page_index"":2,""viewing_time"":720},{""page_index"":3,""viewing_time"":816}]",24
,,,,,,,,,26715,,,1069105,,,instructions,"[{""page_index"":0,""viewing_time"":4919},{""page_index"":1,""viewing_time"":15082},{""page_index"":2,""viewing_time"":1808},{""page_index"":3,""viewing_time"":4905}]",24
,,,,,,,,,245041,,,245042,,,instructions,"[{""page_index"":0,""viewing_time"":82335},{""page_index"":1,""viewing_time"":89238},{""page_index"":2,""viewing_time"":53692},{""page_index"":3,""viewing_time"":19775}]",25
,,,,,,,,,76899,,,76901,,,instructions,"[{""page_index"":0,""viewing_time"":36135},{""page_index"":1,""viewing_time"":27581},{""page_index"":2,""viewing_time"":4017},{""page_index"":3,""viewing_time"":9164}]",26
,,,,,,,,,43752,,,145958,,,instructions,"[{""page_index"":0,""viewing_time"":19188},{""page_index"":1,""viewing_time"":4807},{""page_index"":2,""viewing_time"":13332},{""page_index"":3,""viewing_time"":6424}]",26
,,,,,,,,,4391,,,171321,,,instructions,"[{""page_index"":0,""viewing_time"":1454},{""page_index"":1,""viewing_time"":872},{""page_index"":2,""viewing_time"":593},{""page_index"":3,""viewing_time"":1472}]",26
,,,,,,,,,187779,,,372390,,,instructions,"[{""page_index"":0,""viewing_time"":17696},{""page_index"":1,""viewing_time"":13385},{""page_index"":2,""viewing_time"":151393},{""page_index"":3,""viewing_time"":5304}]",26
,,,,,,,,,28954,,,417793,,,instructions,"[{""page_index"":0,""viewing_time"":21049},{""page_index"":1,""viewing_time"":81},{""page_index"":0,""viewing_time"":4367},{""page_index"":1,""viewing_time"":697},{""page_index"":2,""viewing_time"":984},{""page_index"":3,""viewing_time"":1775}]",26
,,,,,,,,,136560,,,136563,,,instructions,"[{""page_index"":0,""viewing_time"":36191},{""page_index"":1,""viewing_time"":45289},{""page_index"":2,""viewing_time"":25000},{""page_index"":3,""viewing_time"":30077}]",27
,,,,,,,,,142963,,,142965,,,instructions,"[{""page_index"":0,""viewing_time"":72610},{""page_index"":1,""viewing_time"":43778},{""page_index"":2,""viewing_time"":26566}]",28
,,,,,,,,,118279,,,118280,,,instructions,"[{""page_index"":0,""viewing_time"":22612},{""page_index"":1,""viewing_time"":37157},{""page_index"":2,""viewing_time"":41363},{""page_index"":3,""viewing_time"":17145}]",29
,,,,,,,,,176955,,,176957,,,instructions,"[{""page_index"":0,""viewing_time"":80965},{""page_index"":1,""viewing_time"":37715},{""page_index"":2,""viewing_time"":34247},{""page_index"":3,""viewing_time"":24028}]",30
,,,,,,,,,314119,,,314120,,,instructions,"[{""page_index"":0,""viewing_time"":103914},{""page_index"":1,""viewing_time"":81243},{""page_index"":2,""viewing_time"":74464},{""page_index"":3,""viewing_time"":54496}]",31
,,,,,,,,,499149,,,499149,,,instructions,"[{""page_index"":0,""viewing_time"":130179},{""page_index"":1,""viewing_time"":247703},{""page_index"":2,""viewing_time"":71226},{""page_index"":3,""viewing_time"":50040}]",32
,,,,,,,,,240206,,,845598,,,instructions,"[{""page_index"":0,""viewing_time"":68719},{""page_index"":1,""viewing_time"":51112},{""page_index"":2,""viewing_time"":71501},{""page_index"":3,""viewing_time"":48874}]",32
,,,,,,,,,43463,,,946622,,,instructions,"[{""page_index"":0,""viewing_time"":3701},{""page_index"":1,""viewing_time"":691},{""page_index"":0,""viewing_time"":4376},{""page_index"":1,""viewing_time"":2338},{""page_index"":0,""viewing_time"":2942},{""page_index"":1,""viewing_time"":1286},{""page_index"":2,""viewing_time"":3990},{""page_index"":3,""viewing_time"":24139}]",32
,,,,,,,,,203489,,,203491,,,instructions,"[{""page_index"":0,""viewing_time"":59145},{""page_index"":1,""viewing_time"":61576},{""page_index"":2,""viewing_time"":57104},{""page_index"":3,""viewing_time"":25663}]",33
,,,,,,,,,173965,,,173967,,,instructions,"[{""page_index"":0,""viewing_time"":48524},{""page_index"":1,""viewing_time"":70734},{""page_index"":2,""viewing_time"":30192},{""page_index"":3,""viewing_time"":24511}]",34
,,,,,,,,,101418,,,329146,,,instructions,"[{""page_index"":0,""viewing_time"":46193},{""page_index"":1,""viewing_time"":25624},{""page_index"":2,""viewing_time"":19112},{""page_index"":3,""viewing_time"":10487}]",34
,,,,,,,,,53467,,,399217,,,instructions,"[{""page_index"":0,""viewing_time"":5985},{""page_index"":1,""viewing_time"":6904},{""page_index"":2,""viewing_time"":16864},{""page_index"":3,""viewing_time"":23712}]",34
,,,,,,,,,28656,,,479157,,,instructions,"[{""page_index"":0,""viewing_time"":5864},{""page_index"":1,""viewing_time"":5192},{""page_index"":2,""viewing_time"":6304},{""page_index"":3,""viewing_time"":11295}]",34
,,,,,,,,,9579,,,509141,,,instructions,"[{""page_index"":0,""viewing_time"":4538},{""page_index"":1,""viewing_time"":2024},{""page_index"":2,""viewing_time"":1319},{""page_index"":3,""viewing_time"":1697}]",34
,,,,,,,,,51291,,,51303,,,instructions,"[{""page_index"":0,""viewing_time"":4011},{""page_index"":1,""viewing_time"":19218},{""page_index"":2,""viewing_time"":13908},{""page_index"":3,""viewing_time"":14154}]",35
,,,,,,,,,179605,,,280990,,,instructions,"[{""page_index"":0,""viewing_time"":23902},{""page_index"":1,""viewing_time"":23723},{""page_index"":2,""viewing_time"":45953},{""page_index"":1,""viewing_time"":28445},{""page_index"":0,""viewing_time"":14657},{""page_index"":1,""viewing_time"":2583},{""page_index"":2,""viewing_time"":2160},{""page_index"":3,""viewing_time"":38182}]",35
,,,,,,,,,63791,,,603228,,,instructions,"[{""page_index"":0,""viewing_time"":19117},{""page_index"":1,""viewing_time"":25789},{""page_index"":2,""viewing_time"":2112},{""page_index"":1,""viewing_time"":3067},{""page_index"":2,""viewing_time"":10757},{""page_index"":3,""viewing_time"":2949}]",35
,,,,,,,,,25919,,,650705,,,instructions,"[{""page_index"":0,""viewing_time"":10355},{""page_index"":1,""viewing_time"":4133},{""page_index"":0,""viewing_time"":3543},{""page_index"":1,""viewing_time"":2626},{""page_index"":2,""viewing_time"":3293},{""page_index"":3,""viewing_time"":1969}]",35
,,,,,,,,,18430,,,753752,,,instructions,"[{""page_index"":0,""viewing_time"":4248},{""page_index"":1,""viewing_time"":1351},{""page_index"":2,""viewing_time"":6586},{""page_index"":3,""viewing_time"":6245}]",35
,,,,,,,,,5731,,,771588,,,instructions,"[{""page_index"":0,""viewing_time"":2216},{""page_index"":1,""viewing_time"":1003},{""page_index"":2,""viewing_time"":1738},{""page_index"":3,""viewing_time"":774}]",35
,,,,,,,,,361131,,,361132,,,instructions,"[{""page_index"":0,""viewing_time"":84652},{""page_index"":1,""viewing_time"":79845},{""page_index"":2,""viewing_time"":113431},{""page_index"":3,""viewing_time"":26626},{""page_index"":2,""viewing_time"":6140},{""page_index"":1,""viewing_time"":3578},{""page_index"":0,""viewing_time"":20038},{""page_index"":1,""viewing_time"":8678},{""page_index"":2,""viewing_time"":7668},{""page_index"":3,""viewing_time"":10475}]",36
,,,,,,,,,138020,,,138020,,,instructions,"[{""page_index"":0,""viewing_time"":29483},{""page_index"":1,""viewing_time"":6421},{""page_index"":0,""viewing_time"":6915},{""page_index"":1,""viewing_time"":2453},{""page_index"":0,""viewing_time"":3099},{""page_index"":1,""viewing_time"":8803},{""page_index"":0,""viewing_time"":17085},{""page_index"":1,""viewing_time"":2232},{""page_index"":2,""viewing_time"":24592},{""page_index"":3,""viewing_time"":36936}]",37
,,,,,,,,,182032,,,182034,,,instructions,"[{""page_index"":0,""viewing_time"":28911},{""page_index"":1,""viewing_time"":32799},{""page_index"":2,""viewing_time"":30856},{""page_index"":3,""viewing_time"":89464}]",38
,,,,,,,,,43596,,,260770,,,instructions,"[{""page_index"":0,""viewing_time"":7807},{""page_index"":1,""viewing_time"":9257},{""page_index"":2,""viewing_time"":16178},{""page_index"":3,""viewing_time"":10353}]",38
,,,,,,,,,82474,,,372305,,,instructions,"[{""page_index"":0,""viewing_time"":17954},{""page_index"":1,""viewing_time"":33653},{""page_index"":2,""viewing_time"":28875},{""page_index"":3,""viewing_time"":1992}]",38
,,,,,,,,,5696,,,401733,,,instructions,"[{""page_index"":0,""viewing_time"":1606},{""page_index"":1,""viewing_time"":1249},{""page_index"":2,""viewing_time"":616},{""page_index"":3,""viewing_time"":2224}]",38
,,,,,,,,,132253,,,132254,,,instructions,"[{""page_index"":0,""viewing_time"":52305},{""page_index"":1,""viewing_time"":16828},{""page_index"":2,""viewing_time"":36099},{""page_index"":3,""viewing_time"":27020}]",39
,,,,,,,,,193820,,,193822,,,instructions,"[{""page_index"":0,""viewing_time"":48656},{""page_index"":1,""viewing_time"":63801},{""page_index"":2,""viewing_time"":40306},{""page_index"":3,""viewing_time"":41056}]",40
,,,,,,,,,127226,,,360110,,,instructions,"[{""page_index"":0,""viewing_time"":45399},{""page_index"":1,""viewing_time"":31240},{""page_index"":2,""viewing_time"":31329},{""page_index"":3,""viewing_time"":19258}]",40
,,,,,,,,,96339,,,96339,,,instructions,"[{""page_index"":0,""viewing_time"":37979},{""page_index"":1,""viewing_time"":30661},{""page_index"":2,""viewing_time"":27698}]",41
,,,,,,,,,78865,,,78867,,,instructions,"[{""page_index"":0,""viewing_time"":29664},{""page_index"":1,""viewing_time"":25833},{""page_index"":2,""viewing_time"":6351},{""page_index"":3,""viewing_time"":17016}]",42
,,,,,,,,,227409,,,227410,,,instructions,"[{""page_index"":0,""viewing_time"":50878},{""page_index"":1,""viewing_time"":37082},{""page_index"":2,""viewing_time"":117568},{""page_index"":3,""viewing_time"":21880}]",43
,,,,,,,,,156196,,,156196,,,instructions,"[{""page_index"":0,""viewing_time"":60881},{""page_index"":1,""viewing_time"":62206},{""page_index"":2,""viewing_time"":33107}]",44
,,,,,,,,,142318,,,142321,,,instructions,"[{""page_index"":0,""viewing_time"":46067},{""page_index"":1,""viewing_time"":54805},{""page_index"":2,""viewing_time"":22743},{""page_index"":3,""viewing_time"":18700}]",45
,,,,,,,,,108904,,,108905,,,instructions,"[{""page_index"":0,""viewing_time"":51972},{""page_index"":1,""viewing_time"":31548},{""page_index"":2,""viewing_time"":25383}]",46
,,,,,,,,,58273,,,192247,,,instructions,"[{""page_index"":0,""viewing_time"":22096},{""page_index"":1,""viewing_time"":21047},{""page_index"":2,""viewing_time"":15129}]",46
,,,,,,,,,249076,,,249076,,,instructions,"[{""page_index"":0,""viewing_time"":75882},{""page_index"":1,""viewing_time"":26459},{""page_index"":0,""viewing_time"":3535},{""page_index"":1,""viewing_time"":1146},{""page_index"":0,""viewing_time"":13711},{""page_index"":1,""viewing_time"":45688},{""page_index"":2,""viewing_time"":50446},{""page_index"":3,""viewing_time"":32208}]",47
,,,,,,,,,113616,,,497799,,,instructions,"[{""page_index"":0,""viewing_time"":17858},{""page_index"":1,""viewing_time"":32393},{""page_index"":2,""viewing_time"":45952},{""page_index"":3,""viewing_time"":17412}]",47
,,,,,,,,,4316,,,568150,,,instructions,"[{""page_index"":0,""viewing_time"":2228},{""page_index"":1,""viewing_time"":357},{""page_index"":2,""viewing_time"":337},{""page_index"":3,""viewing_time"":1393}]",47
,,,,,,,,,101976,,,101979,,,instructions,"[{""page_index"":0,""viewing_time"":55139},{""page_index"":1,""viewing_time"":19279},{""page_index"":2,""viewing_time"":15195},{""page_index"":3,""viewing_time"":12362}]",48
,,,,,,,,,33695,,,159574,,,instructions,"[{""page_index"":0,""viewing_time"":2154},{""page_index"":1,""viewing_time"":4320},{""page_index"":2,""viewing_time"":25639},{""page_index"":3,""viewing_time"":1581}]",48
,,,,,,,,,180661,,,180661,,,instructions,"[{""page_index"":0,""viewing_time"":65135},{""page_index"":1,""viewing_time"":70951},{""page_index"":2,""viewing_time"":244},{""page_index"":3,""viewing_time"":44331}]",49
,,,,,,,,,189885,,,454941,,,instructions,"[{""page_index"":0,""viewing_time"":23665},{""page_index"":1,""viewing_time"":55643},{""page_index"":2,""viewing_time"":80296},{""page_index"":3,""viewing_time"":30281}]",49
,,,,,,,,,266924,,,266926,,,instructions,"[{""page_index"":0,""viewing_time"":62331},{""page_index"":1,""viewing_time"":101647},{""page_index"":2,""viewing_time"":43825},{""page_index"":3,""viewing_time"":59119}]",50
,,,,,,,,,123039,,,123041,,,instructions,"[{""page_index"":0,""viewing_time"":34086},{""page_index"":1,""viewing_time"":40373},{""page_index"":2,""viewing_time"":20666},{""page_index"":3,""viewing_time"":27910}]",51
,,,,,,,,,66225,,,235681,,,instructions,"[{""page_index"":0,""viewing_time"":13825},{""page_index"":1,""viewing_time"":19654},{""page_index"":2,""viewing_time"":23264},{""page_index"":3,""viewing_time"":9479}]",51
,,,,,,,,,211077,,,211077,,,instructions,"[{""page_index"":0,""viewing_time"":47458},{""page_index"":1,""viewing_time"":48064},{""page_index"":2,""viewing_time"":55870},{""page_index"":3,""viewing_time"":32910},{""page_index"":2,""viewing_time"":968},{""page_index"":1,""viewing_time"":24024},{""page_index"":2,""viewing_time"":1005},{""page_index"":3,""viewing_time"":778}]",52
,,,,,,,,,17806,,,283106,,,instructions,"[{""page_index"":0,""viewing_time"":4664},{""page_index"":1,""viewing_time"":1926},{""page_index"":2,""viewing_time"":10200},{""page_index"":3,""viewing_time"":1002}]",52
,,,,,,,,,59661,,,59663,,,instructions,"[{""page_index"":0,""viewing_time"":30233},{""page_index"":1,""viewing_time"":24171},{""page_index"":2,""viewing_time"":5256}]",53
,,,,,,,,,18241,,,99830,,,instructions,"[{""page_index"":0,""viewing_time"":6632},{""page_index"":1,""viewing_time"":4811},{""page_index"":2,""viewing_time"":6797}]",53
,,,,,,,,,188169,,,188170,,,instructions,"[{""page_index"":0,""viewing_time"":40467},{""page_index"":1,""viewing_time"":106873},{""page_index"":2,""viewing_time"":25706},{""page_index"":3,""viewing_time"":15122}]",54
,,,,,,,,,177618,,,177618,,,instructions,"[{""page_index"":0,""viewing_time"":58234},{""page_index"":1,""viewing_time"":48432},{""page_index"":2,""viewing_time"":41219},{""page_index"":3,""viewing_time"":29733}]",55
,,,,,,,,,38307,,,265638,,,instructions,"[{""page_index"":0,""viewing_time"":19602},{""page_index"":1,""viewing_time"":9803},{""page_index"":2,""viewing_time"":6610},{""page_index"":3,""viewing_time"":2292}]",55
,,,,,,,,,112971,,,112972,,,instructions,"[{""page_index"":0,""viewing_time"":38534},{""page_index"":1,""viewing_time"":31410},{""page_index"":2,""viewing_time"":25110},{""page_index"":3,""viewing_time"":17914}]",56
,,,,,,,,,129006,,,129007,,,instructions,"[{""page_index"":0,""viewing_time"":49101},{""page_index"":1,""viewing_time"":31256},{""page_index"":2,""viewing_time"":48647}]",57
,,,,,,,,,107384,,,107385,,,instructions,"[{""page_index"":0,""viewing_time"":38647},{""page_index"":1,""viewing_time"":21992},{""page_index"":2,""viewing_time"":19288},{""page_index"":3,""viewing_time"":27456}]",58
,,,,,,,,,31863,,,177073,,,instructions,"[{""page_index"":0,""viewing_time"":8725},{""page_index"":1,""viewing_time"":7576},{""page_index"":2,""viewing_time"":5384},{""page_index"":3,""viewing_time"":10177}]",58
,,,,,,,,,99806,,,99807,,,instructions,"[{""page_index"":0,""viewing_time"":45950},{""page_index"":1,""viewing_time"":22656},{""page_index"":2,""viewing_time"":17376},{""page_index"":3,""viewing_time"":13824}]",59
,,,,,,,,,97251,,,97253,,,instructions,"[{""page_index"":0,""viewing_time"":24406},{""page_index"":1,""viewing_time"":28067},{""page_index"":2,""viewing_time"":26181},{""page_index"":3,""viewing_time"":18595}]",60
,,,,,,,,,87817,,,87817,,,instructions,"[{""page_index"":0,""viewing_time"":36648},{""page_index"":1,""viewing_time"":18423},{""page_index"":2,""viewing_time"":16168},{""page_index"":3,""viewing_time"":16576}]",61
,,,,,,,,,37815,,,156735,,,instructions,"[{""page_index"":0,""viewing_time"":9222},{""page_index"":1,""viewing_time"":16760},{""page_index"":2,""viewing_time"":9905},{""page_index"":3,""viewing_time"":1928}]",61
,,,,,,,,,222370,,,222371,,,instructions,"[{""page_index"":0,""viewing_time"":66671},{""page_index"":1,""viewing_time"":1744},{""page_index"":0,""viewing_time"":12295},{""page_index"":1,""viewing_time"":55513},{""page_index"":2,""viewing_time"":52303},{""page_index"":3,""viewing_time"":33843}]",62
,,,,,,,,,358199,,,696632,,,instructions,"[{""page_index"":0,""viewing_time"":12632},{""page_index"":1,""viewing_time"":42311},{""page_index"":2,""viewing_time"":35791},{""page_index"":3,""viewing_time"":11194},{""page_index"":2,""viewing_time"":4870},{""page_index"":1,""viewing_time"":1394},{""page_index"":0,""viewing_time"":37703},{""page_index"":1,""viewing_time"":83206},{""page_index"":2,""viewing_time"":15921},{""page_index"":3,""viewing_time"":17805},{""page_index"":2,""viewing_time"":944},{""page_index"":1,""viewing_time"":251},{""page_index"":0,""viewing_time"":23773},{""page_index"":1,""viewing_time"":36660},{""page_index"":2,""viewing_time"":28396},{""page_index"":3,""viewing_time"":5347}]",62
,,,,,,,,,166608,,,166611,,,instructions,"[{""page_index"":0,""viewing_time"":50533},{""page_index"":1,""viewing_time"":51784},{""page_index"":2,""viewing_time"":42472},{""page_index"":3,""viewing_time"":21816}]",63
,,,,,,,,,152220,,,379096,,,instructions,"[{""page_index"":0,""viewing_time"":44285},{""page_index"":1,""viewing_time"":33939},{""page_index"":2,""viewing_time"":46387},{""page_index"":3,""viewing_time"":27608}]",63
,,,,,,,,,53240,,,472361,,,instructions,"[{""page_index"":0,""viewing_time"":22687},{""page_index"":1,""viewing_time"":4142},{""page_index"":2,""viewing_time"":18322},{""page_index"":3,""viewing_time"":8088}]",63
,,,,,,,,,233893,,,233894,,,instructions,"[{""page_index"":0,""viewing_time"":51573},{""page_index"":1,""viewing_time"":63210},{""page_index"":2,""viewing_time"":70266},{""page_index"":3,""viewing_time"":21320},{""page_index"":2,""viewing_time"":807},{""page_index"":1,""viewing_time"":8363},{""page_index"":2,""viewing_time"":8079},{""page_index"":3,""viewing_time"":10274}]",64
,,,,,,,,,94987,,,94988,,,instructions,"[{""page_index"":0,""viewing_time"":38906},{""page_index"":1,""viewing_time"":35880},{""page_index"":2,""viewing_time"":20200}]",65
,,,,,,,,,69687,,,199939,,,instructions,"[{""page_index"":0,""viewing_time"":12701},{""page_index"":1,""viewing_time"":24424},{""page_index"":2,""viewing_time"":32562}]",65
,,,,,,,,,34680,,,319019,,,instructions,"[{""page_index"":0,""viewing_time"":28903},{""page_index"":1,""viewing_time"":2968},{""page_index"":2,""viewing_time"":2808}]",65
,,,,,,,,,237658,,,237661,,,instructions,"[{""page_index"":0,""viewing_time"":64734},{""page_index"":1,""viewing_time"":62176},{""page_index"":2,""viewing_time"":54971},{""page_index"":3,""viewing_time"":55774}]",66
,,,,,,,,,197199,,,197205,,,instructions,"[{""page_index"":0,""viewing_time"":82695},{""page_index"":1,""viewing_time"":51822},{""page_index"":2,""viewing_time"":31072},{""page_index"":3,""viewing_time"":31607}]",67
,,,,,,,,,43980,,,470849,,,instructions,"[{""page_index"":0,""viewing_time"":12367},{""page_index"":1,""viewing_time"":3127},{""page_index"":2,""viewing_time"":26313},{""page_index"":3,""viewing_time"":2169}]",67
,,,,,,,,,12803,,,588702,,,instructions,"[{""page_index"":0,""viewing_time"":6007},{""page_index"":1,""viewing_time"":4066},{""page_index"":2,""viewing_time"":1567},{""page_index"":3,""viewing_time"":1161}]",67
,,,,,,,,,108586,,,714005,,,instructions,"[{""page_index"":0,""viewing_time"":40281},{""page_index"":1,""viewing_time"":16061},{""page_index"":2,""viewing_time"":17209},{""page_index"":3,""viewing_time"":35033}]",67
,,,,,,,,,5901,,,929182,,,instructions,"[{""page_index"":0,""viewing_time"":3241},{""page_index"":1,""viewing_time"":1063},{""page_index"":2,""viewing_time"":776},{""page_index"":3,""viewing_time"":819}]",67
,,,,,,,,,5063,,,950873,,,instructions,"[{""page_index"":0,""viewing_time"":2735},{""page_index"":1,""viewing_time"":863},{""page_index"":2,""viewing_time"":735},{""page_index"":3,""viewing_time"":728}]",67
,,,,,,,,,30466,,,1249704,,,instructions,"[{""page_index"":0,""viewing_time"":6033},{""page_index"":1,""viewing_time"":10308},{""page_index"":2,""viewing_time"":9051},{""page_index"":3,""viewing_time"":5072}]",67
,,,,,,,,,28473,,,1296952,,,instructions,"[{""page_index"":0,""viewing_time"":9017},{""page_index"":1,""viewing_time"":11063},{""page_index"":2,""viewing_time"":5495},{""page_index"":3,""viewing_time"":2896}]",67
,,,,,,,,,4930,,,1343319,,,instructions,"[{""page_index"":0,""viewing_time"":2560},{""page_index"":1,""viewing_time"":815},{""page_index"":2,""viewing_time"":561},{""page_index"":3,""viewing_time"":992}]",67
,,,,,,,,,91309,,,91311,,,instructions,"[{""page_index"":0,""viewing_time"":39602},{""page_index"":1,""viewing_time"":37985},{""page_index"":2,""viewing_time"":13720}]",68
,,,,,,,,,390843,,,390847,,,instructions,"[{""page_index"":0,""viewing_time"":276445},{""page_index"":1,""viewing_time"":23092},{""page_index"":2,""viewing_time"":13382},{""page_index"":3,""viewing_time"":77920}]",69
,,,,,,,,,75591,,,75594,,,instructions,"[{""page_index"":0,""viewing_time"":38251},{""page_index"":1,""viewing_time"":22079},{""page_index"":2,""viewing_time"":5244},{""page_index"":3,""viewing_time"":10015}]",70
,,,,,,,,,138827,,,138831,,,instructions,"[{""page_index"":0,""viewing_time"":40003},{""page_index"":1,""viewing_time"":46968},{""page_index"":2,""viewing_time"":32338},{""page_index"":3,""viewing_time"":19515}]",71
,,,,,,,,,69472,,,69473,,,instructions,"[{""page_index"":0,""viewing_time"":32088},{""page_index"":1,""viewing_time"":12008},{""page_index"":2,""viewing_time"":13240},{""page_index"":1,""viewing_time"":800},{""page_index"":2,""viewing_time"":439},{""page_index"":3,""viewing_time"":10896}]",72
,,,,,,,,,4423,,,94450,,,instructions,"[{""page_index"":0,""viewing_time"":1687},{""page_index"":1,""viewing_time"":953},{""page_index"":2,""viewing_time"":590},{""page_index"":3,""viewing_time"":1192}]",72
,,,,,,,,,197975,,,197976,,,instructions,"[{""page_index"":0,""viewing_time"":32377},{""page_index"":1,""viewing_time"":23382},{""page_index"":2,""viewing_time"":24205},{""page_index"":3,""viewing_time"":23791},{""page_index"":2,""viewing_time"":1413},{""page_index"":1,""viewing_time"":3669},{""page_index"":0,""viewing_time"":31074},{""page_index"":1,""viewing_time"":47982},{""page_index"":2,""viewing_time"":5467},{""page_index"":3,""viewing_time"":4614}]",73
,,,,,,,,,101579,,,101581,,,instructions,"[{""page_index"":0,""viewing_time"":35997},{""page_index"":1,""viewing_time"":21433},{""page_index"":2,""viewing_time"":27487},{""page_index"":3,""viewing_time"":16661}]",74
,,,,,,,,,190432,,,190432,,,instructions,"[{""page_index"":0,""viewing_time"":64689},{""page_index"":1,""viewing_time"":79711},{""page_index"":2,""viewing_time"":29720},{""page_index"":3,""viewing_time"":16312}]",75
,,,,,,,,,95073,,,95074,,,instructions,"[{""page_index"":0,""viewing_time"":37062},{""page_index"":1,""viewing_time"":36409},{""page_index"":2,""viewing_time"":21602}]",76
,,,,,,,,,126690,,,126694,,,instructions,"[{""page_index"":0,""viewing_time"":37147},{""page_index"":1,""viewing_time"":40555},{""page_index"":2,""viewing_time"":32533},{""page_index"":3,""viewing_time"":16453}]",77
,,,,,,,,,76287,,,255447,,,instructions,"[{""page_index"":0,""viewing_time"":8057},{""page_index"":1,""viewing_time"":18367},{""page_index"":2,""viewing_time"":36568},{""page_index"":3,""viewing_time"":13293}]",77
,,,,,,,,,31272,,,320570,,,instructions,"[{""page_index"":0,""viewing_time"":3020},{""page_index"":1,""viewing_time"":4009},{""page_index"":2,""viewing_time"":18515},{""page_index"":3,""viewing_time"":5727}]",77
,,,,,,,,,104125,,,104129,,,instructions,"[{""page_index"":0,""viewing_time"":54087},{""page_index"":1,""viewing_time"":31403},{""page_index"":2,""viewing_time"":18631}]",78
,,,,,,,,,28502,,,28503,,,instructions,"[{""page_index"":0,""viewing_time"":5070},{""page_index"":1,""viewing_time"":1848},{""page_index"":0,""viewing_time"":1768},{""page_index"":1,""viewing_time"":11335},{""page_index"":2,""viewing_time"":5256},{""page_index"":3,""viewing_time"":3224}]",79
,,,,,,,,,61367,,,115661,,,instructions,"[{""page_index"":0,""viewing_time"":5206},{""page_index"":1,""viewing_time"":2856},{""page_index"":0,""viewing_time"":4040},{""page_index"":1,""viewing_time"":4377},{""page_index"":0,""viewing_time"":14439},{""page_index"":1,""viewing_time"":17128},{""page_index"":2,""viewing_time"":6168},{""page_index"":3,""viewing_time"":7152}]",79
,,,,,,,,,4464,,,141893,,,instructions,"[{""page_index"":0,""viewing_time"":2167},{""page_index"":1,""viewing_time"":1241},{""page_index"":2,""viewing_time"":504},{""page_index"":3,""viewing_time"":551}]",79
,,,,,,,,,23472,,,180846,,,instructions,"[{""page_index"":0,""viewing_time"":4399},{""page_index"":1,""viewing_time"":5264},{""page_index"":2,""viewing_time"":3768},{""page_index"":3,""viewing_time"":10040}]",79
,,,,,,,,,172816,,,172817,,,instructions,"[{""page_index"":0,""viewing_time"":57950},{""page_index"":1,""viewing_time"":33347},{""page_index"":2,""viewing_time"":36787},{""page_index"":3,""viewing_time"":44731}]",80
,,,,,,,,,38967,,,271611,,,instructions,"[{""page_index"":0,""viewing_time"":6519},{""page_index"":1,""viewing_time"":16009},{""page_index"":2,""viewing_time"":8668},{""page_index"":3,""viewing_time"":7770}]",80
,,,,,,,,,56252,,,56255,,,instructions,"[{""page_index"":0,""viewing_time"":16576},{""page_index"":1,""viewing_time"":13798},{""page_index"":2,""viewing_time"":14461},{""page_index"":3,""viewing_time"":11412}]",81
,,,,,,,,,145751,,,145752,,,instructions,"[{""page_index"":0,""viewing_time"":9734},{""page_index"":1,""viewing_time"":996},{""page_index"":0,""viewing_time"":19199},{""page_index"":1,""viewing_time"":27770},{""page_index"":2,""viewing_time"":27318},{""page_index"":3,""viewing_time"":23679},{""page_index"":2,""viewing_time"":1808},{""page_index"":1,""viewing_time"":4076},{""page_index"":0,""viewing_time"":18386},{""page_index"":1,""viewing_time"":6946},{""page_index"":2,""viewing_time"":3460},{""page_index"":3,""viewing_time"":2378}]",82
,,,,,,,,,316201,,,316205,,,instructions,"[{""page_index"":0,""viewing_time"":169536},{""page_index"":1,""viewing_time"":44616},{""page_index"":2,""viewing_time"":78103},{""page_index"":3,""viewing_time"":23944}]",83
,,,,,,,,,39077,,,402578,,,instructions,"[{""page_index"":0,""viewing_time"":12659},{""page_index"":1,""viewing_time"":7391},{""page_index"":2,""viewing_time"":15908},{""page_index"":3,""viewing_time"":3117}]",83
,,,,,,,,,82100,,,82101,,,instructions,"[{""page_index"":0,""viewing_time"":53536},{""page_index"":1,""viewing_time"":17325},{""page_index"":2,""viewing_time"":11238}]",84
,,,,,,,,,86785,,,86787,,,instructions,"[{""page_index"":0,""viewing_time"":44206},{""page_index"":1,""viewing_time"":23679},{""page_index"":2,""viewing_time"":18898}]",85
,,,,,,,,,202210,,,202212,,,instructions,"[{""page_index"":0,""viewing_time"":68875},{""page_index"":1,""viewing_time"":37327},{""page_index"":2,""viewing_time"":67311},{""page_index"":3,""viewing_time"":28696}]",86
,,,,,,,,,145122,,,145124,,,instructions,"[{""page_index"":0,""viewing_time"":42664},{""page_index"":1,""viewing_time"":49872},{""page_index"":2,""viewing_time"":30161},{""page_index"":3,""viewing_time"":22424}]",87
,,,,,,,,,55761,,,55762,,,instructions,"[{""page_index"":0,""viewing_time"":4065},{""page_index"":1,""viewing_time"":19749},{""page_index"":2,""viewing_time"":16171},{""page_index"":3,""viewing_time"":15776}]",88
,,,,,,,,,27685,,,101960,,,instructions,"[{""page_index"":0,""viewing_time"":3835},{""page_index"":1,""viewing_time"":3223},{""page_index"":2,""viewing_time"":13014},{""page_index"":3,""viewing_time"":7613}]",88
,,,,,,,,,4051,,,126311,,,instructions,"[{""page_index"":0,""viewing_time"":1315},{""page_index"":1,""viewing_time"":523},{""page_index"":2,""viewing_time"":1600},{""page_index"":3,""viewing_time"":613}]",88
,,,,,,,,,40478,,,179289,,,instructions,"[{""page_index"":0,""viewing_time"":4810},{""page_index"":1,""viewing_time"":27955},{""page_index"":2,""viewing_time"":5866},{""page_index"":3,""viewing_time"":1847}]",88
,,,,,,,,,37030,,,234329,,,instructions,"[{""page_index"":0,""viewing_time"":4955},{""page_index"":1,""viewing_time"":8883},{""page_index"":2,""viewing_time"":17422},{""page_index"":3,""viewing_time"":5760}]",88
,,,,,,,,,6839,,,265344,,,instructions,"[{""page_index"":0,""viewing_time"":1973},{""page_index"":1,""viewing_time"":500},{""page_index"":2,""viewing_time"":3710},{""page_index"":3,""viewing_time"":656}]",88
,,,,,,,,,73482,,,360946,,,instructions,"[{""page_index"":0,""viewing_time"":8432},{""page_index"":1,""viewing_time"":20482},{""page_index"":2,""viewing_time"":36341},{""page_index"":3,""viewing_time"":8227}]",88
,,,,,,,,,158854,,,158855,,,instructions,"[{""page_index"":0,""viewing_time"":50620},{""page_index"":1,""viewing_time"":2622},{""page_index"":0,""viewing_time"":9237},{""page_index"":1,""viewing_time"":52858},{""page_index"":2,""viewing_time"":43516}]",89
,,,,,,,,,113551,,,113554,,,instructions,"[{""page_index"":0,""viewing_time"":34413},{""page_index"":1,""viewing_time"":30913},{""page_index"":2,""viewing_time"":33099},{""page_index"":3,""viewing_time"":15125}]",90
,,,,,,,,,173387,,,173388,,,instructions,"[{""page_index"":0,""viewing_time"":65721},{""page_index"":1,""viewing_time"":67709},{""page_index"":2,""viewing_time"":39954}]",91
,,,,,,,,,1362410,,,1362411,,,instructions,"[{""page_index"":0,""viewing_time"":60316},{""page_index"":1,""viewing_time"":1235922},{""page_index"":2,""viewing_time"":35418},{""page_index"":3,""viewing_time"":30752}]",92
,,,,,,,,,106887,,,106888,,,instructions,"[{""page_index"":0,""viewing_time"":31278},{""page_index"":1,""viewing_time"":28935},{""page_index"":2,""viewing_time"":22915},{""page_index"":3,""viewing_time"":23758}]",93
,,,,,,,,,15307,,,145494,,,instructions,"[{""page_index"":0,""viewing_time"":2511},{""page_index"":1,""viewing_time"":1647},{""page_index"":2,""viewing_time"":9971},{""page_index"":3,""viewing_time"":1177}]",93
,,,,,,,,,149978,,,149979,,,instructions,"[{""page_index"":0,""viewing_time"":59085},{""page_index"":1,""viewing_time"":1630},{""page_index"":0,""viewing_time"":5767},{""page_index"":1,""viewing_time"":47823},{""page_index"":2,""viewing_time"":35672}]",94
,,,,,,,,,85519,,,290574,,,instructions,"[{""page_index"":0,""viewing_time"":52474},{""page_index"":1,""viewing_time"":13909},{""page_index"":2,""viewing_time"":19135}]",94
,,,,,,,,,51118,,,51118,,,instructions,"[{""page_index"":0,""viewing_time"":19828},{""page_index"":1,""viewing_time"":15230},{""page_index"":2,""viewing_time"":9121},{""page_index"":3,""viewing_time"":6939}]",95
,,,,,,,,,25045,,,102618,,,instructions,"[{""page_index"":0,""viewing_time"":7270},{""page_index"":1,""viewing_time"":1613},{""page_index"":0,""viewing_time"":1792},{""page_index"":1,""viewing_time"":568},{""page_index"":2,""viewing_time"":8450},{""page_index"":3,""viewing_time"":5351}]",95
,,,,,,,,,79341,,,197838,,,instructions,"[{""page_index"":0,""viewing_time"":3869},{""page_index"":1,""viewing_time"":15741},{""page_index"":2,""viewing_time"":53908},{""page_index"":3,""viewing_time"":5822}]",95
,,,,,,,,,12050,,,239378,,,instructions,"[{""page_index"":0,""viewing_time"":9164},{""page_index"":1,""viewing_time"":809},{""page_index"":2,""viewing_time"":1639},{""page_index"":3,""viewing_time"":437}]",95
,,,,,,,,,50731,,,50732,,,instructions,"[{""page_index"":0,""viewing_time"":13229},{""page_index"":1,""viewing_time"":15483},{""page_index"":2,""viewing_time"":17280},{""page_index"":3,""viewing_time"":4738}]",96
,,,,,,,,,54697,,,136677,,,instructions,"[{""page_index"":0,""viewing_time"":8986},{""page_index"":1,""viewing_time"":10289},{""page_index"":2,""viewing_time"":21908},{""page_index"":3,""viewing_time"":6899},{""page_index"":2,""viewing_time"":1771},{""page_index"":1,""viewing_time"":3752},{""page_index"":2,""viewing_time"":545},{""page_index"":3,""viewing_time"":546}]",96
,,,,,,,,,187566,,,187569,,,instructions,"[{""page_index"":0,""viewing_time"":117341},{""page_index"":1,""viewing_time"":43301},{""page_index"":2,""viewing_time"":26922}]",97
,,,,,,,,,44937,,,260272,,,instructions,"[{""page_index"":0,""viewing_time"":26708},{""page_index"":1,""viewing_time"":12876},{""page_index"":2,""viewing_time"":5351}]",97
,,,,,,,,,49496,,,330843,,,instructions,"[{""page_index"":0,""viewing_time"":16228},{""page_index"":1,""viewing_time"":24213},{""page_index"":2,""viewing_time"":9053}]",97
,,,,,,,,,4774,,,353335,,,instructions,"[{""page_index"":0,""viewing_time"":1806},{""page_index"":1,""viewing_time"":1385},{""page_index"":2,""viewing_time"":1582}]",97
,,,,,,,,,3962,,,369563,,,instructions,"[{""page_index"":0,""viewing_time"":2035},{""page_index"":1,""viewing_time"":1051},{""page_index"":2,""viewing_time"":875}]",97
,,,,,,,,,23263,,,402835,,,instructions,"[{""page_index"":0,""viewing_time"":8973},{""page_index"":1,""viewing_time"":9158},{""page_index"":2,""viewing_time"":5131}]",97
,,,,,,,,,88639,,,516087,,,instructions,"[{""page_index"":0,""viewing_time"":37997},{""page_index"":1,""viewing_time"":31762},{""page_index"":2,""viewing_time"":18879}]",97
,,,,,,,,,134799,,,134801,,,instructions,"[{""page_index"":0,""viewing_time"":37496},{""page_index"":1,""viewing_time"":34085},{""page_index"":2,""viewing_time"":41635},{""page_index"":3,""viewing_time"":21582}]",98
,,,,,,,,,83914,,,83915,,,instructions,"[{""page_index"":0,""viewing_time"":39230},{""page_index"":1,""viewing_time"":27855},{""page_index"":2,""viewing_time"":16827}]",99
,,,,,,,,,117973,,,117975,,,instructions,"[{""page_index"":0,""viewing_time"":44996},{""page_index"":1,""viewing_time"":42341},{""page_index"":2,""viewing_time"":30635}]",100
,,,,,,,,,112949,,,112950,,,instructions,"[{""page_index"":0,""viewing_time"":46597},{""page_index"":1,""viewing_time"":41910},{""page_index"":2,""viewing_time"":24442}]",101
,,,,,,,,,95191,,,95192,,,instructions,"[{""page_index"":0,""viewing_time"":20387},{""page_index"":1,""viewing_time"":25598},{""page_index"":2,""viewing_time"":32537},{""page_index"":3,""viewing_time"":16669}]",102
,,,,,,,,,147568,,,147569,,,instructions,"[{""page_index"":0,""viewing_time"":39435},{""page_index"":1,""viewing_time"":39880},{""page_index"":2,""viewing_time"":41787},{""page_index"":3,""viewing_time"":26464}]",103
,,,,,,,,,104856,,,104858,,,instructions,"[{""page_index"":0,""viewing_time"":53792},{""page_index"":1,""viewing_time"":19773},{""page_index"":0,""viewing_time"":4948},{""page_index"":1,""viewing_time"":3384},{""page_index"":0,""viewing_time"":5251},{""page_index"":1,""viewing_time"":7990},{""page_index"":2,""viewing_time"":9717}]",104
,,,,,,,,,259430,,,259430,,,instructions,"[{""page_index"":0,""viewing_time"":83244},{""page_index"":1,""viewing_time"":92720},{""page_index"":2,""viewing_time"":48064},{""page_index"":3,""viewing_time"":35401}]",105
,,,,,,,,,116087,,,116087,,,instructions,"[{""page_index"":0,""viewing_time"":42328},{""page_index"":1,""viewing_time"":54076},{""page_index"":2,""viewing_time"":11734},{""page_index"":3,""viewing_time"":7948}]",106
,,,,,,,,,119248,,,119250,,,instructions,"[{""page_index"":0,""viewing_time"":30226},{""page_index"":1,""viewing_time"":35488},{""page_index"":2,""viewing_time"":35470},{""page_index"":3,""viewing_time"":18064}]",107
,,,,,,,,,28646,,,189183,,,instructions,"[{""page_index"":0,""viewing_time"":7152},{""page_index"":1,""viewing_time"":3727},{""page_index"":2,""viewing_time"":15440},{""page_index"":3,""viewing_time"":2327}]",107
,,,,,,,,,73161,,,73162,,,instructions,"[{""page_index"":0,""viewing_time"":19158},{""page_index"":1,""viewing_time"":17497},{""page_index"":2,""viewing_time"":24157},{""page_index"":3,""viewing_time"":12349}]",108
,,,,,,,,,308258,,,308261,,,instructions,"[{""page_index"":0,""viewing_time"":65634},{""page_index"":1,""viewing_time"":67992},{""page_index"":0,""viewing_time"":17389},{""page_index"":1,""viewing_time"":11919},{""page_index"":0,""viewing_time"":5139},{""page_index"":1,""viewing_time"":8379},{""page_index"":0,""viewing_time"":5601},{""page_index"":1,""viewing_time"":15085},{""page_index"":2,""viewing_time"":75707},{""page_index"":3,""viewing_time"":35411}]",109
,,,,,,,,,102305,,,531160,,,instructions,"[{""page_index"":0,""viewing_time"":31831},{""page_index"":1,""viewing_time"":65873},{""page_index"":2,""viewing_time"":2389},{""page_index"":3,""viewing_time"":2210}]",109
,,,,,,,,,145973,,,145973,,,instructions,"[{""page_index"":0,""viewing_time"":124942},{""page_index"":1,""viewing_time"":13737},{""page_index"":2,""viewing_time"":7292}]",110
,,,,,,,,,12473,,,169484,,,instructions,"[{""page_index"":0,""viewing_time"":3191},{""page_index"":1,""viewing_time"":5781},{""page_index"":2,""viewing_time"":3500}]",110
,,,,,,,,,21199,,,200724,,,instructions,"[{""page_index"":0,""viewing_time"":6118},{""page_index"":1,""viewing_time"":8717},{""page_index"":0,""viewing_time"":3448},{""page_index"":1,""viewing_time"":866},{""page_index"":2,""viewing_time"":2050}]",110
,,,,,,,,,46844,,,46846,,,instructions,"[{""page_index"":0,""viewing_time"":18989},{""page_index"":1,""viewing_time"":11967},{""page_index"":2,""viewing_time"":10456},{""page_index"":3,""viewing_time"":5431}]",111
,,,,,,,,,3984,,,75133,,,instructions,"[{""page_index"":0,""viewing_time"":1727},{""page_index"":1,""viewing_time"":856},{""page_index"":2,""viewing_time"":664},{""page_index"":3,""viewing_time"":736}]",111
,,,,,,,,,20255,,,107692,,,instructions,"[{""page_index"":0,""viewing_time"":17703},{""page_index"":1,""viewing_time"":928},{""page_index"":2,""viewing_time"":816},{""page_index"":3,""viewing_time"":807}]",111
,,,,,,,,,24847,,,150771,,,instructions,"[{""page_index"":0,""viewing_time"":3910},{""page_index"":1,""viewing_time"":6368},{""page_index"":2,""viewing_time"":9952},{""page_index"":3,""viewing_time"":4616}]",111
,,,,,,,,,62998,,,226795,,,instructions,"[{""page_index"":0,""viewing_time"":46382},{""page_index"":1,""viewing_time"":9385},{""page_index"":2,""viewing_time"":5727},{""page_index"":3,""viewing_time"":1504}]",111
,,,,,,,,,78925,,,78927,,,instructions,"[{""page_index"":0,""viewing_time"":21340},{""page_index"":1,""viewing_time"":28336},{""page_index"":2,""viewing_time"":29248}]",112
,,,,,,,,,38068,,,138717,,,instructions,"[{""page_index"":0,""viewing_time"":16851},{""page_index"":1,""viewing_time"":13088},{""page_index"":2,""viewing_time"":8128}]",112
,,,,,,,,,174106,,,174109,,,instructions,"[{""page_index"":0,""viewing_time"":65096},{""page_index"":1,""viewing_time"":32048},{""page_index"":2,""viewing_time"":16840},{""page_index"":1,""viewing_time"":3287},{""page_index"":2,""viewing_time"":25920},{""page_index"":3,""viewing_time"":30914}]",113
,,,,,,,,,127485,,,127487,,,instructions,"[{""page_index"":0,""viewing_time"":32988},{""page_index"":1,""viewing_time"":38453},{""page_index"":2,""viewing_time"":44647},{""page_index"":3,""viewing_time"":11396}]",114
,,,,,,,,,5401,,,168056,,,instructions,"[{""page_index"":0,""viewing_time"":1970},{""page_index"":1,""viewing_time"":1496},{""page_index"":2,""viewing_time"":1448},{""page_index"":3,""viewing_time"":486}]",114
,,,,,,,,,148525,,,148526,,,instructions,"[{""page_index"":0,""viewing_time"":119804},{""page_index"":1,""viewing_time"":15775},{""page_index"":2,""viewing_time"":12944}]",115
,,,,,,,,,17604,,,194971,,,instructions,"[{""page_index"":0,""viewing_time"":5995},{""page_index"":1,""viewing_time"":10944},{""page_index"":2,""viewing_time"":664}]",115
,,,,,,,,,159695,,,159697,,,instructions,"[{""page_index"":0,""viewing_time"":46935},{""page_index"":1,""viewing_time"":28091},{""page_index"":2,""viewing_time"":33964},{""page_index"":3,""viewing_time"":27496},{""page_index"":2,""viewing_time"":1091},{""page_index"":1,""viewing_time"":14614},{""page_index"":2,""viewing_time"":3296},{""page_index"":3,""viewing_time"":4208}]",116
,,,,,,,,,256314,,,256317,,,instructions,"[{""page_index"":0,""viewing_time"":63403},{""page_index"":1,""viewing_time"":154879},{""page_index"":2,""viewing_time"":38029}]",117
,,,,,,,,,94891,,,94893,,,instructions,"[{""page_index"":0,""viewing_time"":38561},{""page_index"":1,""viewing_time"":34366},{""page_index"":2,""viewing_time"":21961}]",118
,,,,,,,,,91639,,,91641,,,instructions,"[{""page_index"":0,""viewing_time"":54214},{""page_index"":1,""viewing_time"":17354},{""page_index"":0,""viewing_time"":1397},{""page_index"":1,""viewing_time"":11587},{""page_index"":2,""viewing_time"":7087}]",119
,,,,,,,,,51116,,,182095,,,instructions,"[{""page_index"":0,""viewing_time"":10921},{""page_index"":1,""viewing_time"":11913},{""page_index"":2,""viewing_time"":21210},{""page_index"":1,""viewing_time"":6167},{""page_index"":2,""viewing_time"":905}]",119
,,,,,,,,,10614,,,212697,,,instructions,"[{""page_index"":0,""viewing_time"":9084},{""page_index"":1,""viewing_time"":797},{""page_index"":2,""viewing_time"":732}]",119
,,,,,,,,,2451,,,230388,,,instructions,"[{""page_index"":0,""viewing_time"":1777},{""page_index"":1,""viewing_time"":390},{""page_index"":2,""viewing_time"":284}]",119
,,,,,,,,,131932,,,131935,,,instructions,"[{""page_index"":0,""viewing_time"":49266},{""page_index"":1,""viewing_time"":48844},{""page_index"":2,""viewing_time"":33818}]",120
,,,,,,,,,42535,,,205946,,,instructions,"[{""page_index"":0,""viewing_time"":18414},{""page_index"":1,""viewing_time"":17179},{""page_index"":2,""viewing_time"":6939}]",120
,,,,,,,,,126692,,,126694,,,instructions,"[{""page_index"":0,""viewing_time"":72441},{""page_index"":1,""viewing_time"":32800},{""page_index"":2,""viewing_time"":21450}]",121
,,,,,,,,,111182,,,111182,,,instructions,"[{""page_index"":0,""viewing_time"":31278},{""page_index"":1,""viewing_time"":38744},{""page_index"":2,""viewing_time"":33200},{""page_index"":1,""viewing_time"":6728},{""page_index"":2,""viewing_time"":1231}]",122
,,,,,,,,,173683,,,173683,,,instructions,"[{""page_index"":0,""viewing_time"":65189},{""page_index"":1,""viewing_time"":31680},{""page_index"":2,""viewing_time"":36346},{""page_index"":3,""viewing_time"":40467}]",123
,,,,,,,,,326915,,,326915,,,instructions,"[{""page_index"":0,""viewing_time"":85043},{""page_index"":1,""viewing_time"":35583},{""page_index"":2,""viewing_time"":135648},{""page_index"":3,""viewing_time"":70640}]",124
,,,,,,,,,82480,,,82480,,,instructions,"[{""page_index"":0,""viewing_time"":40767},{""page_index"":1,""viewing_time"":25176},{""page_index"":2,""viewing_time"":16536}]",125
,,,,,,,,,48191,,,157666,,,instructions,"[{""page_index"":0,""viewing_time"":27231},{""page_index"":1,""viewing_time"":14536},{""page_index"":2,""viewing_time"":6424}]",125
,,,,,,,,,84066,,,84067,,,instructions,"[{""page_index"":0,""viewing_time"":18938},{""page_index"":1,""viewing_time"":24056},{""page_index"":2,""viewing_time"":26432},{""page_index"":3,""viewing_time"":14640}]",126
,,,,,,,,,58232,,,173756,,,instructions,"[{""page_index"":0,""viewing_time"":6878},{""page_index"":1,""viewing_time"":21961},{""page_index"":2,""viewing_time"":19065},{""page_index"":3,""viewing_time"":10328}]",126
,,,,,,,,,4039,,,215135,,,instructions,"[{""page_index"":0,""viewing_time"":1103},{""page_index"":1,""viewing_time"":936},{""page_index"":2,""viewing_time"":1272},{""page_index"":3,""viewing_time"":728}]",126
,,,,,,,,,3167,,,231319,,,instructions,"[{""page_index"":0,""viewing_time"":871},{""page_index"":1,""viewing_time"":623},{""page_index"":2,""viewing_time"":953},{""page_index"":3,""viewing_time"":720}]",126
,,,,,,,,,28303,,,285738,,,instructions,"[{""page_index"":0,""viewing_time"":4527},{""page_index"":1,""viewing_time"":11048},{""page_index"":2,""viewing_time"":11983},{""page_index"":3,""viewing_time"":745}]",126
,,,,,,,,,275874,,,275875,,,instructions,"[{""page_index"":0,""viewing_time"":52887},{""page_index"":1,""viewing_time"":47078},{""page_index"":2,""viewing_time"":105061},{""page_index"":1,""viewing_time"":11512},{""page_index"":0,""viewing_time"":7880},{""page_index"":1,""viewing_time"":20952},{""page_index"":2,""viewing_time"":1370},{""page_index"":3,""viewing_time"":4560},{""page_index"":2,""viewing_time"":1105},{""page_index"":3,""viewing_time"":23454}]",127
,,,,,,,,,49578,,,374857,,,instructions,"[{""page_index"":0,""viewing_time"":8972},{""page_index"":1,""viewing_time"":10700},{""page_index"":0,""viewing_time"":9707},{""page_index"":1,""viewing_time"":9291},{""page_index"":2,""viewing_time"":9778},{""page_index"":3,""viewing_time"":1130}]",127
,,,,,,,,,182937,,,182939,,,instructions,"[{""page_index"":0,""viewing_time"":65054},{""page_index"":1,""viewing_time"":43709},{""page_index"":2,""viewing_time"":44112},{""page_index"":3,""viewing_time"":30062}]",128
,,,,,,,,,22161,,,289054,,,instructions,"[{""page_index"":0,""viewing_time"":6959},{""page_index"":1,""viewing_time"":4310},{""page_index"":2,""viewing_time"":9376},{""page_index"":3,""viewing_time"":1516}]",128
,,,,,,,,,103199,,,103200,,,instructions,"[{""page_index"":0,""viewing_time"":46442},{""page_index"":1,""viewing_time"":36573},{""page_index"":2,""viewing_time"":20183}]",129
,,,,,,,,,119341,,,119341,,,instructions,"[{""page_index"":0,""viewing_time"":70495},{""page_index"":1,""viewing_time"":1079},{""page_index"":0,""viewing_time"":1985},{""page_index"":1,""viewing_time"":14688},{""page_index"":2,""viewing_time"":3044},{""page_index"":1,""viewing_time"":5580},{""page_index"":2,""viewing_time"":7074},{""page_index"":3,""viewing_time"":15395}]",130
,,,,,,,,,2767,,,176397,,,instructions,"[{""page_index"":0,""viewing_time"":1531},{""page_index"":1,""viewing_time"":492},{""page_index"":2,""viewing_time"":253},{""page_index"":3,""viewing_time"":489}]",130
,,,,,,,,,20019,,,212601,,,instructions,"[{""page_index"":0,""viewing_time"":1760},{""page_index"":1,""viewing_time"":3843},{""page_index"":2,""viewing_time"":7346},{""page_index"":3,""viewing_time"":7069}]",130
,,,,,,,,,2929,,,233200,,,instructions,"[{""page_index"":0,""viewing_time"":1428},{""page_index"":1,""viewing_time"":644},{""page_index"":2,""viewing_time"":345},{""page_index"":3,""viewing_time"":511}]",130
,,,,,,,,,4258,,,250014,,,instructions,"[{""page_index"":0,""viewing_time"":1442},{""page_index"":1,""viewing_time"":1015},{""page_index"":2,""viewing_time"":932},{""page_index"":3,""viewing_time"":868}]",130
,,,,,,,,,2043,,,260685,,,instructions,"[{""page_index"":0,""viewing_time"":949},{""page_index"":1,""viewing_time"":453},{""page_index"":2,""viewing_time"":290},{""page_index"":3,""viewing_time"":351}]",130
,,,,,,,,,47270,,,47271,,,instructions,"[{""page_index"":0,""viewing_time"":32937},{""page_index"":1,""viewing_time"":7794},{""page_index"":2,""viewing_time"":6537}]",131
,,,,,,,,,40328,,,112981,,,instructions,"[{""page_index"":0,""viewing_time"":4530},{""page_index"":1,""viewing_time"":21590},{""page_index"":2,""viewing_time"":14207}]",131
,,,,,,,,,105600,,,105601,,,instructions,"[{""page_index"":0,""viewing_time"":46481},{""page_index"":1,""viewing_time"":33430},{""page_index"":2,""viewing_time"":25688}]",132
,,,,,,,,,51164,,,183888,,,instructions,"[{""page_index"":0,""viewing_time"":21736},{""page_index"":1,""viewing_time"":19403},{""page_index"":2,""viewing_time"":10025}]",132
,,,,,,,,,203501,,,203504,,,instructions,"[{""page_index"":0,""viewing_time"":44499},{""page_index"":1,""viewing_time"":32015},{""page_index"":2,""viewing_time"":27072},{""page_index"":3,""viewing_time"":44594},{""page_index"":2,""viewing_time"":14376},{""page_index"":1,""viewing_time"":37047},{""page_index"":2,""viewing_time"":1320},{""page_index"":3,""viewing_time"":2576}]",133
,,,,,,,,,147558,,,492356,,,instructions,"[{""page_index"":0,""viewing_time"":116917},{""page_index"":1,""viewing_time"":6312},{""page_index"":2,""viewing_time"":22615},{""page_index"":3,""viewing_time"":1712}]",133
,,,,,,,,,18515,,,550405,,,instructions,"[{""page_index"":0,""viewing_time"":2689},{""page_index"":1,""viewing_time"":1009},{""page_index"":2,""viewing_time"":4656},{""page_index"":3,""viewing_time"":10160}]",133
,,,,,,,,,133049,,,133050,,,instructions,"[{""page_index"":0,""viewing_time"":25505},{""page_index"":1,""viewing_time"":16639},{""page_index"":2,""viewing_time"":24287},{""page_index"":3,""viewing_time"":66616}]",134
,,,,,,,,,99556,,,99558,,,instructions,"[{""page_index"":0,""viewing_time"":25551},{""page_index"":1,""viewing_time"":33099},{""page_index"":2,""viewing_time"":24704},{""page_index"":3,""viewing_time"":16200}]",135
,,,,,,,,,241404,,,241405,,,instructions,"[{""page_index"":0,""viewing_time"":67724},{""page_index"":1,""viewing_time"":115510},{""page_index"":2,""viewing_time"":28305},{""page_index"":3,""viewing_time"":29864}]",136
,,,,,,,,,43399,,,43401,,,instructions,"[{""page_index"":0,""viewing_time"":10721},{""page_index"":1,""viewing_time"":24466},{""page_index"":2,""viewing_time"":8211}]",137
,,,,,,,,,89018,,,89019,,,instructions,"[{""page_index"":0,""viewing_time"":20419},{""page_index"":1,""viewing_time"":47595},{""page_index"":2,""viewing_time"":21004}]",138
,,,,,,,,,630044,,,630045,,,instructions,"[{""page_index"":0,""viewing_time"":580208},{""page_index"":1,""viewing_time"":26648},{""page_index"":2,""viewing_time"":10374},{""page_index"":3,""viewing_time"":12814}]",139
,,,,,,,,,61912,,,61914,,,instructions,"[{""page_index"":0,""viewing_time"":26764},{""page_index"":1,""viewing_time"":23091},{""page_index"":2,""viewing_time"":7827},{""page_index"":3,""viewing_time"":4230}]",140
,,,,,,,,,35400,,,120775,,,instructions,"[{""page_index"":0,""viewing_time"":4521},{""page_index"":1,""viewing_time"":3912},{""page_index"":2,""viewing_time"":13865},{""page_index"":3,""viewing_time"":13101}]",140
,,,,,,,,,108513,,,108515,,,instructions,"[{""page_index"":0,""viewing_time"":36015},{""page_index"":1,""viewing_time"":33355},{""page_index"":0,""viewing_time"":8324},{""page_index"":1,""viewing_time"":11815},{""page_index"":2,""viewing_time"":19002}]",141
,,,,,,,,,180375,,,180376,,,instructions,"[{""page_index"":0,""viewing_time"":36930},{""page_index"":1,""viewing_time"":50115},{""page_index"":2,""viewing_time"":34308},{""page_index"":3,""viewing_time"":23332},{""page_index"":2,""viewing_time"":1213},{""page_index"":1,""viewing_time"":21842},{""page_index"":2,""viewing_time"":9147},{""page_index"":3,""viewing_time"":3486}]",142
,,,,,,,,,130954,,,130956,,,instructions,"[{""page_index"":0,""viewing_time"":45613},{""page_index"":1,""viewing_time"":29786},{""page_index"":2,""viewing_time"":27645},{""page_index"":3,""viewing_time"":27908}]",143
,,,,,,,,,104855,,,285039,,,instructions,"[{""page_index"":0,""viewing_time"":23346},{""page_index"":1,""viewing_time"":37470},{""page_index"":2,""viewing_time"":26521},{""page_index"":3,""viewing_time"":17517}]",143
,,,,,,,,,10707,,,327397,,,instructions,"[{""page_index"":0,""viewing_time"":4967},{""page_index"":1,""viewing_time"":1645},{""page_index"":2,""viewing_time"":2676},{""page_index"":3,""viewing_time"":1418}]",143
,,,,,,,,,194803,,,194805,,,instructions,"[{""page_index"":0,""viewing_time"":55834},{""page_index"":1,""viewing_time"":65335},{""page_index"":2,""viewing_time"":36057},{""page_index"":3,""viewing_time"":37575}]",144
,,,,,,,,,160615,,,160616,,,instructions,"[{""page_index"":0,""viewing_time"":49260},{""page_index"":1,""viewing_time"":16175},{""page_index"":2,""viewing_time"":74285},{""page_index"":3,""viewing_time"":20894}]",145
,,,,,,,,,81829,,,295873,,,instructions,"[{""page_index"":0,""viewing_time"":21193},{""page_index"":1,""viewing_time"":31673},{""page_index"":2,""viewing_time"":24763},{""page_index"":3,""viewing_time"":4200}]",145
,,,,,,,,,41698,,,364542,,,instructions,"[{""page_index"":0,""viewing_time"":27728},{""page_index"":1,""viewing_time"":3224},{""page_index"":2,""viewing_time"":8100},{""page_index"":3,""viewing_time"":2646}]",145
,,,,,,,,,52578,,,434194,,,instructions,"[{""page_index"":0,""viewing_time"":5633},{""page_index"":1,""viewing_time"":2966},{""page_index"":2,""viewing_time"":5121},{""page_index"":1,""viewing_time"":13149},{""page_index"":2,""viewing_time"":20472},{""page_index"":3,""viewing_time"":5236}]",145
,,,,,,,,,13093,,,469933,,,instructions,"[{""page_index"":0,""viewing_time"":6053},{""page_index"":1,""viewing_time"":3114},{""page_index"":2,""viewing_time"":2832},{""page_index"":3,""viewing_time"":1094}]",145
,,,,,,,,,5241,,,489921,,,instructions,"[{""page_index"":0,""viewing_time"":1790},{""page_index"":1,""viewing_time"":781},{""page_index"":2,""viewing_time"":1726},{""page_index"":3,""viewing_time"":944}]",145
,,,,,,,,,20056,,,20057,,,instructions,"[{""page_index"":0,""viewing_time"":10316},{""page_index"":1,""viewing_time"":8501},{""page_index"":2,""viewing_time"":1238}]",146
,,,,,,,,,76927,,,121444,,,instructions,"[{""page_index"":0,""viewing_time"":29233},{""page_index"":1,""viewing_time"":18523},{""page_index"":2,""viewing_time"":29170}]",146
,,,,,,,,,17294,,,17297,,,instructions,"[{""page_index"":0,""viewing_time"":7127},{""page_index"":1,""viewing_time"":4168},{""page_index"":2,""viewing_time"":5995}]",147
,,,,,,,,,25317,,,64944,,,instructions,"[{""page_index"":0,""viewing_time"":9121},{""page_index"":1,""viewing_time"":8372},{""page_index"":2,""viewing_time"":7822}]",147
,,,,,,,,,5248,,,89137,,,instructions,"[{""page_index"":0,""viewing_time"":2456},{""page_index"":1,""viewing_time"":1964},{""page_index"":2,""viewing_time"":827}]",147
,,,,,,,,,26500,,,127185,,,instructions,"[{""page_index"":0,""viewing_time"":18404},{""page_index"":1,""viewing_time"":7034},{""page_index"":2,""viewing_time"":1061}]",147
,,,,,,,,,24204,,,183208,,,instructions,"[{""page_index"":0,""viewing_time"":9004},{""page_index"":1,""viewing_time"":8410},{""page_index"":2,""viewing_time"":6789}]",147
,,,,,,,,,77611,,,77611,,,instructions,"[{""page_index"":0,""viewing_time"":24203},{""page_index"":1,""viewing_time"":32025},{""page_index"":2,""viewing_time"":21382}]",148
,,,,,,,,,84476,,,187334,,,instructions,"[{""page_index"":0,""viewing_time"":33072},{""page_index"":1,""viewing_time"":27712},{""page_index"":0,""viewing_time"":14798},{""page_index"":1,""viewing_time"":1806},{""page_index"":2,""viewing_time"":7088}]",148
,,,,,,,,,99252,,,314787,,,instructions,"[{""page_index"":0,""viewing_time"":51215},{""page_index"":1,""viewing_time"":30126},{""page_index"":2,""viewing_time"":17911}]",148
,,,,,,,,,22164,,,22164,,,instructions,"[{""page_index"":0,""viewing_time"":7766},{""page_index"":1,""viewing_time"":2753},{""page_index"":2,""viewing_time"":3230},{""page_index"":3,""viewing_time"":8415}]",149
,,,,,,,,,50721,,,146171,,,instructions,"[{""page_index"":0,""viewing_time"":16179},{""page_index"":1,""viewing_time"":12838},{""page_index"":2,""viewing_time"":14968},{""page_index"":3,""viewing_time"":6736}]",149
,,,,,,,,,213936,,,213939,,,instructions,"[{""page_index"":0,""viewing_time"":48466},{""page_index"":1,""viewing_time"":103784},{""page_index"":2,""viewing_time"":31049},{""page_index"":3,""viewing_time"":30635}]",150
,,,,,,,,,73883,,,73884,,,instructions,"[{""page_index"":0,""viewing_time"":35451},{""page_index"":1,""viewing_time"":24825},{""page_index"":2,""viewing_time"":13606}]",151
,,,,,,,,,125758,,,125760,,,instructions,"[{""page_index"":0,""viewing_time"":68985},{""page_index"":1,""viewing_time"":45061},{""page_index"":2,""viewing_time"":11710}]",152
,,,,,,,,,155691,,,155693,,,instructions,"[{""page_index"":0,""viewing_time"":39451},{""page_index"":1,""viewing_time"":40768},{""page_index"":2,""viewing_time"":50379},{""page_index"":3,""viewing_time"":25090}]",153
,,,,,,,,,72597,,,269320,,,instructions,"[{""page_index"":0,""viewing_time"":37656},{""page_index"":1,""viewing_time"":10106},{""page_index"":2,""viewing_time"":9670},{""page_index"":3,""viewing_time"":15164}]",153
,,,,,,,,,79595,,,386525,,,instructions,"[{""page_index"":0,""viewing_time"":21011},{""page_index"":1,""viewing_time"":11535},{""page_index"":2,""viewing_time"":29978},{""page_index"":3,""viewing_time"":17069}]",153
,,,,,,,,,23826,,,441433,,,instructions,"[{""page_index"":0,""viewing_time"":2361},{""page_index"":1,""viewing_time"":2095},{""page_index"":2,""viewing_time"":13497},{""page_index"":3,""viewing_time"":5872}]",153
,,,,,,,,,149577,,,149578,,,instructions,"[{""page_index"":0,""viewing_time"":43626},{""page_index"":1,""viewing_time"":67125},{""page_index"":2,""viewing_time"":38826}]",154
,,,,,,,,,19190,,,226970,,,instructions,"[{""page_index"":0,""viewing_time"":10777},{""page_index"":1,""viewing_time"":7287},{""page_index"":2,""viewing_time"":1125}]",154
,,,,,,,,,49996,,,303226,,,instructions,"[{""page_index"":0,""viewing_time"":6974},{""page_index"":1,""viewing_time"":36596},{""page_index"":2,""viewing_time"":6426}]",154
,,,,,,,,,4900,,,343162,,,instructions,"[{""page_index"":0,""viewing_time"":2298},{""page_index"":1,""viewing_time"":1677},{""page_index"":2,""viewing_time"":925}]",154
,,,,,,,,,43579,,,401876,,,instructions,"[{""page_index"":0,""viewing_time"":19075},{""page_index"":1,""viewing_time"":7843},{""page_index"":2,""viewing_time"":16661}]",154
,,,,,,,,,42950,,,465971,,,instructions,"[{""page_index"":0,""viewing_time"":25544},{""page_index"":1,""viewing_time"":16458},{""page_index"":2,""viewing_time"":948}]",154
,,,,,,,,,143831,,,143831,,,instructions,"[{""page_index"":0,""viewing_time"":44000},{""page_index"":1,""viewing_time"":44232},{""page_index"":2,""viewing_time"":48176},{""page_index"":3,""viewing_time"":7422}]",155
,,,,,,,,,120827,,,120828,,,instructions,"[{""page_index"":0,""viewing_time"":43480},{""page_index"":1,""viewing_time"":50329},{""page_index"":2,""viewing_time"":27018}]",156
,,,,,,,,,52894,,,203890,,,instructions,"[{""page_index"":0,""viewing_time"":21756},{""page_index"":1,""viewing_time"":24314},{""page_index"":2,""viewing_time"":6823}]",156
,,,,,,,,,170545,,,170547,,,instructions,"[{""page_index"":0,""viewing_time"":69233},{""page_index"":1,""viewing_time"":59458},{""page_index"":2,""viewing_time"":20989},{""page_index"":3,""viewing_time"":20864}]",157
,,,,,,,,,78536,,,78537,,,instructions,"[{""page_index"":0,""viewing_time"":16051},{""page_index"":1,""viewing_time"":22163},{""page_index"":2,""viewing_time"":30512},{""page_index"":3,""viewing_time"":9810}]",158
,,,,,,,,,73892,,,202190,,,instructions,"[{""page_index"":0,""viewing_time"":35276},{""page_index"":1,""viewing_time"":28370},{""page_index"":2,""viewing_time"":8478},{""page_index"":3,""viewing_time"":1768}]",158
,,,,,,,,,66617,,,66618,,,instructions,"[{""page_index"":0,""viewing_time"":23148},{""page_index"":1,""viewing_time"":34951},{""page_index"":2,""viewing_time"":8518}]",159
,,,,,,,,,43338,,,138708,,,instructions,"[{""page_index"":0,""viewing_time"":10737},{""page_index"":1,""viewing_time"":14936},{""page_index"":2,""viewing_time"":17664}]",159
,,,,,,,,,18172,,,177818,,,instructions,"[{""page_index"":0,""viewing_time"":11144},{""page_index"":1,""viewing_time"":791},{""page_index"":2,""viewing_time"":6236}]",159
,,,,,,,,,78596,,,78597,,,instructions,"[{""page_index"":0,""viewing_time"":31737},{""page_index"":1,""viewing_time"":15784},{""page_index"":2,""viewing_time"":18187},{""page_index"":3,""viewing_time"":12888}]",160
,,,,,,,,,290484,,,290484,,,instructions,"[{""page_index"":0,""viewing_time"":87320},{""page_index"":1,""viewing_time"":79166},{""page_index"":2,""viewing_time"":63766},{""page_index"":3,""viewing_time"":60231}]",161
,,,,,,,,,727263,,,727267,,,instructions,"[{""page_index"":0,""viewing_time"":637600},{""page_index"":1,""viewing_time"":27276},{""page_index"":2,""viewing_time"":20390},{""page_index"":1,""viewing_time"":32454},{""page_index"":2,""viewing_time"":9542}]",162
,,,,,,,,,81106,,,81107,,,instructions,"[{""page_index"":0,""viewing_time"":20675},{""page_index"":1,""viewing_time"":26910},{""page_index"":2,""viewing_time"":18801},{""page_index"":3,""viewing_time"":14719}]",163
,,,,,,,,,29317,,,134450,,,instructions,"[{""page_index"":0,""viewing_time"":4357},{""page_index"":1,""viewing_time"":14304},{""page_index"":2,""viewing_time"":8439},{""page_index"":3,""viewing_time"":2216}]",163
,,,,,,,,,171938,,,171940,,,instructions,"[{""page_index"":0,""viewing_time"":32321},{""page_index"":1,""viewing_time"":69093},{""page_index"":2,""viewing_time"":31422},{""page_index"":3,""viewing_time"":39100}]",164
,,,,,,,,,126497,,,126499,,,instructions,"[{""page_index"":0,""viewing_time"":41313},{""page_index"":1,""viewing_time"":32498},{""page_index"":2,""viewing_time"":29990},{""page_index"":3,""viewing_time"":22696}]",165
,,,,,,,,,10828,,,176559,,,instructions,"[{""page_index"":0,""viewing_time"":6216},{""page_index"":1,""viewing_time"":2487},{""page_index"":2,""viewing_time"":959},{""page_index"":3,""viewing_time"":1166}]",165
,,,,,,,,,70916,,,70916,,,instructions,"[{""page_index"":0,""viewing_time"":21283},{""page_index"":1,""viewing_time"":20542},{""page_index"":2,""viewing_time"":8813},{""page_index"":3,""viewing_time"":20277}]",166
,,,,,,,,,29292,,,122279,,,instructions,"[{""page_index"":0,""viewing_time"":2457},{""page_index"":1,""viewing_time"":3122},{""page_index"":2,""viewing_time"":22504},{""page_index"":3,""viewing_time"":1208}]",166
,,,,,,,,,19058,,,19059,,,instructions,"[{""page_index"":0,""viewing_time"":2244},{""page_index"":1,""viewing_time"":1595},{""page_index"":2,""viewing_time"":5638},{""page_index"":1,""viewing_time"":2824},{""page_index"":2,""viewing_time"":1728},{""page_index"":3,""viewing_time"":5029}]",167
,,,,,,,,,34438,,,88996,,,instructions,"[{""page_index"":0,""viewing_time"":11503},{""page_index"":1,""viewing_time"":6924},{""page_index"":2,""viewing_time"":13852},{""page_index"":3,""viewing_time"":2158}]",167
,,,,,,,,,9182,,,117932,,,instructions,"[{""page_index"":0,""viewing_time"":1235},{""page_index"":1,""viewing_time"":595},{""page_index"":2,""viewing_time"":1392},{""page_index"":3,""viewing_time"":5960}]",167
,,,,,,,,,76330,,,76333,,,instructions,"[{""page_index"":0,""viewing_time"":22328},{""page_index"":1,""viewing_time"":8898},{""page_index"":2,""viewing_time"":45101}]",168
,,,,,,,,,22049,,,127341,,,instructions,"[{""page_index"":0,""viewing_time"":2478},{""page_index"":1,""viewing_time"":14464},{""page_index"":2,""viewing_time"":5105}]",168
,,,,,,,,,107605,,,107608,,,instructions,"[{""page_index"":0,""viewing_time"":58861},{""page_index"":1,""viewing_time"":31087},{""page_index"":2,""viewing_time"":17653}]",169
,,,,,,,,,207104,,,207104,,,instructions,"[{""page_index"":0,""viewing_time"":62323},{""page_index"":1,""viewing_time"":58551},{""page_index"":0,""viewing_time"":7014},{""page_index"":1,""viewing_time"":3761},{""page_index"":2,""viewing_time"":38118},{""page_index"":3,""viewing_time"":37336}]",170
,,,,,,,,,118636,,,118637,,,instructions,"[{""page_index"":0,""viewing_time"":28615},{""page_index"":1,""viewing_time"":58366},{""page_index"":2,""viewing_time"":14983},{""page_index"":3,""viewing_time"":16671}]",171
,,,,,,,,,25529,,,167978,,,instructions,"[{""page_index"":0,""viewing_time"":5034},{""page_index"":1,""viewing_time"":3520},{""page_index"":2,""viewing_time"":11735},{""page_index"":3,""viewing_time"":5240}]",171
,,,,,,,,,195864,,,195867,,,instructions,"[{""page_index"":0,""viewing_time"":104742},{""page_index"":1,""viewing_time"":41900},{""page_index"":2,""viewing_time"":49217}]",172
,,,,,,,,,195471,,,195473,,,instructions,"[{""page_index"":0,""viewing_time"":107113},{""page_index"":1,""viewing_time"":66834},{""page_index"":2,""viewing_time"":21522}]",173
,,,,,,,,,153841,,,153842,,,instructions,"[{""page_index"":0,""viewing_time"":54822},{""page_index"":1,""viewing_time"":47530},{""page_index"":2,""viewing_time"":27439},{""page_index"":3,""viewing_time"":24050}]",174
,,,,,,,,,73686,,,279386,,,instructions,"[{""page_index"":0,""viewing_time"":16579},{""page_index"":1,""viewing_time"":19722},{""page_index"":2,""viewing_time"":27208},{""page_index"":3,""viewing_time"":10177}]",174
,,,,,,,,,449820,,,449824,,,instructions,"[{""page_index"":0,""viewing_time"":76585},{""page_index"":1,""viewing_time"":76233},{""page_index"":2,""viewing_time"":251229},{""page_index"":3,""viewing_time"":45771}]",175
,,,,,,,,,112841,,,112845,,,instructions,"[{""page_index"":0,""viewing_time"":44320},{""page_index"":1,""viewing_time"":25451},{""page_index"":2,""viewing_time"":23126},{""page_index"":3,""viewing_time"":19942}]",176
,,,,,,,,,16022,,,173812,,,instructions,"[{""page_index"":0,""viewing_time"":3629},{""page_index"":1,""viewing_time"":4104},{""page_index"":2,""viewing_time"":7416},{""page_index"":3,""viewing_time"":871}]",176
,,,,,,,,,25498,,,215347,,,instructions,"[{""page_index"":0,""viewing_time"":1730},{""page_index"":1,""viewing_time"":20042},{""page_index"":2,""viewing_time"":3221},{""page_index"":3,""viewing_time"":503}]",176
,,,,,,,,,82619,,,82623,,,instructions,"[{""page_index"":0,""viewing_time"":34755},{""page_index"":1,""viewing_time"":32131},{""page_index"":2,""viewing_time"":15730}]",177
,,,,,,,,,180979,,,180981,,,instructions,"[{""page_index"":0,""viewing_time"":58161},{""page_index"":1,""viewing_time"":15624},{""page_index"":0,""viewing_time"":6299},{""page_index"":1,""viewing_time"":39976},{""page_index"":2,""viewing_time"":33851},{""page_index"":3,""viewing_time"":27068}]",178
,,,,,,,,,64787,,,270317,,,instructions,"[{""page_index"":0,""viewing_time"":12069},{""page_index"":1,""viewing_time"":21567},{""page_index"":2,""viewing_time"":20463},{""page_index"":3,""viewing_time"":10688}]",178
,,,,,,,,,91925,,,91926,,,instructions,"[{""page_index"":0,""viewing_time"":41852},{""page_index"":1,""viewing_time"":45327},{""page_index"":2,""viewing_time"":4745}]",179
,,,,,,,,,92090,,,225232,,,instructions,"[{""page_index"":0,""viewing_time"":22072},{""page_index"":1,""viewing_time"":31007},{""page_index"":2,""viewing_time"":39011}]",179
,,,,,,,,,66317,,,66319,,,instructions,"[{""page_index"":0,""viewing_time"":40620},{""page_index"":1,""viewing_time"":18045},{""page_index"":2,""viewing_time"":7651}]",180
,,,,,,,,,23456,,,118225,,,instructions,"[{""page_index"":0,""viewing_time"":9505},{""page_index"":1,""viewing_time"":10552},{""page_index"":2,""viewing_time"":3398}]",180
,,,,,,,,,128221,,,128223,,,instructions,"[{""page_index"":0,""viewing_time"":35623},{""page_index"":1,""viewing_time"":58233},{""page_index"":2,""viewing_time"":34364}]",181
,,,,,,,,,164832,,,164833,,,instructions,"[{""page_index"":0,""viewing_time"":46691},{""page_index"":1,""viewing_time"":40120},{""page_index"":2,""viewing_time"":46324},{""page_index"":3,""viewing_time"":31696}]",182
,,,,,,,,,25545,,,235004,,,instructions,"[{""page_index"":0,""viewing_time"":6543},{""page_index"":1,""viewing_time"":2106},{""page_index"":0,""viewing_time"":4664},{""page_index"":1,""viewing_time"":1050},{""page_index"":2,""viewing_time"":7479},{""page_index"":3,""viewing_time"":3703}]",182
,,,,,,,,,36980,,,287047,,,instructions,"[{""page_index"":0,""viewing_time"":10611},{""page_index"":1,""viewing_time"":6795},{""page_index"":2,""viewing_time"":14513},{""page_index"":3,""viewing_time"":5060}]",182
,,,,,,,,,130274,,,130275,,,instructions,"[{""page_index"":0,""viewing_time"":28002},{""page_index"":1,""viewing_time"":12722},{""page_index"":0,""viewing_time"":7542},{""page_index"":1,""viewing_time"":8693},{""page_index"":0,""viewing_time"":6043},{""page_index"":1,""viewing_time"":21582},{""page_index"":0,""viewing_time"":2010},{""page_index"":1,""viewing_time"":12340},{""page_index"":0,""viewing_time"":1748},{""page_index"":1,""viewing_time"":25189},{""page_index"":0,""viewing_time"":2243},{""page_index"":1,""viewing_time"":1208},{""page_index"":2,""viewing_time"":952}]",183
,,,,,,,,,51271,,,205258,,,instructions,"[{""page_index"":0,""viewing_time"":27630},{""page_index"":1,""viewing_time"":12312},{""page_index"":2,""viewing_time"":11328}]",183
,,,,,,,,,54097,,,275155,,,instructions,"[{""page_index"":0,""viewing_time"":14359},{""page_index"":1,""viewing_time"":23769},{""page_index"":2,""viewing_time"":15968}]",183
,,,,,,,,,45584,,,338027,,,instructions,"[{""page_index"":0,""viewing_time"":20095},{""page_index"":1,""viewing_time"":6896},{""page_index"":2,""viewing_time"":18593}]",183
,,,,,,,,,56638,,,416338,,,instructions,"[{""page_index"":0,""viewing_time"":17470},{""page_index"":1,""viewing_time"":29056},{""page_index"":2,""viewing_time"":10111}]",183
,,,,,,,,,152711,,,152712,,,instructions,"[{""page_index"":0,""viewing_time"":60956},{""page_index"":1,""viewing_time"":66881},{""page_index"":2,""viewing_time"":24870}]",184
,,,,,,,,,112545,,,112545,,,instructions,"[{""page_index"":0,""viewing_time"":46497},{""page_index"":1,""viewing_time"":23119},{""page_index"":2,""viewing_time"":10009},{""page_index"":3,""viewing_time"":32919}]",185
,,,,,,,,,13017,,,13017,,,instructions,"[{""page_index"":0,""viewing_time"":4035},{""page_index"":1,""viewing_time"":2619},{""page_index"":2,""viewing_time"":2916},{""page_index"":3,""viewing_time"":3446}]",186
,,,,,,,,,19967,,,55245,,,instructions,"[{""page_index"":0,""viewing_time"":6000},{""page_index"":1,""viewing_time"":5867},{""page_index"":2,""viewing_time"":3685},{""page_index"":3,""viewing_time"":4414}]",186
,,,,,,,,,130042,,,130043,,,instructions,"[{""page_index"":0,""viewing_time"":35044},{""page_index"":1,""viewing_time"":36644},{""page_index"":0,""viewing_time"":15811},{""page_index"":1,""viewing_time"":15824},{""page_index"":2,""viewing_time"":26719}]",187
,,,,,,,,,29797,,,186844,,,instructions,"[{""page_index"":0,""viewing_time"":11482},{""page_index"":1,""viewing_time"":8914},{""page_index"":2,""viewing_time"":9400}]",187
,,,,,,,,,118323,,,118324,,,instructions,"[{""page_index"":0,""viewing_time"":37807},{""page_index"":1,""viewing_time"":41833},{""page_index"":2,""viewing_time"":21217},{""page_index"":3,""viewing_time"":17466}]",188
,,,,,,,,,209696,,,209697,,,instructions,"[{""page_index"":0,""viewing_time"":90033},{""page_index"":1,""viewing_time"":61008},{""page_index"":0,""viewing_time"":3856},{""page_index"":1,""viewing_time"":16224},{""page_index"":2,""viewing_time"":38575}]",189
,,,,,,,,,237904,,,237906,,,instructions,"[{""page_index"":0,""viewing_time"":99399},{""page_index"":1,""viewing_time"":64248},{""page_index"":2,""viewing_time"":26577},{""page_index"":3,""viewing_time"":47679}]",190
,,,,,,,,,91596,,,374155,,,instructions,"[{""page_index"":0,""viewing_time"":21510},{""page_index"":1,""viewing_time"":28162},{""page_index"":0,""viewing_time"":7818},{""page_index"":1,""viewing_time"":799},{""page_index"":0,""viewing_time"":3563},{""page_index"":1,""viewing_time"":1099},{""page_index"":0,""viewing_time"":2721},{""page_index"":1,""viewing_time"":1546},{""page_index"":2,""viewing_time"":17949},{""page_index"":3,""viewing_time"":6428}]",190
,,,,,,,,,31363,,,450579,,,instructions,"[{""page_index"":0,""viewing_time"":1824},{""page_index"":1,""viewing_time"":1886},{""page_index"":2,""viewing_time"":26705},{""page_index"":3,""viewing_time"":947}]",190
,,,,,,,,,26748,,,509690,,,instructions,"[{""page_index"":0,""viewing_time"":1940},{""page_index"":1,""viewing_time"":629},{""page_index"":0,""viewing_time"":3489},{""page_index"":1,""viewing_time"":1766},{""page_index"":0,""viewing_time"":2477},{""page_index"":1,""viewing_time"":850},{""page_index"":0,""viewing_time"":2622},{""page_index"":1,""viewing_time"":1302},{""page_index"":0,""viewing_time"":2276},{""page_index"":1,""viewing_time"":1142},{""page_index"":2,""viewing_time"":2752},{""page_index"":3,""viewing_time"":5503}]",190
,,,,,,,,,19269,,,552429,,,instructions,"[{""page_index"":0,""viewing_time"":14803},{""page_index"":1,""viewing_time"":1690},{""page_index"":2,""viewing_time"":1682},{""page_index"":3,""viewing_time"":1093}]",190
,,,,,,,,,43630,,,611582,,,instructions,"[{""page_index"":0,""viewing_time"":37479},{""page_index"":1,""viewing_time"":2007},{""page_index"":2,""viewing_time"":2314},{""page_index"":3,""viewing_time"":1830}]",190
,,,,,,,,,69146,,,69147,,,instructions,"[{""page_index"":0,""viewing_time"":34615},{""page_index"":1,""viewing_time"":25239},{""page_index"":2,""viewing_time"":9291}]",191
,,,,,,,,,128088,,,128088,,,instructions,"[{""page_index"":0,""viewing_time"":52815},{""page_index"":1,""viewing_time"":30128},{""page_index"":2,""viewing_time"":25520},{""page_index"":3,""viewing_time"":19624}]",192
,,,,,,,,,99028,,,99030,,,instructions,"[{""page_index"":0,""viewing_time"":32588},{""page_index"":1,""viewing_time"":24615},{""page_index"":2,""viewing_time"":21353},{""page_index"":3,""viewing_time"":20470}]",193
,,,,,,,,,119714,,,119716,,,instructions,"[{""page_index"":0,""viewing_time"":29392},{""page_index"":1,""viewing_time"":44686},{""page_index"":2,""viewing_time"":20317},{""page_index"":3,""viewing_time"":25317}]",194
,,,,,,,,,174192,,,174194,,,instructions,"[{""page_index"":0,""viewing_time"":93141},{""page_index"":1,""viewing_time"":40520},{""page_index"":0,""viewing_time"":9055},{""page_index"":1,""viewing_time"":10160},{""page_index"":2,""viewing_time"":21313}]",195
,,,,,,,,,111847,,,324177,,,instructions,"[{""page_index"":0,""viewing_time"":17916},{""page_index"":1,""viewing_time"":8108},{""page_index"":2,""viewing_time"":12413},{""page_index"":1,""viewing_time"":780},{""page_index"":0,""viewing_time"":37555},{""page_index"":1,""viewing_time"":15595},{""page_index"":2,""viewing_time"":19479}]",195
,,,,,,,,,7278,,,357789,,,instructions,"[{""page_index"":0,""viewing_time"":5662},{""page_index"":1,""viewing_time"":805},{""page_index"":2,""viewing_time"":810}]",195
,,,,,,,,,3384,,,372162,,,instructions,"[{""page_index"":0,""viewing_time"":1947},{""page_index"":1,""viewing_time"":742},{""page_index"":2,""viewing_time"":694}]",195
,,,,,,,,,69712,,,69713,,,instructions,"[{""page_index"":0,""viewing_time"":4361},{""page_index"":1,""viewing_time"":19113},{""page_index"":2,""viewing_time"":19678},{""page_index"":3,""viewing_time"":26558}]",196
,,,,,,,,,5544,,,159187,,,instructions,"[{""page_index"":0,""viewing_time"":2991},{""page_index"":1,""viewing_time"":1188},{""page_index"":2,""viewing_time"":643},{""page_index"":3,""viewing_time"":721}]",196
,,,,,,,,,205224,,,205224,,,instructions,"[{""page_index"":0,""viewing_time"":45805},{""page_index"":1,""viewing_time"":88709},{""page_index"":2,""viewing_time"":47749},{""page_index"":3,""viewing_time"":22960}]",197
,,,,,,,,,16100,,,257263,,,instructions,"[{""page_index"":0,""viewing_time"":3998},{""page_index"":1,""viewing_time"":2883},{""page_index"":2,""viewing_time"":8657},{""page_index"":3,""viewing_time"":562}]",197
,,,,,,,,,128903,,,128904,,,instructions,"[{""page_index"":0,""viewing_time"":49974},{""page_index"":1,""viewing_time"":50192},{""page_index"":2,""viewing_time"":28736}]",198
,,,,,,,,,168984,,,168986,,,instructions,"[{""page_index"":0,""viewing_time"":73157},{""page_index"":1,""viewing_time"":43771},{""page_index"":2,""viewing_time"":28798},{""page_index"":3,""viewing_time"":23256}]",199
,,,,,,,,,45277,,,241459,,,instructions,"[{""page_index"":0,""viewing_time"":15426},{""page_index"":1,""viewing_time"":12270},{""page_index"":2,""viewing_time"":12024},{""page_index"":3,""viewing_time"":5556}]",199
,,,,,,,,,69095,,,336885,,,instructions,"[{""page_index"":0,""viewing_time"":15805},{""page_index"":1,""viewing_time"":15250},{""page_index"":2,""viewing_time"":3068},{""page_index"":1,""viewing_time"":1755},{""page_index"":0,""viewing_time"":19951},{""page_index"":1,""viewing_time"":2682},{""page_index"":2,""viewing_time"":9338},{""page_index"":3,""viewing_time"":1245}]",199
,,,,,,,,,140099,,,140101,,,instructions,"[{""page_index"":0,""viewing_time"":52735},{""page_index"":1,""viewing_time"":34295},{""page_index"":2,""viewing_time"":27224},{""page_index"":3,""viewing_time"":25844}]",200
,,,,,,,,,21813,,,216482,,,instructions,"[{""page_index"":0,""viewing_time"":10605},{""page_index"":1,""viewing_time"":3340},{""page_index"":2,""viewing_time"":3675},{""page_index"":3,""viewing_time"":4193}]",200
,,,,,,,,,29754,,,269907,,,instructions,"[{""page_index"":0,""viewing_time"":5266},{""page_index"":1,""viewing_time"":5576},{""page_index"":2,""viewing_time"":12787},{""page_index"":3,""viewing_time"":6124}]",200
,,,,,,,,,56516,,,347083,,,instructions,"[{""page_index"":0,""viewing_time"":13467},{""page_index"":1,""viewing_time"":16492},{""page_index"":2,""viewing_time"":16625},{""page_index"":3,""viewing_time"":9932}]",200
,,,,,,,,,536751,,,536754,,,instructions,"[{""page_index"":0,""viewing_time"":257434},{""page_index"":1,""viewing_time"":92366},{""page_index"":2,""viewing_time"":186948}]",201
,,,,,,,,,217120,,,217122,,,instructions,"[{""page_index"":0,""viewing_time"":62726},{""page_index"":1,""viewing_time"":46781},{""page_index"":0,""viewing_time"":8059},{""page_index"":1,""viewing_time"":3169},{""page_index"":2,""viewing_time"":62546},{""page_index"":3,""viewing_time"":33839}]",202
,,,,,,,,,26381,,,328011,,,instructions,"[{""page_index"":0,""viewing_time"":10789},{""page_index"":1,""viewing_time"":8786},{""page_index"":2,""viewing_time"":3496},{""page_index"":1,""viewing_time"":2177},{""page_index"":2,""viewing_time"":561},{""page_index"":3,""viewing_time"":572}]",202
,,,,,,,,,168006,,,516318,,,instructions,"[{""page_index"":0,""viewing_time"":45251},{""page_index"":1,""viewing_time"":65673},{""page_index"":2,""viewing_time"":54987},{""page_index"":3,""viewing_time"":2094}]",202
,,,,,,,,,7507,,,553963,,,instructions,"[{""page_index"":0,""viewing_time"":3124},{""page_index"":1,""viewing_time"":191},{""page_index"":2,""viewing_time"":3716},{""page_index"":3,""viewing_time"":475}]",202
,,,,,,,,,23213,,,600511,,,instructions,"[{""page_index"":0,""viewing_time"":4426},{""page_index"":1,""viewing_time"":8884},{""page_index"":0,""viewing_time"":2968},{""page_index"":1,""viewing_time"":502},{""page_index"":2,""viewing_time"":5547},{""page_index"":3,""viewing_time"":885}]",202
,,,,,,,,,98952,,,722924,,,instructions,"[{""page_index"":0,""viewing_time"":77279},{""page_index"":1,""viewing_time"":18174},{""page_index"":2,""viewing_time"":2939},{""page_index"":3,""viewing_time"":560}]",202
,,,,,,,,,59234,,,59237,,,instructions,"[{""page_index"":0,""viewing_time"":17657},{""page_index"":1,""viewing_time"":7863},{""page_index"":2,""viewing_time"":16088},{""page_index"":3,""viewing_time"":17624}]",203
,,,,,,,,,118685,,,224890,,,instructions,"[{""page_index"":0,""viewing_time"":7693},{""page_index"":1,""viewing_time"":33615},{""page_index"":2,""viewing_time"":10648},{""page_index"":3,""viewing_time"":13904},{""page_index"":2,""viewing_time"":984},{""page_index"":1,""viewing_time"":5984},{""page_index"":0,""viewing_time"":9376},{""page_index"":1,""viewing_time"":16384},{""page_index"":2,""viewing_time"":13480},{""page_index"":3,""viewing_time"":6616}]",203
,,,,,,,,,118585,,,118586,,,instructions,"[{""page_index"":0,""viewing_time"":51345},{""page_index"":1,""viewing_time"":41395},{""page_index"":2,""viewing_time"":25844}]",204
,,,,,,,,,126955,,,126957,,,instructions,"[{""page_index"":0,""viewing_time"":53992},{""page_index"":1,""viewing_time"":22684},{""page_index"":2,""viewing_time"":19737},{""page_index"":1,""viewing_time"":5632},{""page_index"":0,""viewing_time"":6907},{""page_index"":1,""viewing_time"":7522},{""page_index"":2,""viewing_time"":10480}]",205
,,,,,,,,,8867,,,161220,,,instructions,"[{""page_index"":0,""viewing_time"":6680},{""page_index"":1,""viewing_time"":1217},{""page_index"":2,""viewing_time"":970}]",205
,,,,,,,,,194018,,,194019,,,instructions,"[{""page_index"":0,""viewing_time"":46044},{""page_index"":1,""viewing_time"":52832},{""page_index"":2,""viewing_time"":70504},{""page_index"":3,""viewing_time"":24637}]",206
,,,,,,,,,135724,,,135727,,,instructions,"[{""page_index"":0,""viewing_time"":47830},{""page_index"":1,""viewing_time"":51222},{""page_index"":2,""viewing_time"":36668}]",207
,,,,,,,,,23409,,,196866,,,instructions,"[{""page_index"":0,""viewing_time"":14924},{""page_index"":1,""viewing_time"":6402},{""page_index"":2,""viewing_time"":2081}]",207
,,,,,,,,,25054,,,236024,,,instructions,"[{""page_index"":0,""viewing_time"":8725},{""page_index"":1,""viewing_time"":8707},{""page_index"":2,""viewing_time"":7619}]",207
,,,,,,,,,188108,,,188109,,,instructions,"[{""page_index"":0,""viewing_time"":90645},{""page_index"":1,""viewing_time"":65585},{""page_index"":2,""viewing_time"":31877}]",208
,,,,,,,,,95368,,,95371,,,instructions,"[{""page_index"":0,""viewing_time"":63036},{""page_index"":1,""viewing_time"":17747},{""page_index"":2,""viewing_time"":14583}]",209
,,,,,,,,,29007,,,231782,,,instructions,"[{""page_index"":0,""viewing_time"":9224},{""page_index"":1,""viewing_time"":2634},{""page_index"":2,""viewing_time"":17148}]",209
,,,,,,,,,148855,,,148857,,,instructions,"[{""page_index"":0,""viewing_time"":97228},{""page_index"":1,""viewing_time"":32680},{""page_index"":2,""viewing_time"":18945}]",210
,,,,,,,,,302030,,,302032,,,instructions,"[{""page_index"":0,""viewing_time"":92804},{""page_index"":1,""viewing_time"":75840},{""page_index"":2,""viewing_time"":74532},{""page_index"":3,""viewing_time"":58850}]",211
,,,,,,,,,130897,,,130898,,,instructions,"[{""page_index"":0,""viewing_time"":43867},{""page_index"":1,""viewing_time"":26047},{""page_index"":2,""viewing_time"":40071},{""page_index"":3,""viewing_time"":20911}]",212
,,,,,,,,,195412,,,195413,,,instructions,"[{""page_index"":0,""viewing_time"":38372},{""page_index"":1,""viewing_time"":4993},{""page_index"":0,""viewing_time"":47932},{""page_index"":1,""viewing_time"":13849},{""page_index"":2,""viewing_time"":46603},{""page_index"":3,""viewing_time"":43663}]",213
,,,,,,,,,76719,,,312996,,,instructions,"[{""page_index"":0,""viewing_time"":30254},{""page_index"":1,""viewing_time"":13565},{""page_index"":2,""viewing_time"":17184},{""page_index"":3,""viewing_time"":15716}]",213
,,,,,,,,,230611,,,230611,,,instructions,"[{""page_index"":0,""viewing_time"":136596},{""page_index"":1,""viewing_time"":51721},{""page_index"":2,""viewing_time"":42293}]",214
,,,,,,,,,119237,,,119238,,,instructions,"[{""page_index"":0,""viewing_time"":59734},{""page_index"":1,""viewing_time"":36720},{""page_index"":2,""viewing_time"":22781}]",215
,,,,,,,,,57143,,,57149,,,instructions,"[{""page_index"":0,""viewing_time"":20627},{""page_index"":1,""viewing_time"":17148},{""page_index"":2,""viewing_time"":9548},{""page_index"":3,""viewing_time"":9817}]",216
,,,,,,,,,50177,,,135573,,,instructions,"[{""page_index"":0,""viewing_time"":14508},{""page_index"":1,""viewing_time"":19708},{""page_index"":2,""viewing_time"":9132},{""page_index"":3,""viewing_time"":6827}]",216
,,,,,,,,,6842,,,164115,,,instructions,"[{""page_index"":0,""viewing_time"":4045},{""page_index"":1,""viewing_time"":758},{""page_index"":0,""viewing_time"":761},{""page_index"":1,""viewing_time"":459},{""page_index"":2,""viewing_time"":413},{""page_index"":3,""viewing_time"":404}]",216
,,,,,,,,,120565,,,120565,,,instructions,"[{""page_index"":0,""viewing_time"":65332},{""page_index"":1,""viewing_time"":18680},{""page_index"":2,""viewing_time"":11224},{""page_index"":3,""viewing_time"":25328}]",217
,,,,,,,,,246095,,,397111,,,instructions,"[{""page_index"":0,""viewing_time"":156885},{""page_index"":1,""viewing_time"":25864},{""page_index"":2,""viewing_time"":40545},{""page_index"":3,""viewing_time"":22800}]",217
,,,,,,,,,6686,,,580758,,,instructions,"[{""page_index"":0,""viewing_time"":2310},{""page_index"":1,""viewing_time"":584},{""page_index"":0,""viewing_time"":1720},{""page_index"":1,""viewing_time"":536},{""page_index"":2,""viewing_time"":1040},{""page_index"":3,""viewing_time"":496}]",217
,,,,,,,,,246220,,,246222,,,instructions,"[{""page_index"":0,""viewing_time"":60772},{""page_index"":1,""viewing_time"":125390},{""page_index"":2,""viewing_time"":34080},{""page_index"":3,""viewing_time"":25977}]",218
,,,,,,,,,177371,,,177375,,,instructions,"[{""page_index"":0,""viewing_time"":47008},{""page_index"":1,""viewing_time"":58149},{""page_index"":2,""viewing_time"":50096},{""page_index"":3,""viewing_time"":22113}]",219
,,,,,,,,,29509,,,259187,,,instructions,"[{""page_index"":0,""viewing_time"":15032},{""page_index"":1,""viewing_time"":12137},{""page_index"":2,""viewing_time"":1183},{""page_index"":3,""viewing_time"":1154}]",219
,,,,,,,,,123270,,,123278,,,instructions,"[{""page_index"":0,""viewing_time"":38730},{""page_index"":1,""viewing_time"":29796},{""page_index"":2,""viewing_time"":28937},{""page_index"":3,""viewing_time"":25801}]",220
,,,,,,,,,140555,,,140555,,,instructions,"[{""page_index"":0,""viewing_time"":89179},{""page_index"":1,""viewing_time"":25245},{""page_index"":2,""viewing_time"":17818},{""page_index"":1,""viewing_time"":6136},{""page_index"":2,""viewing_time"":2176}]",221
,,,,,,,,,108578,,,108580,,,instructions,"[{""page_index"":0,""viewing_time"":12224},{""page_index"":1,""viewing_time"":11857},{""page_index"":2,""viewing_time"":15560},{""page_index"":3,""viewing_time"":68935}]",222
,,,,,,,,,25721,,,265150,,,instructions,"[{""page_index"":0,""viewing_time"":4985},{""page_index"":1,""viewing_time"":7003},{""page_index"":2,""viewing_time"":5686},{""page_index"":3,""viewing_time"":8046}]",222
,,,,,,,,,189397,,,189399,,,instructions,"[{""page_index"":0,""viewing_time"":45122},{""page_index"":1,""viewing_time"":30797},{""page_index"":2,""viewing_time"":8123},{""page_index"":3,""viewing_time"":37121},{""page_index"":2,""viewing_time"":1201},{""page_index"":1,""viewing_time"":709},{""page_index"":0,""viewing_time"":2188},{""page_index"":1,""viewing_time"":25239},{""page_index"":2,""viewing_time"":23655},{""page_index"":3,""viewing_time"":15241}]",223
,,,,,,,,,96904,,,96905,,,instructions,"[{""page_index"":0,""viewing_time"":37471},{""page_index"":1,""viewing_time"":22312},{""page_index"":2,""viewing_time"":17264},{""page_index"":3,""viewing_time"":19856}]",224
,,,,,,,,,99416,,,231576,,,instructions,"[{""page_index"":0,""viewing_time"":27408},{""page_index"":1,""viewing_time"":30168},{""page_index"":2,""viewing_time"":24464},{""page_index"":3,""viewing_time"":17375}]",224
,,,,,,,,,16351,,,276472,,,instructions,"[{""page_index"":0,""viewing_time"":4199},{""page_index"":1,""viewing_time"":2600},{""page_index"":2,""viewing_time"":7568},{""page_index"":3,""viewing_time"":1983}]",224
,,,,,,,,,656892,,,656894,,,instructions,"[{""page_index"":0,""viewing_time"":35596},{""page_index"":1,""viewing_time"":13532},{""page_index"":2,""viewing_time"":575969},{""page_index"":3,""viewing_time"":31794}]",225
,,,,,,,,,439318,,,439320,,,instructions,"[{""page_index"":0,""viewing_time"":23064},{""page_index"":1,""viewing_time"":17791},{""page_index"":2,""viewing_time"":379489},{""page_index"":3,""viewing_time"":18972}]",226
,,,,,,,,,65909,,,532710,,,instructions,"[{""page_index"":0,""viewing_time"":28704},{""page_index"":1,""viewing_time"":1996},{""page_index"":2,""viewing_time"":20872},{""page_index"":3,""viewing_time"":14336}]",226
,,,,,,,,,139288,,,139290,,,instructions,"[{""page_index"":0,""viewing_time"":33811},{""page_index"":1,""viewing_time"":39085},{""page_index"":2,""viewing_time"":66392}]",227
,,,,,,,,,55531,,,55531,,,instructions,"[{""page_index"":0,""viewing_time"":28816},{""page_index"":1,""viewing_time"":20208},{""page_index"":2,""viewing_time"":2886},{""page_index"":3,""viewing_time"":3621}]",228
,,,,,,,,,196225,,,327382,,,instructions,"[{""page_index"":0,""viewing_time"":53382},{""page_index"":1,""viewing_time"":60232},{""page_index"":2,""viewing_time"":50295},{""page_index"":3,""viewing_time"":32315}]",228
,,,,,,,,,71691,,,497869,,,instructions,"[{""page_index"":0,""viewing_time"":1314},{""page_index"":1,""viewing_time"":21218},{""page_index"":2,""viewing_time"":35663},{""page_index"":3,""viewing_time"":13496}]",228
