action_times,actions,button_pressed,correct,delays,path,queries,questions,responses,rt,score,stimulus,time_elapsed,trial_index,trial_i,trial_type,view_history,pid
"[24959, 30085, 34388]","[u'right', u'right', u'up']",,,"[-1, -1, -1]","[u'1', 2, 6, 10]","{u'mouseover': {u'state': {u'target': [], u'time': []}, u'edge': {u'target': [], u'time': []}}, u'click': {u'state': {u'target': [u'3', u'9', u'4', u'5', u'2', u'6'], u'time': [6051, 10901, 12487, 14753, 15547, 21776]}, u'edge': {u'target': [], u'time': []}}, u'mouseout': {u'state': {u'target': [], u'time': []}, u'edge': {u'target': [], u'time': []}}}",,,"[24958, 4, 2493]",28.0,,228647,1.0,2.0,mouselab-mdp,,0
"[17552, 22854, 27247]","[u'up', u'up', u'left']",,,"[-1, -1, -1]","[u'1', 3, 7, 12]","{u'mouseover': {u'state': {u'target': [], u'time': []}, u'edge': {u'target': [], u'time': []}}, u'click': {u'state': {u'target': [u'4', u'8', u'7', u'3', u'5', u'2', u'6', u'9', u'12', u'13'], u'time': [2603, 4361, 6484, 7986, 10128, 11098, 14281, 15166, 22862, 25113]}, u'edge': {u'target': [], u'time': []}}, u'mouseout': {u'state': {u'target': [], u'time': []}, u'edge': {u'target': [], u'time': []}}}",,,"[17552, 4, 2144]",30.0,,281337,2.0,10.0,mouselab-mdp,,0
"[19197, 23786, 24913]","[u'left', u'left', u'down']",,,"[-1, -1, -1]","[u'1', 4, 8, 15]","{u'mouseover': {u'state': {u'target': [], u'time': []}, u'edge': {u'target': [], u'time': []}}, u'click': {u'state': {u'target': [u'7', u'5', u'2', u'3', u'9', u'16', u'17', u'4', u'8', u'15', u'14'], u'time': [2436, 4324, 5182, 7343, 8301, 10929, 11738, 14371, 15410, 16288, 17239]}, u'edge': {u'target': [], u'time': []}}, u'mouseout': {u'state': {u'target': [], u'time': []}, u'edge': {u'target': [], u'time': []}}}",,,"[19197, 4, 43]",39.0,,337139,3.0,8.0,mouselab-mdp,,0
"[24041, 29715, 30953]","[u'right', u'right', u'up']",,,"[-1, -1, -1]","[u'1', 2, 6, 10]","{u'mouseover': {u'state': {u'target': [], u'time': []}, u'edge': {u'target': [], u'time': []}}, u'click': {u'state': {u'target': [u'4', u'3', u'8', u'2', u'5', u'7', u'9', u'17', u'6', u'10', u'11', u'14', u'13'], u'time': [1796, 4060, 5843, 9038, 10105, 11676, 13458, 14578, 16414, 18118, 19052, 20333, 22231]}, u'edge': {u'target': [], u'time': []}}, u'mouseout': {u'state': {u'target': [], u'time': []}, u'edge': {u'target': [], u'time': []}}}",,,"[24040, 3, 4]",23.0,,391334,4.0,3.0,mouselab-mdp,,0
"[17483, 22445, 24166]","[u'right', u'right', u'down']",,,"[-1, -1, -1]","[u'1', 2, 6, 11]","{u'mouseover': {u'state': {u'target': [], u'time': []}, u'edge': {u'target': [], u'time': []}}, u'click': {u'state': {u'target': [u'2', u'4', u'6', u'10', u'11', u'15', u'8', u'7', u'12', u'3', u'9', u'13', u'5'], u'time': [1655, 2502, 4292, 5832, 6556, 8182, 8728, 10118, 10810, 11332, 12251, 14563, 15876]}, u'edge': {u'target': [], u'time': []}}, u'mouseout': {u'state': {u'target': [], u'time': []}, u'edge': {u'target': [], u'time': []}}}",,,"[17483, 4, 595]",43.0,,442821,5.0,6.0,mouselab-mdp,,0
"[14878, 19117, 20333]","[u'up', u'up', u'left']",,,"[-1, -1, -1]","[u'1', 3, 7, 12]","{u'mouseover': {u'state': {u'target': [], u'time': []}, u'edge': {u'target': [], u'time': []}}, u'click': {u'state': {u'target': [u'3', u'2', u'5', u'9', u'17', u'16', u'7', u'12', u'13', u'8'], u'time': [1090, 3313, 4215, 5343, 6721, 7452, 8705, 9497, 10143, 11886]}, u'edge': {u'target': [], u'time': []}}, u'mouseout': {u'state': {u'target': [], u'time': []}, u'edge': {u'target': [], u'time': []}}}",,,"[14877, 4, 99]",34.0,,493911,6.0,1.0,mouselab-mdp,,0
"[18459, 23039, 24163]","[u'down', u'down', u'right']",,,"[-1, -1, -1]","[u'1', 5, 9, 17]","{u'mouseover': {u'state': {u'target': [], u'time': []}, u'edge': {u'target': [], u'time': []}}, u'click': {u'state': {u'target': [u'2', u'3', u'5', u'9', u'16', u'17', u'4', u'8', u'14', u'15', u'6', u'7'], u'time': [1502, 3338, 4248, 5269, 6318, 7187, 8324, 10200, 10852, 11497, 12923, 17062]}, u'edge': {u'target': [], u'time': []}}, u'mouseout': {u'state': {u'target': [], u'time': []}, u'edge': {u'target': [], u'time': []}}}",,,"[18458, 3, 4]",30.0,,546184,7.0,4.0,mouselab-mdp,,0
"[18416, 22410, 23467]","[u'left', u'left', u'up']",,,"[-1, -1, -1]","[u'1', 4, 8, 14]","{u'mouseover': {u'state': {u'target': [], u'time': []}, u'edge': {u'target': [], u'time': []}}, u'click': {u'state': {u'target': [u'2', u'6', u'10', u'11', u'4', u'8', u'15', u'14', u'3', u'7', u'12', u'13', u'5'], u'time': [2247, 3505, 4261, 4844, 5777, 6858, 7546, 8321, 9549, 10187, 11239, 13744, 14769]}, u'edge': {u'target': [], u'time': []}}, u'mouseout': {u'state': {u'target': [], u'time': []}, u'edge': {u'target': [], u'time': []}}}",,,"[18416, 4, 222]",44.0,,599221,8.0,7.0,mouselab-mdp,,0
"[11623, 16059, 17405]","[u'right', u'right', u'up']",,,"[-1, -1, -1]","[u'1', 2, 6, 10]","{u'mouseover': {u'state': {u'target': [], u'time': []}, u'edge': {u'target': [], u'time': []}}, u'click': {u'state': {u'target': [u'2', u'6', u'10', u'11', u'4', u'8', u'3', u'7', u'5'], u'time': [1250, 1969, 3169, 3797, 4825, 5571, 7057, 8427, 9897]}, u'edge': {u'target': [], u'time': []}}, u'mouseout': {u'state': {u'target': [], u'time': []}, u'edge': {u'target': [], u'time': []}}}",,,"[11623, 4, 4]",28.0,,651997,9.0,5.0,mouselab-mdp,,0
"[13480, 18753, 20074]","[u'left', u'left', u'up']",,,"[-1, -1, -1]","[u'1', 4, 8, 14]","{u'mouseover': {u'state': {u'target': [], u'time': []}, u'edge': {u'target': [], u'time': []}}, u'click': {u'state': {u'target': [u'2', u'4', u'8', u'15', u'14', u'3', u'7', u'12', u'5', u'9', u'17'], u'time': [1162, 2016, 2864, 3713, 4552, 5766, 6824, 7814, 8854, 9540, 11088]}, u'edge': {u'target': [], u'time': []}}, u'mouseout': {u'state': {u'target': [], u'time': []}, u'edge': {u'target': [], u'time': []}}}",,,"[13480, 3, 3]",43.0,,703545,10.0,0.0,mouselab-mdp,,0
"[12642, 17374, 18819]","[u'left', u'left', u'down']",,,"[-1, -1, -1]","[u'1', 4, 8, 15]","{u'mouseover': {u'state': {u'target': [], u'time': []}, u'edge': {u'target': [], u'time': []}}, u'click': {u'state': {u'target': [u'2', u'3', u'4', u'8', u'14', u'15', u'7', u'13', u'12', u'5', u'9'], u'time': [1342, 2362, 2976, 3675, 4570, 5277, 6709, 7269, 8078, 8818, 10944]}, u'edge': {u'target': [], u'time': []}}, u'mouseout': {u'state': {u'target': [], u'time': []}, u'edge': {u'target': [], u'time': []}}}",,,"[12642, 4, 339]",30.0,,754519,11.0,9.0,mouselab-mdp,,0
"[19350, 24713, 26044]","[u'right', u'right', u'down']",,,"[-1, -1, -1]","[u'1', 2, 6, 11]","{u'mouseover': {u'state': {u'target': [], u'time': []}, u'edge': {u'target': [], u'time': []}}, u'click': {u'state': {u'target': [u'2', u'6', u'11', u'10', u'4', u'3', u'5', u'9', u'17', u'7', u'13'], u'time': [1423, 2575, 3157, 3958, 5546, 6540, 9184, 10374, 12344, 13984, 17313]}, u'edge': {u'target': [], u'time': []}}, u'mouseout': {u'state': {u'target': [], u'time': []}, u'edge': {u'target': [], u'time': []}}}",,,"[19350, 3, 4]",45.0,,810800,12.0,11.0,mouselab-mdp,,0
"[9213, 11970, 12686]","[u'down', u'down', u'right']",,,"[-1, -1, -1]","[u'1', 5, 9, 17]","{u'mouseover': {u'state': {u'target': [], u'time': []}, u'edge': {u'target': [], u'time': []}}, u'click': {u'state': {u'target': [u'3', u'4', u'5', u'2', u'14', u'8', u'15', u'12', u'7', u'13', u'10', u'6', u'11', u'17', u'9', u'16'], u'time': [773, 1351, 1877, 2375, 3447, 3762, 4067, 4778, 5095, 5371, 5959, 6302, 6831, 7293, 7558, 7825]}, u'edge': {u'target': [], u'time': []}}, u'mouseout': {u'state': {u'target': [], u'time': []}, u'edge': {u'target': [], u'time': []}}}",,,"[9213, 3, 208]",26.0,,140853,1.0,4.0,mouselab-mdp,,1
"[9667, 12497, 13104]","[u'up', u'up', u'left']",,,"[-1, -1, -1]","[u'1', 3, 7, 12]","{u'mouseover': {u'state': {u'target': [], u'time': []}, u'edge': {u'target': [], u'time': []}}, u'click': {u'state': {u'target': [u'3', u'4', u'12', u'7', u'13', u'2', u'10', u'6', u'11', u'5', u'15', u'8', u'14', u'16', u'9', u'17'], u'time': [817, 1603, 2147, 2427, 2722, 3176, 3704, 4271, 4563, 5250, 5650, 5981, 6251, 6889, 7301, 7569]}, u'edge': {u'target': [], u'time': []}}, u'mouseout': {u'state': {u'target': [], u'time': []}, u'edge': {u'target': [], u'time': []}}}",,,"[9667, 9, 85]",28.0,,189428,2.0,1.0,mouselab-mdp,,1
"[7411, 10600, 11326]","[u'right', u'right', u'up']",,,"[-1, -1, -1]","[u'1', 2, 6, 10]","{u'mouseover': {u'state': {u'target': [], u'time': []}, u'edge': {u'target': [], u'time': []}}, u'click': {u'state': {u'target': [u'3', u'4', u'2', u'5', u'16', u'9', u'17', u'11', u'6', u'10', u'13', u'7', u'12', u'14', u'8', u'15'], u'time': [638, 918, 1281, 1750, 2190, 2508, 2807, 3308, 3840, 3901, 5005, 5283, 5554, 6040, 6374, 6725]}, u'edge': {u'target': [], u'time': []}}, u'mouseout': {u'state': {u'target': [], u'time': []}, u'edge': {u'target': [], u'time': []}}}",,,"[7411, 464, 194]",20.0,,249302,3.0,3.0,mouselab-mdp,,1
"[5057, 9296, 10348]","[u'down', u'down', u'left']",,,"[1, -1, -1]","[u'1', 5, 9, 16]","{u'mouseover': {u'state': {u'target': [], u'time': []}, u'edge': {u'target': [], u'time': []}}, u'click': {u'state': {u'target': [u'3', u'4', u'5', u'2', u'9', u'16', u'17'], u'time': [1726, 2120, 2441, 2851, 3548, 3754, 4427]}, u'edge': {u'target': [], u'time': []}}, u'mouseout': {u'state': {u'target': [], u'time': []}, u'edge': {u'target': [], u'time': []}}}",,,"[5057, 479, 4]",46.0,,315343,4.0,11.0,mouselab-mdp,,1
"[15876, 18928, 19546]","[u'left', u'left', u'down']",,,"[-1, -1, -1]","[u'1', 4, 8, 15]","{u'mouseover': {u'state': {u'target': [], u'time': []}, u'edge': {u'target': [], u'time': []}}, u'click': {u'state': {u'target': [u'3', u'4', u'2', u'5', u'8', u'7', u'9', u'14', u'15', u'16', u'17', u'11', u'6', u'10', u'13', u'12'], u'time': [887, 1340, 1786, 2250, 2940, 3508, 4251, 4932, 5479, 7351, 7679, 8106, 8409, 8720, 9419, 9698]}, u'edge': {u'target': [], u'time': []}}, u'mouseout': {u'state': {u'target': [], u'time': []}, u'edge': {u'target': [], u'time': []}}}",,,"[15875, 4, 111]",34.0,,375485,5.0,8.0,mouselab-mdp,,1
"[10356, 13072, 13965]","[u'right', u'right', u'up']",,,"[-1, -1, -1]","[u'1', 2, 6, 10]","{u'mouseover': {u'state': {u'target': [], u'time': []}, u'edge': {u'target': [], u'time': []}}, u'click': {u'state': {u'target': [u'12', u'13', u'7', u'3', u'10', u'6', u'2', u'11', u'5', u'4', u'14', u'8', u'15', u'16', u'9', u'17'], u'time': [725, 1434, 1713, 1986, 2444, 3258, 3491, 3833, 4353, 4759, 5126, 5475, 5818, 6253, 7355, 7585]}, u'edge': {u'target': [], u'time': []}}, u'mouseout': {u'state': {u'target': [], u'time': []}, u'edge': {u'target': [], u'time': []}}}",,,"[10356, 4, 371]",18.0,,444840,6.0,2.0,mouselab-mdp,,1
"[8158, 11401, 12438]","[u'left', u'left', u'up']",,,"[-1, -1, -1]","[u'1', 4, 8, 14]","{u'mouseover': {u'state': {u'target': [], u'time': []}, u'edge': {u'target': [], u'time': []}}, u'click': {u'state': {u'target': [u'3', u'4', u'5', u'2', u'7', u'12', u'13', u'8', u'6', u'14', u'15'], u'time': [2016, 2379, 2820, 3323, 3916, 4147, 4867, 6237, 6683, 7335, 7683]}, u'edge': {u'target': [], u'time': []}}, u'mouseout': {u'state': {u'target': [], u'time': []}, u'edge': {u'target': [], u'time': []}}}",,,"[8158, 5, 14]",46.0,,497051,7.0,7.0,mouselab-mdp,,1
"[8311, 11440, 12345]","[u'up', u'up', u'left']",,,"[-1, -1, -1]","[u'1', 3, 7, 12]","{u'mouseover': {u'state': {u'target': [], u'time': []}, u'edge': {u'target': [], u'time': []}}, u'click': {u'state': {u'target': [u'3', u'4', u'5', u'2', u'7', u'13', u'12', u'14', u'8', u'15', u'10'], u'time': [1723, 1929, 2333, 2723, 3248, 4122, 4506, 5446, 5732, 6415, 7177]}, u'edge': {u'target': [], u'time': []}}, u'mouseout': {u'state': {u'target': [], u'time': []}, u'edge': {u'target': [], u'time': []}}}",,,"[8311, 5, 5]",29.0,,552918,8.0,10.0,mouselab-mdp,,1
"[7745, 10766, 11732]","[u'right', u'right', u'down']",,,"[-1, -1, -1]","[u'1', 2, 6, 11]","{u'mouseover': {u'state': {u'target': [], u'time': []}, u'edge': {u'target': [], u'time': []}}, u'click': {u'state': {u'target': [u'3', u'4', u'2', u'5', u'12', u'13', u'7', u'6', u'10', u'11'], u'time': [649, 1031, 1805, 2328, 3789, 3802, 4614, 5709, 6495, 6973]}, u'edge': {u'target': [], u'time': []}}, u'mouseout': {u'state': {u'target': [], u'time': []}, u'edge': {u'target': [], u'time': []}}}",,,"[7745, 4, 24]",46.0,,636668,9.0,6.0,mouselab-mdp,,1
"[8688, 12407, 13525]","[u'right', u'right', u'up']",,,"[-1, -1, -1]","[u'1', 2, 6, 10]","{u'mouseover': {u'state': {u'target': [], u'time': []}, u'edge': {u'target': [], u'time': []}}, u'click': {u'state': {u'target': [u'3', u'4', u'5', u'2', u'8', u'14', u'6', u'10', u'11', u'7', u'9'], u'time': [728, 1323, 1807, 2223, 2943, 3304, 4583, 4942, 5637, 6928, 7553]}, u'edge': {u'target': [], u'time': []}}, u'mouseout': {u'state': {u'target': [], u'time': []}, u'edge': {u'target': [], u'time': []}}}",,,"[8688, 8, 4]",26.0,,697496,10.0,5.0,mouselab-mdp,,1
"[12255, 15046, 15883]","[u'left', u'left', u'up']",,,"[-1, -1, -1]","[u'1', 4, 8, 14]","{u'mouseover': {u'state': {u'target': [], u'time': []}, u'edge': {u'target': [], u'time': []}}, u'click': {u'state': {u'target': [u'3', u'4', u'5', u'2', u'16', u'17', u'9', u'7', u'12', u'13', u'10', u'6', u'11', u'15', u'8', u'14'], u'time': [2126, 2498, 2958, 3370, 4324, 4745, 5018, 6572, 7598, 7922, 8419, 8704, 9039, 9841, 10124, 10438]}, u'edge': {u'target': [], u'time': []}}, u'mouseout': {u'state': {u'target': [], u'time': []}, u'edge': {u'target': [], u'time': []}}}",,,"[12255, 5, 332]",38.0,,751401,11.0,0.0,mouselab-mdp,,1
"[29451, 32351, 33281]","[u'left', u'left', u'down']",,,"[-1, -1, -1]","[u'1', 4, 8, 15]","{u'mouseover': {u'state': {u'target': [], u'time': []}, u'edge': {u'target': [], u'time': []}}, u'click': {u'state': {u'target': [u'3', u'4', u'2', u'5', u'8', u'14', u'15', u'12', u'7', u'13'], u'time': [24724, 25101, 25476, 25925, 26572, 26941, 27298, 28245, 28508, 28755]}, u'edge': {u'target': [], u'time': []}}, u'mouseout': {u'state': {u'target': [], u'time': []}, u'edge': {u'target': [], u'time': []}}}",,,"[29450, 28, 4]",31.0,,809105,12.0,9.0,mouselab-mdp,,1
"[4916, 16241, 18555]","[u'right', u'right', u'up']",,,"[10, -1, -1]","[u'1', 2, 6, 10]","{u'mouseover': {u'state': {u'target': [], u'time': []}, u'edge': {u'target': [], u'time': []}}, u'click': {u'state': {u'target': [], u'time': []}, u'edge': {u'target': [], u'time': []}}, u'mouseout': {u'state': {u'target': [], u'time': []}, u'edge': {u'target': [], u'time': []}}}",,,"[4915, 337, 1545]",22.0,,261021,1.0,10.0,mouselab-mdp,,2
"[2919, 14487, 15260]","[u'down', u'down', u'left']",,,"[9, -1, -1]","[u'1', 5, 9, 16]","{u'mouseover': {u'state': {u'target': [], u'time': []}, u'edge': {u'target': [], u'time': []}}, u'click': {u'state': {u'target': [], u'time': []}, u'edge': {u'target': [], u'time': []}}, u'mouseout': {u'state': {u'target': [], u'time': []}, u'edge': {u'target': [], u'time': []}}}",,,"[2919, 1584, 3]",24.0,,323652,2.0,9.0,mouselab-mdp,,2
"[2305, 22141, 22916]","[u'left', u'left', u'up']",,,"[17, -1, 13]","[u'1', 4, 8, 14]","{u'mouseover': {u'state': {u'target': [], u'time': []}, u'edge': {u'target': [], u'time': []}}, u'click': {u'state': {u'target': [], u'time': []}, u'edge': {u'target': [], u'time': []}}, u'mouseout': {u'state': {u'target': [], u'time': []}, u'edge': {u'target': [], u'time': []}}}",,,"[2305, 1847, 9]",-3.0,,404828,3.0,6.0,mouselab-mdp,,2
"[349, 14785, 15561]","[u'up', u'up', u'left']",,,"[10, -1, 7]","[u'1', 3, 7, 12]","{u'mouseover': {u'state': {u'target': [], u'time': []}, u'edge': {u'target': [], u'time': []}}, u'click': {u'state': {u'target': [], u'time': []}, u'edge': {u'target': [], u'time': []}}, u'mouseout': {u'state': {u'target': [], u'time': []}, u'edge': {u'target': [], u'time': []}}}",,,"[349, 3450, 2]",27.0,,497203,4.0,4.0,mouselab-mdp,,2
"[407, 10108, 11963]","[u'right', u'right', u'down']",,,"[5, -1, -1]","[u'1', 2, 6, 11]","{u'mouseover': {u'state': {u'target': [], u'time': []}, u'edge': {u'target': [], u'time': []}}, u'click': {u'state': {u'target': [], u'time': []}, u'edge': {u'target': [], u'time': []}}, u'mouseout': {u'state': {u'target': [], u'time': []}, u'edge': {u'target': [], u'time': []}}}",,,"[407, 3708, 1071]",21.0,,553771,5.0,7.0,mouselab-mdp,,2
"[4497, 7897, 10244]","[u'right', u'right', u'up']",,,"[-1, -1, 11]","[u'1', 2, 6, 10]","{u'mouseover': {u'state': {u'target': [], u'time': []}, u'edge': {u'target': [], u'time': []}}, u'click': {u'state': {u'target': [], u'time': []}, u'edge': {u'target': [], u'time': []}}, u'mouseout': {u'state': {u'target': [], u'time': []}, u'edge': {u'target': [], u'time': []}}}",,,"[4497, 2385, 1573]",-20.0,,705553,6.0,3.0,mouselab-mdp,,2
"[354, 1677, 2441]","[u'up', u'up', u'left']",,,"[-1, -1, -1]","[u'1', 3, 7, 12]","{u'mouseover': {u'state': {u'target': [], u'time': []}, u'edge': {u'target': [], u'time': []}}, u'click': {u'state': {u'target': [], u'time': []}, u'edge': {u'target': [], u'time': []}}, u'mouseout': {u'state': {u'target': [], u'time': []}, u'edge': {u'target': [], u'time': []}}}",,,"[354, 341, 2]",19.0,,1052951,7.0,2.0,mouselab-mdp,,2
"[2018, 3163, 5911]","[u'left', u'left', u'down']",,,"[-1, -1, -1]","[u'1', 4, 8, 15]","{u'mouseover': {u'state': {u'target': [], u'time': []}, u'edge': {u'target': [], u'time': []}}, u'click': {u'state': {u'target': [], u'time': []}, u'edge': {u'target': [], u'time': []}}, u'mouseout': {u'state': {u'target': [], u'time': []}, u'edge': {u'target': [], u'time': []}}}",,,"[2018, 150, 1988]",16.0,,1494847,8.0,1.0,mouselab-mdp,,2
"[1192, 2729, 4191]","[u'up', u'up', u'left']",,,"[-1, -1, 5]","[u'1', 3, 7, 12]","{u'mouseover': {u'state': {u'target': [], u'time': []}, u'edge': {u'target': [], u'time': []}}, u'click': {u'state': {u'target': [], u'time': []}, u'edge': {u'target': [], u'time': []}}, u'mouseout': {u'state': {u'target': [], u'time': []}, u'edge': {u'target': [], u'time': []}}}",,,"[1192, 551, 707]",5.0,,1828402,9.0,0.0,mouselab-mdp,,2
"[2129, 837489, 838278]","[u'right', u'right', u'up']",,,"[22, -1, -1]","[u'1', 2, 6, 10]","{u'mouseover': {u'state': {u'target': [], u'time': []}, u'edge': {u'target': [], u'time': []}}, u'click': {u'state': {u'target': [], u'time': []}, u'edge': {u'target': [], u'time': []}}, u'mouseout': {u'state': {u'target': [], u'time': []}, u'edge': {u'target': [], u'time': []}}}",,,"[2128, 812300, 3]",4.0,,2670459,10.0,11.0,mouselab-mdp,,2
"[922, 17448, 18228]","[u'down', u'down', u'left']",,,"[11, -1, -1]","[u'1', 5, 9, 16]","{u'mouseover': {u'state': {u'target': [], u'time': []}, u'edge': {u'target': [], u'time': []}}, u'click': {u'state': {u'target': [], u'time': []}, u'edge': {u'target': [], u'time': []}}, u'mouseout': {u'state': {u'target': [], u'time': []}, u'edge': {u'target': [], u'time': []}}}",,,"[922, 4522, 2]",22.0,,2747753,11.0,8.0,mouselab-mdp,,2
"[2, 72212, 73006]","[u'left', u'left', u'down']",,,"[29, -1, 5]","[u'1', 4, 8, 15]","{u'mouseover': {u'state': {u'target': [], u'time': []}, u'edge': {u'target': [], u'time': []}}, u'click': {u'state': {u'target': [], u'time': []}, u'edge': {u'target': [], u'time': []}}, u'mouseout': {u'state': {u'target': [], u'time': []}, u'edge': {u'target': [], u'time': []}}}",,,"[2, 42198, 2]",8.0,,2830545,12.0,5.0,mouselab-mdp,,2
"[9059, 15073, 19002]","[u'up', u'up', u'right']",,,"[3, 0, 1]","[u'1', 3, 7, 13]","{u'mouseover': {u'state': {u'target': [], u'time': []}, u'edge': {u'target': [], u'time': []}}, u'click': {u'state': {u'target': [u'3'], u'time': [5940]}, u'edge': {u'target': [], u'time': []}}, u'mouseout': {u'state': {u'target': [], u'time': []}, u'edge': {u'target': [], u'time': []}}}",,,"[9058, 1579, 3209]",26.0,,441972,1.0,10.0,mouselab-mdp,,3
"[10962, 18601, 22864]","[u'up', u'up', u'left']",,,"[3, 0, 1]","[u'1', 3, 7, 12]","{u'mouseover': {u'state': {u'target': [], u'time': []}, u'edge': {u'target': [], u'time': []}}, u'click': {u'state': {u'target': [u'4', u'5', u'2', u'3'], u'time': [2385, 3674, 5847, 7778]}, u'edge': {u'target': [], u'time': []}}, u'mouseout': {u'state': {u'target': [], u'time': []}, u'edge': {u'target': [], u'time': []}}}",,,"[10962, 2802, 3485]",30.0,,495381,2.0,7.0,mouselab-mdp,,3
"[11210, 17209, 24291]","[u'down', u'down', u'right']",,,"[3, 0, 1]","[u'1', 5, 9, 17]","{u'mouseover': {u'state': {u'target': [], u'time': []}, u'edge': {u'target': [], u'time': []}}, u'click': {u'state': {u'target': [u'4', u'5', u'2', u'3'], u'time': [2781, 4814, 6583, 8069]}, u'edge': {u'target': [], u'time': []}}, u'mouseout': {u'state': {u'target': [], u'time': []}, u'edge': {u'target': [], u'time': []}}}",,,"[11210, 1196, 6353]",6.0,,551365,3.0,1.0,mouselab-mdp,,3
"[8920, 14976, 29095]","[u'left', u'left', u'down']",,,"[3, 0, 1]","[u'1', 4, 8, 15]","{u'mouseover': {u'state': {u'target': [], u'time': []}, u'edge': {u'target': [], u'time': []}}, u'click': {u'state': {u'target': [u'4', u'3', u'2', u'5', u'14', u'15'], u'time': [1868, 3089, 4300, 5926, 23808, 25632]}, u'edge': {u'target': [], u'time': []}}, u'mouseout': {u'state': {u'target': [], u'time': []}, u'edge': {u'target': [], u'time': []}}}",,,"[8920, 1309, 13394]",-10.0,,608236,4.0,5.0,mouselab-mdp,,3
"[14519, 22014, 33480]","[u'down', u'down', u'right']",,,"[3, 0, 1]","[u'1', 5, 9, 17]","{u'mouseover': {u'state': {u'target': [], u'time': []}, u'edge': {u'target': [], u'time': []}}, u'click': {u'state': {u'target': [u'3', u'2', u'5', u'4', u'17', u'16'], u'time': [1264, 3040, 4581, 6424, 26782, 30444]}, u'edge': {u'target': [], u'time': []}}, u'mouseout': {u'state': {u'target': [], u'time': []}, u'edge': {u'target': [], u'time': []}}}",,,"[14519, 2748, 10738]",36.0,,661252,5.0,4.0,mouselab-mdp,,3
"[12839, 18956, 29388]","[u'down', u'down', u'left']",,,"[3, 0, 1]","[u'1', 5, 9, 16]","{u'mouseover': {u'state': {u'target': [], u'time': []}, u'edge': {u'target': [], u'time': []}}, u'click': {u'state': {u'target': [u'3', u'2', u'5', u'4', u'16', u'17'], u'time': [3901, 5674, 7303, 9182, 23943, 25542]}, u'edge': {u'target': [], u'time': []}}, u'mouseout': {u'state': {u'target': [], u'time': []}, u'edge': {u'target': [], u'time': []}}}",,,"[12838, 1335, 9680]",6.0,,714982,6.0,8.0,mouselab-mdp,,3
"[21728, 28095, 32761]","[u'right', u'right', u'down']",,,"[3, 0, 1]","[u'1', 2, 6, 11]","{u'mouseover': {u'state': {u'target': [], u'time': []}, u'edge': {u'target': [], u'time': []}}, u'click': {u'state': {u'target': [u'3', u'4', u'5', u'2', u'6', u'7', u'8', u'9', u'11', u'10'], u'time': [2049, 3062, 4215, 5407, 7193, 8590, 10894, 12474, 15926, 17257]}, u'edge': {u'target': [], u'time': []}}, u'mouseout': {u'state': {u'target': [], u'time': []}, u'edge': {u'target': [], u'time': []}}}",,,"[21728, 778, 3962]",46.0,,769477,7.0,6.0,mouselab-mdp,,3
"[40085, 46763, 50019]","[u'right', u'right', u'down']",,,"[3, 0, 1]","[u'1', 2, 6, 11]","{u'mouseover': {u'state': {u'target': [], u'time': []}, u'edge': {u'target': [], u'time': []}}, u'click': {u'state': {u'target': [u'3', u'4', u'5', u'2', u'6', u'9', u'7', u'13', u'12', u'10', u'11', u'17', u'16'], u'time': [3693, 4662, 5813, 7161, 8809, 12651, 18441, 21877, 23589, 25094, 26897, 29197, 30726]}, u'edge': {u'target': [], u'time': []}}, u'mouseout': {u'state': {u'target': [], u'time': []}, u'edge': {u'target': [], u'time': []}}}",,,"[40085, 1167, 2667]",43.0,,830676,8.0,11.0,mouselab-mdp,,3
"[21058, 27304, 31894]","[u'left', u'left', u'up']",,,"[3, 0, 1]","[u'1', 4, 8, 14]","{u'mouseover': {u'state': {u'target': [], u'time': []}, u'edge': {u'target': [], u'time': []}}, u'click': {u'state': {u'target': [u'3', u'2', u'5', u'4', u'9', u'6', u'7', u'8', u'14', u'15'], u'time': [2548, 3732, 4716, 5823, 7552, 8886, 10415, 11922, 16556, 17969]}, u'edge': {u'target': [], u'time': []}}, u'mouseout': {u'state': {u'target': [], u'time': []}, u'edge': {u'target': [], u'time': []}}}",,,"[21058, 711, 3869]",44.0,,885292,9.0,0.0,mouselab-mdp,,3
"[25183, 31408, 39151]","[u'right', u'right', u'up']",,,"[3, 0, 1]","[u'1', 2, 6, 10]","{u'mouseover': {u'state': {u'target': [], u'time': []}, u'edge': {u'target': [], u'time': []}}, u'click': {u'state': {u'target': [u'3', u'2', u'5', u'4', u'8', u'7', u'6', u'9', u'11', u'10'], u'time': [2531, 3651, 4841, 6043, 8197, 9851, 11327, 13320, 20068, 22264]}, u'edge': {u'target': [], u'time': []}}, u'mouseout': {u'state': {u'target': [], u'time': []}, u'edge': {u'target': [], u'time': []}}}",,,"[25183, 854, 7061]",26.0,,942492,10.0,3.0,mouselab-mdp,,3
"[17462, 23535, 29934]","[u'right', u'right', u'up']",,,"[3, 0, 1]","[u'1', 2, 6, 10]","{u'mouseover': {u'state': {u'target': [], u'time': []}, u'edge': {u'target': [], u'time': []}}, u'click': {u'state': {u'target': [u'3', u'2', u'5', u'4', u'6', u'9', u'10', u'11'], u'time': [4026, 5179, 6204, 7419, 9904, 11251, 13364, 14497]}, u'edge': {u'target': [], u'time': []}}, u'mouseout': {u'state': {u'target': [], u'time': []}, u'edge': {u'target': [], u'time': []}}}",,,"[17462, 821, 5683]",26.0,,998250,11.0,2.0,mouselab-mdp,,3
"[22552, 29359, 34542]","[u'left', u'left', u'down']",,,"[3, 0, 1]","[u'1', 4, 8, 15]","{u'mouseover': {u'state': {u'target': [], u'time': []}, u'edge': {u'target': [], u'time': []}}, u'click': {u'state': {u'target': [u'4', u'3', u'2', u'5', u'8', u'7', u'14', u'15'], u'time': [3711, 4723, 6023, 7255, 9916, 11907, 18270, 19426]}, u'edge': {u'target': [], u'time': []}}, u'mouseout': {u'state': {u'target': [], u'time': []}, u'edge': {u'target': [], u'time': []}}}",,,"[22552, 1499, 4488]",33.0,,1051499,12.0,9.0,mouselab-mdp,,3
"[62188, 107470, 113580]","[u'right', u'right', u'up']",,,"[15, 0, 3]","[u'1', 2, 6, 10]","{u'mouseover': {u'state': {u'target': [], u'time': []}, u'edge': {u'target': [], u'time': []}}, u'click': {u'state': {u'target': [u'7', u'14', u'5', u'6', u'9', u'17', u'10'], u'time': [5265, 11789, 18790, 25716, 31852, 40467, 57618]}, u'edge': {u'target': [], u'time': []}}, u'mouseout': {u'state': {u'target': [], u'time': []}, u'edge': {u'target': [], u'time': []}}}",,,"[62185, 8069, 3541]",8.5,,339186,1.0,9.0,mouselab-mdp,,4
"[3265, 8906, 12012]","[u'right', u'right', u'up']",,,"[-1, -1, 20]","[u'1', 2, 6, 10]","{u'mouseover': {u'state': {u'target': [], u'time': []}, u'edge': {u'target': [], u'time': []}}, u'click': {u'state': {u'target': [], u'time': []}, u'edge': {u'target': [], u'time': []}}, u'mouseout': {u'state': {u'target': [], u'time': []}, u'edge': {u'target': [], u'time': []}}}",,,"[3263, 3108, 1602]",24.0,,229783,1.0,11.0,mouselab-mdp,,5
"[2022, 5792, 9573]","[u'up', u'up', u'right']",,,"[-1, -1, 4]","[u'1', 3, 7, 13]","{u'mouseover': {u'state': {u'target': [], u'time': []}, u'edge': {u'target': [], u'time': []}}, u'click': {u'state': {u'target': [], u'time': []}, u'edge': {u'target': [], u'time': []}}, u'mouseout': {u'state': {u'target': [], u'time': []}, u'edge': {u'target': [], u'time': []}}}",,,"[2021, 1263, 2319]",31.0,,287378,2.0,9.0,mouselab-mdp,,5
"[3604, 23874, 27186]","[u'left', u'left', u'up']",,,"[16, -1, -1]","[u'1', 4, 8, 14]","{u'mouseover': {u'state': {u'target': [], u'time': []}, u'edge': {u'target': [], u'time': []}}, u'click': {u'state': {u'target': [], u'time': []}, u'edge': {u'target': [], u'time': []}}, u'mouseout': {u'state': {u'target': [], u'time': []}, u'edge': {u'target': [], u'time': []}}}",,,"[3602, 1760, 1723]",23.0,,354864,3.0,7.0,mouselab-mdp,,5
"[15278, 19136, 23471]","[u'left', u'left', u'up']",,,"[-1, -1, -1]","[u'1', 4, 8, 14]","{u'mouseover': {u'state': {u'target': [], u'time': []}, u'edge': {u'target': [], u'time': []}}, u'click': {u'state': {u'target': [u'3', u'4', u'2', u'6', u'10', u'11', u'5', u'9', u'17', u'16', u'15', u'8', u'14', u'12', u'7', u'13'], u'time': [930, 1940, 2629, 3160, 3572, 4185, 5009, 5731, 6162, 6995, 7763, 8264, 8695, 9212, 9807, 10411]}, u'edge': {u'target': [], u'time': []}}, u'mouseout': {u'state': {u'target': [], u'time': []}, u'edge': {u'target': [], u'time': []}}}",,,"[15278, 7, 3814]",33.84,,406169,4.0,5.0,mouselab-mdp,,5
"[11029, 14788, 15844]","[u'right', u'right', u'down']",,,"[-1, -1, -1]","[u'1', 2, 6, 11]","{u'mouseover': {u'state': {u'target': [], u'time': []}, u'edge': {u'target': [], u'time': []}}, u'click': {u'state': {u'target': [u'7', u'3', u'13', u'12', u'4', u'8', u'14', u'15', u'2', u'6', u'10', u'11', u'5', u'9', u'17', u'16'], u'time': [890, 1303, 1970, 2586, 3329, 3808, 4253, 4937, 5722, 6108, 6606, 7238, 7955, 8371, 8794, 9372]}, u'edge': {u'target': [], u'time': []}}, u'mouseout': {u'state': {u'target': [], u'time': []}, u'edge': {u'target': [], u'time': []}}}",,,"[11028, 382, 516]",37.84,,458373,5.0,6.0,mouselab-mdp,,5
"[13594, 17106, 18392]","[u'right', u'right', u'up']",,,"[-1, -1, -1]","[u'1', 2, 6, 10]","{u'mouseover': {u'state': {u'target': [], u'time': []}, u'edge': {u'target': [], u'time': []}}, u'click': {u'state': {u'target': [u'3', u'7', u'13', u'12', u'4', u'8', u'14', u'15', u'2', u'6', u'10', u'11', u'5', u'9', u'16', u'17'], u'time': [853, 1299, 1793, 2385, 3704, 4185, 4632, 5285, 6032, 6500, 6969, 7770, 8401, 9102, 10329, 10957]}, u'edge': {u'target': [], u'time': []}}, u'mouseout': {u'state': {u'target': [], u'time': []}, u'edge': {u'target': [], u'time': []}}}",,,"[13594, 56, 762]",33.84,,509655,6.0,2.0,mouselab-mdp,,5
"[13506, 18099, 19319]","[u'down', u'down', u'left']",,,"[-1, -1, -1]","[u'1', 5, 9, 16]","{u'mouseover': {u'state': {u'target': [], u'time': []}, u'edge': {u'target': [], u'time': []}}, u'click': {u'state': {u'target': [u'3', u'4', u'2', u'5', u'7', u'13', u'12', u'8', u'14', u'15', u'9', u'17', u'16'], u'time': [761, 1619, 2489, 3389, 4222, 4869, 5520, 7148, 7669, 8285, 10207, 10939, 11840]}, u'edge': {u'target': [], u'time': []}}, u'mouseout': {u'state': {u'target': [], u'time': []}, u'edge': {u'target': [], u'time': []}}}",,,"[13505, 7, 358]",45.87,,561106,7.0,1.0,mouselab-mdp,,5
"[13064, 17506, 19016]","[u'right', u'right', u'up']",,,"[-1, -1, -1]","[u'1', 2, 6, 10]","{u'mouseover': {u'state': {u'target': [], u'time': []}, u'edge': {u'target': [], u'time': []}}, u'click': {u'state': {u'target': [u'3', u'2', u'5', u'4', u'9', u'6', u'7', u'10', u'11', u'17', u'16', u'8'], u'time': [957, 1839, 2639, 3251, 4326, 5272, 6024, 7989, 9270, 10443, 11127, 17542]}, u'edge': {u'target': [], u'time': []}}, u'mouseout': {u'state': {u'target': [], u'time': []}, u'edge': {u'target': [], u'time': []}}}",,,"[13064, 7, 6]",33.88,,615200,8.0,3.0,mouselab-mdp,,5
"[17398, 21890, 23252]","[u'down', u'down', u'right']",,,"[-1, -1, -1]","[u'1', 5, 9, 17]","{u'mouseover': {u'state': {u'target': [], u'time': []}, u'edge': {u'target': [], u'time': []}}, u'click': {u'state': {u'target': [u'3', u'4', u'2', u'5', u'8', u'9', u'7', u'14', u'15', u'16', u'17', u'12', u'13'], u'time': [1059, 1879, 2603, 3303, 4607, 5762, 6707, 8407, 9618, 10354, 11164, 12122, 13048]}, u'edge': {u'target': [], u'time': []}}, u'mouseout': {u'state': {u'target': [], u'time': []}, u'edge': {u'target': [], u'time': []}}}",,,"[17398, 14, 561]",41.87,,667213,9.0,4.0,mouselab-mdp,,5
"[30362, 34776, 35770]","[u'up', u'up', u'left']",,,"[-1, -1, -1]","[u'1', 3, 7, 12]","{u'mouseover': {u'state': {u'target': [], u'time': []}, u'edge': {u'target': [], u'time': []}}, u'click': {u'state': {u'target': [u'3', u'4', u'5', u'2', u'9', u'8', u'7', u'6', u'10', u'12', u'13', u'11', u'17', u'16', u'15', u'14'], u'time': [726, 1384, 2092, 2775, 4443, 5385, 6346, 7047, 7750, 8595, 9148, 9881, 10580, 11652, 12412, 13124]}, u'edge': {u'target': [], u'time': []}}, u'mouseout': {u'state': {u'target': [], u'time': []}, u'edge': {u'target': [], u'time': []}}}",,,"[30361, 15, 460]",40.84,,719082,10.0,8.0,mouselab-mdp,,5
"[12065, 16683, 18001]","[u'left', u'left', u'down']",,,"[-1, -1, -1]","[u'1', 4, 8, 15]","{u'mouseover': {u'state': {u'target': [], u'time': []}, u'edge': {u'target': [], u'time': []}}, u'click': {u'state': {u'target': [u'3', u'4', u'2', u'5', u'9', u'16', u'17', u'8', u'15', u'14', u'12', u'13', u'7'], u'time': [795, 1381, 2060, 2716, 3459, 4268, 4922, 5838, 6723, 7517, 8423, 9243, 9755]}, u'edge': {u'target': [], u'time': []}}, u'mouseout': {u'state': {u'target': [], u'time': []}, u'edge': {u'target': [], u'time': []}}}",,,"[12065, 17, 458]",39.87,,771191,11.0,0.0,mouselab-mdp,,5
"[25186, 29163, 30143]","[u'right', u'right', u'up']",,,"[-1, -1, -1]","[u'1', 2, 6, 10]","{u'mouseover': {u'state': {u'target': [], u'time': []}, u'edge': {u'target': [], u'time': []}}, u'click': {u'state': {u'target': [u'3', u'4', u'2', u'5', u'6', u'8', u'7', u'12', u'13', u'14', u'15', u'10', u'11', u'9', u'16', u'17'], u'time': [2057, 2739, 3370, 4124, 5323, 6634, 7594, 9695, 10296, 11675, 12425, 13561, 14471, 22460, 23180, 23802]}, u'edge': {u'target': [], u'time': []}}, u'mouseout': {u'state': {u'target': [], u'time': []}, u'edge': {u'target': [], u'time': []}}}",,,"[25185, 15, 438]",21.84,,823466,12.0,10.0,mouselab-mdp,,5
"[2559, 4532, 6047]","[u'left', u'left', u'up']",,,"[-1, -1, 44]","[u'1', 4, 8, 14]","{u'mouseover': {u'state': {u'target': [], u'time': []}, u'edge': {u'target': [], u'time': []}}, u'click': {u'state': {u'target': [], u'time': []}, u'edge': {u'target': [], u'time': []}}, u'mouseout': {u'state': {u'target': [], u'time': []}, u'edge': {u'target': [], u'time': []}}}",,,"[2557, 361, 477]",-14.0,,240160,1.0,1.0,mouselab-mdp,,6
"[1520, 6984, 8064]","[u'down', u'down', u'left']",,,"[2, -1, 11]","[u'1', 5, 9, 16]","{u'mouseover': {u'state': {u'target': [], u'time': []}, u'edge': {u'target': [], u'time': []}}, u'click': {u'state': {u'target': [], u'time': []}, u'edge': {u'target': [], u'time': []}}, u'mouseout': {u'state': {u'target': [], u'time': []}, u'edge': {u'target': [], u'time': []}}}",,,"[1520, 1891, 4]",-5.0,,306802,2.0,0.0,mouselab-mdp,,6
"[9612, 11838, 12637]","[u'up', u'up', u'right']",,,"[-1, -1, -1]","[u'1', 3, 7, 13]","{u'mouseover': {u'state': {u'target': [], u'time': []}, u'edge': {u'target': [], u'time': []}}, u'click': {u'state': {u'target': [u'14', u'12', u'13', u'10', u'11', u'17', u'16', u'15'], u'time': [1320, 2461, 3433, 4361, 5653, 6651, 7315, 8371]}, u'edge': {u'target': [], u'time': []}}, u'mouseout': {u'state': {u'target': [], u'time': []}, u'edge': {u'target': [], u'time': []}}}",,,"[9612, 5, 4]",-2.0,,359951,3.0,6.0,mouselab-mdp,,6
"[2435, 86862, 90264]","[u'down', u'down', u'right']",,,"[9, -1, -1]","[u'1', 5, 9, 17]","{u'mouseover': {u'state': {u'target': [], u'time': []}, u'edge': {u'target': [], u'time': []}}, u'click': {u'state': {u'target': [], u'time': []}, u'edge': {u'target': [], u'time': []}}, u'mouseout': {u'state': {u'target': [], u'time': []}, u'edge': {u'target': [], u'time': []}}}",,,"[2435, 73858, 2332]",24.0,,454534,4.0,9.0,mouselab-mdp,,6
"[3916, 7759, 8913]","[u'up', u'up', u'right']",,,"[1, -1, -1]","[u'1', 3, 7, 13]","{u'mouseover': {u'state': {u'target': [], u'time': []}, u'edge': {u'target': [], u'time': []}}, u'click': {u'state': {u'target': [], u'time': []}, u'edge': {u'target': [], u'time': []}}, u'mouseout': {u'state': {u'target': [], u'time': []}, u'edge': {u'target': [], u'time': []}}}",,,"[3916, 1276, 119]",27.0,,552833,5.0,7.0,mouselab-mdp,,6
"[1371, 16742, 18330]","[u'right', u'right', u'up']",,,"[10, -1, -1]","[u'1', 2, 6, 10]","{u'mouseover': {u'state': {u'target': [], u'time': []}, u'edge': {u'target': [], u'time': []}}, u'click': {u'state': {u'target': [], u'time': []}, u'edge': {u'target': [], u'time': []}}, u'mouseout': {u'state': {u'target': [], u'time': []}, u'edge': {u'target': [], u'time': []}}}",,,"[1371, 3835, 523]",22.0,,620396,6.0,10.0,mouselab-mdp,,6
"[1395, 14805, 17139]","[u'down', u'down', u'left']",,,"[11, -1, -1]","[u'1', 5, 9, 16]","{u'mouseover': {u'state': {u'target': [], u'time': []}, u'edge': {u'target': [], u'time': []}}, u'click': {u'state': {u'target': [], u'time': []}, u'edge': {u'target': [], u'time': []}}, u'mouseout': {u'state': {u'target': [], u'time': []}, u'edge': {u'target': [], u'time': []}}}",,,"[1395, 845, 1282]",22.0,,693821,7.0,8.0,mouselab-mdp,,6
"[1408, 2979, 4985]","[u'up', u'up', u'left']",,,"[-1, -1, -1]","[u'1', 3, 7, 12]","{u'mouseover': {u'state': {u'target': [], u'time': []}, u'edge': {u'target': [], u'time': []}}, u'click': {u'state': {u'target': [], u'time': []}, u'edge': {u'target': [], u'time': []}}, u'mouseout': {u'state': {u'target': [], u'time': []}, u'edge': {u'target': [], u'time': []}}}",,,"[1407, 44, 979]",19.0,,742021,8.0,2.0,mouselab-mdp,,6
"[1290, 8611, 10139]","[u'left', u'left', u'up']",,,"[5, -1, 14]","[u'1', 4, 8, 14]","{u'mouseover': {u'state': {u'target': [], u'time': []}, u'edge': {u'target': [], u'time': []}}, u'click': {u'state': {u'target': [], u'time': []}, u'edge': {u'target': [], u'time': []}}, u'mouseout': {u'state': {u'target': [], u'time': []}, u'edge': {u'target': [], u'time': []}}}",,,"[1290, 777, 442]",7.0,,811547,9.0,11.0,mouselab-mdp,,6
"[2024, 11361, 14228]","[u'down', u'down', u'right']",,,"[7, -1, -1]","[u'1', 5, 9, 17]","{u'mouseover': {u'state': {u'target': [], u'time': []}, u'edge': {u'target': [], u'time': []}}, u'click': {u'state': {u'target': [], u'time': []}, u'edge': {u'target': [], u'time': []}}, u'mouseout': {u'state': {u'target': [], u'time': []}, u'edge': {u'target': [], u'time': []}}}",,,"[2024, 807, 1829]",27.0,,866803,10.0,5.0,mouselab-mdp,,6
"[1276, 14337, 16441]","[u'down', u'down', u'left']",,,"[10, -1, 2]","[u'1', 5, 9, 16]","{u'mouseover': {u'state': {u'target': [], u'time': []}, u'edge': {u'target': [], u'time': []}}, u'click': {u'state': {u'target': [], u'time': []}, u'edge': {u'target': [], u'time': []}}, u'mouseout': {u'state': {u'target': [], u'time': []}, u'edge': {u'target': [], u'time': []}}}",,,"[1276, 1515, 1054]",30.0,,927652,11.0,4.0,mouselab-mdp,,6
"[1954, 7431, 9752]","[u'up', u'up', u'left']",,,"[3, -1, -1]","[u'1', 3, 7, 12]","{u'mouseover': {u'state': {u'target': [], u'time': []}, u'edge': {u'target': [], u'time': []}}, u'click': {u'state': {u'target': [], u'time': []}, u'edge': {u'target': [], u'time': []}}, u'mouseout': {u'state': {u'target': [], u'time': []}, u'edge': {u'target': [], u'time': []}}}",,,"[1954, 940, 1298]",-4.0,,981519,12.0,3.0,mouselab-mdp,,6
"[192585, 225622, 240344]","[u'right', u'right', u'down']",,,"[4, 0, 0]","[u'1', 2, 6, 11]","{u'mouseover': {u'state': {u'target': [], u'time': []}, u'edge': {u'target': [], u'time': []}}, u'click': {u'state': {u'target': [u'2', u'6', u'4', u'8', u'14', u'5', u'9', u'17', u'10', u'3', u'7', u'12', u'15', u'16', u'13', u'11'], u'time': [5031, 7352, 14112, 15167, 17323, 22639, 23370, 24692, 68411, 86450, 87647, 88668, 117206, 117988, 119353, 121329]}, u'edge': {u'target': [], u'time': []}}, u'mouseout': {u'state': {u'target': [], u'time': []}, u'edge': {u'target': [], u'time': []}}}",,,"[192583, 12178, 14191]",-28.0,,637952,1.0,6.0,mouselab-mdp,,7
"[26439, 33201, 36625]","[u'down', u'down', u'left']",,,"[0, 0, 0]","[u'1', 5, 9, 16]","{u'mouseover': {u'state': {u'target': [], u'time': []}, u'edge': {u'target': [], u'time': []}}, u'click': {u'state': {u'target': [], u'time': []}, u'edge': {u'target': [], u'time': []}}, u'mouseout': {u'state': {u'target': [], u'time': []}, u'edge': {u'target': [], u'time': []}}}",,,"[26438, 6, 1292]",24.0,,696997,2.0,9.0,mouselab-mdp,,7
"[4585, 11391, 13488]","[u'left', u'left', u'down']",,,"[0, 0, 0]","[u'1', 4, 8, 15]","{u'mouseover': {u'state': {u'target': [], u'time': []}, u'edge': {u'target': [], u'time': []}}, u'click': {u'state': {u'target': [], u'time': []}, u'edge': {u'target': [], u'time': []}}, u'mouseout': {u'state': {u'target': [], u'time': []}, u'edge': {u'target': [], u'time': []}}}",,,"[4584, 6, 6]",0.0,,752988,3.0,3.0,mouselab-mdp,,7
"[3854, 21269, 34573]","[u'up', u'up', u'left']",,,"[0, 0, 0]","[u'1', 3, 7, 12]","{u'mouseover': {u'state': {u'target': [], u'time': []}, u'edge': {u'target': [], u'time': []}}, u'click': {u'state': {u'target': [], u'time': []}, u'edge': {u'target': [], u'time': []}}, u'mouseout': {u'state': {u'target': [], u'time': []}, u'edge': {u'target': [], u'time': []}}}",,,"[3853, 10626, 11123]",8.0,,827501,4.0,1.0,mouselab-mdp,,7
"[889, 19424, 33932]","[u'right', u'right', u'down']",,,"[0, 0, 0]","[u'1', 2, 6, 11]","{u'mouseover': {u'state': {u'target': [], u'time': []}, u'edge': {u'target': [], u'time': []}}, u'click': {u'state': {u'target': [], u'time': []}, u'edge': {u'target': [], u'time': []}}, u'mouseout': {u'state': {u'target': [], u'time': []}, u'edge': {u'target': [], u'time': []}}}",,,"[888, 11785, 12348]",17.0,,896961,5.0,10.0,mouselab-mdp,,7
"[15612, 37552, 49566]","[u'up', u'up', u'left']",,,"[0, 0, 0]","[u'1', 3, 7, 12]","{u'mouseover': {u'state': {u'target': [], u'time': []}, u'edge': {u'target': [], u'time': []}}, u'click': {u'state': {u'target': [], u'time': []}, u'edge': {u'target': [], u'time': []}}, u'mouseout': {u'state': {u'target': [], u'time': []}, u'edge': {u'target': [], u'time': []}}}",,,"[15611, 15128, 9833]",19.0,,955665,6.0,7.0,mouselab-mdp,,7
"[5418, 16538, 34207]","[u'down', u'down', u'left']",,,"[0, 0, 0]","[u'1', 5, 9, 16]","{u'mouseover': {u'state': {u'target': [], u'time': []}, u'edge': {u'target': [], u'time': []}}, u'click': {u'state': {u'target': [], u'time': []}, u'edge': {u'target': [], u'time': []}}, u'mouseout': {u'state': {u'target': [], u'time': []}, u'edge': {u'target': [], u'time': []}}}",,,"[5418, 4274, 15544]",2.0,,1028600,7.0,5.0,mouselab-mdp,,7
"[6749, 27603, 45799]","[u'right', u'right', u'up']",,,"[0, 0, 0]","[u'1', 2, 6, 10]","{u'mouseover': {u'state': {u'target': [], u'time': []}, u'edge': {u'target': [], u'time': []}}, u'click': {u'state': {u'target': [], u'time': []}, u'edge': {u'target': [], u'time': []}}, u'mouseout': {u'state': {u'target': [], u'time': []}, u'edge': {u'target': [], u'time': []}}}",,,"[6749, 14073, 15976]",23.0,,1091608,8.0,4.0,mouselab-mdp,,7
"[16410, 33156, 46684]","[u'left', u'left', u'up']",,,"[0, 0, 0]","[u'1', 4, 8, 14]","{u'mouseover': {u'state': {u'target': [], u'time': []}, u'edge': {u'target': [], u'time': []}}, u'click': {u'state': {u'target': [], u'time': []}, u'edge': {u'target': [], u'time': []}}, u'mouseout': {u'state': {u'target': [], u'time': []}, u'edge': {u'target': [], u'time': []}}}",,,"[16408, 9926, 11369]",-1.0,,1156050,9.0,2.0,mouselab-mdp,,7
"[7396, 17747, 46377]","[u'right', u'right', u'up']",,,"[0, 0, 0]","[u'1', 2, 6, 10]","{u'mouseover': {u'state': {u'target': [], u'time': []}, u'edge': {u'target': [], u'time': []}}, u'click': {u'state': {u'target': [], u'time': []}, u'edge': {u'target': [], u'time': []}}, u'mouseout': {u'state': {u'target': [], u'time': []}, u'edge': {u'target': [], u'time': []}}}",,,"[7396, 3370, 26454]",3.0,,1214704,10.0,0.0,mouselab-mdp,,7
"[5391, 21334, 58659]","[u'down', u'down', u'right']",,,"[0, 0, 0]","[u'1', 5, 9, 17]","{u'mouseover': {u'state': {u'target': [], u'time': []}, u'edge': {u'target': [], u'time': []}}, u'click': {u'state': {u'target': [u'17', u'16'], u'time': [50413, 56778]}, u'edge': {u'target': [], u'time': []}}, u'mouseout': {u'state': {u'target': [], u'time': []}, u'edge': {u'target': [], u'time': []}}}",,,"[5391, 8886, 35029]",29.0,,1282348,11.0,11.0,mouselab-mdp,,7
"[6099, 22833, 44149]","[u'up', u'up', u'right']",,,"[0, 3, 0]","[u'1', 3, 7, 13]","{u'mouseover': {u'state': {u'target': [], u'time': []}, u'edge': {u'target': [], u'time': []}}, u'click': {u'state': {u'target': [u'13'], u'time': [21240]}, u'edge': {u'target': [], u'time': []}}, u'mouseout': {u'state': {u'target': [], u'time': []}, u'edge': {u'target': [], u'time': []}}}",,,"[6099, 9546, 14250]",34.5,,1348308,12.0,8.0,mouselab-mdp,,7
"[3709, 11956, 17444]","[u'right', u'right', u'down']",,,"[4, 0, 1]","[u'1', 2, 6, 11]","{u'mouseover': {u'state': {u'target': [], u'time': []}, u'edge': {u'target': [], u'time': []}}, u'click': {u'state': {u'target': [], u'time': []}, u'edge': {u'target': [], u'time': []}}, u'mouseout': {u'state': {u'target': [], u'time': []}, u'edge': {u'target': [], u'time': []}}}",,,"[3708, 2498, 4670]",32.0,,207088,1.0,2.0,mouselab-mdp,,8
"[3883, 10764, 15885]","[u'up', u'up', u'right']",,,"[4, 0, 1]","[u'1', 3, 7, 13]","{u'mouseover': {u'state': {u'target': [], u'time': []}, u'edge': {u'target': [], u'time': []}}, u'click': {u'state': {u'target': [], u'time': []}, u'edge': {u'target': [], u'time': []}}, u'mouseout': {u'state': {u'target': [], u'time': []}, u'edge': {u'target': [], u'time': []}}}",,,"[3883, 1068, 4298]",13.0,,260328,2.0,4.0,mouselab-mdp,,8
"[2851, 9188, 12820]","[u'left', u'left', u'up']",,,"[4, 0, 1]","[u'1', 4, 8, 14]","{u'mouseover': {u'state': {u'target': [], u'time': []}, u'edge': {u'target': [], u'time': []}}, u'click': {u'state': {u'target': [], u'time': []}, u'edge': {u'target': [], u'time': []}}, u'mouseout': {u'state': {u'target': [], u'time': []}, u'edge': {u'target': [], u'time': []}}}",,,"[2851, 595, 2807]",6.0,,313856,3.0,1.0,mouselab-mdp,,8
"[594, 10279, 13234]","[u'right', u'right', u'up']",,,"[4, 0, 1]","[u'1', 2, 6, 10]","{u'mouseover': {u'state': {u'target': [], u'time': []}, u'edge': {u'target': [], u'time': []}}, u'click': {u'state': {u'target': [], u'time': []}, u'edge': {u'target': [], u'time': []}}, u'mouseout': {u'state': {u'target': [], u'time': []}, u'edge': {u'target': [], u'time': []}}}",,,"[594, 3929, 2117]",13.0,,369584,4.0,6.0,mouselab-mdp,,8
"[1325, 7557, 9765]","[u'right', u'right', u'down']",,,"[4, 0, 1]","[u'1', 2, 6, 11]","{u'mouseover': {u'state': {u'target': [], u'time': []}, u'edge': {u'target': [], u'time': []}}, u'click': {u'state': {u'target': [], u'time': []}, u'edge': {u'target': [], u'time': []}}, u'mouseout': {u'state': {u'target': [], u'time': []}, u'edge': {u'target': [], u'time': []}}}",,,"[1325, 496, 1370]",38.0,,424984,5.0,11.0,mouselab-mdp,,8
"[859, 7275, 11643]","[u'down', u'down', u'right']",,,"[4, 0, 1]","[u'1', 5, 9, 17]","{u'mouseover': {u'state': {u'target': [], u'time': []}, u'edge': {u'target': [], u'time': []}}, u'click': {u'state': {u'target': [], u'time': []}, u'edge': {u'target': [], u'time': []}}, u'mouseout': {u'state': {u'target': [], u'time': []}, u'edge': {u'target': [], u'time': []}}}",,,"[859, 693, 3531]",11.0,,478374,6.0,0.0,mouselab-mdp,,8
"[1175, 7454, 10814]","[u'down', u'down', u'left']",,,"[4, 0, 1]","[u'1', 5, 9, 16]","{u'mouseover': {u'state': {u'target': [], u'time': []}, u'edge': {u'target': [], u'time': []}}, u'click': {u'state': {u'target': [], u'time': []}, u'edge': {u'target': [], u'time': []}}, u'mouseout': {u'state': {u'target': [], u'time': []}, u'edge': {u'target': [], u'time': []}}}",,,"[1175, 501, 2524]",13.0,,538495,7.0,8.0,mouselab-mdp,,8
"[1394, 7843, 10604]","[u'right', u'right', u'down']",,,"[4, 0, 1]","[u'1', 2, 6, 11]","{u'mouseover': {u'state': {u'target': [], u'time': []}, u'edge': {u'target': [], u'time': []}}, u'click': {u'state': {u'target': [], u'time': []}, u'edge': {u'target': [], u'time': []}}, u'mouseout': {u'state': {u'target': [], u'time': []}, u'edge': {u'target': [], u'time': []}}}",,,"[1394, 575, 1919]",17.0,,593630,8.0,9.0,mouselab-mdp,,8
"[1310, 7573, 9269]","[u'up', u'up', u'left']",,,"[4, 0, 1]","[u'1', 3, 7, 12]","{u'mouseover': {u'state': {u'target': [], u'time': []}, u'edge': {u'target': [], u'time': []}}, u'click': {u'state': {u'target': [], u'time': []}, u'edge': {u'target': [], u'time': []}}, u'mouseout': {u'state': {u'target': [], u'time': []}, u'edge': {u'target': [], u'time': []}}}",,,"[1310, 479, 865]",4.0,,652078,9.0,10.0,mouselab-mdp,,8
"[6134, 12374, 14662]","[u'left', u'left', u'up']",,,"[4, 0, 1]","[u'1', 4, 8, 14]","{u'mouseover': {u'state': {u'target': [], u'time': []}, u'edge': {u'target': [], u'time': []}}, u'click': {u'state': {u'target': [], u'time': []}, u'edge': {u'target': [], u'time': []}}, u'mouseout': {u'state': {u'target': [], u'time': []}, u'edge': {u'target': [], u'time': []}}}",,,"[6134, 466, 1448]",23.0,,710278,10.0,7.0,mouselab-mdp,,8
"[2051, 8476, 12460]","[u'down', u'down', u'right']",,,"[4, 0, 1]","[u'1', 5, 9, 17]","{u'mouseover': {u'state': {u'target': [], u'time': []}, u'edge': {u'target': [], u'time': []}}, u'click': {u'state': {u'target': [], u'time': []}, u'edge': {u'target': [], u'time': []}}, u'mouseout': {u'state': {u'target': [], u'time': []}, u'edge': {u'target': [], u'time': []}}}",,,"[2051, 651, 3130]",1.0,,766462,11.0,3.0,mouselab-mdp,,8
"[713, 7017, 10624]","[u'right', u'right', u'up']",,,"[4, 0, 1]","[u'1', 2, 6, 10]","{u'mouseover': {u'state': {u'target': [], u'time': []}, u'edge': {u'target': [], u'time': []}}, u'click': {u'state': {u'target': [], u'time': []}, u'edge': {u'target': [], u'time': []}}, u'mouseout': {u'state': {u'target': [], u'time': []}, u'edge': {u'target': [], u'time': []}}}",,,"[713, 533, 2767]",7.0,,819766,12.0,5.0,mouselab-mdp,,8
"[55763, 126669, 137010]","[u'right', u'right', u'down']",,,"[15, 0, 3]","[u'1', 2, 6, 11]","{u'mouseover': {u'state': {u'target': [], u'time': []}, u'edge': {u'target': [], u'time': []}}, u'click': {u'state': {u'target': [u'2', u'11', u'10'], u'time': [51239, 134034, 135954]}, u'edge': {u'target': [], u'time': []}}, u'mouseout': {u'state': {u'target': [], u'time': []}, u'edge': {u'target': [], u'time': []}}}",,,"[55761, 44177, 7329]",13.5,,545082,1.0,7.0,mouselab-mdp,,9
"[27213, 99366, 101115]","[u'up', u'up', u'left']",,,"[15, 0, 3]","[u'1', 3, 7, 12]","{u'mouseover': {u'state': {u'target': [], u'time': []}, u'edge': {u'target': [], u'time': []}}, u'click': {u'state': {u'target': [u'17', u'16', u'11', u'10', u'13', u'12', u'14', u'15'], u'time': [9803, 11693, 15681, 17196, 19385, 20619, 21776, 22983]}, u'edge': {u'target': [], u'time': []}}, u'mouseout': {u'state': {u'target': [], u'time': []}, u'edge': {u'target': [], u'time': []}}}",,,"[27213, 37630, 5]",-1.0,,655597,2.0,2.0,mouselab-mdp,,9
"[15371, 46162, 48532]","[u'left', u'left', u'down']",,,"[15, 0, 3]","[u'1', 4, 8, 15]","{u'mouseover': {u'state': {u'target': [], u'time': []}, u'edge': {u'target': [], u'time': []}}, u'click': {u'state': {u'target': [u'13', u'12', u'14', u'15'], u'time': [7459, 8933, 11966, 13526]}, u'edge': {u'target': [], u'time': []}}, u'mouseout': {u'state': {u'target': [], u'time': []}, u'edge': {u'target': [], u'time': []}}}",,,"[15371, 546, 4]",25.0,,741204,3.0,9.0,mouselab-mdp,,9
"[16415, 57240, 59233]","[u'left', u'left', u'up']",,,"[15, 0, 3]","[u'1', 4, 8, 14]","{u'mouseover': {u'state': {u'target': [], u'time': []}, u'edge': {u'target': [], u'time': []}}, u'click': {u'state': {u'target': [u'15', u'14', u'16', u'17', u'11', u'10', u'13', u'12'], u'time': [2717, 4775, 6343, 7676, 9092, 11054, 12243, 14074]}, u'edge': {u'target': [], u'time': []}}, u'mouseout': {u'state': {u'target': [], u'time': []}, u'edge': {u'target': [], u'time': []}}}",,,"[16414, 5656, 164]",19.0,,840394,4.0,4.0,mouselab-mdp,,9
"[45137, 83052, 85740]","[u'down', u'down', u'right']",,,"[15, 0, 3]","[u'1', 5, 9, 17]","{u'mouseover': {u'state': {u'target': [], u'time': []}, u'edge': {u'target': [], u'time': []}}, u'click': {u'state': {u'target': [u'12', u'13', u'10', u'11', u'17', u'16', u'15', u'14'], u'time': [33158, 34729, 35953, 37901, 39128, 40332, 41550, 42593]}, u'edge': {u'target': [], u'time': []}}, u'mouseout': {u'state': {u'target': [], u'time': []}, u'edge': {u'target': [], u'time': []}}}",,,"[45137, 3287, 857]",-30.0,,967371,5.0,3.0,mouselab-mdp,,9
"[22027, 63636, 66757]","[u'left', u'left', u'down']",,,"[15, 0, 3]","[u'1', 4, 8, 15]","{u'mouseover': {u'state': {u'target': [], u'time': []}, u'edge': {u'target': [], u'time': []}}, u'click': {u'state': {u'target': [u'10', u'11', u'17', u'16', u'15', u'14', u'12', u'13'], u'time': [3205, 4608, 5938, 7365, 8599, 9722, 10740, 11918]}, u'edge': {u'target': [], u'time': []}}, u'mouseout': {u'state': {u'target': [], u'time': []}, u'edge': {u'target': [], u'time': []}}}",,,"[22027, 7575, 1321]",6.0,,1058140,6.0,11.0,mouselab-mdp,,9
"[6295, 50238, 54679]","[u'right', u'right', u'up']",,,"[15, 0, 3]","[u'1', 2, 6, 10]","{u'mouseover': {u'state': {u'target': [], u'time': []}, u'edge': {u'target': [], u'time': []}}, u'click': {u'state': {u'target': [], u'time': []}, u'edge': {u'target': [], u'time': []}}, u'mouseout': {u'state': {u'target': [], u'time': []}, u'edge': {u'target': [], u'time': []}}}",,,"[6295, 18863, 1405]",32.0,,1156577,7.0,5.0,mouselab-mdp,,9
"[2767, 32577, 37478]","[u'left', u'left', u'down']",,,"[15, 0, 3]","[u'1', 4, 8, 15]","{u'mouseover': {u'state': {u'target': [], u'time': []}, u'edge': {u'target': [], u'time': []}}, u'click': {u'state': {u'target': [], u'time': []}, u'edge': {u'target': [], u'time': []}}, u'mouseout': {u'state': {u'target': [], u'time': []}, u'edge': {u'target': [], u'time': []}}}",,,"[2767, 4680, 1809]",6.0,,1239735,8.0,6.0,mouselab-mdp,,9
"[2910, 35358, 64052]","[u'up', u'up', u'left']",,,"[15, 0, 3]","[u'1', 3, 7, 12]","{u'mouseover': {u'state': {u'target': [], u'time': []}, u'edge': {u'target': [], u'time': []}}, u'click': {u'state': {u'target': [], u'time': []}, u'edge': {u'target': [], u'time': []}}, u'mouseout': {u'state': {u'target': [], u'time': []}, u'edge': {u'target': [], u'time': []}}}",,,"[2910, 7257, 25692]",12.0,,1330294,9.0,10.0,mouselab-mdp,,9
"[5849, 54038, 57774]","[u'down', u'down', u'right']",,,"[15, 0, 3]","[u'1', 5, 9, 17]","{u'mouseover': {u'state': {u'target': [], u'time': []}, u'edge': {u'target': [], u'time': []}}, u'click': {u'state': {u'target': [], u'time': []}, u'edge': {u'target': [], u'time': []}}, u'mouseout': {u'state': {u'target': [], u'time': []}, u'edge': {u'target': [], u'time': []}}}",,,"[5849, 23106, 696]",13.0,,1414590,10.0,1.0,mouselab-mdp,,9
"[7900, 36267, 50544]","[u'right', u'right', u'up']",,,"[15, 0, 3]","[u'1', 2, 6, 10]","{u'mouseover': {u'state': {u'target': [], u'time': []}, u'edge': {u'target': [], u'time': []}}, u'click': {u'state': {u'target': [], u'time': []}, u'edge': {u'target': [], u'time': []}}, u'mouseout': {u'state': {u'target': [], u'time': []}, u'edge': {u'target': [], u'time': []}}}",,,"[7900, 3278, 11190]",22.0,,1505932,11.0,8.0,mouselab-mdp,,9
"[9324, 35287, 39864]","[u'right', u'right', u'up']",,,"[15, 0, 3]","[u'1', 2, 6, 10]","{u'mouseover': {u'state': {u'target': [], u'time': []}, u'edge': {u'target': [], u'time': []}}, u'click': {u'state': {u'target': [], u'time': []}, u'edge': {u'target': [], u'time': []}}, u'mouseout': {u'state': {u'target': [], u'time': []}, u'edge': {u'target': [], u'time': []}}}",,,"[9323, 955, 1558]",3.0,,1590106,12.0,0.0,mouselab-mdp,,9
"[11367, 32319, 34544]","[u'down', u'down', u'left']",,,"[10, -1, 2]","[u'1', 5, 9, 16]","{u'mouseover': {u'state': {u'target': [], u'time': []}, u'edge': {u'target': [], u'time': []}}, u'click': {u'state': {u'target': [u'2', u'6', u'10'], u'time': [3332, 5767, 6996]}, u'edge': {u'target': [], u'time': []}}, u'mouseout': {u'state': {u'target': [], u'time': []}, u'edge': {u'target': [], u'time': []}}}",,,"[11367, 9236, 1293]",22.5,,1084295,1.0,4.0,mouselab-mdp,,11
"[8075, 19019, 21375]","[u'left', u'left', u'down']",,,"[3, -1, -1]","[u'1', 4, 8, 15]","{u'mouseover': {u'state': {u'target': [], u'time': []}, u'edge': {u'target': [], u'time': []}}, u'click': {u'state': {u'target': [u'3'], u'time': [5791]}, u'edge': {u'target': [], u'time': []}}, u'mouseout': {u'state': {u'target': [], u'time': []}, u'edge': {u'target': [], u'time': []}}}",,,"[8075, 6467, 1368]",8.5,,1139502,2.0,2.0,mouselab-mdp,,11
"[5688, 9715, 13848]","[u'down', u'down', u'right']",,,"[-1, -1, -1]","[u'1', 5, 9, 17]","{u'mouseover': {u'state': {u'target': [], u'time': []}, u'edge': {u'target': [], u'time': []}}, u'click': {u'state': {u'target': [u'5', u'17'], u'time': [4230, 12825]}, u'edge': {u'target': [], u'time': []}}, u'mouseout': {u'state': {u'target': [], u'time': []}, u'edge': {u'target': [], u'time': []}}}",,,"[5688, 2502, 3147]",29.0,,1192688,3.0,11.0,mouselab-mdp,,11
"[4286, 10694, 13498]","[u'up', u'up', u'left']",,,"[4, -1, 5]","[u'1', 3, 7, 12]","{u'mouseover': {u'state': {u'target': [], u'time': []}, u'edge': {u'target': [], u'time': []}}, u'click': {u'state': {u'target': [u'3', u'12'], u'time': [3018, 12262]}, u'edge': {u'target': [], u'time': []}}, u'mouseout': {u'state': {u'target': [], u'time': []}, u'edge': {u'target': [], u'time': []}}}",,,"[4286, 942, 1844]",20.0,,1251437,4.0,5.0,mouselab-mdp,,11
"[8168, 17431, 22681]","[u'left', u'left', u'down']",,,"[1, -1, -1]","[u'1', 4, 8, 15]","{u'mouseover': {u'state': {u'target': [], u'time': []}, u'edge': {u'target': [], u'time': []}}, u'click': {u'state': {u'target': [u'4', u'5', u'2', u'3', u'14'], u'time': [2313, 5022, 5967, 6976, 19678]}, u'edge': {u'target': [], u'time': []}}, u'mouseout': {u'state': {u'target': [], u'time': []}, u'edge': {u'target': [], u'time': []}}}",,,"[8168, 6436, 4269]",-12.5,,1301372,5.0,3.0,mouselab-mdp,,11
"[7971, 20748, 26667]","[u'right', u'right', u'up']",,,"[7, -1, -1]","[u'1', 2, 6, 10]","{u'mouseover': {u'state': {u'target': [], u'time': []}, u'edge': {u'target': [], u'time': []}}, u'click': {u'state': {u'target': [u'5', u'3', u'4', u'11'], u'time': [2510, 4465, 5782, 24569]}, u'edge': {u'target': [], u'time': []}}, u'mouseout': {u'state': {u'target': [], u'time': []}, u'edge': {u'target': [], u'time': []}}}",,,"[7971, 4086, 4938]",-7.0,,1362445,6.0,0.0,mouselab-mdp,,11
"[3570, 5419, 11008]","[u'up', u'up', u'right']",,,"[-1, -1, -1]","[u'1', 3, 7, 13]","{u'mouseover': {u'state': {u'target': [], u'time': []}, u'edge': {u'target': [], u'time': []}}, u'click': {u'state': {u'target': [u'3'], u'time': [2277]}, u'edge': {u'target': [], u'time': []}}, u'mouseout': {u'state': {u'target': [], u'time': []}, u'edge': {u'target': [], u'time': []}}}",,,"[3570, 408, 4617]",41.5,,1425035,7.0,9.0,mouselab-mdp,,11
"[9000, 11619, 15256]","[u'down', u'down', u'right']",,,"[-1, -1, -1]","[u'1', 5, 9, 17]","{u'mouseover': {u'state': {u'target': [], u'time': []}, u'edge': {u'target': [], u'time': []}}, u'click': {u'state': {u'target': [u'5', u'2', u'17'], u'time': [4209, 7341, 13982]}, u'edge': {u'target': [], u'time': []}}, u'mouseout': {u'state': {u'target': [], u'time': []}, u'edge': {u'target': [], u'time': []}}}",,,"[9000, 1052, 2684]",21.5,,1476581,8.0,10.0,mouselab-mdp,,11
"[3345, 4780, 8452]","[u'up', u'up', u'right']",,,"[-1, -1, -1]","[u'1', 3, 7, 13]","{u'mouseover': {u'state': {u'target': [], u'time': []}, u'edge': {u'target': [], u'time': []}}, u'click': {u'state': {u'target': [u'3', u'13'], u'time': [2013, 7381]}, u'edge': {u'target': [], u'time': []}}, u'mouseout': {u'state': {u'target': [], u'time': []}, u'edge': {u'target': [], u'time': []}}}",,,"[3345, 4, 2698]",32.0,,1528961,9.0,8.0,mouselab-mdp,,11
"[8148, 16238, 19923]","[u'down', u'down', u'left']",,,"[5, -1, -1]","[u'1', 5, 9, 16]","{u'mouseover': {u'state': {u'target': [], u'time': []}, u'edge': {u'target': [], u'time': []}}, u'click': {u'state': {u'target': [u'3', u'4', u'2', u'5', u'17'], u'time': [3011, 4757, 5567, 6390, 17916]}, u'edge': {u'target': [], u'time': []}}, u'mouseout': {u'state': {u'target': [], u'time': []}, u'edge': {u'target': [], u'time': []}}}",,,"[8148, 1298, 2685]",1.5,,1603132,10.0,6.0,mouselab-mdp,,11
"[7812, 14751, 18606]","[u'right', u'right', u'down']",,,"[5, -1, -1]","[u'1', 2, 6, 11]","{u'mouseover': {u'state': {u'target': [], u'time': []}, u'edge': {u'target': [], u'time': []}}, u'click': {u'state': {u'target': [u'4', u'2', u'10'], u'time': [4460, 6132, 17365]}, u'edge': {u'target': [], u'time': []}}, u'mouseout': {u'state': {u'target': [], u'time': []}, u'edge': {u'target': [], u'time': []}}}",,,"[7811, 378, 2892]",13.5,,1657697,11.0,7.0,mouselab-mdp,,11
"[9514, 15680, 19967]","[u'right', u'right', u'up']",,,"[4, -1, -1]","[u'1', 2, 6, 10]","{u'mouseover': {u'state': {u'target': [], u'time': []}, u'edge': {u'target': [], u'time': []}}, u'click': {u'state': {u'target': [u'3', u'4', u'5', u'2', u'10'], u'time': [2989, 5019, 6654, 7920, 18776]}, u'edge': {u'target': [], u'time': []}}, u'mouseout': {u'state': {u'target': [], u'time': []}, u'edge': {u'target': [], u'time': []}}}",,,"[9514, 393, 3294]",0.5,,1720103,12.0,1.0,mouselab-mdp,,11
"[6071, 31702, 35696]","[u'down', u'down', u'right']",,,"[13, 0, 2]","[u'1', 5, 9, 17]","{u'mouseover': {u'state': {u'target': [], u'time': []}, u'edge': {u'target': [], u'time': []}}, u'click': {u'state': {u'target': [u'2', u'9', u'17'], u'time': [4785, 25678, 34114]}, u'edge': {u'target': [], u'time': []}}, u'mouseout': {u'state': {u'target': [], u'time': []}, u'edge': {u'target': [], u'time': []}}}",,,"[6070, 10370, 2718]",14.97,,481081,1.0,5.0,mouselab-mdp,,12
"[7099, 20268, 25641]","[u'down', u'down', u'right']",,,"[9, 0, 0]","[u'1', 5, 9, 17]","{u'mouseover': {u'state': {u'target': [], u'time': []}, u'edge': {u'target': [], u'time': []}}, u'click': {u'state': {u'target': [u'2', u'3', u'4', u'5', u'17', u'16'], u'time': [1973, 3307, 4318, 5284, 22713, 23768]}, u'edge': {u'target': [], u'time': []}}, u'mouseout': {u'state': {u'target': [], u'time': []}, u'edge': {u'target': [], u'time': []}}}",,,"[7099, 722, 4512]",16.94,,547724,2.0,8.0,mouselab-mdp,,12
"[15481, 26934, 29081]","[u'right', u'right', u'down']",,,"[7, 0, 0]","[u'1', 2, 6, 11]","{u'mouseover': {u'state': {u'target': [], u'time': []}, u'edge': {u'target': [], u'time': []}}, u'click': {u'state': {u'target': [u'13', u'12', u'14', u'15', u'10', u'11', u'16', u'17'], u'time': [3252, 4254, 5359, 6160, 7265, 8348, 9974, 11158]}, u'edge': {u'target': [], u'time': []}}, u'mouseout': {u'state': {u'target': [], u'time': []}, u'edge': {u'target': [], u'time': []}}}",,,"[15481, 670, 1449]",37.92,,610590,3.0,6.0,mouselab-mdp,,12
"[19890, 29732, 31046]","[u'down', u'down', u'right']",,,"[4, 0, 0]","[u'1', 5, 9, 17]","{u'mouseover': {u'state': {u'target': [], u'time': []}, u'edge': {u'target': [], u'time': []}}, u'click': {u'state': {u'target': [u'12', u'13', u'3', u'10', u'11', u'2', u'4', u'16', u'17', u'15', u'14', u'5'], u'time': [1226, 2111, 3012, 3846, 4677, 5541, 6536, 9152, 10256, 11591, 12563, 13856]}, u'edge': {u'target': [], u'time': []}}, u'mouseout': {u'state': {u'target': [], u'time': []}, u'edge': {u'target': [], u'time': []}}}",,,"[19890, 966, 604]",33.88,,667211,4.0,7.0,mouselab-mdp,,12
"[15445, 24236, 25187]","[u'down', u'down', u'right']",,,"[3, 0, 0]","[u'1', 5, 9, 17]","{u'mouseover': {u'state': {u'target': [], u'time': []}, u'edge': {u'target': [], u'time': []}}, u'click': {u'state': {u'target': [u'12', u'13', u'4', u'2', u'3', u'5', u'10', u'11', u'17', u'16', u'15', u'14'], u'time': [1756, 2880, 4445, 5289, 6071, 6916, 7817, 8792, 9463, 10396, 11539, 12553]}, u'edge': {u'target': [], u'time': []}}, u'mouseout': {u'state': {u'target': [], u'time': []}, u'edge': {u'target': [], u'time': []}}}",,,"[15445, 857, 248]",41.88,,724300,5.0,4.0,mouselab-mdp,,12
"[24562, 28826, 29723]","[u'right', u'right', u'down']",,,"[0, 0, 0]","[u'1', 2, 6, 11]","{u'mouseover': {u'state': {u'target': [], u'time': []}, u'edge': {u'target': [], u'time': []}}, u'click': {u'state': {u'target': [u'3', u'4', u'2', u'5', u'12', u'7', u'13', u'10', u'6', u'11', u'17', u'9', u'16', u'15', u'8', u'14'], u'time': [818, 1896, 2679, 3402, 4787, 5620, 6373, 7144, 7737, 8429, 9233, 9854, 10617, 11469, 12382, 13055]}, u'edge': {u'target': [], u'time': []}}, u'mouseout': {u'state': {u'target': [], u'time': []}, u'edge': {u'target': [], u'time': []}}}",,,"[24562, 1, 368]",37.84,,774034,6.0,11.0,mouselab-mdp,,12
"[21798, 26143, 27091]","[u'right', u'right', u'up']",,,"[0, 0, 0]","[u'1', 2, 6, 10]","{u'mouseover': {u'state': {u'target': [], u'time': []}, u'edge': {u'target': [], u'time': []}}, u'click': {u'state': {u'target': [u'12', u'7', u'13', u'3', u'10', u'6', u'11', u'2', u'5', u'4', u'14', u'8', u'15', u'16', u'9', u'17'], u'time': [1578, 2109, 2780, 3452, 4225, 4767, 5340, 6232, 7045, 7888, 8892, 9521, 10215, 11539, 12371, 12963]}, u'edge': {u'target': [], u'time': []}}, u'mouseout': {u'state': {u'target': [], u'time': []}, u'edge': {u'target': [], u'time': []}}}",,,"[21798, 3, 419]",21.84,,824463,7.0,10.0,mouselab-mdp,,12
"[19243, 22874, 24092]","[u'left', u'left', u'up']",,,"[0, 0, 0]","[u'1', 4, 8, 14]","{u'mouseover': {u'state': {u'target': [], u'time': []}, u'edge': {u'target': [], u'time': []}}, u'click': {u'state': {u'target': [u'12', u'7', u'13', u'3', u'10', u'6', u'11', u'2', u'4', u'5', u'14', u'8', u'15', u'16', u'9', u'17'], u'time': [2003, 2604, 3407, 4169, 5113, 5695, 6498, 7500, 8323, 9246, 11051, 11874, 12716, 14095, 15115, 16487]}, u'edge': {u'target': [], u'time': []}}, u'mouseout': {u'state': {u'target': [], u'time': []}, u'edge': {u'target': [], u'time': []}}}",,,"[19243, 2, 683]",39.84,,873503,8.0,0.0,mouselab-mdp,,12
"[16404, 20813, 21945]","[u'down', u'down', u'left']",,,"[0, 0, 0]","[u'1', 5, 9, 16]","{u'mouseover': {u'state': {u'target': [], u'time': []}, u'edge': {u'target': [], u'time': []}}, u'click': {u'state': {u'target': [u'12', u'7', u'13', u'3', u'10', u'6', u'2', u'11', u'5', u'4', u'14', u'8', u'15', u'16', u'9', u'17'], u'time': [1698, 2287, 2970, 3732, 4555, 5338, 6211, 7138, 8097, 9251, 10274, 10977, 11700, 13053, 13655, 14447]}, u'edge': {u'target': [], u'time': []}}, u'mouseout': {u'state': {u'target': [], u'time': []}, u'edge': {u'target': [], u'time': []}}}",,,"[16404, 4, 611]",45.84,,924706,9.0,1.0,mouselab-mdp,,12
"[16679, 20770, 21914]","[u'right', u'right', u'up']",,,"[0, 0, 0]","[u'1', 2, 6, 10]","{u'mouseover': {u'state': {u'target': [], u'time': []}, u'edge': {u'target': [], u'time': []}}, u'click': {u'state': {u'target': [u'12', u'7', u'13', u'3', u'10', u'6', u'2', u'11', u'5', u'4', u'16', u'9', u'17', u'8', u'14', u'15'], u'time': [1804, 2404, 3067, 3722, 4532, 5175, 5807, 6519, 7492, 8324, 9299, 9960, 10646, 12145, 13038, 14092]}, u'edge': {u'target': [], u'time': []}}, u'mouseout': {u'state': {u'target': [], u'time': []}, u'edge': {u'target': [], u'time': []}}}",,,"[16679, 1, 606]",33.84,,977656,10.0,3.0,mouselab-mdp,,12
"[20129, 23970, 24901]","[u'right', u'right', u'up']",,,"[0, 0, 0]","[u'1', 2, 6, 10]","{u'mouseover': {u'state': {u'target': [], u'time': []}, u'edge': {u'target': [], u'time': []}}, u'click': {u'state': {u'target': [u'12', u'7', u'13', u'3', u'10', u'6', u'11', u'2', u'5', u'9', u'17', u'16', u'4', u'8', u'14', u'15'], u'time': [1532, 2385, 3439, 4504, 5576, 6218, 7140, 8164, 10200, 10943, 12216, 13197, 14243, 15114, 16056, 17119]}, u'edge': {u'target': [], u'time': []}}, u'mouseout': {u'state': {u'target': [], u'time': []}, u'edge': {u'target': [], u'time': []}}}",,,"[20129, 1, 398]",33.84,,1028898,11.0,2.0,mouselab-mdp,,12
"[23602, 27774, 28648]","[u'up', u'up', u'left']",,,"[0, 0, 0]","[u'1', 3, 7, 12]","{u'mouseover': {u'state': {u'target': [], u'time': []}, u'edge': {u'target': [], u'time': []}}, u'click': {u'state': {u'target': [u'12', u'7', u'13', u'3', u'10', u'6', u'2', u'11', u'5', u'9', u'17', u'16', u'4', u'8', u'14', u'15'], u'time': [2265, 2949, 3670, 4502, 5638, 6238, 7753, 8395, 9318, 9830, 10361, 11204, 12057, 12749, 13421, 14312]}, u'edge': {u'target': [], u'time': []}}, u'mouseout': {u'state': {u'target': [], u'time': []}, u'edge': {u'target': [], u'time': []}}}",,,"[23602, 6, 343]",36.84,,1078628,12.0,9.0,mouselab-mdp,,12
"[11059, 30964, 38759]","[u'down', u'down', u'left']",,,"[14, 0, 4]","[u'1', 5, 9, 16]","{u'mouseover': {u'state': {u'target': [], u'time': []}, u'edge': {u'target': [], u'time': []}}, u'click': {u'state': {u'target': [u'4', u'3', u'2', u'5', u'16'], u'time': [7350, 7764, 8118, 8474, 37418]}, u'edge': {u'target': [], u'time': []}}, u'mouseout': {u'state': {u'target': [], u'time': []}, u'edge': {u'target': [], u'time': []}}}",,,"[11059, 2538, 6774]",1.5,,186519,1.0,6.0,mouselab-mdp,,13
"[3466, 20820, 26525]","[u'up', u'up', u'left']",,,"[7, 3, 4]","[u'1', 3, 7, 12]","{u'mouseover': {u'state': {u'target': [], u'time': []}, u'edge': {u'target': [], u'time': []}}, u'click': {u'state': {u'target': [u'3', u'5', u'7', u'12'], u'time': [1133, 2084, 19474, 25871]}, u'edge': {u'target': [], u'time': []}}, u'mouseout': {u'state': {u'target': [], u'time': []}, u'edge': {u'target': [], u'time': []}}}",,,"[3466, 7517, 1361]",17.0,,292539,2.0,4.0,mouselab-mdp,,13
"[7434, 27780, 32820]","[u'right', u'right', u'up']",,,"[14, 0, 4]","[u'1', 2, 6, 10]","{u'mouseover': {u'state': {u'target': [], u'time': []}, u'edge': {u'target': [], u'time': []}}, u'click': {u'state': {u'target': [u'4', u'2', u'5', u'3', u'11'], u'time': [2655, 3503, 5665, 6426, 32083]}, u'edge': {u'target': [], u'time': []}}, u'mouseout': {u'state': {u'target': [], u'time': []}, u'edge': {u'target': [], u'time': []}}}",,,"[7434, 2921, 4013]",-9.5,,393573,3.0,0.0,mouselab-mdp,,13
"[4237, 16591, 20436]","[u'down', u'down', u'right']",,,"[7, 0, 4]","[u'1', 5, 9, 17]","{u'mouseover': {u'state': {u'target': [], u'time': []}, u'edge': {u'target': [], u'time': []}}, u'click': {u'state': {u'target': [u'3', u'4', u'16'], u'time': [1069, 3135, 19670]}, u'edge': {u'target': [], u'time': []}}, u'mouseout': {u'state': {u'target': [], u'time': []}, u'edge': {u'target': [], u'time': []}}}",,,"[4237, 2453, 2810]",21.5,,473415,4.0,10.0,mouselab-mdp,,13
"[39733, 49632, 52804]","[u'left', u'left', u'down']",,,"[4, 0, 4]","[u'1', 4, 8, 15]","{u'mouseover': {u'state': {u'target': [], u'time': []}, u'edge': {u'target': [], u'time': []}}, u'click': {u'state': {u'target': [u'2', u'15'], u'time': [38609, 52204]}, u'edge': {u'target': [], u'time': []}}, u'mouseout': {u'state': {u'target': [], u'time': []}, u'edge': {u'target': [], u'time': []}}}",,,"[39733, 3209, 2154]",11.0,,534925,5.0,1.0,mouselab-mdp,,13
"[2558, 9668, 12285]","[u'right', u'right', u'down']",,,"[4, 0, 4]","[u'1', 2, 6, 11]","{u'mouseover': {u'state': {u'target': [], u'time': []}, u'edge': {u'target': [], u'time': []}}, u'click': {u'state': {u'target': [u'5', u'11'], u'time': [1159, 11820]}, u'edge': {u'target': [], u'time': []}}, u'mouseout': {u'state': {u'target': [], u'time': []}, u'edge': {u'target': [], u'time': []}}}",,,"[2557, 368, 1565]",30.0,,595103,6.0,8.0,mouselab-mdp,,13
"[2568, 9683, 12370]","[u'up', u'up', u'right']",,,"[4, 0, 3]","[u'1', 3, 7, 13]","{u'mouseover': {u'state': {u'target': [], u'time': []}, u'edge': {u'target': [], u'time': []}}, u'click': {u'state': {u'target': [u'4', u'13'], u'time': [1103, 11945]}, u'edge': {u'target': [], u'time': []}}, u'mouseout': {u'state': {u'target': [], u'time': []}, u'edge': {u'target': [], u'time': []}}}",,,"[2568, 438, 1668]",24.0,,665681,7.0,5.0,mouselab-mdp,,13
"[2961, 9935, 14219]","[u'right', u'right', u'up']",,,"[4, 0, 4]","[u'1', 2, 6, 10]","{u'mouseover': {u'state': {u'target': [], u'time': []}, u'edge': {u'target': [], u'time': []}}, u'click': {u'state': {u'target': [u'2', u'11'], u'time': [2141, 13685]}, u'edge': {u'target': [], u'time': []}}, u'mouseout': {u'state': {u'target': [], u'time': []}, u'edge': {u'target': [], u'time': []}}}",,,"[2961, 299, 3263]",11.0,,756135,8.0,2.0,mouselab-mdp,,13
"[13084, 21287, 26523]","[u'right', u'right', u'down']",,,"[4, 0, 4]","[u'1', 2, 6, 11]","{u'mouseover': {u'state': {u'target': [], u'time': []}, u'edge': {u'target': [], u'time': []}}, u'click': {u'state': {u'target': [u'4', u'11'], u'time': [12047, 25791]}, u'edge': {u'target': [], u'time': []}}, u'mouseout': {u'state': {u'target': [], u'time': []}, u'edge': {u'target': [], u'time': []}}}",,,"[13084, 1508, 4223]",16.0,,815185,9.0,7.0,mouselab-mdp,,13
"[1872, 8876, 12267]","[u'left', u'left', u'down']",,,"[4, 0, 4]","[u'1', 4, 8, 15]","{u'mouseover': {u'state': {u'target': [], u'time': []}, u'edge': {u'target': [], u'time': []}}, u'click': {u'state': {u'target': [u'4', u'15'], u'time': [1081, 11472]}, u'edge': {u'target': [], u'time': []}}, u'mouseout': {u'state': {u'target': [], u'time': []}, u'edge': {u'target': [], u'time': []}}}",,,"[1872, 298, 2379]",30.0,,877060,10.0,9.0,mouselab-mdp,,13
"[6226, 13275, 17256]","[u'right', u'right', u'down']",,,"[4, 0, 5]","[u'1', 2, 6, 11]","{u'mouseover': {u'state': {u'target': [], u'time': []}, u'edge': {u'target': [], u'time': []}}, u'click': {u'state': {u'target': [u'2', u'11'], u'time': [5179, 16198]}, u'edge': {u'target': [], u'time': []}}, u'mouseout': {u'state': {u'target': [], u'time': []}, u'edge': {u'target': [], u'time': []}}}",,,"[6226, 349, 2957]",-3.0,,938969,11.0,11.0,mouselab-mdp,,13
"[3033, 10079, 11910]","[u'left', u'left', u'up']",,,"[4, 0, 0]","[u'1', 4, 8, 14]","{u'mouseover': {u'state': {u'target': [], u'time': []}, u'edge': {u'target': [], u'time': []}}, u'click': {u'state': {u'target': [u'4'], u'time': [1759]}, u'edge': {u'target': [], u'time': []}}, u'mouseout': {u'state': {u'target': [], u'time': []}, u'edge': {u'target': [], u'time': []}}}",,,"[3033, 336, 819]",-11.5,,992211,12.0,3.0,mouselab-mdp,,13
"[55669, 63795, 66652]","[u'up', u'up', u'left']",,,"[0, 0, 0]","[u'1', 3, 7, 12]","{u'mouseover': {u'state': {u'target': [], u'time': []}, u'edge': {u'target': [], u'time': []}}, u'click': {u'state': {u'target': [u'3', u'5', u'2', u'4', u'7', u'13', u'12', u'8', u'15', u'14', u'9', u'16', u'17', u'11', u'6', u'10'], u'time': [4252, 6273, 7861, 9254, 12040, 17250, 18666, 23286, 24827, 26064, 37199, 38348, 39300, 40525, 41541, 43103]}, u'edge': {u'target': [], u'time': []}}, u'mouseout': {u'state': {u'target': [], u'time': []}, u'edge': {u'target': [], u'time': []}}}",,,"[55667, 6, 2323]",36.84,,560350,1.0,9.0,mouselab-mdp,,14
"[56092, 63311, 65701]","[u'right', u'right', u'up']",,,"[0, 0, 0]","[u'1', 2, 6, 10]","{u'mouseover': {u'state': {u'target': [], u'time': []}, u'edge': {u'target': [], u'time': []}}, u'click': {u'state': {u'target': [u'3', u'7', u'13', u'12', u'4', u'8', u'14', u'15', u'5', u'2', u'6', u'11', u'10', u'16', u'9', u'17'], u'time': [7451, 8563, 9613, 10800, 11985, 13224, 14896, 15984, 19248, 20923, 24175, 25309, 26433, 31912, 33319, 34496]}, u'edge': {u'target': [], u'time': []}}, u'mouseout': {u'state': {u'target': [], u'time': []}, u'edge': {u'target': [], u'time': []}}}",,,"[56091, 7, 1821]",21.84,,640340,2.0,10.0,mouselab-mdp,,14
"[46911, 55060, 58150]","[u'left', u'left', u'up']",,,"[0, 0, 0]","[u'1', 4, 8, 14]","{u'mouseover': {u'state': {u'target': [], u'time': []}, u'edge': {u'target': [], u'time': []}}, u'click': {u'state': {u'target': [u'3', u'5', u'2', u'4', u'7', u'13', u'12', u'8', u'14', u'15', u'9', u'16', u'17', u'6', u'11', u'10'], u'time': [3323, 4368, 5566, 6644, 8145, 9490, 10639, 14895, 16019, 17118, 28147, 29312, 30553, 42339, 43840, 45016]}, u'edge': {u'target': [], u'time': []}}, u'mouseout': {u'state': {u'target': [], u'time': []}, u'edge': {u'target': [], u'time': []}}}",,,"[46910, 5, 2554]",33.84,,710306,3.0,5.0,mouselab-mdp,,14
"[57498, 66333, 68388]","[u'down', u'down', u'left']",,,"[0, 0, 0]","[u'1', 5, 9, 16]","{u'mouseover': {u'state': {u'target': [], u'time': []}, u'edge': {u'target': [], u'time': []}}, u'click': {u'state': {u'target': [u'3', u'5', u'2', u'4', u'7', u'13', u'12', u'9', u'17', u'16', u'6', u'10', u'11', u'8', u'14', u'15'], u'time': [3692, 4804, 5965, 7101, 9106, 10279, 11366, 17407, 18676, 19911, 29655, 30475, 31487, 43234, 44652, 45789]}, u'edge': {u'target': [], u'time': []}}, u'mouseout': {u'state': {u'target': [], u'time': []}, u'edge': {u'target': [], u'time': []}}}",,,"[57498, 7, 1514]",45.84,,783935,4.0,1.0,mouselab-mdp,,14
"[35785, 44326, 45625]","[u'right', u'right', u'up']",,,"[0, 0, 0]","[u'1', 2, 6, 10]","{u'mouseover': {u'state': {u'target': [], u'time': []}, u'edge': {u'target': [], u'time': []}}, u'click': {u'state': {u'target': [u'5', u'3', u'2', u'4', u'9', u'17', u'16', u'8', u'14', u'15', u'6', u'11', u'10', u'7', u'13', u'12'], u'time': [2456, 3409, 4766, 5743, 7503, 8690, 9813, 12674, 13958, 15107, 18053, 19078, 20216, 26293, 27428, 28333]}, u'edge': {u'target': [], u'time': []}}, u'mouseout': {u'state': {u'target': [], u'time': []}, u'edge': {u'target': [], u'time': []}}}",,,"[35785, 6, 762]",33.84,,844356,5.0,2.0,mouselab-mdp,,14
"[43570, 51352, 55956]","[u'right', u'right', u'down']",,,"[0, 0, 0]","[u'1', 2, 6, 11]","{u'mouseover': {u'state': {u'target': [], u'time': []}, u'edge': {u'target': [], u'time': []}}, u'click': {u'state': {u'target': [u'3', u'5', u'2', u'4', u'9', u'16', u'17', u'7', u'13', u'12', u'8', u'14', u'15', u'6', u'10', u'11'], u'time': [2699, 3586, 4430, 5251, 8725, 9945, 10998, 15325, 16460, 17523, 20111, 21044, 22241, 31706, 33035, 34345]}, u'edge': {u'target': [], u'time': []}}, u'mouseout': {u'state': {u'target': [], u'time': []}, u'edge': {u'target': [], u'time': []}}}",,,"[43570, 7, 4073]",37.84,,907023,6.0,6.0,mouselab-mdp,,14
"[43634, 53858, 55613]","[u'right', u'right', u'down']",,,"[0, 0, 0]","[u'1', 2, 6, 11]","{u'mouseover': {u'state': {u'target': [], u'time': []}, u'edge': {u'target': [], u'time': []}}, u'click': {u'state': {u'target': [u'3', u'4', u'5', u'2', u'6', u'11', u'10', u'9', u'17', u'16', u'8', u'15', u'14', u'7', u'12', u'13'], u'time': [4242, 5426, 6732, 7772, 13750, 15070, 16661, 21576, 22786, 23727, 26029, 29754, 30866, 33128, 37090, 38412]}, u'edge': {u'target': [], u'time': []}}, u'mouseout': {u'state': {u'target': [], u'time': []}, u'edge': {u'target': [], u'time': []}}}",,,"[43634, 2138, 1238]",37.84,,967169,7.0,11.0,mouselab-mdp,,14
"[37412, 45499, 47314]","[u'right', u'right', u'up']",,,"[0, 0, 0]","[u'1', 2, 6, 10]","{u'mouseover': {u'state': {u'target': [], u'time': []}, u'edge': {u'target': [], u'time': []}}, u'click': {u'state': {u'target': [u'2', u'3', u'4', u'5', u'9', u'17', u'16', u'6', u'10', u'11', u'7', u'13', u'12', u'8', u'14', u'15'], u'time': [2172, 3112, 3968, 4897, 6277, 8063, 9421, 13112, 16230, 18099, 21899, 23066, 23990, 25764, 26634, 27807]}, u'edge': {u'target': [], u'time': []}}, u'mouseout': {u'state': {u'target': [], u'time': []}, u'edge': {u'target': [], u'time': []}}}",,,"[37412, 8, 1281]",33.84,,1022600,8.0,3.0,mouselab-mdp,,14
"[41556, 51396, 52965]","[u'down', u'down', u'right']",,,"[0, 0, 0]","[u'1', 5, 9, 17]","{u'mouseover': {u'state': {u'target': [], u'time': []}, u'edge': {u'target': [], u'time': []}}, u'click': {u'state': {u'target': [u'2', u'3', u'4', u'5', u'8', u'14', u'15', u'9', u'17', u'16', u'7', u'12', u'13', u'6', u'10', u'11'], u'time': [2844, 4174, 5301, 6389, 7771, 8885, 9900, 13567, 16011, 17307, 19729, 21367, 24545, 34865, 36393, 37664]}, u'edge': {u'target': [], u'time': []}}, u'mouseout': {u'state': {u'target': [], u'time': []}, u'edge': {u'target': [], u'time': []}}}",,,"[41555, 1588, 1058]",41.84,,1081795,9.0,4.0,mouselab-mdp,,14
"[51738, 59912, 61586]","[u'down', u'down', u'right']",,,"[0, 0, 0]","[u'1', 5, 9, 17]","{u'mouseover': {u'state': {u'target': [], u'time': []}, u'edge': {u'target': [], u'time': []}}, u'click': {u'state': {u'target': [u'3', u'5', u'2', u'4', u'6', u'10', u'11', u'7', u'13', u'12', u'9', u'17', u'16', u'8', u'14', u'15'], u'time': [2960, 4058, 5232, 6431, 12262, 13289, 14511, 18067, 19522, 20855, 28275, 30414, 31600, 34130, 36441, 37432]}, u'edge': {u'target': [], u'time': []}}, u'mouseout': {u'state': {u'target': [], u'time': []}, u'edge': {u'target': [], u'time': []}}}",,,"[51738, 7, 1149]",33.84,,1149701,10.0,7.0,mouselab-mdp,,14
"[30564, 39527, 42240]","[u'up', u'up', u'left']",,,"[0, 0, 0]","[u'1', 3, 7, 12]","{u'mouseover': {u'state': {u'target': [], u'time': []}, u'edge': {u'target': [], u'time': []}}, u'click': {u'state': {u'target': [u'2', u'4', u'3', u'5', u'9', u'17', u'16', u'7', u'13', u'12', u'8', u'14', u'15', u'6', u'10', u'11'], u'time': [2477, 3392, 4358, 5384, 7016, 8111, 9223, 11852, 12830, 13857, 16509, 19030, 20081, 23943, 25068, 26010]}, u'edge': {u'target': [], u'time': []}}, u'mouseout': {u'state': {u'target': [], u'time': []}, u'edge': {u'target': [], u'time': []}}}",,,"[30564, 721, 2189]",40.84,,1207611,11.0,8.0,mouselab-mdp,,14
"[34860, 43928, 45516]","[u'left', u'left', u'up']",,,"[0, 0, 0]","[u'1', 4, 8, 14]","{u'mouseover': {u'state': {u'target': [], u'time': []}, u'edge': {u'target': [], u'time': []}}, u'click': {u'state': {u'target': [u'3', u'5', u'2', u'4', u'9', u'17', u'16', u'7', u'13', u'12', u'8', u'14', u'15', u'6', u'10', u'11'], u'time': [8452, 9647, 10551, 11407, 12814, 13877, 14917, 16774, 17924, 18989, 25699, 26993, 28094, 30054, 31372, 32717]}, u'edge': {u'target': [], u'time': []}}, u'mouseout': {u'state': {u'target': [], u'time': []}, u'edge': {u'target': [], u'time': []}}}",,,"[34860, 624, 1076]",39.84,,1262905,12.0,0.0,mouselab-mdp,,14
"[57508, 70964, 74197]","[u'right', u'right', u'down']",,,"[8, -1, -1]","[u'1', 2, 6, 11]","{u'mouseover': {u'state': {u'target': [], u'time': []}, u'edge': {u'target': [], u'time': []}}, u'click': {u'state': {u'target': [u'5', u'9', u'16', u'17', u'3', u'7', u'13', u'2', u'6', u'11', u'10', u'4', u'8', u'14', u'15', u'12'], u'time': [3042, 7835, 10555, 16047, 20002, 21551, 24865, 30483, 32018, 34813, 38222, 40938, 44218, 44731, 45871, 49843]}, u'edge': {u'target': [], u'time': []}}, u'mouseout': {u'state': {u'target': [], u'time': []}, u'edge': {u'target': [], u'time': []}}}",,,"[57508, 3428, 2710]",-28.0,,914291,1.0,6.0,mouselab-mdp,,16
"[10537, 14018, 16596]","[u'right', u'right', u'up']",,,"[-1, -1, -1]","[u'1', 2, 6, 10]","{u'mouseover': {u'state': {u'target': [], u'time': []}, u'edge': {u'target': [], u'time': []}}, u'click': {u'state': {u'target': [u'3', u'4', u'5', u'2'], u'time': [3708, 5862, 7337, 8385]}, u'edge': {u'target': [], u'time': []}}, u'mouseout': {u'state': {u'target': [], u'time': []}, u'edge': {u'target': [], u'time': []}}}",,,"[10537, 1637, 1626]",22.0,,965096,2.0,5.0,mouselab-mdp,,16
"[1927, 9930, 12607]","[u'left', u'left', u'up']",,,"[3, -1, 5]","[u'1', 4, 8, 14]","{u'mouseover': {u'state': {u'target': [], u'time': []}, u'edge': {u'target': [], u'time': []}}, u'click': {u'state': {u'target': [], u'time': []}, u'edge': {u'target': [], u'time': []}}, u'mouseout': {u'state': {u'target': [], u'time': []}, u'edge': {u'target': [], u'time': []}}}",,,"[1927, 3650, 1743]",-1.0,,1023564,3.0,2.0,mouselab-mdp,,16
"[6824, 14526, 17509]","[u'right', u'right', u'down']",,,"[4, -1, 5]","[u'1', 2, 6, 11]","{u'mouseover': {u'state': {u'target': [], u'time': []}, u'edge': {u'target': [], u'time': []}}, u'click': {u'state': {u'target': [u'3', u'4', u'5', u'2'], u'time': [1399, 3246, 4239, 4992]}, u'edge': {u'target': [], u'time': []}}, u'mouseout': {u'state': {u'target': [], u'time': []}, u'edge': {u'target': [], u'time': []}}}",,,"[6824, 1859, 2056]",-1.0,,1086386,4.0,1.0,mouselab-mdp,,16
"[6983, 11155, 13322]","[u'up', u'up', u'right']",,,"[1, -1, -1]","[u'1', 3, 7, 13]","{u'mouseover': {u'state': {u'target': [], u'time': []}, u'edge': {u'target': [], u'time': []}}, u'click': {u'state': {u'target': [u'7', u'3'], u'time': [2654, 4185]}, u'edge': {u'target': [], u'time': []}}, u'mouseout': {u'state': {u'target': [], u'time': []}, u'edge': {u'target': [], u'time': []}}}",,,"[6983, 1595, 1227]",22.0,,1136717,5.0,7.0,mouselab-mdp,,16
"[12398, 17846, 20101]","[u'left', u'left', u'down']",,,"[3, -1, 7]","[u'1', 4, 8, 15]","{u'mouseover': {u'state': {u'target': [], u'time': []}, u'edge': {u'target': [], u'time': []}}, u'click': {u'state': {u'target': [u'6', u'8', u'4', u'14'], u'time': [2547, 4204, 6697, 9232]}, u'edge': {u'target': [], u'time': []}}, u'mouseout': {u'state': {u'target': [], u'time': []}, u'edge': {u'target': [], u'time': []}}}",,,"[12398, 643, 1343]",-12.0,,1198682,6.0,0.0,mouselab-mdp,,16
"[11104, 23306, 24391]","[u'right', u'right', u'up']",,,"[10, -1, -1]","[u'1', 2, 6, 10]","{u'mouseover': {u'state': {u'target': [], u'time': []}, u'edge': {u'target': [], u'time': []}}, u'click': {u'state': {u'target': [u'6', u'10', u'11'], u'time': [2577, 4939, 9353]}, u'edge': {u'target': [], u'time': []}}, u'mouseout': {u'state': {u'target': [], u'time': []}, u'edge': {u'target': [], u'time': []}}}",,,"[11104, 568, 285]",14.5,,1257746,7.0,10.0,mouselab-mdp,,16
"[9337, 12118, 13399]","[u'left', u'left', u'up']",,,"[-1, -1, -1]","[u'1', 4, 8, 14]","{u'mouseover': {u'state': {u'target': [], u'time': []}, u'edge': {u'target': [], u'time': []}}, u'click': {u'state': {u'target': [u'7', u'8', u'15', u'14'], u'time': [2376, 4053, 6668, 7826]}, u'edge': {u'target': [], u'time': []}}, u'mouseout': {u'state': {u'target': [], u'time': []}, u'edge': {u'target': [], u'time': []}}}",,,"[9337, 1135, 462]",29.0,,1306376,8.0,4.0,mouselab-mdp,,16
"[14089, 17426, 18723]","[u'right', u'right', u'down']",,,"[1, -1, -1]","[u'1', 2, 6, 11]","{u'mouseover': {u'state': {u'target': [], u'time': []}, u'edge': {u'target': [], u'time': []}}, u'click': {u'state': {u'target': [u'6', u'7', u'8', u'9', u'10', u'11'], u'time': [2503, 4080, 5730, 8061, 10125, 11568]}, u'edge': {u'target': [], u'time': []}}, u'mouseout': {u'state': {u'target': [], u'time': []}, u'edge': {u'target': [], u'time': []}}}",,,"[14089, 501, 461]",20.0,,1357132,9.0,8.0,mouselab-mdp,,16
"[7271, 9598, 10838]","[u'right', u'right', u'down']",,,"[-1, -1, -1]","[u'1', 2, 6, 11]","{u'mouseover': {u'state': {u'target': [], u'time': []}, u'edge': {u'target': [], u'time': []}}, u'click': {u'state': {u'target': [u'6', u'10', u'11'], u'time': [1937, 3481, 4662]}, u'edge': {u'target': [], u'time': []}}, u'mouseout': {u'state': {u'target': [], u'time': []}, u'edge': {u'target': [], u'time': []}}}",,,"[7271, 839, 419]",-4.5,,1404902,10.0,3.0,mouselab-mdp,,16
"[12963, 15233, 16680]","[u'up', u'up', u'right']",,,"[-1, -1, -1]","[u'1', 3, 7, 13]","{u'mouseover': {u'state': {u'target': [], u'time': []}, u'edge': {u'target': [], u'time': []}}, u'click': {u'state': {u'target': [u'7', u'12', u'13', u'6'], u'time': [1578, 2827, 4439, 7165]}, u'edge': {u'target': [], u'time': []}}, u'mouseout': {u'state': {u'target': [], u'time': []}, u'edge': {u'target': [], u'time': []}}}",,,"[12963, 611, 623]",34.0,,1465773,11.0,9.0,mouselab-mdp,,16
"[10461, 16757, 18400]","[u'up', u'up', u'right']",,,"[4, -1, -1]","[u'1', 3, 7, 13]","{u'mouseover': {u'state': {u'target': [], u'time': []}, u'edge': {u'target': [], u'time': []}}, u'click': {u'state': {u'target': [u'8', u'7', u'6', u'9', u'13'], u'time': [1831, 3140, 4629, 5930, 8980]}, u'edge': {u'target': [], u'time': []}}, u'mouseout': {u'state': {u'target': [], u'time': []}, u'edge': {u'target': [], u'time': []}}}",,,"[10461, 350, 717]",15.5,,1521065,12.0,11.0,mouselab-mdp,,16
"[17822, 49125, 50980]","[u'down', u'down', u'right']",,,"[26, 0, 0]","[u'1', 5, 9, 17]","{u'mouseover': {u'state': {u'target': [], u'time': []}, u'edge': {u'target': [], u'time': []}}, u'click': {u'state': {u'target': [u'3', u'4', u'2', u'9', u'5', u'17', u'16'], u'time': [2768, 5063, 8114, 9489, 10633, 12657, 13898]}, u'edge': {u'target': [], u'time': []}}, u'mouseout': {u'state': {u'target': [], u'time': []}, u'edge': {u'target': [], u'time': []}}}",,,"[17821, 3279, 1175]",-7.5,,302739,1.0,0.0,mouselab-mdp,,17
"[9337, 25475, 30088]","[u'right', u'right', u'down']",,,"[8, 3, 0]","[u'1', 2, 6, 11]","{u'mouseover': {u'state': {u'target': [], u'time': []}, u'edge': {u'target': [], u'time': []}}, u'click': {u'state': {u'target': [u'14', u'11', u'6'], u'time': [2933, 4513, 23925]}, u'edge': {u'target': [], u'time': []}}, u'mouseout': {u'state': {u'target': [], u'time': []}, u'edge': {u'target': [], u'time': []}}}",,,"[9337, 6462, 720]",13.5,,373864,2.0,7.0,mouselab-mdp,,17
"[10477, 23179, 25351]","[u'down', u'down', u'left']",,,"[8, 0, 0]","[u'1', 5, 9, 16]","{u'mouseover': {u'state': {u'target': [], u'time': []}, u'edge': {u'target': [], u'time': []}}, u'click': {u'state': {u'target': [u'14', u'5'], u'time': [5017, 9275]}, u'edge': {u'target': [], u'time': []}}, u'mouseout': {u'state': {u'target': [], u'time': []}, u'edge': {u'target': [], u'time': []}}}",,,"[10477, 3027, 1441]",9.0,,431504,3.0,6.0,mouselab-mdp,,17
"[4735, 13593, 15596]","[u'left', u'left', u'down']",,,"[4, 0, 0]","[u'1', 4, 8, 15]","{u'mouseover': {u'state': {u'target': [], u'time': []}, u'edge': {u'target': [], u'time': []}}, u'click': {u'state': {u'target': [u'13'], u'time': [2468]}, u'edge': {u'target': [], u'time': []}}, u'mouseout': {u'state': {u'target': [], u'time': []}, u'edge': {u'target': [], u'time': []}}}",,,"[4735, 3324, 1265]",8.5,,483691,4.0,2.0,mouselab-mdp,,17
"[3055, 10749, 13963]","[u'left', u'left', u'up']",,,"[4, 0, 0]","[u'1', 4, 8, 14]","{u'mouseover': {u'state': {u'target': [], u'time': []}, u'edge': {u'target': [], u'time': []}}, u'click': {u'state': {u'target': [u'4'], u'time': [1347]}, u'edge': {u'target': [], u'time': []}}, u'mouseout': {u'state': {u'target': [], u'time': []}, u'edge': {u'target': [], u'time': []}}}",,,"[3055, 2220, 2507]",-11.5,,544231,5.0,3.0,mouselab-mdp,,17
"[7624, 9769, 14713]","[u'left', u'left', u'up']",,,"[0, 0, 0]","[u'1', 4, 8, 14]","{u'mouseover': {u'state': {u'target': [], u'time': []}, u'edge': {u'target': [], u'time': []}}, u'click': {u'state': {u'target': [], u'time': []}, u'edge': {u'target': [], u'time': []}}, u'mouseout': {u'state': {u'target': [], u'time': []}, u'edge': {u'target': [], u'time': []}}}",,,"[7624, 814, 4198]",39.0,,593242,6.0,4.0,mouselab-mdp,,17
"[2453, 5319, 8702]","[u'up', u'up', u'right']",,,"[0, 0, 0]","[u'1', 3, 7, 13]","{u'mouseover': {u'state': {u'target': [], u'time': []}, u'edge': {u'target': [], u'time': []}}, u'click': {u'state': {u'target': [], u'time': []}, u'edge': {u'target': [], u'time': []}}, u'mouseout': {u'state': {u'target': [], u'time': []}, u'edge': {u'target': [], u'time': []}}}",,,"[2453, 1570, 2627]",37.0,,645997,7.0,8.0,mouselab-mdp,,17
"[2296, 4186, 7663]","[u'down', u'down', u'right']",,,"[0, 0, 0]","[u'1', 5, 9, 17]","{u'mouseover': {u'state': {u'target': [], u'time': []}, u'edge': {u'target': [], u'time': []}}, u'click': {u'state': {u'target': [], u'time': []}, u'edge': {u'target': [], u'time': []}}, u'mouseout': {u'state': {u'target': [], u'time': []}, u'edge': {u'target': [], u'time': []}}}",,,"[2296, 589, 2724]",27.0,,695026,8.0,5.0,mouselab-mdp,,17
"[1684, 3620, 6755]","[u'right', u'right', u'up']",,,"[0, 0, 0]","[u'1', 2, 6, 10]","{u'mouseover': {u'state': {u'target': [], u'time': []}, u'edge': {u'target': [], u'time': []}}, u'click': {u'state': {u'target': [], u'time': []}, u'edge': {u'target': [], u'time': []}}, u'mouseout': {u'state': {u'target': [], u'time': []}, u'edge': {u'target': [], u'time': []}}}",,,"[1684, 633, 2383]",4.0,,746354,9.0,11.0,mouselab-mdp,,17
"[1761, 4415, 6806]","[u'right', u'right', u'down']",,,"[0, 0, 0]","[u'1', 2, 6, 11]","{u'mouseover': {u'state': {u'target': [], u'time': []}, u'edge': {u'target': [], u'time': []}}, u'click': {u'state': {u'target': [], u'time': []}, u'edge': {u'target': [], u'time': []}}, u'mouseout': {u'state': {u'target': [], u'time': []}, u'edge': {u'target': [], u'time': []}}}",,,"[1761, 1342, 1649]",9.0,,798748,10.0,1.0,mouselab-mdp,,17
"[2443, 4399, 6758]","[u'left', u'left', u'down']",,,"[0, 0, 0]","[u'1', 4, 8, 15]","{u'mouseover': {u'state': {u'target': [], u'time': []}, u'edge': {u'target': [], u'time': []}}, u'click': {u'state': {u'target': [], u'time': []}, u'edge': {u'target': [], u'time': []}}, u'mouseout': {u'state': {u'target': [], u'time': []}, u'edge': {u'target': [], u'time': []}}}",,,"[2443, 660, 1599]",35.0,,846228,11.0,9.0,mouselab-mdp,,17
"[1804, 4153, 6600]","[u'up', u'up', u'left']",,,"[0, 0, 0]","[u'1', 3, 7, 12]","{u'mouseover': {u'state': {u'target': [], u'time': []}, u'edge': {u'target': [], u'time': []}}, u'click': {u'state': {u'target': [], u'time': []}, u'edge': {u'target': [], u'time': []}}, u'mouseout': {u'state': {u'target': [], u'time': []}, u'edge': {u'target': [], u'time': []}}}",,,"[1804, 1014, 1698]",12.0,,899775,12.0,10.0,mouselab-mdp,,17
"[1850, 28812, 29757]","[u'right', u'right', u'up']",,,"[19, -1, -1]","[u'1', 2, 6, 10]","{u'mouseover': {u'state': {u'target': [], u'time': []}, u'edge': {u'target': [], u'time': []}}, u'click': {u'state': {u'target': [], u'time': []}, u'edge': {u'target': [], u'time': []}}, u'mouseout': {u'state': {u'target': [], u'time': []}, u'edge': {u'target': [], u'time': []}}}",,,"[1850, 6652, 5]",24.0,,89608,1.0,8.0,mouselab-mdp,,18
"[5540, 107237, 110334]","[u'left', u'left', u'down']",,,"[79, -1, 47]","[u'1', 4, 8, 15]","{u'mouseover': {u'state': {u'target': [], u'time': []}, u'edge': {u'target': [], u'time': []}}, u'click': {u'state': {u'target': [], u'time': []}, u'edge': {u'target': [], u'time': []}}, u'mouseout': {u'state': {u'target': [], u'time': []}, u'edge': {u'target': [], u'time': []}}}",,,"[5540, 21416, 2022]",-41.0,,264886,2.0,1.0,mouselab-mdp,,18
"[3280, 11704, 13135]","[u'up', u'up', u'right']",,,"[6, -1, -1]","[u'1', 3, 7, 13]","{u'mouseover': {u'state': {u'target': [], u'time': []}, u'edge': {u'target': [], u'time': []}}, u'click': {u'state': {u'target': [], u'time': []}, u'edge': {u'target': [], u'time': []}}, u'mouseout': {u'state': {u'target': [], u'time': []}, u'edge': {u'target': [], u'time': []}}}",,,"[3278, 1140, 530]",22.0,,345125,3.0,9.0,mouselab-mdp,,18
"[1542, 4915, 7028]","[u'right', u'right', u'up']",,,"[-1, -1, -1]","[u'1', 2, 6, 10]","{u'mouseover': {u'state': {u'target': [], u'time': []}, u'edge': {u'target': [], u'time': []}}, u'click': {u'state': {u'target': [], u'time': []}, u'edge': {u'target': [], u'time': []}}, u'mouseout': {u'state': {u'target': [], u'time': []}, u'edge': {u'target': [], u'time': []}}}",,,"[1542, 1895, 1163]",36.0,,397449,4.0,3.0,mouselab-mdp,,18
"[2005, 19289, 23644]","[u'down', u'down', u'right']",,,"[12, -1, -1]","[u'1', 5, 9, 17]","{u'mouseover': {u'state': {u'target': [], u'time': []}, u'edge': {u'target': [], u'time': []}}, u'click': {u'state': {u'target': [], u'time': []}, u'edge': {u'target': [], u'time': []}}, u'mouseout': {u'state': {u'target': [], u'time': []}, u'edge': {u'target': [], u'time': []}}}",,,"[2005, 3871, 3394]",1.0,,466565,5.0,2.0,mouselab-mdp,,18
"[2140, 35823, 38883]","[u'up', u'up', u'right']",,,"[23, -1, 16]","[u'1', 3, 7, 13]","{u'mouseover': {u'state': {u'target': [], u'time': []}, u'edge': {u'target': [], u'time': []}}, u'click': {u'state': {u'target': [], u'time': []}, u'edge': {u'target': [], u'time': []}}, u'mouseout': {u'state': {u'target': [], u'time': []}, u'edge': {u'target': [], u'time': []}}}",,,"[2140, 9413, 2075]",15.0,,569677,6.0,4.0,mouselab-mdp,,18
"[33412, 54988, 58890]","[u'left', u'left', u'up']",,,"[17, -1, 10]","[u'1', 4, 8, 14]","{u'mouseover': {u'state': {u'target': [], u'time': []}, u'edge': {u'target': [], u'time': []}}, u'click': {u'state': {u'target': [], u'time': []}, u'edge': {u'target': [], u'time': []}}, u'mouseout': {u'state': {u'target': [], u'time': []}, u'edge': {u'target': [], u'time': []}}}",,,"[33412, 3298, 2835]",21.0,,659688,7.0,10.0,mouselab-mdp,,18
"[2210, 34797, 36258]","[u'up', u'up', u'left']",,,"[10, -1, 5]","[u'1', 3, 7, 12]","{u'mouseover': {u'state': {u'target': [], u'time': []}, u'edge': {u'target': [], u'time': []}}, u'click': {u'state': {u'target': [], u'time': []}, u'edge': {u'target': [], u'time': []}}, u'mouseout': {u'state': {u'target': [], u'time': []}, u'edge': {u'target': [], u'time': []}}}",,,"[2210, 21163, 3]",24.0,,752367,8.0,11.0,mouselab-mdp,,18
"[3920, 50118, 51338]","[u'down', u'down', u'right']",,,"[41, -1, -1]","[u'1', 5, 9, 17]","{u'mouseover': {u'state': {u'target': [], u'time': []}, u'edge': {u'target': [], u'time': []}}, u'click': {u'state': {u'target': [], u'time': []}, u'edge': {u'target': [], u'time': []}}, u'mouseout': {u'state': {u'target': [], u'time': []}, u'edge': {u'target': [], u'time': []}}}",,,"[3920, 3895, 3]",2.0,,856744,9.0,7.0,mouselab-mdp,,18
"[19479, 95390, 98022]","[u'left', u'left', u'up']",,,"[68, -1, -1]","[u'1', 4, 8, 14]","{u'mouseover': {u'state': {u'target': [], u'time': []}, u'edge': {u'target': [], u'time': []}}, u'click': {u'state': {u'target': [], u'time': []}, u'edge': {u'target': [], u'time': []}}, u'mouseout': {u'state': {u'target': [], u'time': []}, u'edge': {u'target': [], u'time': []}}}",,,"[19479, 6513, 1655]",10.0,,972686,10.0,6.0,mouselab-mdp,,18
"[2203, 32992, 35407]","[u'up', u'up', u'left']",,,"[16, -1, 5]","[u'1', 3, 7, 12]","{u'mouseover': {u'state': {u'target': [], u'time': []}, u'edge': {u'target': [], u'time': []}}, u'click': {u'state': {u'target': [], u'time': []}, u'edge': {u'target': [], u'time': []}}, u'mouseout': {u'state': {u'target': [], u'time': []}, u'edge': {u'target': [], u'time': []}}}",,,"[2203, 13320, 1245]",9.0,,1086871,11.0,0.0,mouselab-mdp,,18
"[613, 2588, 4653]","[u'right', u'right', u'up']",,,"[-1, -1, -1]","[u'1', 2, 6, 10]","{u'mouseover': {u'state': {u'target': [], u'time': []}, u'edge': {u'target': [], u'time': []}}, u'click': {u'state': {u'target': [], u'time': []}, u'edge': {u'target': [], u'time': []}}, u'mouseout': {u'state': {u'target': [], u'time': []}, u'edge': {u'target': [], u'time': []}}}",,,"[613, 715, 1013]",37.0,,1135413,12.0,5.0,mouselab-mdp,,18
"[23371, 59037, 61334]","[u'left', u'left', u'up']",,,"[28, 0, 0]","[u'1', 4, 8, 14]","{u'mouseover': {u'state': {u'target': [], u'time': []}, u'edge': {u'target': [], u'time': []}}, u'click': {u'state': {u'target': [u'2', u'6', u'11', u'5'], u'time': [6690, 10192, 15003, 18774]}, u'edge': {u'target': [], u'time': []}}, u'mouseout': {u'state': {u'target': [], u'time': []}, u'edge': {u'target': [], u'time': []}}}",,,"[23370, 5100, 1498]",29.0,,228832,1.0,4.0,mouselab-mdp,,19
"[2424, 4128, 5604]","[u'left', u'left', u'down']",,,"[0, 0, 0]","[u'1', 4, 8, 15]","{u'mouseover': {u'state': {u'target': [], u'time': []}, u'edge': {u'target': [], u'time': []}}, u'click': {u'state': {u'target': [], u'time': []}, u'edge': {u'target': [], u'time': []}}, u'mouseout': {u'state': {u'target': [], u'time': []}, u'edge': {u'target': [], u'time': []}}}",,,"[2424, 2, 658]",26.0,,278300,2.0,8.0,mouselab-mdp,,19
"[1233, 2828, 3666]","[u'up', u'up', u'left']",,,"[0, 0, 0]","[u'1', 3, 7, 12]","{u'mouseover': {u'state': {u'target': [], u'time': []}, u'edge': {u'target': [], u'time': []}}, u'click': {u'state': {u'target': [], u'time': []}, u'edge': {u'target': [], u'time': []}}, u'mouseout': {u'state': {u'target': [], u'time': []}, u'edge': {u'target': [], u'time': []}}}",,,"[1233, 2, 3]",-4.0,,328580,3.0,3.0,mouselab-mdp,,19
"[2622, 4257, 5309]","[u'right', u'right', u'up']",,,"[0, 0, 0]","[u'1', 2, 6, 10]","{u'mouseover': {u'state': {u'target': [], u'time': []}, u'edge': {u'target': [], u'time': []}}, u'click': {u'state': {u'target': [], u'time': []}, u'edge': {u'target': [], u'time': []}}, u'mouseout': {u'state': {u'target': [], u'time': []}, u'edge': {u'target': [], u'time': []}}}",,,"[2622, 2, 218]",4.0,,375908,4.0,11.0,mouselab-mdp,,19
"[730, 2301, 3387]","[u'left', u'left', u'up']",,,"[0, 0, 0]","[u'1', 4, 8, 14]","{u'mouseover': {u'state': {u'target': [], u'time': []}, u'edge': {u'target': [], u'time': []}}, u'click': {u'state': {u'target': [], u'time': []}, u'edge': {u'target': [], u'time': []}}, u'mouseout': {u'state': {u'target': [], u'time': []}, u'edge': {u'target': [], u'time': []}}}",,,"[730, 2, 274]",9.0,,423902,5.0,7.0,mouselab-mdp,,19
"[2288, 3868, 5710]","[u'down', u'down', u'left']",,,"[0, 0, 0]","[u'1', 5, 9, 16]","{u'mouseover': {u'state': {u'target': [], u'time': []}, u'edge': {u'target': [], u'time': []}}, u'click': {u'state': {u'target': [], u'time': []}, u'edge': {u'target': [], u'time': []}}, u'mouseout': {u'state': {u'target': [], u'time': []}, u'edge': {u'target': [], u'time': []}}}",,,"[2288, 2, 1026]",5.0,,471711,6.0,1.0,mouselab-mdp,,19
"[2418, 4026, 4951]","[u'right', u'right', u'down']",,,"[0, 0, 0]","[u'1', 2, 6, 11]","{u'mouseover': {u'state': {u'target': [], u'time': []}, u'edge': {u'target': [], u'time': []}}, u'click': {u'state': {u'target': [], u'time': []}, u'edge': {u'target': [], u'time': []}}, u'mouseout': {u'state': {u'target': [], u'time': []}, u'edge': {u'target': [], u'time': []}}}",,,"[2418, 1, 85]",17.0,,520857,7.0,10.0,mouselab-mdp,,19
"[1431, 2994, 5102]","[u'down', u'down', u'left']",,,"[0, 0, 0]","[u'1', 5, 9, 16]","{u'mouseover': {u'state': {u'target': [], u'time': []}, u'edge': {u'target': [], u'time': []}}, u'click': {u'state': {u'target': [], u'time': []}, u'edge': {u'target': [], u'time': []}}, u'mouseout': {u'state': {u'target': [], u'time': []}, u'edge': {u'target': [], u'time': []}}}",,,"[1431, 1, 1280]",0.0,,571034,8.0,2.0,mouselab-mdp,,19
