action_times,actions,button_pressed,correct,delays,path,queries,questions,responses,rt,score,stimulus,time_elapsed,trial_index,trial_i,trial_type,view_history,pid
,,,"[True, True, True, True, True]",,,,"[""True or false: The hidden values will change each time I start a new round."",""How much does it cost to observe each hidden value?"",""How many hidden values am I allowed to observe in each round?"",""How is your bonus determined?"",""What does the feedback teach you?""]","[""True"",""$1.00"",""As many or as few as I wish"",""5% of my score on a random round"",""All of the above.""]",33467,,,174464,,,survey-multi-choice,,0
,,,"[True, True, True, False, False]",,,,"[""True or false: The hidden values will change each time I start a new round."",""How much does it cost to observe each hidden value?"",""How many hidden values am I allowed to observe in each round?"",""How is your bonus determined?"",""What does the feedback teach you?""]","[""True"",""$1.00"",""As many or as few as I wish"",""5% of my best score on any round"",""Whether I chose the move that was best.""]",11195,,,54009,,,survey-multi-choice,,1
,,,"[True, True, True, True, True]",,,,"[""True or false: The hidden values will change each time I start a new round."",""How much does it cost to observe each hidden value?"",""How many hidden values am I allowed to observe in each round?"",""How is your bonus determined?"",""What does the feedback teach you?""]","[""True"",""$1.00"",""As many or as few as I wish"",""5% of my score on a random round"",""All of the above.""]",10339,,,79266,,,survey-multi-choice,,1
,,,"[True, True, False, True, True]",,,,"[""True or false: The hidden values will change each time I start a new round."",""How much does it cost to observe each hidden value?"",""How many hidden values am I allowed to observe in each round?"",""How is your bonus determined?"",""What does the feedback teach you?""]","[""True"",""$2.50"",""At most 1"",""5% of my score on a random round"",""All of the above.""]",34798,,,104396,,,survey-multi-choice,,2
,,,"[True, True, False, True, False]",,,,"[""True or false: The hidden values will change each time I start a new round."",""How much does it cost to observe each hidden value?"",""How many hidden values am I allowed to observe in each round?"",""How is your bonus determined?"",""What does the feedback teach you?""]","[""True"",""$2.50"",""At most 1"",""5% of my score on a random round"",""The length of the delay is based on how much more money I could have earned.""]",18633,,,151973,,,survey-multi-choice,,2
,,,"[True, True, True, True, True]",,,,"[""True or false: The hidden values will change each time I start a new round."",""How much does it cost to observe each hidden value?"",""How many hidden values am I allowed to observe in each round?"",""How is your bonus determined?"",""What does the feedback teach you?""]","[""True"",""$2.50"",""As many or as few as I wish"",""5% of my score on a random round"",""All of the above.""]",13707,,,202222,,,survey-multi-choice,,2
,,,"[True, True, True, False]",,,,"[""True or false: The hidden values will change each time I start a new round."",""How much does it cost to observe each hidden value?"",""How many hidden values am I allowed to observe in each round?"",""How is your bonus determined?""]","[""True"",""$1.00"",""As many or as few as I wish"",""10% of my best score on any round""]",28730,,,182070,,,survey-multi-choice,,3
,,,"[True, True, True, True]",,,,"[""True or false: The hidden values will change each time I start a new round."",""How much does it cost to observe each hidden value?"",""How many hidden values am I allowed to observe in each round?"",""How is your bonus determined?""]","[""True"",""$1.00"",""As many or as few as I wish"",""5% of my score on a random round""]",16403,,,380810,,,survey-multi-choice,,3
,,,"[True, True, True, True]",,,,"[""True or false: The hidden values will change each time I start a new round."",""How much does it cost to observe each hidden value?"",""How many hidden values am I allowed to observe in each round?"",""How is your bonus determined?""]","[""True"",""$2.50"",""As many or as few as I wish"",""5% of my score on a random round""]",56670,,,212536,,,survey-multi-choice,,4
,,,"[True, True, True, False, True]",,,,"[""True or false: The hidden values will change each time I start a new round."",""How much does it cost to observe each hidden value?"",""How many hidden values am I allowed to observe in each round?"",""How is your bonus determined?"",""What does the feedback teach you?""]","[""True"",""$0.01"",""As many or as few as I wish"",""10% of my total score on all rounds"",""All of the above.""]",19726,,,103170,,,survey-multi-choice,,5
,,,"[True, True, True, True, True]",,,,"[""True or false: The hidden values will change each time I start a new round."",""How much does it cost to observe each hidden value?"",""How many hidden values am I allowed to observe in each round?"",""How is your bonus determined?"",""What does the feedback teach you?""]","[""True"",""$0.01"",""As many or as few as I wish"",""5% of my score on a random round"",""All of the above.""]",14047,,,158651,,,survey-multi-choice,,5
,,,"[True, True, True, True, True]",,,,"[""True or false: The hidden values will change each time I start a new round."",""How much does it cost to observe each hidden value?"",""How many hidden values am I allowed to observe in each round?"",""How is your bonus determined?"",""What does the feedback teach you?""]","[""True"",""$2.50"",""As many or as few as I wish"",""5% of my score on a random round"",""All of the above.""]",30089,,,147834,,,survey-multi-choice,,6
,,,"[True, True, True, True, True]",,,,"[""True or false: The hidden values will change each time I start a new round."",""How much does it cost to observe each hidden value?"",""How many hidden values am I allowed to observe in each round?"",""How is your bonus determined?"",""What does the feedback teach you?""]","[""True"",""$2.50"",""As many or as few as I wish"",""5% of my score on a random round"",""All of the above.""]",57287,,,388141,,,survey-multi-choice,,7
,,,"[True, True, True, True]",,,,"[""True or false: The hidden values will change each time I start a new round."",""How much does it cost to observe each hidden value?"",""How many hidden values am I allowed to observe in each round?"",""How is your bonus determined?""]","[""True"",""$0.01"",""As many or as few as I wish"",""5% of my score on a random round""]",26597,,,152633,,,survey-multi-choice,,8
,,,"[True, True, True, True]",,,,"[""True or false: The hidden values will change each time I start a new round."",""How much does it cost to observe each hidden value?"",""How many hidden values am I allowed to observe in each round?"",""How is your bonus determined?""]","[""True"",""$2.50"",""As many or as few as I wish"",""5% of my score on a random round""]",27176,,,292696,,,survey-multi-choice,,9
,,,"[True, True, False, False]",,,,"[""True or false: The hidden values will change each time I start a new round."",""How much does it cost to observe each hidden value?"",""How many hidden values am I allowed to observe in each round?"",""How is your bonus determined?""]","[""True"",""$1.00"",""At most 1"",""5% of my best score on any round""]",23280,,,125550,,,survey-multi-choice,,10
,,,"[True, True, True, False]",,,,"[""True or false: The hidden values will change each time I start a new round."",""How much does it cost to observe each hidden value?"",""How many hidden values am I allowed to observe in each round?"",""How is your bonus determined?""]","[""True"",""$1.00"",""As many or as few as I wish"",""5% of my best score on any round""]",39842,,,241882,,,survey-multi-choice,,10
,,,"[True, True, True, True]",,,,"[""True or false: The hidden values will change each time I start a new round."",""How much does it cost to observe each hidden value?"",""How many hidden values am I allowed to observe in each round?"",""How is your bonus determined?""]","[""True"",""$1.00"",""As many or as few as I wish"",""5% of my score on a random round""]",28765,,,336544,,,survey-multi-choice,,10
,,,"[True, True, True, False, False]",,,,"[""True or false: The hidden values will change each time I start a new round."",""How much does it cost to observe each hidden value?"",""How many hidden values am I allowed to observe in each round?"",""How is your bonus determined?"",""What does the feedback teach you?""]","[""True"",""$2.50"",""As many or as few as I wish"",""5% of my best score on any round"",""Whether I chose the move that was best.""]",67354,,,313597,,,survey-multi-choice,,11
,,,"[True, True, True, True, False]",,,,"[""True or false: The hidden values will change each time I start a new round."",""How much does it cost to observe each hidden value?"",""How many hidden values am I allowed to observe in each round?"",""How is your bonus determined?"",""What does the feedback teach you?""]","[""True"",""$2.50"",""As many or as few as I wish"",""5% of my score on a random round"",""Whether I chose the move that was best.""]",28675,,,454322,,,survey-multi-choice,,11
,,,"[True, True, False, True, False]",,,,"[""True or false: The hidden values will change each time I start a new round."",""How much does it cost to observe each hidden value?"",""How many hidden values am I allowed to observe in each round?"",""How is your bonus determined?"",""What does the feedback teach you?""]","[""True"",""$2.50"",""At most 10"",""5% of my score on a random round"",""Whether I chose the move that was best.""]",39193,,,517493,,,survey-multi-choice,,11
,,,"[True, True, True, True, False]",,,,"[""True or false: The hidden values will change each time I start a new round."",""How much does it cost to observe each hidden value?"",""How many hidden values am I allowed to observe in each round?"",""How is your bonus determined?"",""What does the feedback teach you?""]","[""True"",""$2.50"",""As many or as few as I wish"",""5% of my score on a random round"",""Whether I chose the move that was best.""]",32029,,,694437,,,survey-multi-choice,,11
,,,"[True, True, False, True, False]",,,,"[""True or false: The hidden values will change each time I start a new round."",""How much does it cost to observe each hidden value?"",""How many hidden values am I allowed to observe in each round?"",""How is your bonus determined?"",""What does the feedback teach you?""]","[""True"",""$2.50"",""At most 5"",""5% of my score on a random round"",""Whether I chose the move that was best.""]",25304,,,742882,,,survey-multi-choice,,11
,,,"[True, True, False, True, False]",,,,"[""True or false: The hidden values will change each time I start a new round."",""How much does it cost to observe each hidden value?"",""How many hidden values am I allowed to observe in each round?"",""How is your bonus determined?"",""What does the feedback teach you?""]","[""True"",""$2.50"",""At most 1"",""5% of my score on a random round"",""Whether I chose the move that was best.""]",23803,,,828327,,,survey-multi-choice,,11
,,,"[True, True, False, True, False]",,,,"[""True or false: The hidden values will change each time I start a new round."",""How much does it cost to observe each hidden value?"",""How many hidden values am I allowed to observe in each round?"",""How is your bonus determined?"",""What does the feedback teach you?""]","[""True"",""$2.50"",""At most 15"",""5% of my score on a random round"",""Whether I chose the move that was best.""]",27169,,,966052,,,survey-multi-choice,,11
,,,"[True, True, False, True, False]",,,,"[""True or false: The hidden values will change each time I start a new round."",""How much does it cost to observe each hidden value?"",""How many hidden values am I allowed to observe in each round?"",""How is your bonus determined?"",""What does the feedback teach you?""]","[""True"",""$2.50"",""At most 10"",""5% of my score on a random round"",""Whether I chose the move that was best.""]",17051,,,994810,,,survey-multi-choice,,11
,,,"[True, True, True, True, True]",,,,"[""True or false: The hidden values will change each time I start a new round."",""How much does it cost to observe each hidden value?"",""How many hidden values am I allowed to observe in each round?"",""How is your bonus determined?"",""What does the feedback teach you?""]","[""True"",""$2.50"",""As many or as few as I wish"",""5% of my score on a random round"",""All of the above.""]",21780,,,1023140,,,survey-multi-choice,,11
,,,"[True, False, True, False, False]",,,,"[""True or false: The hidden values will change each time I start a new round."",""How much does it cost to observe each hidden value?"",""How many hidden values am I allowed to observe in each round?"",""How is your bonus determined?"",""What does the feedback teach you?""]","[""True"",""$0.05"",""As many or as few as I wish"",""5% of my best score on any round"",""Whether I observed the rewards of relevant locations.""]",38201,,,172990,,,survey-multi-choice,,12
,,,"[True, True, True, False, False]",,,,"[""True or false: The hidden values will change each time I start a new round."",""How much does it cost to observe each hidden value?"",""How many hidden values am I allowed to observe in each round?"",""How is your bonus determined?"",""What does the feedback teach you?""]","[""True"",""$0.01"",""As many or as few as I wish"",""5% of my best score on any round"",""Whether I observed the rewards of relevant locations.""]",14154,,,216796,,,survey-multi-choice,,12
,,,"[True, True, True, False, True]",,,,"[""True or false: The hidden values will change each time I start a new round."",""How much does it cost to observe each hidden value?"",""How many hidden values am I allowed to observe in each round?"",""How is your bonus determined?"",""What does the feedback teach you?""]","[""True"",""$0.01"",""As many or as few as I wish"",""5% of my best score on any round"",""All of the above.""]",19033,,,267970,,,survey-multi-choice,,12
,,,"[True, True, True, False, False]",,,,"[""True or false: The hidden values will change each time I start a new round."",""How much does it cost to observe each hidden value?"",""How many hidden values am I allowed to observe in each round?"",""How is your bonus determined?"",""What does the feedback teach you?""]","[""True"",""$0.01"",""As many or as few as I wish"",""5% of my best score on any round"",""The length of the delay is based on how much more money I could have earned by planning and deciding better.""]",21538,,,365681,,,survey-multi-choice,,12
,,,"[True, True, True, True, False]",,,,"[""True or false: The hidden values will change each time I start a new round."",""How much does it cost to observe each hidden value?"",""How many hidden values am I allowed to observe in each round?"",""How is your bonus determined?"",""What does the feedback teach you?""]","[""True"",""$0.01"",""As many or as few as I wish"",""5% of my score on a random round"",""The length of the delay is based on how much more money I could have earned by planning and deciding better.""]",11860,,,397145,,,survey-multi-choice,,12
,,,"[True, True, True, True, True]",,,,"[""True or false: The hidden values will change each time I start a new round."",""How much does it cost to observe each hidden value?"",""How many hidden values am I allowed to observe in each round?"",""How is your bonus determined?"",""What does the feedback teach you?""]","[""True"",""$0.01"",""As many or as few as I wish"",""5% of my score on a random round"",""All of the above.""]",11991,,,415027,,,survey-multi-choice,,12
,,,"[True, True, True, True, True]",,,,"[""True or false: The hidden values will change each time I start a new round."",""How much does it cost to observe each hidden value?"",""How many hidden values am I allowed to observe in each round?"",""How is your bonus determined?"",""What does the feedback teach you?""]","[""True"",""$2.50"",""As many or as few as I wish"",""5% of my score on a random round"",""All of the above.""]",15545,,,114763,,,survey-multi-choice,,13
,,,"[True, True, True, True, False]",,,,"[""True or false: The hidden values will change each time I start a new round."",""How much does it cost to observe each hidden value?"",""How many hidden values am I allowed to observe in each round?"",""How is your bonus determined?"",""What does the feedback teach you?""]","[""True"",""$0.01"",""As many or as few as I wish"",""5% of my score on a random round"",""The length of the delay is based on how much more money I could have earned by planning and deciding better.""]",67633,,,322277,,,survey-multi-choice,,14
,,,"[True, True, True, True, True]",,,,"[""True or false: The hidden values will change each time I start a new round."",""How much does it cost to observe each hidden value?"",""How many hidden values am I allowed to observe in each round?"",""How is your bonus determined?"",""What does the feedback teach you?""]","[""True"",""$0.01"",""As many or as few as I wish"",""5% of my score on a random round"",""All of the above.""]",53352,,,483396,,,survey-multi-choice,,14
,,,"[True, False, True, False]",,,,"[""True or false: The hidden values will change each time I start a new round."",""How much does it cost to observe each hidden value?"",""How many hidden values am I allowed to observe in each round?"",""How is your bonus determined?""]","[""True"",""$0.01"",""As many or as few as I wish"",""10% of my total score on all rounds""]",24060,,,146855,,,survey-multi-choice,,15
,,,"[True, True, True, True]",,,,"[""True or false: The hidden values will change each time I start a new round."",""How much does it cost to observe each hidden value?"",""How many hidden values am I allowed to observe in each round?"",""How is your bonus determined?""]","[""True"",""$1.00"",""As many or as few as I wish"",""5% of my score on a random round""]",24079,,,249646,,,survey-multi-choice,,15
,,,"[False, False, True, True, False]",,,,"[""True or false: The hidden values will change each time I start a new round."",""How much does it cost to observe each hidden value?"",""How many hidden values am I allowed to observe in each round?"",""How is your bonus determined?"",""What does the feedback teach you?""]","[""False"",""$0.05"",""As many or as few as I wish"",""5% of my score on a random round"",""Whether I chose the move that was best.""]",48864,,,255199,,,survey-multi-choice,,16
,,,"[True, True, True, True, False]",,,,"[""True or false: The hidden values will change each time I start a new round."",""How much does it cost to observe each hidden value?"",""How many hidden values am I allowed to observe in each round?"",""How is your bonus determined?"",""What does the feedback teach you?""]","[""True"",""$2.50"",""As many or as few as I wish"",""5% of my score on a random round"",""Whether I chose the move that was best.""]",17547,,,354069,,,survey-multi-choice,,16
,,,"[True, True, True, True, False]",,,,"[""True or false: The hidden values will change each time I start a new round."",""How much does it cost to observe each hidden value?"",""How many hidden values am I allowed to observe in each round?"",""How is your bonus determined?"",""What does the feedback teach you?""]","[""True"",""$2.50"",""As many or as few as I wish"",""5% of my score on a random round"",""The length of the delay is based on how much more money I could have earned.""]",25314,,,487770,,,survey-multi-choice,,16
,,,"[True, True, True, True, True]",,,,"[""True or false: The hidden values will change each time I start a new round."",""How much does it cost to observe each hidden value?"",""How many hidden values am I allowed to observe in each round?"",""How is your bonus determined?"",""What does the feedback teach you?""]","[""True"",""$2.50"",""As many or as few as I wish"",""5% of my score on a random round"",""All of the above.""]",182603,,,835111,,,survey-multi-choice,,16
,,,"[True, True, True, True, True]",,,,"[""True or false: The hidden values will change each time I start a new round."",""How much does it cost to observe each hidden value?"",""How many hidden values am I allowed to observe in each round?"",""How is your bonus determined?"",""What does the feedback teach you?""]","[""True"",""$2.50"",""As many or as few as I wish"",""5% of my score on a random round"",""All of the above.""]",44687,,,222789,,,survey-multi-choice,,17
,,,"[True, True, True, True, True]",,,,"[""True or false: The hidden values will change each time I start a new round."",""How much does it cost to observe each hidden value?"",""How many hidden values am I allowed to observe in each round?"",""How is your bonus determined?"",""What does the feedback teach you?""]","[""True"",""$1.00"",""As many or as few as I wish"",""5% of my score on a random round"",""All of the above.""]",11823,,,19032,,,survey-multi-choice,,18
,,,"[True, False, False, True, True]",,,,"[""True or false: The hidden values will change each time I start a new round."",""How much does it cost to observe each hidden value?"",""How many hidden values am I allowed to observe in each round?"",""How is your bonus determined?"",""What does the feedback teach you?""]","[""True"",""$0.05"",""At most 10"",""5% of my score on a random round"",""All of the above.""]",22047,,,97794,,,survey-multi-choice,,19
,,,"[True, True, True, True, True]",,,,"[""True or false: The hidden values will change each time I start a new round."",""How much does it cost to observe each hidden value?"",""How many hidden values am I allowed to observe in each round?"",""How is your bonus determined?"",""What does the feedback teach you?""]","[""True"",""$2.50"",""As many or as few as I wish"",""5% of my score on a random round"",""All of the above.""]",14964,,,150562,,,survey-multi-choice,,19
,,,"[True, True, True, True, True]",,,,"[""True or false: The hidden values will change each time I start a new round."",""How much does it cost to observe each hidden value?"",""How many hidden values am I allowed to observe in each round?"",""How is your bonus determined?"",""What does the feedback teach you?""]","[""True"",""$0.01"",""As many or as few as I wish"",""5% of my score on a random round"",""All of the above.""]",21541,,,115407,,,survey-multi-choice,,20
,,,"[True, True, True, False, False]",,,,"[""True or false: The hidden values will change each time I start a new round."",""How much does it cost to observe each hidden value?"",""How many hidden values am I allowed to observe in each round?"",""How is your bonus determined?"",""What does the feedback teach you?""]","[""True"",""$1.00"",""As many or as few as I wish"",""5% of my best score on any round"",""Whether I chose the move that was best.""]",34533,,,150898,,,survey-multi-choice,,21
,,,"[True, True, True, True, False]",,,,"[""True or false: The hidden values will change each time I start a new round."",""How much does it cost to observe each hidden value?"",""How many hidden values am I allowed to observe in each round?"",""How is your bonus determined?"",""What does the feedback teach you?""]","[""True"",""$1.00"",""As many or as few as I wish"",""5% of my score on a random round"",""Whether I chose the move that was best.""]",78369,,,319212,,,survey-multi-choice,,21
,,,"[True, True, True, True, True]",,,,"[""True or false: The hidden values will change each time I start a new round."",""How much does it cost to observe each hidden value?"",""How many hidden values am I allowed to observe in each round?"",""How is your bonus determined?"",""What does the feedback teach you?""]","[""True"",""$1.00"",""As many or as few as I wish"",""5% of my score on a random round"",""All of the above.""]",41587,,,371020,,,survey-multi-choice,,21
,,,"[True, True, True, True, True]",,,,"[""True or false: The hidden values will change each time I start a new round."",""How much does it cost to observe each hidden value?"",""How many hidden values am I allowed to observe in each round?"",""How is your bonus determined?"",""What does the feedback teach you?""]","[""True"",""$1.00"",""As many or as few as I wish"",""5% of my score on a random round"",""All of the above.""]",21209,,,201884,,,survey-multi-choice,,22
,,,"[True, True, True, True, False]",,,,"[""True or false: The hidden values will change each time I start a new round."",""How much does it cost to observe each hidden value?"",""How many hidden values am I allowed to observe in each round?"",""How is your bonus determined?"",""What does the feedback teach you?""]","[""True"",""$2.50"",""As many or as few as I wish"",""5% of my score on a random round"",""The length of the delay is based on how much more money I could have earned.""]",18581,,,92424,,,survey-multi-choice,,23
,,,"[True, True, True, True, True]",,,,"[""True or false: The hidden values will change each time I start a new round."",""How much does it cost to observe each hidden value?"",""How many hidden values am I allowed to observe in each round?"",""How is your bonus determined?"",""What does the feedback teach you?""]","[""True"",""$2.50"",""As many or as few as I wish"",""5% of my score on a random round"",""All of the above.""]",21448,,,141377,,,survey-multi-choice,,23
,,,"[True, False, True, True, False]",,,,"[""True or false: The hidden values will change each time I start a new round."",""How much does it cost to observe each hidden value?"",""How many hidden values am I allowed to observe in each round?"",""How is your bonus determined?"",""What does the feedback teach you?""]","[""True"",""$2.50"",""As many or as few as I wish"",""5% of my score on a random round"",""Whether I chose the move that was best.""]",9278,,,831511,,,survey-multi-choice,,24
,,,"[True, False, True, True, True]",,,,"[""True or false: The hidden values will change each time I start a new round."",""How much does it cost to observe each hidden value?"",""How many hidden values am I allowed to observe in each round?"",""How is your bonus determined?"",""What does the feedback teach you?""]","[""True"",""$2.50"",""As many or as few as I wish"",""5% of my score on a random round"",""All of the above.""]",8263,,,914939,,,survey-multi-choice,,24
,,,"[True, False, True, True, True]",,,,"[""True or false: The hidden values will change each time I start a new round."",""How much does it cost to observe each hidden value?"",""How many hidden values am I allowed to observe in each round?"",""How is your bonus determined?"",""What does the feedback teach you?""]","[""True"",""$2.50"",""As many or as few as I wish"",""5% of my score on a random round"",""All of the above.""]",8406,,,935827,,,survey-multi-choice,,24
,,,"[True, False, True, False, True]",,,,"[""True or false: The hidden values will change each time I start a new round."",""How much does it cost to observe each hidden value?"",""How many hidden values am I allowed to observe in each round?"",""How is your bonus determined?"",""What does the feedback teach you?""]","[""True"",""$2.50"",""As many or as few as I wish"",""5% of my best score on any round"",""All of the above.""]",11719,,,955412,,,survey-multi-choice,,24
,,,"[True, False, True, True, True]",,,,"[""True or false: The hidden values will change each time I start a new round."",""How much does it cost to observe each hidden value?"",""How many hidden values am I allowed to observe in each round?"",""How is your bonus determined?"",""What does the feedback teach you?""]","[""True"",""$2.50"",""As many or as few as I wish"",""5% of my score on a random round"",""All of the above.""]",10920,,,1022091,,,survey-multi-choice,,24
,,,"[True, False, True, True, False]",,,,"[""True or false: The hidden values will change each time I start a new round."",""How much does it cost to observe each hidden value?"",""How many hidden values am I allowed to observe in each round?"",""How is your bonus determined?"",""What does the feedback teach you?""]","[""True"",""$2.50"",""As many or as few as I wish"",""5% of my score on a random round"",""Whether I chose the move that was best.""]",9383,,,1041390,,,survey-multi-choice,,24
,,,"[True, True, True, True, True]",,,,"[""True or false: The hidden values will change each time I start a new round."",""How much does it cost to observe each hidden value?"",""How many hidden values am I allowed to observe in each round?"",""How is your bonus determined?"",""What does the feedback teach you?""]","[""True"",""$1.00"",""As many or as few as I wish"",""5% of my score on a random round"",""All of the above.""]",6832,,,1076947,,,survey-multi-choice,,24
,,,"[True, True, True, True, True]",,,,"[""True or false: The hidden values will change each time I start a new round."",""How much does it cost to observe each hidden value?"",""How many hidden values am I allowed to observe in each round?"",""How is your bonus determined?"",""What does the feedback teach you?""]","[""True"",""$2.50"",""As many or as few as I wish"",""5% of my score on a random round"",""All of the above.""]",23312,,,269383,,,survey-multi-choice,,25
,,,"[True, True, False, False, True]",,,,"[""True or false: The hidden values will change each time I start a new round."",""How much does it cost to observe each hidden value?"",""How many hidden values am I allowed to observe in each round?"",""How is your bonus determined?"",""What does the feedback teach you?""]","[""True"",""$0.01"",""At most 1"",""10% of my best score on any round"",""All of the above.""]",21610,,,101203,,,survey-multi-choice,,26
,,,"[False, True, False, False, False]",,,,"[""True or false: The hidden values will change each time I start a new round."",""How much does it cost to observe each hidden value?"",""How many hidden values am I allowed to observe in each round?"",""How is your bonus determined?"",""What does the feedback teach you?""]","[""False"",""$0.01"",""At most 1"",""5% of my best score on any round"",""Whether I chose the move that was best.""]",15055,,,165930,,,survey-multi-choice,,26
,,,"[True, True, False, True, False]",,,,"[""True or false: The hidden values will change each time I start a new round."",""How much does it cost to observe each hidden value?"",""How many hidden values am I allowed to observe in each round?"",""How is your bonus determined?"",""What does the feedback teach you?""]","[""True"",""$0.01"",""At most 1"",""5% of my score on a random round"",""Whether I chose the move that was best.""]",10178,,,183610,,,survey-multi-choice,,26
,,,"[True, True, False, True, True]",,,,"[""True or false: The hidden values will change each time I start a new round."",""How much does it cost to observe each hidden value?"",""How many hidden values am I allowed to observe in each round?"",""How is your bonus determined?"",""What does the feedback teach you?""]","[""True"",""$0.01"",""At most 1"",""5% of my score on a random round"",""All of the above.""]",12182,,,387839,,,survey-multi-choice,,26
,,,"[True, True, True, True, True]",,,,"[""True or false: The hidden values will change each time I start a new round."",""How much does it cost to observe each hidden value?"",""How many hidden values am I allowed to observe in each round?"",""How is your bonus determined?"",""What does the feedback teach you?""]","[""True"",""$0.01"",""As many or as few as I wish"",""5% of my score on a random round"",""All of the above.""]",21426,,,440240,,,survey-multi-choice,,26
,,,"[True, True, True, True, True]",,,,"[""True or false: The hidden values will change each time I start a new round."",""How much does it cost to observe each hidden value?"",""How many hidden values am I allowed to observe in each round?"",""How is your bonus determined?"",""What does the feedback teach you?""]","[""True"",""$0.01"",""As many or as few as I wish"",""5% of my score on a random round"",""All of the above.""]",39728,,,177416,,,survey-multi-choice,,27
,,,"[True, True, True, True]",,,,"[""True or false: The hidden values will change each time I start a new round."",""How much does it cost to observe each hidden value?"",""How many hidden values am I allowed to observe in each round?"",""How is your bonus determined?""]","[""True"",""$0.01"",""As many or as few as I wish"",""5% of my score on a random round""]",27435,,,171427,,,survey-multi-choice,,28
,,,"[True, True, True, True, True]",,,,"[""True or false: The hidden values will change each time I start a new round."",""How much does it cost to observe each hidden value?"",""How many hidden values am I allowed to observe in each round?"",""How is your bonus determined?"",""What does the feedback teach you?""]","[""True"",""$1.00"",""As many or as few as I wish"",""5% of my score on a random round"",""All of the above.""]",29254,,,148621,,,survey-multi-choice,,29
,,,"[True, True, True, True, True]",,,,"[""True or false: The hidden values will change each time I start a new round."",""How much does it cost to observe each hidden value?"",""How many hidden values am I allowed to observe in each round?"",""How is your bonus determined?"",""What does the feedback teach you?""]","[""True"",""$0.01"",""As many or as few as I wish"",""5% of my score on a random round"",""All of the above.""]",40913,,,218909,,,survey-multi-choice,,30
,,,"[True, True, True, True, True]",,,,"[""True or false: The hidden values will change each time I start a new round."",""How much does it cost to observe each hidden value?"",""How many hidden values am I allowed to observe in each round?"",""How is your bonus determined?"",""What does the feedback teach you?""]","[""True"",""$0.01"",""As many or as few as I wish"",""5% of my score on a random round"",""All of the above.""]",66904,,,382850,,,survey-multi-choice,,31
,,,"[True, True, True, False, True]",,,,"[""True or false: The hidden values will change each time I start a new round."",""How much does it cost to observe each hidden value?"",""How many hidden values am I allowed to observe in each round?"",""How is your bonus determined?"",""What does the feedback teach you?""]","[""True"",""$0.01"",""As many or as few as I wish"",""10% of my total score on all rounds"",""All of the above.""]",88288,,,604389,,,survey-multi-choice,,32
,,,"[True, True, True, False, True]",,,,"[""True or false: The hidden values will change each time I start a new round."",""How much does it cost to observe each hidden value?"",""How many hidden values am I allowed to observe in each round?"",""How is your bonus determined?"",""What does the feedback teach you?""]","[""True"",""$0.01"",""As many or as few as I wish"",""5% of my best score on any round"",""All of the above.""]",42967,,,902157,,,survey-multi-choice,,32
,,,"[True, True, True, True, True]",,,,"[""True or false: The hidden values will change each time I start a new round."",""How much does it cost to observe each hidden value?"",""How many hidden values am I allowed to observe in each round?"",""How is your bonus determined?"",""What does the feedback teach you?""]","[""True"",""$0.01"",""As many or as few as I wish"",""5% of my score on a random round"",""All of the above.""]",20010,,,967641,,,survey-multi-choice,,32
,,,"[True, True, True, True, True]",,,,"[""True or false: The hidden values will change each time I start a new round."",""How much does it cost to observe each hidden value?"",""How many hidden values am I allowed to observe in each round?"",""How is your bonus determined?"",""What does the feedback teach you?""]","[""True"",""$1.00"",""As many or as few as I wish"",""5% of my score on a random round"",""All of the above.""]",123254,,,327788,,,survey-multi-choice,,33
,,,"[True, True, True, False, False]",,,,"[""True or false: The hidden values will change each time I start a new round."",""How much does it cost to observe each hidden value?"",""How many hidden values am I allowed to observe in each round?"",""How is your bonus determined?"",""What does the feedback teach you?""]","[""True"",""$2.50"",""As many or as few as I wish"",""5% of my best score on any round"",""Whether I chose the move that was best.""]",48588,,,226710,,,survey-multi-choice,,34
,,,"[True, True, True, True, False]",,,,"[""True or false: The hidden values will change each time I start a new round."",""How much does it cost to observe each hidden value?"",""How many hidden values am I allowed to observe in each round?"",""How is your bonus determined?"",""What does the feedback teach you?""]","[""True"",""$2.50"",""As many or as few as I wish"",""5% of my score on a random round"",""Whether I chose the move that was best.""]",12400,,,344732,,,survey-multi-choice,,34
,,,"[True, True, True, False, False]",,,,"[""True or false: The hidden values will change each time I start a new round."",""How much does it cost to observe each hidden value?"",""How many hidden values am I allowed to observe in each round?"",""How is your bonus determined?"",""What does the feedback teach you?""]","[""True"",""$2.50"",""As many or as few as I wish"",""5% of my best score on any round"",""Whether I chose the move that was best.""]",47762,,,449498,,,survey-multi-choice,,34
,,,"[True, True, True, False, False]",,,,"[""True or false: The hidden values will change each time I start a new round."",""How much does it cost to observe each hidden value?"",""How many hidden values am I allowed to observe in each round?"",""How is your bonus determined?"",""What does the feedback teach you?""]","[""True"",""$2.50"",""As many or as few as I wish"",""5% of my best score on any round"",""Whether I chose the move that was best.""]",15463,,,498549,,,survey-multi-choice,,34
,,,"[True, True, True, True, True]",,,,"[""True or false: The hidden values will change each time I start a new round."",""How much does it cost to observe each hidden value?"",""How many hidden values am I allowed to observe in each round?"",""How is your bonus determined?"",""What does the feedback teach you?""]","[""True"",""$2.50"",""As many or as few as I wish"",""5% of my score on a random round"",""All of the above.""]",19980,,,530200,,,survey-multi-choice,,34
,,,"[True, False, False, True, True]",,,,"[""True or false: The hidden values will change each time I start a new round."",""How much does it cost to observe each hidden value?"",""How many hidden values am I allowed to observe in each round?"",""How is your bonus determined?"",""What does the feedback teach you?""]","[""True"",""$0.05"",""At most 10"",""5% of my score on a random round"",""All of the above.""]",44521,,,100381,,,survey-multi-choice,,35
,,,"[True, True, True, False, True]",,,,"[""True or false: The hidden values will change each time I start a new round."",""How much does it cost to observe each hidden value?"",""How many hidden values am I allowed to observe in each round?"",""How is your bonus determined?"",""What does the feedback teach you?""]","[""True"",""$1.00"",""As many or as few as I wish"",""5% of my best score on any round"",""All of the above.""]",249936,,,538429,,,survey-multi-choice,,35
,,,"[False, True, True, False, True]",,,,"[""True or false: The hidden values will change each time I start a new round."",""How much does it cost to observe each hidden value?"",""How many hidden values am I allowed to observe in each round?"",""How is your bonus determined?"",""What does the feedback teach you?""]","[""False"",""$1.00"",""As many or as few as I wish"",""5% of my best score on any round"",""All of the above.""]",16720,,,623781,,,survey-multi-choice,,35
,,,"[False, True, False, False, True]",,,,"[""True or false: The hidden values will change each time I start a new round."",""How much does it cost to observe each hidden value?"",""How many hidden values am I allowed to observe in each round?"",""How is your bonus determined?"",""What does the feedback teach you?""]","[""False"",""$1.00"",""At most 15"",""5% of my best score on any round"",""All of the above.""]",80757,,,734318,,,survey-multi-choice,,35
,,,"[False, True, False, True, True]",,,,"[""True or false: The hidden values will change each time I start a new round."",""How much does it cost to observe each hidden value?"",""How many hidden values am I allowed to observe in each round?"",""How is your bonus determined?"",""What does the feedback teach you?""]","[""False"",""$1.00"",""At most 15"",""5% of my score on a random round"",""All of the above.""]",8114,,,764853,,,survey-multi-choice,,35
,,,"[True, True, True, True, True]",,,,"[""True or false: The hidden values will change each time I start a new round."",""How much does it cost to observe each hidden value?"",""How many hidden values am I allowed to observe in each round?"",""How is your bonus determined?"",""What does the feedback teach you?""]","[""True"",""$1.00"",""As many or as few as I wish"",""5% of my score on a random round"",""All of the above.""]",11327,,,783952,,,survey-multi-choice,,35
,,,"[True, True, True, True, True]",,,,"[""True or false: The hidden values will change each time I start a new round."",""How much does it cost to observe each hidden value?"",""How many hidden values am I allowed to observe in each round?"",""How is your bonus determined?"",""What does the feedback teach you?""]","[""True"",""$1.00"",""As many or as few as I wish"",""5% of my score on a random round"",""All of the above.""]",21667,,,383817,,,survey-multi-choice,,36
,,,"[True, True, True, True, True]",,,,"[""True or false: The hidden values will change each time I start a new round."",""How much does it cost to observe each hidden value?"",""How many hidden values am I allowed to observe in each round?"",""How is your bonus determined?"",""What does the feedback teach you?""]","[""True"",""$0.01"",""As many or as few as I wish"",""5% of my score on a random round"",""All of the above.""]",49131,,,188230,,,survey-multi-choice,,37
,,,"[True, True, True, False, True]",,,,"[""True or false: The hidden values will change each time I start a new round."",""How much does it cost to observe each hidden value?"",""How many hidden values am I allowed to observe in each round?"",""How is your bonus determined?"",""What does the feedback teach you?""]","[""True"",""$1.00"",""As many or as few as I wish"",""10% of my total score on all rounds"",""All of the above.""]",30152,,,216172,,,survey-multi-choice,,38
,,,"[True, True, True, False, True]",,,,"[""True or false: The hidden values will change each time I start a new round."",""How much does it cost to observe each hidden value?"",""How many hidden values am I allowed to observe in each round?"",""How is your bonus determined?"",""What does the feedback teach you?""]","[""True"",""$1.00"",""As many or as few as I wish"",""5% of my best score on any round"",""All of the above.""]",23604,,,288830,,,survey-multi-choice,,38
,,,"[True, True, True, True, False]",,,,"[""True or false: The hidden values will change each time I start a new round."",""How much does it cost to observe each hidden value?"",""How many hidden values am I allowed to observe in each round?"",""How is your bonus determined?"",""What does the feedback teach you?""]","[""True"",""$1.00"",""As many or as few as I wish"",""5% of my score on a random round"",""Whether I chose the move that was best.""]",18600,,,395036,,,survey-multi-choice,,38
,,,"[True, True, True, True, True]",,,,"[""True or false: The hidden values will change each time I start a new round."",""How much does it cost to observe each hidden value?"",""How many hidden values am I allowed to observe in each round?"",""How is your bonus determined?"",""What does the feedback teach you?""]","[""True"",""$1.00"",""As many or as few as I wish"",""5% of my score on a random round"",""All of the above.""]",17058,,,419820,,,survey-multi-choice,,38
,,,"[True, True, True, True, True]",,,,"[""True or false: The hidden values will change each time I start a new round."",""How much does it cost to observe each hidden value?"",""How many hidden values am I allowed to observe in each round?"",""How is your bonus determined?"",""What does the feedback teach you?""]","[""True"",""$2.50"",""As many or as few as I wish"",""5% of my score on a random round"",""All of the above.""]",27907,,,161226,,,survey-multi-choice,,39
,,,"[True, True, True, True, False]",,,,"[""True or false: The hidden values will change each time I start a new round."",""How much does it cost to observe each hidden value?"",""How many hidden values am I allowed to observe in each round?"",""How is your bonus determined?"",""What does the feedback teach you?""]","[""True"",""$0.01"",""As many or as few as I wish"",""5% of my score on a random round"",""Whether I chose the move that was best according to the information I had.""]",32556,,,231881,,,survey-multi-choice,,40
,,,"[True, True, True, True, True]",,,,"[""True or false: The hidden values will change each time I start a new round."",""How much does it cost to observe each hidden value?"",""How many hidden values am I allowed to observe in each round?"",""How is your bonus determined?"",""What does the feedback teach you?""]","[""True"",""$0.01"",""As many or as few as I wish"",""5% of my score on a random round"",""All of the above.""]",88438,,,449573,,,survey-multi-choice,,40
,,,"[True, True, True, True]",,,,"[""True or false: The hidden values will change each time I start a new round."",""How much does it cost to observe each hidden value?"",""How many hidden values am I allowed to observe in each round?"",""How is your bonus determined?""]","[""True"",""$0.01"",""As many or as few as I wish"",""5% of my score on a random round""]",72371,,,169724,,,survey-multi-choice,,41
,,,"[True, True, True, True, True]",,,,"[""True or false: The hidden values will change each time I start a new round."",""How much does it cost to observe each hidden value?"",""How many hidden values am I allowed to observe in each round?"",""How is your bonus determined?"",""What does the feedback teach you?""]","[""True"",""$0.01"",""As many or as few as I wish"",""5% of my score on a random round"",""All of the above.""]",26104,,,106125,,,survey-multi-choice,,42
,,,"[True, True, True, True, True]",,,,"[""True or false: The hidden values will change each time I start a new round."",""How much does it cost to observe each hidden value?"",""How many hidden values am I allowed to observe in each round?"",""How is your bonus determined?"",""What does the feedback teach you?""]","[""True"",""$1.00"",""As many or as few as I wish"",""5% of my score on a random round"",""All of the above.""]",61786,,,290230,,,survey-multi-choice,,43
,,,"[True, True, True, True]",,,,"[""True or false: The hidden values will change each time I start a new round."",""How much does it cost to observe each hidden value?"",""How many hidden values am I allowed to observe in each round?"",""How is your bonus determined?""]","[""True"",""$1.00"",""As many or as few as I wish"",""5% of my score on a random round""]",42311,,,199563,,,survey-multi-choice,,44
,,,"[True, True, True, True, True]",,,,"[""True or false: The hidden values will change each time I start a new round."",""How much does it cost to observe each hidden value?"",""How many hidden values am I allowed to observe in each round?"",""How is your bonus determined?"",""What does the feedback teach you?""]","[""True"",""$1.00"",""As many or as few as I wish"",""5% of my score on a random round"",""All of the above.""]",29474,,,172864,,,survey-multi-choice,,45
,,,"[True, True, False, True]",,,,"[""True or false: The hidden values will change each time I start a new round."",""How much does it cost to observe each hidden value?"",""How many hidden values am I allowed to observe in each round?"",""How is your bonus determined?""]","[""True"",""$1.00"",""At most 1"",""5% of my score on a random round""]",20141,,,132973,,,survey-multi-choice,,46
,,,"[True, True, True, True]",,,,"[""True or false: The hidden values will change each time I start a new round."",""How much does it cost to observe each hidden value?"",""How many hidden values am I allowed to observe in each round?"",""How is your bonus determined?""]","[""True"",""$1.00"",""As many or as few as I wish"",""5% of my score on a random round""]",13762,,,207016,,,survey-multi-choice,,46
,,,"[True, False, True, True, False]",,,,"[""True or false: The hidden values will change each time I start a new round."",""How much does it cost to observe each hidden value?"",""How many hidden values am I allowed to observe in each round?"",""How is your bonus determined?"",""What does the feedback teach you?""]","[""True"",""$0.01"",""As many or as few as I wish"",""5% of my score on a random round"",""Whether I observed the rewards of relevant locations.""]",123253,,,383170,,,survey-multi-choice,,47
,,,"[True, True, True, False, True]",,,,"[""True or false: The hidden values will change each time I start a new round."",""How much does it cost to observe each hidden value?"",""How many hidden values am I allowed to observe in each round?"",""How is your bonus determined?"",""What does the feedback teach you?""]","[""True"",""$2.50"",""As many or as few as I wish"",""5% of my best score on any round"",""All of the above.""]",61814,,,562831,,,survey-multi-choice,,47
,,,"[True, True, True, True, True]",,,,"[""True or false: The hidden values will change each time I start a new round."",""How much does it cost to observe each hidden value?"",""How many hidden values am I allowed to observe in each round?"",""How is your bonus determined?"",""What does the feedback teach you?""]","[""True"",""$2.50"",""As many or as few as I wish"",""5% of my score on a random round"",""All of the above.""]",15097,,,584271,,,survey-multi-choice,,47
,,,"[True, True, True, True, False]",,,,"[""True or false: The hidden values will change each time I start a new round."",""How much does it cost to observe each hidden value?"",""How many hidden values am I allowed to observe in each round?"",""How is your bonus determined?"",""What does the feedback teach you?""]","[""True"",""$2.50"",""As many or as few as I wish"",""5% of my score on a random round"",""Whether I chose the move that was best.""]",20359,,,124877,,,survey-multi-choice,,48
,,,"[True, True, True, True, True]",,,,"[""True or false: The hidden values will change each time I start a new round."",""How much does it cost to observe each hidden value?"",""How many hidden values am I allowed to observe in each round?"",""How is your bonus determined?"",""What does the feedback teach you?""]","[""True"",""$2.50"",""As many or as few as I wish"",""5% of my score on a random round"",""All of the above.""]",9070,,,169669,,,survey-multi-choice,,48
,,,"[True, True, True, True, False]",,,,"[""True or false: The hidden values will change each time I start a new round."",""How much does it cost to observe each hidden value?"",""How many hidden values am I allowed to observe in each round?"",""How is your bonus determined?"",""What does the feedback teach you?""]","[""True"",""$1.00"",""As many or as few as I wish"",""5% of my score on a random round"",""Whether I chose the move that was best.""]",73817,,,264053,,,survey-multi-choice,,49
,,,"[True, True, True, True, True]",,,,"[""True or false: The hidden values will change each time I start a new round."",""How much does it cost to observe each hidden value?"",""How many hidden values am I allowed to observe in each round?"",""How is your bonus determined?"",""What does the feedback teach you?""]","[""True"",""$1.00"",""As many or as few as I wish"",""5% of my score on a random round"",""All of the above.""]",30952,,,486926,,,survey-multi-choice,,49
,,,"[True, True, True, True, True]",,,,"[""True or false: The hidden values will change each time I start a new round."",""How much does it cost to observe each hidden value?"",""How many hidden values am I allowed to observe in each round?"",""How is your bonus determined?"",""What does the feedback teach you?""]","[""True"",""$0.01"",""As many or as few as I wish"",""5% of my score on a random round"",""All of the above.""]",31529,,,299542,,,survey-multi-choice,,50
,,,"[True, True, True, True, False]",,,,"[""True or false: The hidden values will change each time I start a new round."",""How much does it cost to observe each hidden value?"",""How many hidden values am I allowed to observe in each round?"",""How is your bonus determined?"",""What does the feedback teach you?""]","[""True"",""$1.00"",""As many or as few as I wish"",""5% of my score on a random round"",""Whether I chose the move that was best.""]",41056,,,168585,,,survey-multi-choice,,51
,,,"[True, True, True, True, True]",,,,"[""True or false: The hidden values will change each time I start a new round."",""How much does it cost to observe each hidden value?"",""How many hidden values am I allowed to observe in each round?"",""How is your bonus determined?"",""What does the feedback teach you?""]","[""True"",""$1.00"",""As many or as few as I wish"",""5% of my score on a random round"",""All of the above.""]",16504,,,253191,,,survey-multi-choice,,51
,,,"[True, True, True, True, False]",,,,"[""True or false: The hidden values will change each time I start a new round."",""How much does it cost to observe each hidden value?"",""How many hidden values am I allowed to observe in each round?"",""How is your bonus determined?"",""What does the feedback teach you?""]","[""True"",""$1.00"",""As many or as few as I wish"",""5% of my score on a random round"",""Whether I observed the rewards of relevant locations.""]",46562,,,264297,,,survey-multi-choice,,52
,,,"[True, True, True, True, True]",,,,"[""True or false: The hidden values will change each time I start a new round."",""How much does it cost to observe each hidden value?"",""How many hidden values am I allowed to observe in each round?"",""How is your bonus determined?"",""What does the feedback teach you?""]","[""True"",""$1.00"",""As many or as few as I wish"",""5% of my score on a random round"",""All of the above.""]",21161,,,305275,,,survey-multi-choice,,52
,,,"[True, True, True, False]",,,,"[""True or false: The hidden values will change each time I start a new round."",""How much does it cost to observe each hidden value?"",""How many hidden values am I allowed to observe in each round?"",""How is your bonus determined?""]","[""True"",""$2.50"",""As many or as few as I wish"",""10% of my total score on all rounds""]",16260,,,80585,,,survey-multi-choice,,53
,,,"[True, True, True, True]",,,,"[""True or false: The hidden values will change each time I start a new round."",""How much does it cost to observe each hidden value?"",""How many hidden values am I allowed to observe in each round?"",""How is your bonus determined?""]","[""True"",""$2.50"",""As many or as few as I wish"",""5% of my score on a random round""]",9840,,,110683,,,survey-multi-choice,,53
,,,"[True, True, True, True, True]",,,,"[""True or false: The hidden values will change each time I start a new round."",""How much does it cost to observe each hidden value?"",""How many hidden values am I allowed to observe in each round?"",""How is your bonus determined?"",""What does the feedback teach you?""]","[""True"",""$1.00"",""As many or as few as I wish"",""5% of my score on a random round"",""All of the above.""]",20685,,,209920,,,survey-multi-choice,,54
,,,"[True, True, True, True, False]",,,,"[""True or false: The hidden values will change each time I start a new round."",""How much does it cost to observe each hidden value?"",""How many hidden values am I allowed to observe in each round?"",""How is your bonus determined?"",""What does the feedback teach you?""]","[""True"",""$1.00"",""As many or as few as I wish"",""5% of my score on a random round"",""Whether I chose the move that was best.""]",42856,,,226328,,,survey-multi-choice,,55
,,,"[True, True, True, True, True]",,,,"[""True or false: The hidden values will change each time I start a new round."",""How much does it cost to observe each hidden value?"",""How many hidden values am I allowed to observe in each round?"",""How is your bonus determined?"",""What does the feedback teach you?""]","[""True"",""$1.00"",""As many or as few as I wish"",""5% of my score on a random round"",""All of the above.""]",12208,,,278850,,,survey-multi-choice,,55
,,,"[True, True, True, True, True]",,,,"[""True or false: The hidden values will change each time I start a new round."",""How much does it cost to observe each hidden value?"",""How many hidden values am I allowed to observe in each round?"",""How is your bonus determined?"",""What does the feedback teach you?""]","[""True"",""$1.00"",""As many or as few as I wish"",""5% of my score on a random round"",""All of the above.""]",21763,,,135805,,,survey-multi-choice,,56
,,,"[True, True, True, True]",,,,"[""True or false: The hidden values will change each time I start a new round."",""How much does it cost to observe each hidden value?"",""How many hidden values am I allowed to observe in each round?"",""How is your bonus determined?""]","[""True"",""$0.01"",""As many or as few as I wish"",""5% of my score on a random round""]",81992,,,212018,,,survey-multi-choice,,57
,,,"[True, True, True, False, True]",,,,"[""True or false: The hidden values will change each time I start a new round."",""How much does it cost to observe each hidden value?"",""How many hidden values am I allowed to observe in each round?"",""How is your bonus determined?"",""What does the feedback teach you?""]","[""True"",""$2.50"",""As many or as few as I wish"",""5% of my best score on any round"",""All of the above.""]",30786,,,144208,,,survey-multi-choice,,58
,,,"[True, True, True, True, True]",,,,"[""True or false: The hidden values will change each time I start a new round."",""How much does it cost to observe each hidden value?"",""How many hidden values am I allowed to observe in each round?"",""How is your bonus determined?"",""What does the feedback teach you?""]","[""True"",""$2.50"",""As many or as few as I wish"",""5% of my score on a random round"",""All of the above.""]",18747,,,196841,,,survey-multi-choice,,58
,,,"[True, True, True, True, True]",,,,"[""True or false: The hidden values will change each time I start a new round."",""How much does it cost to observe each hidden value?"",""How many hidden values am I allowed to observe in each round?"",""How is your bonus determined?"",""What does the feedback teach you?""]","[""True"",""$2.50"",""As many or as few as I wish"",""5% of my score on a random round"",""All of the above.""]",25586,,,126464,,,survey-multi-choice,,59
,,,"[True, True, True, True, True]",,,,"[""True or false: The hidden values will change each time I start a new round."",""How much does it cost to observe each hidden value?"",""How many hidden values am I allowed to observe in each round?"",""How is your bonus determined?"",""What does the feedback teach you?""]","[""True"",""$1.00"",""As many or as few as I wish"",""5% of my score on a random round"",""All of the above.""]",17197,,,115495,,,survey-multi-choice,,60
,,,"[True, True, True, True, False]",,,,"[""True or false: The hidden values will change each time I start a new round."",""How much does it cost to observe each hidden value?"",""How many hidden values am I allowed to observe in each round?"",""How is your bonus determined?"",""What does the feedback teach you?""]","[""True"",""$1.00"",""As many or as few as I wish"",""5% of my score on a random round"",""The length of the delay is based on how much more money I could have earned.""]",26771,,,117919,,,survey-multi-choice,,61
,,,"[True, True, True, True, True]",,,,"[""True or false: The hidden values will change each time I start a new round."",""How much does it cost to observe each hidden value?"",""How many hidden values am I allowed to observe in each round?"",""How is your bonus determined?"",""What does the feedback teach you?""]","[""True"",""$1.00"",""As many or as few as I wish"",""5% of my score on a random round"",""All of the above.""]",8277,,,166024,,,survey-multi-choice,,61
,,,"[True, True, True, True, False]",,,,"[""True or false: The hidden values will change each time I start a new round."",""How much does it cost to observe each hidden value?"",""How many hidden values am I allowed to observe in each round?"",""How is your bonus determined?"",""What does the feedback teach you?""]","[""True"",""$1.00"",""As many or as few as I wish"",""5% of my score on a random round"",""Whether I chose the move that was best according to the information I had.""]",109393,,,337429,,,survey-multi-choice,,62
,,,"[True, True, True, True, True]",,,,"[""True or false: The hidden values will change each time I start a new round."",""How much does it cost to observe each hidden value?"",""How many hidden values am I allowed to observe in each round?"",""How is your bonus determined?"",""What does the feedback teach you?""]","[""True"",""$1.00"",""As many or as few as I wish"",""5% of my score on a random round"",""All of the above.""]",234366,,,932027,,,survey-multi-choice,,62
,,,"[False, True, True, True, False]",,,,"[""True or false: The hidden values will change each time I start a new round."",""How much does it cost to observe each hidden value?"",""How many hidden values am I allowed to observe in each round?"",""How is your bonus determined?"",""What does the feedback teach you?""]","[""False"",""$1.00"",""As many or as few as I wish"",""5% of my score on a random round"",""Whether I chose the move that was best.""]",49444,,,225866,,,survey-multi-choice,,63
,,,"[True, True, True, True, False]",,,,"[""True or false: The hidden values will change each time I start a new round."",""How much does it cost to observe each hidden value?"",""How many hidden values am I allowed to observe in each round?"",""How is your bonus determined?"",""What does the feedback teach you?""]","[""True"",""$1.00"",""As many or as few as I wish"",""5% of my score on a random round"",""Whether I chose the move that was best.""]",32467,,,418117,,,survey-multi-choice,,63
,,,"[True, True, True, True, True]",,,,"[""True or false: The hidden values will change each time I start a new round."",""How much does it cost to observe each hidden value?"",""How many hidden values am I allowed to observe in each round?"",""How is your bonus determined?"",""What does the feedback teach you?""]","[""True"",""$1.00"",""As many or as few as I wish"",""5% of my score on a random round"",""All of the above.""]",50631,,,524076,,,survey-multi-choice,,63
,,,"[True, True, True, True, True]",,,,"[""True or false: The hidden values will change each time I start a new round."",""How much does it cost to observe each hidden value?"",""How many hidden values am I allowed to observe in each round?"",""How is your bonus determined?"",""What does the feedback teach you?""]","[""True"",""$1.00"",""As many or as few as I wish"",""5% of my score on a random round"",""All of the above.""]",231713,,,466633,,,survey-multi-choice,,64
,,,"[True, False, False, False]",,,,"[""True or false: The hidden values will change each time I start a new round."",""How much does it cost to observe each hidden value?"",""How many hidden values am I allowed to observe in each round?"",""How is your bonus determined?""]","[""True"",""$0.05"",""At most 1"",""5% of my best score on any round""]",29609,,,129251,,,survey-multi-choice,,65
,,,"[True, True, False, True]",,,,"[""True or false: The hidden values will change each time I start a new round."",""How much does it cost to observe each hidden value?"",""How many hidden values am I allowed to observe in each round?"",""How is your bonus determined?""]","[""True"",""$2.50"",""At most 1"",""5% of my score on a random round""]",79494,,,283338,,,survey-multi-choice,,65
,,,"[True, True, True, True]",,,,"[""True or false: The hidden values will change each time I start a new round."",""How much does it cost to observe each hidden value?"",""How many hidden values am I allowed to observe in each round?"",""How is your bonus determined?""]","[""True"",""$2.50"",""As many or as few as I wish"",""5% of my score on a random round""]",126360,,,446388,,,survey-multi-choice,,65
,,,"[True, True, True, True, True]",,,,"[""True or false: The hidden values will change each time I start a new round."",""How much does it cost to observe each hidden value?"",""How many hidden values am I allowed to observe in each round?"",""How is your bonus determined?"",""What does the feedback teach you?""]","[""True"",""$1.00"",""As many or as few as I wish"",""5% of my score on a random round"",""All of the above.""]",98389,,,337285,,,survey-multi-choice,,66
,,,"[True, True, True, True, False]",,,,"[""True or false: The hidden values will change each time I start a new round."",""How much does it cost to observe each hidden value?"",""How many hidden values am I allowed to observe in each round?"",""How is your bonus determined?"",""What does the feedback teach you?""]","[""True"",""$0.01"",""As many or as few as I wish"",""5% of my score on a random round"",""Whether I chose the move that was best.""]",219995,,,425866,,,survey-multi-choice,,67
,,,"[False, True, True, True, True]",,,,"[""True or false: The hidden values will change each time I start a new round."",""How much does it cost to observe each hidden value?"",""How many hidden values am I allowed to observe in each round?"",""How is your bonus determined?"",""What does the feedback teach you?""]","[""False"",""$0.01"",""As many or as few as I wish"",""5% of my score on a random round"",""All of the above.""]",100125,,,574897,,,survey-multi-choice,,67
,,,"[True, True, True, True, False]",,,,"[""True or false: The hidden values will change each time I start a new round."",""How much does it cost to observe each hidden value?"",""How many hidden values am I allowed to observe in each round?"",""How is your bonus determined?"",""What does the feedback teach you?""]","[""True"",""$0.01"",""As many or as few as I wish"",""5% of my score on a random round"",""The length of the delay is based on how much more money I could have earned.""]",11582,,,604417,,,survey-multi-choice,,67
,,,"[True, True, False, True, False]",,,,"[""True or false: The hidden values will change each time I start a new round."",""How much does it cost to observe each hidden value?"",""How many hidden values am I allowed to observe in each round?"",""How is your bonus determined?"",""What does the feedback teach you?""]","[""True"",""$0.01"",""At most 1"",""5% of my score on a random round"",""The length of the delay is based on how much more money I could have earned.""]",204996,,,922279,,,survey-multi-choice,,67
,,,"[True, True, False, True, True]",,,,"[""True or false: The hidden values will change each time I start a new round."",""How much does it cost to observe each hidden value?"",""How many hidden values am I allowed to observe in each round?"",""How is your bonus determined?"",""What does the feedback teach you?""]","[""True"",""$0.01"",""At most 1"",""5% of my score on a random round"",""All of the above.""]",13088,,,944808,,,survey-multi-choice,,67
,,,"[True, True, True, True, False]",,,,"[""True or false: The hidden values will change each time I start a new round."",""How much does it cost to observe each hidden value?"",""How many hidden values am I allowed to observe in each round?"",""How is your bonus determined?"",""What does the feedback teach you?""]","[""True"",""$0.01"",""As many or as few as I wish"",""5% of my score on a random round"",""The length of the delay is based on how much more money I could have earned.""]",265184,,,1218236,,,survey-multi-choice,,67
,,,"[True, True, True, True, False]",,,,"[""True or false: The hidden values will change each time I start a new round."",""How much does it cost to observe each hidden value?"",""How many hidden values am I allowed to observe in each round?"",""How is your bonus determined?"",""What does the feedback teach you?""]","[""True"",""$0.01"",""As many or as few as I wish"",""5% of my score on a random round"",""The length of the delay is based on how much more money I could have earned.""]",15146,,,1267477,,,survey-multi-choice,,67
,,,"[True, True, True, True, False]",,,,"[""True or false: The hidden values will change each time I start a new round."",""How much does it cost to observe each hidden value?"",""How many hidden values am I allowed to observe in each round?"",""How is your bonus determined?"",""What does the feedback teach you?""]","[""True"",""$0.01"",""As many or as few as I wish"",""5% of my score on a random round"",""Whether I chose the move that was best.""]",37179,,,1337388,,,survey-multi-choice,,67
,,,"[True, True, True, True, True]",,,,"[""True or false: The hidden values will change each time I start a new round."",""How much does it cost to observe each hidden value?"",""How many hidden values am I allowed to observe in each round?"",""How is your bonus determined?"",""What does the feedback teach you?""]","[""True"",""$0.01"",""As many or as few as I wish"",""5% of my score on a random round"",""All of the above.""]",15200,,,1359556,,,survey-multi-choice,,67
,,,"[True, True, True, True]",,,,"[""True or false: The hidden values will change each time I start a new round."",""How much does it cost to observe each hidden value?"",""How many hidden values am I allowed to observe in each round?"",""How is your bonus determined?""]","[""True"",""$0.01"",""As many or as few as I wish"",""5% of my score on a random round""]",14984,,,107321,,,survey-multi-choice,,68
,,,"[True, True, True, True, True]",,,,"[""True or false: The hidden values will change each time I start a new round."",""How much does it cost to observe each hidden value?"",""How many hidden values am I allowed to observe in each round?"",""How is your bonus determined?"",""What does the feedback teach you?""]","[""True"",""$0.01"",""As many or as few as I wish"",""5% of my score on a random round"",""All of the above.""]",64286,,,456261,,,survey-multi-choice,,69
,,,"[True, True, True, True, True]",,,,"[""True or false: The hidden values will change each time I start a new round."",""How much does it cost to observe each hidden value?"",""How many hidden values am I allowed to observe in each round?"",""How is your bonus determined?"",""What does the feedback teach you?""]","[""True"",""$1.00"",""As many or as few as I wish"",""5% of my score on a random round"",""All of the above.""]",37789,,,114409,,,survey-multi-choice,,70
,,,"[True, True, True, True, True]",,,,"[""True or false: The hidden values will change each time I start a new round."",""How much does it cost to observe each hidden value?"",""How many hidden values am I allowed to observe in each round?"",""How is your bonus determined?"",""What does the feedback teach you?""]","[""True"",""$1.00"",""As many or as few as I wish"",""5% of my score on a random round"",""All of the above.""]",38525,,,178475,,,survey-multi-choice,,71
,,,"[True, True, True, True, False]",,,,"[""True or false: The hidden values will change each time I start a new round."",""How much does it cost to observe each hidden value?"",""How many hidden values am I allowed to observe in each round?"",""How is your bonus determined?"",""What does the feedback teach you?""]","[""True"",""$0.01"",""As many or as few as I wish"",""5% of my score on a random round"",""Whether I chose the move that was best.""]",16316,,,89024,,,survey-multi-choice,,72
,,,"[True, True, True, True, True]",,,,"[""True or false: The hidden values will change each time I start a new round."",""How much does it cost to observe each hidden value?"",""How many hidden values am I allowed to observe in each round?"",""How is your bonus determined?"",""What does the feedback teach you?""]","[""True"",""$0.01"",""As many or as few as I wish"",""5% of my score on a random round"",""All of the above.""]",11088,,,106554,,,survey-multi-choice,,72
,,,"[True, True, True, True, True]",,,,"[""True or false: The hidden values will change each time I start a new round."",""How much does it cost to observe each hidden value?"",""How many hidden values am I allowed to observe in each round?"",""How is your bonus determined?"",""What does the feedback teach you?""]","[""True"",""$2.50"",""As many or as few as I wish"",""5% of my score on a random round"",""All of the above.""]",21909,,,220930,,,survey-multi-choice,,73
,,,"[True, True, True, True, True]",,,,"[""True or false: The hidden values will change each time I start a new round."",""How much does it cost to observe each hidden value?"",""How many hidden values am I allowed to observe in each round?"",""How is your bonus determined?"",""What does the feedback teach you?""]","[""True"",""$0.01"",""As many or as few as I wish"",""5% of my score on a random round"",""All of the above.""]",27661,,,130286,,,survey-multi-choice,,74
,,,"[True, True, True, True, True]",,,,"[""True or false: The hidden values will change each time I start a new round."",""How much does it cost to observe each hidden value?"",""How many hidden values am I allowed to observe in each round?"",""How is your bonus determined?"",""What does the feedback teach you?""]","[""True"",""$2.50"",""As many or as few as I wish"",""5% of my score on a random round"",""All of the above.""]",22147,,,213595,,,survey-multi-choice,,75
,,,"[True, True, True, True]",,,,"[""True or false: The hidden values will change each time I start a new round."",""How much does it cost to observe each hidden value?"",""How many hidden values am I allowed to observe in each round?"",""How is your bonus determined?""]","[""True"",""$2.50"",""As many or as few as I wish"",""5% of my score on a random round""]",13713,,,109822,,,survey-multi-choice,,76
,,,"[True, True, True, False, False]",,,,"[""True or false: The hidden values will change each time I start a new round."",""How much does it cost to observe each hidden value?"",""How many hidden values am I allowed to observe in each round?"",""How is your bonus determined?"",""What does the feedback teach you?""]","[""True"",""$1.00"",""As many or as few as I wish"",""5% of my best score on any round"",""Whether I chose the move that was best according to the information I had.""]",46348,,,178157,,,survey-multi-choice,,77
,,,"[True, True, True, False, True]",,,,"[""True or false: The hidden values will change each time I start a new round."",""How much does it cost to observe each hidden value?"",""How many hidden values am I allowed to observe in each round?"",""How is your bonus determined?"",""What does the feedback teach you?""]","[""True"",""$1.00"",""As many or as few as I wish"",""5% of my best score on any round"",""All of the above.""]",18089,,,288297,,,survey-multi-choice,,77
,,,"[True, True, True, True, True]",,,,"[""True or false: The hidden values will change each time I start a new round."",""How much does it cost to observe each hidden value?"",""How many hidden values am I allowed to observe in each round?"",""How is your bonus determined?"",""What does the feedback teach you?""]","[""True"",""$1.00"",""As many or as few as I wish"",""5% of my score on a random round"",""All of the above.""]",23930,,,345548,,,survey-multi-choice,,77
,,,"[True, True, True, True]",,,,"[""True or false: The hidden values will change each time I start a new round."",""How much does it cost to observe each hidden value?"",""How many hidden values am I allowed to observe in each round?"",""How is your bonus determined?""]","[""True"",""$0.01"",""As many or as few as I wish"",""5% of my score on a random round""]",14722,,,119924,,,survey-multi-choice,,78
,,,"[True, True, True, False, True]",,,,"[""True or false: The hidden values will change each time I start a new round."",""How much does it cost to observe each hidden value?"",""How many hidden values am I allowed to observe in each round?"",""How is your bonus determined?"",""What does the feedback teach you?""]","[""True"",""$0.01"",""As many or as few as I wish"",""10% of my total score on all rounds"",""All of the above.""]",21793,,,53294,,,survey-multi-choice,,79
,,,"[True, True, True, False, False]",,,,"[""True or false: The hidden values will change each time I start a new round."",""How much does it cost to observe each hidden value?"",""How many hidden values am I allowed to observe in each round?"",""How is your bonus determined?"",""What does the feedback teach you?""]","[""True"",""$0.01"",""As many or as few as I wish"",""10% of my best score on any round"",""Whether I chose the move that was best.""]",16873,,,136428,,,survey-multi-choice,,79
,,,"[True, True, True, True, False]",,,,"[""True or false: The hidden values will change each time I start a new round."",""How much does it cost to observe each hidden value?"",""How many hidden values am I allowed to observe in each round?"",""How is your bonus determined?"",""What does the feedback teach you?""]","[""True"",""$0.01"",""As many or as few as I wish"",""5% of my score on a random round"",""Whether I chose the move that was best.""]",11104,,,156373,,,survey-multi-choice,,79
,,,"[True, True, True, True, True]",,,,"[""True or false: The hidden values will change each time I start a new round."",""How much does it cost to observe each hidden value?"",""How many hidden values am I allowed to observe in each round?"",""How is your bonus determined?"",""What does the feedback teach you?""]","[""True"",""$0.01"",""As many or as few as I wish"",""5% of my score on a random round"",""All of the above.""]",25424,,,207287,,,survey-multi-choice,,79
,,,"[True, True, True, False, True]",,,,"[""True or false: The hidden values will change each time I start a new round."",""How much does it cost to observe each hidden value?"",""How many hidden values am I allowed to observe in each round?"",""How is your bonus determined?"",""What does the feedback teach you?""]","[""True"",""$1.00"",""As many or as few as I wish"",""5% of my best score on any round"",""All of the above.""]",30583,,,231641,,,survey-multi-choice,,80
,,,"[True, True, True, True, True]",,,,"[""True or false: The hidden values will change each time I start a new round."",""How much does it cost to observe each hidden value?"",""How many hidden values am I allowed to observe in each round?"",""How is your bonus determined?"",""What does the feedback teach you?""]","[""True"",""$1.00"",""As many or as few as I wish"",""5% of my score on a random round"",""All of the above.""]",14455,,,287082,,,survey-multi-choice,,80
,,,"[True, True, True, True, True]",,,,"[""True or false: The hidden values will change each time I start a new round."",""How much does it cost to observe each hidden value?"",""How many hidden values am I allowed to observe in each round?"",""How is your bonus determined?"",""What does the feedback teach you?""]","[""True"",""$0.01"",""As many or as few as I wish"",""5% of my score on a random round"",""All of the above.""]",27383,,,84759,,,survey-multi-choice,,81
,,,"[True, True, True, True, True]",,,,"[""True or false: The hidden values will change each time I start a new round."",""How much does it cost to observe each hidden value?"",""How many hidden values am I allowed to observe in each round?"",""How is your bonus determined?"",""What does the feedback teach you?""]","[""True"",""$2.50"",""As many or as few as I wish"",""5% of my score on a random round"",""All of the above.""]",20606,,,167397,,,survey-multi-choice,,82
,,,"[True, True, True, True, False]",,,,"[""True or false: The hidden values will change each time I start a new round."",""How much does it cost to observe each hidden value?"",""How many hidden values am I allowed to observe in each round?"",""How is your bonus determined?"",""What does the feedback teach you?""]","[""True"",""$2.50"",""As many or as few as I wish"",""5% of my score on a random round"",""Whether I chose the move that was best according to the information I had.""]",39800,,,362477,,,survey-multi-choice,,83
,,,"[True, True, True, True, True]",,,,"[""True or false: The hidden values will change each time I start a new round."",""How much does it cost to observe each hidden value?"",""How many hidden values am I allowed to observe in each round?"",""How is your bonus determined?"",""What does the feedback teach you?""]","[""True"",""$2.50"",""As many or as few as I wish"",""5% of my score on a random round"",""All of the above.""]",23973,,,427598,,,survey-multi-choice,,83
,,,"[True, True, True, True]",,,,"[""True or false: The hidden values will change each time I start a new round."",""How much does it cost to observe each hidden value?"",""How many hidden values am I allowed to observe in each round?"",""How is your bonus determined?""]","[""True"",""$0.01"",""As many or as few as I wish"",""5% of my score on a random round""]",14418,,,97536,,,survey-multi-choice,,84
,,,"[True, True, True, True]",,,,"[""True or false: The hidden values will change each time I start a new round."",""How much does it cost to observe each hidden value?"",""How many hidden values am I allowed to observe in each round?"",""How is your bonus determined?""]","[""True"",""$1.00"",""As many or as few as I wish"",""5% of my score on a random round""]",16537,,,104408,,,survey-multi-choice,,85
,,,"[True, True, True, True, True]",,,,"[""True or false: The hidden values will change each time I start a new round."",""How much does it cost to observe each hidden value?"",""How many hidden values am I allowed to observe in each round?"",""How is your bonus determined?"",""What does the feedback teach you?""]","[""True"",""$1.00"",""As many or as few as I wish"",""5% of my score on a random round"",""All of the above.""]",35470,,,238704,,,survey-multi-choice,,86
,,,"[True, True, True, True, True]",,,,"[""True or false: The hidden values will change each time I start a new round."",""How much does it cost to observe each hidden value?"",""How many hidden values am I allowed to observe in each round?"",""How is your bonus determined?"",""What does the feedback teach you?""]","[""True"",""$2.50"",""As many or as few as I wish"",""5% of my score on a random round"",""All of the above.""]",30844,,,176990,,,survey-multi-choice,,87
,,,"[True, True, True, False, True]",,,,"[""True or false: The hidden values will change each time I start a new round."",""How much does it cost to observe each hidden value?"",""How many hidden values am I allowed to observe in each round?"",""How is your bonus determined?"",""What does the feedback teach you?""]","[""True"",""$2.50"",""As many or as few as I wish"",""5% of my best score on any round"",""All of the above.""]",14792,,,73273,,,survey-multi-choice,,88
,,,"[False, True, True, True, True]",,,,"[""True or false: The hidden values will change each time I start a new round."",""How much does it cost to observe each hidden value?"",""How many hidden values am I allowed to observe in each round?"",""How is your bonus determined?"",""What does the feedback teach you?""]","[""False"",""$2.50"",""As many or as few as I wish"",""5% of my score on a random round"",""All of the above.""]",13227,,,121259,,,survey-multi-choice,,88
,,,"[True, True, True, True, False]",,,,"[""True or false: The hidden values will change each time I start a new round."",""How much does it cost to observe each hidden value?"",""How many hidden values am I allowed to observe in each round?"",""How is your bonus determined?"",""What does the feedback teach you?""]","[""True"",""$2.50"",""As many or as few as I wish"",""5% of my score on a random round"",""Whether I chose the move that was best according to the information I had.""]",8305,,,137810,,,survey-multi-choice,,88
,,,"[True, True, True, True, False]",,,,"[""True or false: The hidden values will change each time I start a new round."",""How much does it cost to observe each hidden value?"",""How many hidden values am I allowed to observe in each round?"",""How is your bonus determined?"",""What does the feedback teach you?""]","[""True"",""$2.50"",""As many or as few as I wish"",""5% of my score on a random round"",""The length of the delay is based on how much more money I could have earned by planning and deciding better.""]",13134,,,196298,,,survey-multi-choice,,88
,,,"[True, True, True, True, False]",,,,"[""True or false: The hidden values will change each time I start a new round."",""How much does it cost to observe each hidden value?"",""How many hidden values am I allowed to observe in each round?"",""How is your bonus determined?"",""What does the feedback teach you?""]","[""True"",""$2.50"",""As many or as few as I wish"",""5% of my score on a random round"",""Whether I chose the move that was best according to the information I had.""]",20718,,,257498,,,survey-multi-choice,,88
,,,"[True, True, True, True, False]",,,,"[""True or false: The hidden values will change each time I start a new round."",""How much does it cost to observe each hidden value?"",""How many hidden values am I allowed to observe in each round?"",""How is your bonus determined?"",""What does the feedback teach you?""]","[""True"",""$2.50"",""As many or as few as I wish"",""5% of my score on a random round"",""The length of the delay is based on how much more money I could have earned by planning and deciding better.""]",18786,,,286455,,,survey-multi-choice,,88
,,,"[True, True, True, True, True]",,,,"[""True or false: The hidden values will change each time I start a new round."",""How much does it cost to observe each hidden value?"",""How many hidden values am I allowed to observe in each round?"",""How is your bonus determined?"",""What does the feedback teach you?""]","[""True"",""$2.50"",""As many or as few as I wish"",""5% of my score on a random round"",""All of the above.""]",11628,,,373584,,,survey-multi-choice,,88
,,,"[True, True, True, True]",,,,"[""True or false: The hidden values will change each time I start a new round."",""How much does it cost to observe each hidden value?"",""How many hidden values am I allowed to observe in each round?"",""How is your bonus determined?""]","[""True"",""$1.00"",""As many or as few as I wish"",""5% of my score on a random round""]",22467,,,182357,,,survey-multi-choice,,89
,,,"[True, True, True, True, True]",,,,"[""True or false: The hidden values will change each time I start a new round."",""How much does it cost to observe each hidden value?"",""How many hidden values am I allowed to observe in each round?"",""How is your bonus determined?"",""What does the feedback teach you?""]","[""True"",""$1.00"",""As many or as few as I wish"",""5% of my score on a random round"",""All of the above.""]",18630,,,133248,,,survey-multi-choice,,90
,,,"[True, True, True, True]",,,,"[""True or false: The hidden values will change each time I start a new round."",""How much does it cost to observe each hidden value?"",""How many hidden values am I allowed to observe in each round?"",""How is your bonus determined?""]","[""True"",""$0.01"",""As many or as few as I wish"",""5% of my score on a random round""]",21121,,,195590,,,survey-multi-choice,,91
,,,"[True, True, True, True, True]",,,,"[""True or false: The hidden values will change each time I start a new round."",""How much does it cost to observe each hidden value?"",""How many hidden values am I allowed to observe in each round?"",""How is your bonus determined?"",""What does the feedback teach you?""]","[""True"",""$1.00"",""As many or as few as I wish"",""5% of my score on a random round"",""All of the above.""]",24251,,,1387688,,,survey-multi-choice,,92
,,,"[True, True, True, True, False]",,,,"[""True or false: The hidden values will change each time I start a new round."",""How much does it cost to observe each hidden value?"",""How many hidden values am I allowed to observe in each round?"",""How is your bonus determined?"",""What does the feedback teach you?""]","[""True"",""$0.01"",""As many or as few as I wish"",""5% of my score on a random round"",""Whether I chose the move that was best according to the information I had.""]",16700,,,129185,,,survey-multi-choice,,93
,,,"[True, True, True, True, True]",,,,"[""True or false: The hidden values will change each time I start a new round."",""How much does it cost to observe each hidden value?"",""How many hidden values am I allowed to observe in each round?"",""How is your bonus determined?"",""What does the feedback teach you?""]","[""True"",""$0.01"",""As many or as few as I wish"",""5% of my score on a random round"",""All of the above.""]",17173,,,163699,,,survey-multi-choice,,93
,,,"[True, True, True, False]",,,,"[""True or false: The hidden values will change each time I start a new round."",""How much does it cost to observe each hidden value?"",""How many hidden values am I allowed to observe in each round?"",""How is your bonus determined?""]","[""True"",""$0.01"",""As many or as few as I wish"",""5% of my best score on any round""]",41431,,,204051,,,survey-multi-choice,,94
,,,"[True, True, True, True]",,,,"[""True or false: The hidden values will change each time I start a new round."",""How much does it cost to observe each hidden value?"",""How many hidden values am I allowed to observe in each round?"",""How is your bonus determined?""]","[""True"",""$0.01"",""As many or as few as I wish"",""5% of my score on a random round""]",172179,,,463772,,,survey-multi-choice,,94
,,,"[True, True, True, False, True]",,,,"[""True or false: The hidden values will change each time I start a new round."",""How much does it cost to observe each hidden value?"",""How many hidden values am I allowed to observe in each round?"",""How is your bonus determined?"",""What does the feedback teach you?""]","[""True"",""$0.01"",""As many or as few as I wish"",""10% of my total score on all rounds"",""All of the above.""]",23238,,,76572,,,survey-multi-choice,,95
,,,"[True, True, True, False, True]",,,,"[""True or false: The hidden values will change each time I start a new round."",""How much does it cost to observe each hidden value?"",""How many hidden values am I allowed to observe in each round?"",""How is your bonus determined?"",""What does the feedback teach you?""]","[""True"",""$0.01"",""As many or as few as I wish"",""5% of my best score on any round"",""All of the above.""]",10055,,,117496,,,survey-multi-choice,,95
,,,"[True, True, False, False, True]",,,,"[""True or false: The hidden values will change each time I start a new round."",""How much does it cost to observe each hidden value?"",""How many hidden values am I allowed to observe in each round?"",""How is your bonus determined?"",""What does the feedback teach you?""]","[""True"",""$0.01"",""At most 15"",""5% of my best score on any round"",""All of the above.""]",25679,,,226327,,,survey-multi-choice,,95
,,,"[True, True, True, True, True]",,,,"[""True or false: The hidden values will change each time I start a new round."",""How much does it cost to observe each hidden value?"",""How many hidden values am I allowed to observe in each round?"",""How is your bonus determined?"",""What does the feedback teach you?""]","[""True"",""$0.01"",""As many or as few as I wish"",""5% of my score on a random round"",""All of the above.""]",7269,,,247657,,,survey-multi-choice,,95
,,,"[True, False, True, True, True]",,,,"[""True or false: The hidden values will change each time I start a new round."",""How much does it cost to observe each hidden value?"",""How many hidden values am I allowed to observe in each round?"",""How is your bonus determined?"",""What does the feedback teach you?""]","[""True"",""$0.05"",""As many or as few as I wish"",""5% of my score on a random round"",""All of the above.""]",27541,,,80974,,,survey-multi-choice,,96
,,,"[True, True, True, True, True]",,,,"[""True or false: The hidden values will change each time I start a new round."",""How much does it cost to observe each hidden value?"",""How many hidden values am I allowed to observe in each round?"",""How is your bonus determined?"",""What does the feedback teach you?""]","[""True"",""$1.00"",""As many or as few as I wish"",""5% of my score on a random round"",""All of the above.""]",16551,,,154249,,,survey-multi-choice,,96
,,,"[True, True, False, False]",,,,"[""True or false: The hidden values will change each time I start a new round."",""How much does it cost to observe each hidden value?"",""How many hidden values am I allowed to observe in each round?"",""How is your bonus determined?""]","[""True"",""$1.00"",""At most 15"",""10% of my total score on all rounds""]",23043,,,214332,,,survey-multi-choice,,97
,,,"[True, True, False, False]",,,,"[""True or false: The hidden values will change each time I start a new round."",""How much does it cost to observe each hidden value?"",""How many hidden values am I allowed to observe in each round?"",""How is your bonus determined?""]","[""True"",""$1.00"",""At most 15"",""10% of my total score on all rounds""]",16411,,,280346,,,survey-multi-choice,,97
,,,"[True, True, True, False]",,,,"[""True or false: The hidden values will change each time I start a new round."",""How much does it cost to observe each hidden value?"",""How many hidden values am I allowed to observe in each round?"",""How is your bonus determined?""]","[""True"",""$1.00"",""As many or as few as I wish"",""10% of my total score on all rounds""]",14265,,,347561,,,survey-multi-choice,,97
,,,"[True, True, False, False]",,,,"[""True or false: The hidden values will change each time I start a new round."",""How much does it cost to observe each hidden value?"",""How many hidden values am I allowed to observe in each round?"",""How is your bonus determined?""]","[""True"",""$1.00"",""At most 5"",""10% of my total score on all rounds""]",7724,,,364600,,,survey-multi-choice,,97
,,,"[True, True, False, False]",,,,"[""True or false: The hidden values will change each time I start a new round."",""How much does it cost to observe each hidden value?"",""How many hidden values am I allowed to observe in each round?"",""How is your bonus determined?""]","[""True"",""$1.00"",""At most 1"",""10% of my total score on all rounds""]",6630,,,378571,,,survey-multi-choice,,97
,,,"[True, True, False, False]",,,,"[""True or false: The hidden values will change each time I start a new round."",""How much does it cost to observe each hidden value?"",""How many hidden values am I allowed to observe in each round?"",""How is your bonus determined?""]","[""True"",""$1.00"",""At most 10"",""5% of my best score on any round""]",21580,,,426447,,,survey-multi-choice,,97
,,,"[True, True, True, True]",,,,"[""True or false: The hidden values will change each time I start a new round."",""How much does it cost to observe each hidden value?"",""How many hidden values am I allowed to observe in each round?"",""How is your bonus determined?""]","[""True"",""$1.00"",""As many or as few as I wish"",""5% of my score on a random round""]",9809,,,526920,,,survey-multi-choice,,97
,,,"[True, True, True, True, True]",,,,"[""True or false: The hidden values will change each time I start a new round."",""How much does it cost to observe each hidden value?"",""How many hidden values am I allowed to observe in each round?"",""How is your bonus determined?"",""What does the feedback teach you?""]","[""True"",""$2.50"",""As many or as few as I wish"",""5% of my score on a random round"",""All of the above.""]",25540,,,161365,,,survey-multi-choice,,98
,,,"[True, True, True, True]",,,,"[""True or false: The hidden values will change each time I start a new round."",""How much does it cost to observe each hidden value?"",""How many hidden values am I allowed to observe in each round?"",""How is your bonus determined?""]","[""True"",""$0.01"",""As many or as few as I wish"",""5% of my score on a random round""]",14741,,,99704,,,survey-multi-choice,,99
,,,"[True, True, True, True]",,,,"[""True or false: The hidden values will change each time I start a new round."",""How much does it cost to observe each hidden value?"",""How many hidden values am I allowed to observe in each round?"",""How is your bonus determined?""]","[""True"",""$2.50"",""As many or as few as I wish"",""5% of my score on a random round""]",21222,,,140227,,,survey-multi-choice,,100
,,,"[True, True, True, True]",,,,"[""True or false: The hidden values will change each time I start a new round."",""How much does it cost to observe each hidden value?"",""How many hidden values am I allowed to observe in each round?"",""How is your bonus determined?""]","[""True"",""$1.00"",""As many or as few as I wish"",""5% of my score on a random round""]",17831,,,131839,,,survey-multi-choice,,101
,,,"[True, True, True, True, True]",,,,"[""True or false: The hidden values will change each time I start a new round."",""How much does it cost to observe each hidden value?"",""How many hidden values am I allowed to observe in each round?"",""How is your bonus determined?"",""What does the feedback teach you?""]","[""True"",""$0.01"",""As many or as few as I wish"",""5% of my score on a random round"",""All of the above.""]",20954,,,117180,,,survey-multi-choice,,102
,,,"[True, True, True, True, True]",,,,"[""True or false: The hidden values will change each time I start a new round."",""How much does it cost to observe each hidden value?"",""How many hidden values am I allowed to observe in each round?"",""How is your bonus determined?"",""What does the feedback teach you?""]","[""True"",""$2.50"",""As many or as few as I wish"",""5% of my score on a random round"",""All of the above.""]",42021,,,190672,,,survey-multi-choice,,103
,,,"[True, True, True, True]",,,,"[""True or false: The hidden values will change each time I start a new round."",""How much does it cost to observe each hidden value?"",""How many hidden values am I allowed to observe in each round?"",""How is your bonus determined?""]","[""True"",""$0.01"",""As many or as few as I wish"",""5% of my score on a random round""]",15815,,,121694,,,survey-multi-choice,,104
,,,"[True, True, True, True, True]",,,,"[""True or false: The hidden values will change each time I start a new round."",""How much does it cost to observe each hidden value?"",""How many hidden values am I allowed to observe in each round?"",""How is your bonus determined?"",""What does the feedback teach you?""]","[""True"",""$2.50"",""As many or as few as I wish"",""5% of my score on a random round"",""All of the above.""]",68212,,,328680,,,survey-multi-choice,,105
,,,"[True, True, True, True, True]",,,,"[""True or false: The hidden values will change each time I start a new round."",""How much does it cost to observe each hidden value?"",""How many hidden values am I allowed to observe in each round?"",""How is your bonus determined?"",""What does the feedback teach you?""]","[""True"",""$1.00"",""As many or as few as I wish"",""5% of my score on a random round"",""All of the above.""]",19575,,,136720,,,survey-multi-choice,,106
,,,"[True, True, True, True, False]",,,,"[""True or false: The hidden values will change each time I start a new round."",""How much does it cost to observe each hidden value?"",""How many hidden values am I allowed to observe in each round?"",""How is your bonus determined?"",""What does the feedback teach you?""]","[""True"",""$1.00"",""As many or as few as I wish"",""5% of my score on a random round"",""The length of the delay is based on how much more money I could have earned by planning and deciding better.""]",34870,,,159529,,,survey-multi-choice,,107
,,,"[True, True, True, True, True]",,,,"[""True or false: The hidden values will change each time I start a new round."",""How much does it cost to observe each hidden value?"",""How many hidden values am I allowed to observe in each round?"",""How is your bonus determined?"",""What does the feedback teach you?""]","[""True"",""$1.00"",""As many or as few as I wish"",""5% of my score on a random round"",""All of the above.""]",23563,,,213768,,,survey-multi-choice,,107
