A1CI20SHHTUP0R:3KRVW3HTZNL7Y5KU9DO9HKFGLX4SM4,0,1520187519396,"{""rt"": 27146, ""trial_type"": ""text"", ""internal_node_id"": ""0.0-0.0"", ""time_elapsed"": 27164, ""key_press"": 32, ""trial_index"": 0}"
A1CI20SHHTUP0R:3KRVW3HTZNL7Y5KU9DO9HKFGLX4SM4,1,1520187568242,"{""rt"": 47837, ""trial_type"": ""text"", ""internal_node_id"": ""0.0-1.0"", ""time_elapsed"": 76011, ""key_press"": 32, ""trial_index"": 1}"
A1CI20SHHTUP0R:3KRVW3HTZNL7Y5KU9DO9HKFGLX4SM4,2,1520187579889,"{""rt"": 10638, ""trial_type"": ""text"", ""internal_node_id"": ""0.0-2.0"", ""time_elapsed"": 87657, ""key_press"": 32, ""trial_index"": 2}"
A1CI20SHHTUP0R:3KRVW3HTZNL7Y5KU9DO9HKFGLX4SM4,3,1520187597456,"{""rt"": [1183, 5527, 1548, 1225, 1409], ""trial_type"": ""mouselab-mdp"", ""trialTime"": 15985, ""rewards"": [0, -1, 1, 5, 22], ""stateRewards"": ["""", 1, 2, 2, 9, -14, -2, 43, 16, -53, 30, -40, 0, -1, 1, -2, 13, 21, -11, 5, -9, 22, 38, 0, 0, -7, -6, -20, -5, -45, -10, -2, 7, 32], ""actionTimes"": [1203, 7240, 9297, 11025, 12945], ""trial_id"": -6287586161776376000, ""time_elapsed"": 105225, ""actions"": [""right"", ""right"", ""right"", ""down"", ""down""], ""trialIndex"": 0, ""score"": 27, ""trial_index"": 3, ""simulationMode"": [null, null, null, null, null], ""queries"": {""mouseover"": {""state"": {""target"": [], ""time"": []}, ""edge"": {""target"": [], ""time"": []}}, ""click"": {""state"": {""target"": [], ""time"": []}, ""edge"": {""target"": [], ""time"": []}}, ""mouseout"": {""state"": {""target"": [], ""time"": []}, ""edge"": {""target"": [], ""time"": []}}}, ""path"": [""0"", ""12"", ""13"", ""14"", ""19"", ""21""], ""internal_node_id"": ""0.0-3.0-0.0"", ""block"": ""pre_test""}"
A1CI20SHHTUP0R:3KRVW3HTZNL7Y5KU9DO9HKFGLX4SM4,4,1520187626682,"{""rt"": 28223, ""trial_type"": ""text"", ""internal_node_id"": ""0.0-4.0"", ""time_elapsed"": 134451, ""key_press"": 32, ""trial_index"": 4}"
A1CI20SHHTUP0R:3KRVW3HTZNL7Y5KU9DO9HKFGLX4SM4,5,1520187641753,"{""rt"": [9187, 523, 465], ""trial_type"": ""mouselab-mdp"", ""trialTime"": 13822, ""rewards"": [4, 8, 48], ""stateRewards"": ["""", 2, -8, -24, 48, -2, -4, -24, -24, 4, 8, 24, 48], ""actionTimes"": [9192, 10215, 11192], ""trial_id"": 6516760737789360000, ""time_elapsed"": 149522, ""actions"": [""left"", ""left"", ""down""], ""trialIndex"": 1, ""score"": 56, ""trial_index"": 5, ""simulationMode"": [null, null, null], ""queries"": {""mouseover"": {""state"": {""target"": [], ""time"": []}, ""edge"": {""target"": [], ""time"": []}}, ""click"": {""state"": {""target"": [""5"", ""6"", ""9"", ""10""], ""time"": [1345, 2236, 3393, 4202]}, ""edge"": {""target"": [], ""time"": []}}, ""mouseout"": {""state"": {""target"": [], ""time"": []}, ""edge"": {""target"": [], ""time"": []}}}, ""path"": [""0"", ""9"", ""10"", ""12""], ""internal_node_id"": ""0.0-5.0-0.0"", ""block"": ""training""}"
A1CI20SHHTUP0R:3KRVW3HTZNL7Y5KU9DO9HKFGLX4SM4,6,1520187656506,"{""rt"": [10032, 102, 169], ""trial_type"": ""mouselab-mdp"", ""trialTime"": 13670, ""rewards"": [-2, 8, 48], ""stateRewards"": ["""", 2, -4, 24, -24, -2, 8, 24, 48, 4, -4, 48, 48], ""actionTimes"": [10039, 10656, 11349], ""trial_id"": 5246743485396079000, ""time_elapsed"": 164275, ""actions"": [""right"", ""right"", ""down""], ""trialIndex"": 2, ""score"": 47, ""trial_index"": 6, ""simulationMode"": [null, null, null], ""queries"": {""mouseover"": {""state"": {""target"": [], ""time"": []}, ""edge"": {""target"": [], ""time"": []}}, ""click"": {""state"": {""target"": [""9"", ""5"", ""1"", ""2"", ""10"", ""6"", ""8""], ""time"": [2456, 3290, 4105, 4950, 5825, 7900, 8945]}, ""edge"": {""target"": [], ""time"": []}}, ""mouseout"": {""state"": {""target"": [], ""time"": []}, ""edge"": {""target"": [], ""time"": []}}}, ""path"": [""0"", ""5"", ""6"", ""8""], ""internal_node_id"": ""0.0-5.0-1.0"", ""block"": ""training""}"
A1CI20SHHTUP0R:3KRVW3HTZNL7Y5KU9DO9HKFGLX4SM4,7,1520187668811,"{""rt"": [8329, 188, 137], ""trial_type"": ""mouselab-mdp"", ""trialTime"": 11229, ""rewards"": [4, 8, 24], ""stateRewards"": ["""", 4, -4, -48, -48, 4, 8, 24, -24, -2, 8, 48, -48], ""actionTimes"": [8333, 9028, 9675], ""trial_id"": -6978553059181346000, ""time_elapsed"": 176580, ""actions"": [""right"", ""right"", ""up""], ""trialIndex"": 3, ""score"": 31, ""trial_index"": 7, ""simulationMode"": [null, null, null], ""queries"": {""mouseover"": {""state"": {""target"": [], ""time"": []}, ""edge"": {""target"": [], ""time"": []}}, ""click"": {""state"": {""target"": [""5"", ""9"", ""6"", ""8"", ""7""], ""time"": [2801, 3952, 5024, 5749, 6933]}, ""edge"": {""target"": [], ""time"": []}}, ""mouseout"": {""state"": {""target"": [], ""time"": []}, ""edge"": {""target"": [], ""time"": []}}}, ""path"": [""0"", ""5"", ""6"", ""7""], ""internal_node_id"": ""0.0-5.0-2.0"", ""block"": ""training""}"
A1CI20SHHTUP0R:3KRVW3HTZNL7Y5KU9DO9HKFGLX4SM4,8,1520187683659,"{""rt"": [10869, 140, 122], ""trial_type"": ""mouselab-mdp"", ""trialTime"": 13776, ""rewards"": [-4, -4, 48], ""stateRewards"": ["""", 2, -4, -24, -24, 4, -8, -48, -48, -4, -4, 48, 48], ""actionTimes"": [10872, 11513, 12143], ""trial_id"": -7913607226466677000, ""time_elapsed"": 191428, ""actions"": [""left"", ""left"", ""down""], ""trialIndex"": 4, ""score"": 31, ""trial_index"": 8, ""simulationMode"": [null, null, null], ""queries"": {""mouseover"": {""state"": {""target"": [], ""time"": []}, ""edge"": {""target"": [], ""time"": []}}, ""click"": {""state"": {""target"": [""5"", ""1"", ""6"", ""7"", ""3"", ""2"", ""9"", ""10"", ""12""], ""time"": [1174, 2177, 3450, 4328, 5515, 6115, 7829, 8553, 9244]}, ""edge"": {""target"": [], ""time"": []}}, ""mouseout"": {""state"": {""target"": [], ""time"": []}, ""edge"": {""target"": [], ""time"": []}}}, ""path"": [""0"", ""9"", ""10"", ""12""], ""internal_node_id"": ""0.0-5.0-3.0"", ""block"": ""training""}"
A1CI20SHHTUP0R:3KRVW3HTZNL7Y5KU9DO9HKFGLX4SM4,9,1520187697603,"{""rt"": [9807, 118, 183], ""trial_type"": ""mouselab-mdp"", ""trialTime"": 12866, ""rewards"": [-2, -8, 48], ""stateRewards"": ["""", 4, -8, -48, -48, -4, 4, 24, 24, -2, -8, -24, 48], ""actionTimes"": [9811, 10433, 11114], ""trial_id"": -4569496646062697500, ""time_elapsed"": 205372, ""actions"": [""left"", ""left"", ""down""], ""trialIndex"": 5, ""score"": 31, ""trial_index"": 9, ""simulationMode"": [null, null, null], ""queries"": {""mouseover"": {""state"": {""target"": [], ""time"": []}, ""edge"": {""target"": [], ""time"": []}}, ""click"": {""state"": {""target"": [""5"", ""6"", ""8"", ""7"", ""9"", ""10"", ""12""], ""time"": [2190, 2981, 3693, 4546, 6093, 6693, 7283]}, ""edge"": {""target"": [], ""time"": []}}, ""mouseout"": {""state"": {""target"": [], ""time"": []}, ""edge"": {""target"": [], ""time"": []}}}, ""path"": [""0"", ""9"", ""10"", ""12""], ""internal_node_id"": ""0.0-5.0-4.0"", ""block"": ""training""}"
A1CI20SHHTUP0R:3KRVW3HTZNL7Y5KU9DO9HKFGLX4SM4,10,1520187708244,"{""rt"": [6817, 98, 114], ""trial_type"": ""mouselab-mdp"", ""trialTime"": 9557, ""rewards"": [2, 4, 24], ""stateRewards"": ["""", -2, -4, -48, -48, 2, -8, -24, -24, 2, 4, 24, 24], ""actionTimes"": [6822, 7412, 8028], ""trial_id"": -7656966127788694000, ""time_elapsed"": 216013, ""actions"": [""left"", ""left"", ""down""], ""trialIndex"": 6, ""score"": 25, ""trial_index"": 10, ""simulationMode"": [null, null, null], ""queries"": {""mouseover"": {""state"": {""target"": [], ""time"": []}, ""edge"": {""target"": [], ""time"": []}}, ""click"": {""state"": {""target"": [""5"", ""1"", ""9"", ""10"", ""12""], ""time"": [1637, 2380, 3144, 3941, 4920]}, ""edge"": {""target"": [], ""time"": []}}, ""mouseout"": {""state"": {""target"": [], ""time"": []}, ""edge"": {""target"": [], ""time"": []}}}, ""path"": [""0"", ""9"", ""10"", ""12""], ""internal_node_id"": ""0.0-5.0-5.0"", ""block"": ""training""}"
A1CI20SHHTUP0R:3KRVW3HTZNL7Y5KU9DO9HKFGLX4SM4,11,1520187722572,"{""rt"": [10220, 78, 47], ""trial_type"": ""mouselab-mdp"", ""trialTime"": 13243, ""rewards"": [2, -4, 24], ""stateRewards"": ["""", 2, -4, 24, -48, -4, 4, 48, 48, 4, 4, -48, -24], ""actionTimes"": [10226, 10802, 11371], ""trial_id"": 1708036831889561600, ""time_elapsed"": 230341, ""actions"": [""up"", ""up"", ""right""], ""trialIndex"": 7, ""score"": 13, ""trial_index"": 11, ""simulationMode"": [null, null, null], ""queries"": {""mouseover"": {""state"": {""target"": [], ""time"": []}, ""edge"": {""target"": [], ""time"": []}}, ""click"": {""state"": {""target"": [""5"", ""1"", ""9"", ""10"", ""12"", ""11"", ""2"", ""3"", ""4""], ""time"": [1009, 2200, 2899, 3714, 4431, 5391, 6922, 8011, 9019]}, ""edge"": {""target"": [], ""time"": []}}, ""mouseout"": {""state"": {""target"": [], ""time"": []}, ""edge"": {""target"": [], ""time"": []}}}, ""path"": [""0"", ""1"", ""2"", ""3""], ""internal_node_id"": ""0.0-5.0-6.0"", ""block"": ""training""}"
A1CI20SHHTUP0R:3KRVW3HTZNL7Y5KU9DO9HKFGLX4SM4,12,1520187735717,"{""rt"": [9400, 107, 171], ""trial_type"": ""mouselab-mdp"", ""trialTime"": 12077, ""rewards"": [4, -4, 48], ""stateRewards"": ["""", 4, -4, 48, -48, -2, -8, 24, 24, -2, 4, 48, -48], ""actionTimes"": [9406, 10022, 10701], ""trial_id"": 8045829731203394000, ""time_elapsed"": 243485, ""actions"": [""up"", ""up"", ""right""], ""trialIndex"": 8, ""score"": 40, ""trial_index"": 12, ""simulationMode"": [null, null, null], ""queries"": {""mouseover"": {""state"": {""target"": [], ""time"": []}, ""edge"": {""target"": [], ""time"": []}}, ""click"": {""state"": {""target"": [""5"", ""9"", ""6"", ""8"", ""7"", ""1"", ""3"", ""2""], ""time"": [1608, 2565, 3496, 4199, 5050, 6086, 7017, 8322]}, ""edge"": {""target"": [], ""time"": []}}, ""mouseout"": {""state"": {""target"": [], ""time"": []}, ""edge"": {""target"": [], ""time"": []}}}, ""path"": [""0"", ""1"", ""2"", ""3""], ""internal_node_id"": ""0.0-5.0-7.0"", ""block"": ""training""}"
A1CI20SHHTUP0R:3KRVW3HTZNL7Y5KU9DO9HKFGLX4SM4,13,1520187751614,"{""rt"": [11854, 89, 18], ""trial_type"": ""mouselab-mdp"", ""trialTime"": 14811, ""rewards"": [2, -4, 24], ""stateRewards"": ["""", 2, -4, 24, 24, -4, 4, -24, -24, -2, 4, -24, -48], ""actionTimes"": [11860, 12458, 12970], ""trial_id"": 7862543089384343000, ""time_elapsed"": 259382, ""actions"": [""up"", ""up"", ""right""], ""trialIndex"": 9, ""score"": 14, ""trial_index"": 13, ""simulationMode"": [null, null, null], ""queries"": {""mouseover"": {""state"": {""target"": [], ""time"": []}, ""edge"": {""target"": [], ""time"": []}}, ""click"": {""state"": {""target"": [""3"", ""7"", ""11"", ""12"", ""8"", ""4"", ""2"", ""1""], ""time"": [2667, 4117, 6055, 6907, 8293, 9404, 10367, 10905]}, ""edge"": {""target"": [], ""time"": []}}, ""mouseout"": {""state"": {""target"": [], ""time"": []}, ""edge"": {""target"": [], ""time"": []}}}, ""path"": [""0"", ""1"", ""2"", ""3""], ""internal_node_id"": ""0.0-5.0-8.0"", ""block"": ""training""}"
A1CI20SHHTUP0R:3KRVW3HTZNL7Y5KU9DO9HKFGLX4SM4,14,1520187767493,"{""rt"": [10080, 67, 59], ""trial_type"": ""mouselab-mdp"", ""trialTime"": 14787, ""rewards"": [-4, 4, 48], ""stateRewards"": ["""", 2, -4, 24, -48, -4, -8, -48, -48, -4, 4, -48, 48], ""actionTimes"": [10084, 10651, 11227], ""trial_id"": 2118335984300500500, ""time_elapsed"": 275262, ""actions"": [""left"", ""left"", ""down""], ""trialIndex"": 10, ""score"": 40, ""trial_index"": 14, ""simulationMode"": [null, null, null], ""queries"": {""mouseover"": {""state"": {""target"": [], ""time"": []}, ""edge"": {""target"": [], ""time"": []}}, ""click"": {""state"": {""target"": [""7"", ""5"", ""1"", ""4"", ""3"", ""12"", ""10"", ""9""], ""time"": [2364, 3549, 4807, 5538, 6591, 7629, 8426, 8984]}, ""edge"": {""target"": [], ""time"": []}}, ""mouseout"": {""state"": {""target"": [], ""time"": []}, ""edge"": {""target"": [], ""time"": []}}}, ""path"": [""0"", ""9"", ""10"", ""12""], ""internal_node_id"": ""0.0-5.0-9.0"", ""block"": ""training""}"
A1CI20SHHTUP0R:3KRVW3HTZNL7Y5KU9DO9HKFGLX4SM4,15,1520187771214,"{""rt"": 2719, ""trial_type"": ""text"", ""internal_node_id"": ""0.0-6.0"", ""time_elapsed"": 278983, ""key_press"": 32, ""trial_index"": 15}"
A1CI20SHHTUP0R:3KRVW3HTZNL7Y5KU9DO9HKFGLX4SM4,16,1520187791048,"{""rt"": 18820, ""trial_type"": ""text"", ""internal_node_id"": ""0.0-7.0"", ""time_elapsed"": 298817, ""key_press"": 32, ""trial_index"": 16}"
A1CI20SHHTUP0R:3KRVW3HTZNL7Y5KU9DO9HKFGLX4SM4,17,1520187803400,"{""rt"": [5553, 93, 222, 367, 165], ""trial_type"": ""mouselab-mdp"", ""trialTime"": 11068, ""rewards"": [1, 3, 0, 8, 33], ""stateRewards"": ["""", 0, -1, 1, -14, 2, -15, 20, -14, -14, 53, -38, 1, 3, 0, 8, 33, 50, -12, -1, 26, -24, 2, -1, -5, 1, 14, -12, 3, -14, -6, 4, 34, 71], ""actionTimes"": [5565, 6172, 6916, 7796, 8460], ""trial_id"": -4539992991540967000, ""time_elapsed"": 311169, ""actions"": [""right"", ""right"", ""right"", ""up"", ""up""], ""trialIndex"": 11, ""score"": 40, ""trial_index"": 17, ""simulationMode"": [null, null, null, null, null], ""queries"": {""mouseover"": {""state"": {""target"": [], ""time"": []}, ""edge"": {""target"": [], ""time"": []}}, ""click"": {""state"": {""target"": [""16"", ""15"", ""14"", ""13"", ""12""], ""time"": [1805, 2389, 3034, 3767, 4415]}, ""edge"": {""target"": [], ""time"": []}}, ""mouseout"": {""state"": {""target"": [], ""time"": []}, ""edge"": {""target"": [], ""time"": []}}}, ""path"": [""0"", ""12"", ""13"", ""14"", ""15"", ""16""], ""internal_node_id"": ""0.0-8.0-0.0"", ""block"": ""test""}"
A1CI20SHHTUP0R:3KRVW3HTZNL7Y5KU9DO9HKFGLX4SM4,18,1520187814905,"{""rt"": [6122, 2, 42, 27, 80], ""trial_type"": ""mouselab-mdp"", ""trialTime"": 10150, ""rewards"": [2, 1, -4, 1, 25], ""stateRewards"": ["""", 0, 1, 7, -1, -39, -38, -21, -13, 26, -16, -10, 0, -3, -3, 5, 20, -14, 58, -10, -11, -7, -89, 2, 1, -4, 16, 19, 14, -19, 1, -49, 25, -12], ""actionTimes"": [6134, 6642, 7219, 7765, 8357], ""trial_id"": -2396313176890896400, ""time_elapsed"": 322673, ""actions"": [""left"", ""left"", ""left"", ""down"", ""down""], ""trialIndex"": 12, ""score"": 20, ""trial_index"": 18, ""simulationMode"": [null, null, null, null, null], ""queries"": {""mouseover"": {""state"": {""target"": [], ""time"": []}, ""edge"": {""target"": [], ""time"": []}}, ""click"": {""state"": {""target"": [""32"", ""30"", ""25"", ""24"", ""23""], ""time"": [1906, 2611, 3366, 4065, 4757]}, ""edge"": {""target"": [], ""time"": []}}, ""mouseout"": {""state"": {""target"": [], ""time"": []}, ""edge"": {""target"": [], ""time"": []}}}, ""path"": [""0"", ""23"", ""24"", ""25"", ""30"", ""32""], ""internal_node_id"": ""0.0-8.0-1.0"", ""block"": ""test""}"
A1CI20SHHTUP0R:3KRVW3HTZNL7Y5KU9DO9HKFGLX4SM4,19,1520187831176,"{""rt"": [10767, 522, 81, 63, 75], ""trial_type"": ""mouselab-mdp"", ""trialTime"": 14971, ""rewards"": [-1, 1, -2, 8, 28], ""stateRewards"": ["""", 0, -2, -2, -8, -65, 26, -5, -7, -42, -18, -40, 1, -4, -4, -7, 15, 8, -5, -1, 13, -25, 15, -1, 1, -2, 9, -39, -15, -26, 8, -45, 28, 15], ""actionTimes"": [10780, 11811, 12402, 12970, 13546], ""trial_id"": -3543506475518153700, ""time_elapsed"": 338945, ""actions"": [""left"", ""left"", ""left"", ""down"", ""down""], ""trialIndex"": 13, ""score"": 26, ""trial_index"": 19, ""simulationMode"": [null, null, null, null, null], ""queries"": {""mouseover"": {""state"": {""target"": [], ""time"": []}, ""edge"": {""target"": [], ""time"": []}}, ""click"": {""state"": {""target"": [""6"", ""4"", ""3"", ""32"", ""30"", ""25"", ""24"", ""23""], ""time"": [2110, 3411, 5054, 6365, 7301, 8015, 8752, 9438]}, ""edge"": {""target"": [], ""time"": []}}, ""mouseout"": {""state"": {""target"": [], ""time"": []}, ""edge"": {""target"": [], ""time"": []}}}, ""path"": [""0"", ""23"", ""24"", ""25"", ""30"", ""32""], ""internal_node_id"": ""0.0-8.0-2.0"", ""block"": ""test""}"
A1CI20SHHTUP0R:3KRVW3HTZNL7Y5KU9DO9HKFGLX4SM4,20,1520187841832,"{""rt"": [5426, 473, 157, 102, 42], ""trial_type"": ""mouselab-mdp"", ""trialTime"": 9395, ""rewards"": [1, 1, 0, -4, 34], ""stateRewards"": ["""", 0, -6, 2, -12, 19, -31, -47, 4, -48, -14, 7, 1, 1, 0, -7, 62, -19, 58, -4, 37, 34, -33, 0, 2, 3, -2, 10, -13, -37, 8, -18, 44, 19], ""actionTimes"": [5436, 6411, 7083, 7691, 8235], ""trial_id"": -7701368881056803000, ""time_elapsed"": 349601, ""actions"": [""right"", ""right"", ""right"", ""down"", ""down""], ""trialIndex"": 14, ""score"": 27, ""trial_index"": 20, ""simulationMode"": [null, null, null, null, null], ""queries"": {""mouseover"": {""state"": {""target"": [], ""time"": []}, ""edge"": {""target"": [], ""time"": []}}, ""click"": {""state"": {""target"": [""21"", ""19"", ""14"", ""13"", ""12""], ""time"": [1437, 2227, 2984, 3547, 4195]}, ""edge"": {""target"": [], ""time"": []}}, ""mouseout"": {""state"": {""target"": [], ""time"": []}, ""edge"": {""target"": [], ""time"": []}}}, ""path"": [""0"", ""12"", ""13"", ""14"", ""19"", ""21""], ""internal_node_id"": ""0.0-8.0-3.0"", ""block"": ""test""}"
A1CI20SHHTUP0R:3KRVW3HTZNL7Y5KU9DO9HKFGLX4SM4,21,1520187855565,"{""rt"": [5915, 439, 139, 168, 68], ""trial_type"": ""mouselab-mdp"", ""trialTime"": 12411, ""rewards"": [-1, -3, 2, 2, 32], ""stateRewards"": ["""", 1, 1, -1, 6, -26, 7, 57, 12, -10, 31, -12, -1, -3, 2, 2, 32, 26, -10, 7, 60, 74, 25, 0, 1, 0, -5, 50, 24, 5, 12, 27, -40, 40], ""actionTimes"": [5928, 6879, 7535, 8207, 8791], ""trial_id"": 4930208343766356000, ""time_elapsed"": 363334, ""actions"": [""right"", ""right"", ""right"", ""up"", ""up""], ""trialIndex"": 15, ""score"": 27, ""trial_index"": 21, ""simulationMode"": [null, null, null, null, null], ""queries"": {""mouseover"": {""state"": {""target"": [], ""time"": []}, ""edge"": {""target"": [], ""time"": []}}, ""click"": {""state"": {""target"": [""17"", ""15"", ""14"", ""13"", ""12""], ""time"": [1793, 2777, 3366, 4110, 4734]}, ""edge"": {""target"": [], ""time"": []}}, ""mouseout"": {""state"": {""target"": [], ""time"": []}, ""edge"": {""target"": [], ""time"": []}}}, ""path"": [""0"", ""12"", ""13"", ""14"", ""15"", ""16""], ""internal_node_id"": ""0.0-8.0-4.0"", ""block"": ""test""}"
A1CI20SHHTUP0R:3KRVW3HTZNL7Y5KU9DO9HKFGLX4SM4,22,1520187866674,"{""rt"": [5012, 17, 161, 89, 98], ""trial_type"": ""mouselab-mdp"", ""trialTime"": 9791, ""rewards"": [1, -2, -6, 13, 36], ""stateRewards"": ["""", -1, 0, -2, 1, 18, 17, 42, 0, 31, 55, -39, 1, -2, -6, 13, 36, 17, -15, 12, -44, 2, 16, 1, -3, -12, 1, 10, 6, -28, 0, -49, 13, 29], ""actionTimes"": [5024, 5542, 6207, 6806, 7415], ""trial_id"": -5256780874555580000, ""time_elapsed"": 374442, ""actions"": [""right"", ""right"", ""right"", ""up"", ""up""], ""trialIndex"": 16, ""score"": 37, ""trial_index"": 22, ""simulationMode"": [null, null, null, null, null], ""queries"": {""mouseover"": {""state"": {""target"": [], ""time"": []}, ""edge"": {""target"": [], ""time"": []}}, ""click"": {""state"": {""target"": [""16"", ""15"", ""14"", ""13"", ""12""], ""time"": [929, 1745, 2443, 3217, 3923]}, ""edge"": {""target"": [], ""time"": []}}, ""mouseout"": {""state"": {""target"": [], ""time"": []}, ""edge"": {""target"": [], ""time"": []}}}, ""path"": [""0"", ""12"", ""13"", ""14"", ""15"", ""16""], ""internal_node_id"": ""0.0-8.0-5.0"", ""block"": ""test""}"
A1CI20SHHTUP0R:3KRVW3HTZNL7Y5KU9DO9HKFGLX4SM4,23,1520187886906,"{""rt"": [12731, 69, 2117, 182, 202], ""trial_type"": ""mouselab-mdp"", ""trialTime"": 18941, ""rewards"": [1, -3, 4, 7, 45], ""stateRewards"": ["""", 1, -3, 4, 7, 45, -19, 6, 7, 10, -14, 10, 0, 2, -3, 3, 9, 24, -2, 1, -2, 1, 0, 0, 6, -3, -9, -25, -23, 0, 11, 54, 8, -80], ""actionTimes"": [12742, 13316, 15933, 16613, 17316], ""trial_id"": -8901475606039394000, ""time_elapsed"": 394675, ""actions"": [""up"", ""up"", ""up"", ""right"", ""up""], ""trialIndex"": 17, ""score"": 44, ""trial_index"": 23, ""simulationMode"": [null, null, null, null, null], ""queries"": {""mouseover"": {""state"": {""target"": [], ""time"": []}, ""edge"": {""target"": [], ""time"": []}}, ""click"": {""state"": {""target"": [""32"", ""21"", ""16"", ""27"", ""6"", ""5"", ""4"", ""7"", ""2"", ""1""], ""time"": [1318, 2657, 3875, 5389, 6790, 8451, 9481, 10254, 11004, 11687]}, ""edge"": {""target"": [], ""time"": []}}, ""mouseout"": {""state"": {""target"": [], ""time"": []}, ""edge"": {""target"": [], ""time"": []}}}, ""path"": [""0"", ""1"", ""2"", ""3"", ""4"", ""5""], ""internal_node_id"": ""0.0-8.0-6.0"", ""block"": ""test""}"
A1CI20SHHTUP0R:3KRVW3HTZNL7Y5KU9DO9HKFGLX4SM4,24,1520187901339,"{""rt"": [8517, 127, 187, 105, 125], ""trial_type"": ""mouselab-mdp"", ""trialTime"": 13175, ""rewards"": [-1, 4, -2, -21, 87], ""stateRewards"": ["""", -1, 4, -2, 3, -37, 49, -18, -21, 87, -35, 42, 1, 1, -1, 2, 39, -10, 8, 7, 3, -14, 46, 0, 0, -3, -8, 29, 30, -69, -5, 31, 78, 69], ""actionTimes"": [8527, 9159, 9871, 10486, 11126], ""trial_id"": -1550087556058722600, ""time_elapsed"": 409108, ""actions"": [""up"", ""up"", ""up"", ""left"", ""up""], ""trialIndex"": 18, ""score"": 61, ""trial_index"": 24, ""simulationMode"": [null, null, null, null, null], ""queries"": {""mouseover"": {""state"": {""target"": [], ""time"": []}, ""edge"": {""target"": [], ""time"": []}}, ""click"": {""state"": {""target"": [""5"", ""9"", ""8"", ""3"", ""2"", ""1""], ""time"": [1593, 2904, 3884, 4855, 5554, 6525]}, ""edge"": {""target"": [], ""time"": []}}, ""mouseout"": {""state"": {""target"": [], ""time"": []}, ""edge"": {""target"": [], ""time"": []}}}, ""path"": [""0"", ""1"", ""2"", ""3"", ""8"", ""9""], ""internal_node_id"": ""0.0-8.0-7.0"", ""block"": ""test""}"
A1CI20SHHTUP0R:3KRVW3HTZNL7Y5KU9DO9HKFGLX4SM4,25,1520187915339,"{""rt"": [8111, 3, 112, 518, 115], ""trial_type"": ""mouselab-mdp"", ""trialTime"": 12719, ""rewards"": [1, -2, -6, -6, 39], ""stateRewards"": ["""", 1, -2, -6, 10, 10, -20, -34, -6, 39, -1, -45, 1, 1, -1, 5, -26, 31, -46, -7, -44, -13, -24, 0, 0, 2, 1, 8, 51, -9, -12, 30, 59, 6], ""actionTimes"": [8120, 8636, 9303, 10327, 10943], ""trial_id"": -7446303971998027000, ""time_elapsed"": 423108, ""actions"": [""up"", ""up"", ""up"", ""left"", ""up""], ""trialIndex"": 19, ""score"": 20, ""trial_index"": 25, ""simulationMode"": [null, null, null, null, null], ""queries"": {""mouseover"": {""state"": {""target"": [], ""time"": []}, ""edge"": {""target"": [], ""time"": []}}, ""click"": {""state"": {""target"": [""5"", ""9"", ""3"", ""8"", ""2"", ""1""], ""time"": [1490, 2601, 3551, 4236, 5207, 6245]}, ""edge"": {""target"": [], ""time"": []}}, ""mouseout"": {""state"": {""target"": [], ""time"": []}, ""edge"": {""target"": [], ""time"": []}}}, ""path"": [""0"", ""1"", ""2"", ""3"", ""8"", ""9""], ""internal_node_id"": ""0.0-8.0-8.0"", ""block"": ""test""}"
A1CI20SHHTUP0R:3KRVW3HTZNL7Y5KU9DO9HKFGLX4SM4,26,1520187928811,"{""rt"": [8506, 62, 110, 22, 89], ""trial_type"": ""mouselab-mdp"", ""trialTime"": 12219, ""rewards"": [-1, 1, 4, 3, 10], ""stateRewards"": ["""", -1, 1, 4, 5, -1, -27, 3, 3, -11, 19, 10, 0, -4, 4, 14, -13, -47, 20, -4, -31, 39, -44, 1, -2, 6, 4, -8, 5, 19, 7, 26, 17, -15], ""actionTimes"": [8515, 9083, 9699, 10235, 10827], ""trial_id"": -307615105557226430, ""time_elapsed"": 436580, ""actions"": [""up"", ""up"", ""up"", ""left"", ""left""], ""trialIndex"": 20, ""score"": 10, ""trial_index"": 26, ""simulationMode"": [null, null, null, null, null], ""queries"": {""mouseover"": {""state"": {""target"": [], ""time"": []}, ""edge"": {""target"": [], ""time"": []}}, ""click"": {""state"": {""target"": [""17"", ""16"", ""11"", ""8"", ""3"", ""2"", ""1""], ""time"": [1041, 2323, 3945, 4992, 6009, 6696, 7521]}, ""edge"": {""target"": [], ""time"": []}}, ""mouseout"": {""state"": {""target"": [], ""time"": []}, ""edge"": {""target"": [], ""time"": []}}}, ""path"": [""0"", ""1"", ""2"", ""3"", ""8"", ""11""], ""internal_node_id"": ""0.0-8.0-9.0"", ""block"": ""test""}"
A1CI20SHHTUP0R:3KRVW3HTZNL7Y5KU9DO9HKFGLX4SM4,27,1520187958812,"{""rt"": [24317, 47, 128, 119, 212], ""trial_type"": ""mouselab-mdp"", ""trialTime"": 28742, ""rewards"": [0, 1, -8, 2, 36], ""stateRewards"": ["""", 0, 2, -6, -8, 17, 48, 1, 2, -26, -1, -23, 0, 1, -8, 2, -26, -21, 36, 2, 30, -56, -13, 0, -1, 2, 7, -35, -31, -40, 9, -16, -3, -11], ""actionTimes"": [24326, 24894, 25542, 26182, 26926], ""trial_id"": 5466546309607817000, ""time_elapsed"": 466581, ""actions"": [""right"", ""right"", ""right"", ""up"", ""left""], ""trialIndex"": 21, ""score"": 14, ""trial_index"": 27, ""simulationMode"": [null, null, null, null, null], ""queries"": {""mouseover"": {""state"": {""target"": [], ""time"": []}, ""edge"": {""target"": [], ""time"": []}}, ""click"": {""state"": {""target"": [""5"", ""9"", ""7"", ""2"", ""3"", ""16"", ""21"", ""32"", ""27"", ""29"", ""28"", ""4"", ""18"", ""15"", ""14"", ""13"", ""12""], ""time"": [1064, 2215, 3393, 4351, 4973, 6836, 8425, 9965, 11289, 12174, 13206, 16159, 20131, 21140, 21777, 22734, 23298]}, ""edge"": {""target"": [], ""time"": []}}, ""mouseout"": {""state"": {""target"": [], ""time"": []}, ""edge"": {""target"": [], ""time"": []}}}, ""path"": [""0"", ""12"", ""13"", ""14"", ""15"", ""18""], ""internal_node_id"": ""0.0-8.0-10.0"", ""block"": ""test""}"
A1CI20SHHTUP0R:3KRVW3HTZNL7Y5KU9DO9HKFGLX4SM4,28,1520187973724,"{""rt"": [9377, 105, 301, 284, 268], ""trial_type"": ""mouselab-mdp"", ""trialTime"": 13573, ""rewards"": [0, -2, 9, -7, 52], ""stateRewards"": ["""", 1, 3, -5, -4, -25, -34, 8, 4, -23, -16, 8, 0, -2, 9, -2, 3, -20, -8, -7, 52, -59, -6, 1, -3, 2, 11, 9, 0, -1, -2, 19, -28, 10], ""actionTimes"": [9391, 10005, 10814, 11598, 12366], ""trial_id"": -7292978147705355000, ""time_elapsed"": 481493, ""actions"": [""right"", ""right"", ""right"", ""down"", ""right""], ""trialIndex"": 22, ""score"": 46, ""trial_index"": 28, ""simulationMode"": [null, null, null, null, null], ""queries"": {""mouseover"": {""state"": {""target"": [], ""time"": []}, ""edge"": {""target"": [], ""time"": []}}, ""click"": {""state"": {""target"": [""5"", ""9"", ""18"", ""17"", ""20"", ""19""], ""time"": [1540, 2493, 4005, 5016, 6032, 8256]}, ""edge"": {""target"": [], ""time"": []}}, ""mouseout"": {""state"": {""target"": [], ""time"": []}, ""edge"": {""target"": [], ""time"": []}}}, ""path"": [""0"", ""12"", ""13"", ""14"", ""19"", ""20""], ""internal_node_id"": ""0.0-8.0-11.0"", ""block"": ""test""}"
A1CI20SHHTUP0R:3KRVW3HTZNL7Y5KU9DO9HKFGLX4SM4,29,1520187987638,"{""rt"": [8920, 39, 256, 49, 5], ""trial_type"": ""mouselab-mdp"", ""trialTime"": 12686, ""rewards"": [-1, -1, 4, 9, 27], ""stateRewards"": ["""", 0, 1, -6, -9, 23, -1, -7, -1, 16, -19, 16, -1, -1, 4, 9, -35, 27, -33, 6, -61, -36, -16, 0, 3, 4, 13, 39, -9, -9, 9, 1, -5, -43], ""actionTimes"": [8927, 9470, 10254, 10814, 11342], ""trial_id"": 6023346548847730000, ""time_elapsed"": 495406, ""actions"": [""right"", ""right"", ""right"", ""up"", ""right""], ""trialIndex"": 23, ""score"": 32, ""trial_index"": 29, ""simulationMode"": [null, null, null, null, null], ""queries"": {""mouseover"": {""state"": {""target"": [], ""time"": []}, ""edge"": {""target"": [], ""time"": []}}, ""click"": {""state"": {""target"": [""20"", ""22"", ""17"", ""15"", ""14"", ""13""], ""time"": [3535, 4638, 5802, 6666, 7260, 7949]}, ""edge"": {""target"": [], ""time"": []}}, ""mouseout"": {""state"": {""target"": [], ""time"": []}, ""edge"": {""target"": [], ""time"": []}}}, ""path"": [""0"", ""12"", ""13"", ""14"", ""15"", ""17""], ""internal_node_id"": ""0.0-8.0-12.0"", ""block"": ""test""}"
A1CI20SHHTUP0R:3KRVW3HTZNL7Y5KU9DO9HKFGLX4SM4,30,1520187998438,"{""rt"": [5034, 29, 78, 15, 38], ""trial_type"": ""mouselab-mdp"", ""trialTime"": 9545, ""rewards"": [0, 2, 1, 12, 24], ""stateRewards"": ["""", 0, 2, 1, 2, 9, -23, 27, 12, 24, 28, -28, -1, -3, 5, -2, 45, -25, -14, 1, 29, 2, 7, 0, 0, -4, 1, -6, -2, 16, -5, -3, -10, 13], ""actionTimes"": [5043, 5568, 6153, 6673, 7233], ""trial_id"": -7361456564231621000, ""time_elapsed"": 506206, ""actions"": [""up"", ""up"", ""up"", ""left"", ""up""], ""trialIndex"": 24, ""score"": 34, ""trial_index"": 30, ""simulationMode"": [null, null, null, null, null], ""queries"": {""mouseover"": {""state"": {""target"": [], ""time"": []}, ""edge"": {""target"": [], ""time"": []}}, ""click"": {""state"": {""target"": [""9"", ""3"", ""8"", ""2"", ""1""], ""time"": [890, 2299, 2848, 3638, 4184]}, ""edge"": {""target"": [], ""time"": []}}, ""mouseout"": {""state"": {""target"": [], ""time"": []}, ""edge"": {""target"": [], ""time"": []}}}, ""path"": [""0"", ""1"", ""2"", ""3"", ""8"", ""9""], ""internal_node_id"": ""0.0-8.0-13.0"", ""block"": ""test""}"
A1CI20SHHTUP0R:3KRVW3HTZNL7Y5KU9DO9HKFGLX4SM4,31,1520188013974,"{""rt"": [10573, 5, 219, 156, 112], ""trial_type"": ""mouselab-mdp"", ""trialTime"": 14285, ""rewards"": [1, 0, -5, -7, 54], ""stateRewards"": ["""", -1, 2, 0, 0, 25, -13, -8, 9, -44, -28, -4, 1, 0, -5, -7, 54, 10, -20, -4, 120, 43, -52, 0, 1, -1, 9, 56, 0, 9, -1, 28, 48, 30], ""actionTimes"": [10580, 11099, 11862, 12540, 13157], ""trial_id"": 6334412959755866000, ""time_elapsed"": 521743, ""actions"": [""right"", ""right"", ""right"", ""up"", ""up""], ""trialIndex"": 25, ""score"": 35, ""trial_index"": 31, ""simulationMode"": [null, null, null, null, null], ""queries"": {""mouseover"": {""state"": {""target"": [], ""time"": []}, ""edge"": {""target"": [], ""time"": []}}, ""click"": {""state"": {""target"": [""6"", ""9"", ""11"", ""7"", ""10"", ""18"", ""16"", ""15""], ""time"": [1371, 2667, 3466, 4632, 5638, 7197, 8089, 9107]}, ""edge"": {""target"": [], ""time"": []}}, ""mouseout"": {""state"": {""target"": [], ""time"": []}, ""edge"": {""target"": [], ""time"": []}}}, ""path"": [""0"", ""12"", ""13"", ""14"", ""15"", ""16""], ""internal_node_id"": ""0.0-8.0-14.0"", ""block"": ""test""}"
A1CI20SHHTUP0R:3KRVW3HTZNL7Y5KU9DO9HKFGLX4SM4,32,1520188031710,"{""rt"": [12072, 119, 192, 142, 92], ""trial_type"": ""mouselab-mdp"", ""trialTime"": 16464, ""rewards"": [-1, 0, 5, -1, 18], ""stateRewards"": ["""", -1, 1, 4, 8, -97, -52, 64, -2, -5, 37, 6, -1, 0, 8, -11, 42, -10, -9, 15, -21, 27, -12, -1, 0, 5, -1, 18, 6, 1, -3, 4, -65, -14], ""actionTimes"": [12082, 12705, 13433, 14097, 14696], ""trial_id"": 6458197094281556000, ""time_elapsed"": 539479, ""actions"": [""left"", ""left"", ""left"", ""up"", ""up""], ""trialIndex"": 26, ""score"": 11, ""trial_index"": 32, ""simulationMode"": [null, null, null, null, null], ""queries"": {""mouseover"": {""state"": {""target"": [], ""time"": []}, ""edge"": {""target"": [], ""time"": []}}, ""click"": {""state"": {""target"": [""17"", ""20"", ""22"", ""31"", ""33"", ""32"", ""30"", ""25"", ""26"", ""27""], ""time"": [1855, 3160, 4100, 5465, 6284, 6899, 7630, 8575, 10124, 10721]}, ""edge"": {""target"": [], ""time"": []}}, ""mouseout"": {""state"": {""target"": [], ""time"": []}, ""edge"": {""target"": [], ""time"": []}}}, ""path"": [""0"", ""23"", ""24"", ""25"", ""26"", ""27""], ""internal_node_id"": ""0.0-8.0-15.0"", ""block"": ""test""}"
A1CI20SHHTUP0R:3KRVW3HTZNL7Y5KU9DO9HKFGLX4SM4,33,1520188045999,"{""rt"": [9291, 107, 264, 47, 129], ""trial_type"": ""mouselab-mdp"", ""trialTime"": 13028, ""rewards"": [1, -3, 4, 2, 5], ""stateRewards"": ["""", 1, -3, 4, 10, -9, 11, -18, 2, 5, -12, -1, -1, 1, -3, 3, 9, -25, -13, 3, 44, -20, -4, 0, -4, -1, 6, 25, -15, 17, -2, 11, 30, -21], ""actionTimes"": [9301, 9916, 10708, 11276, 11925], ""trial_id"": 306682852711074900, ""time_elapsed"": 553768, ""actions"": [""up"", ""up"", ""up"", ""left"", ""up""], ""trialIndex"": 27, ""score"": 1, ""trial_index"": 33, ""simulationMode"": [null, null, null, null, null], ""queries"": {""mouseover"": {""state"": {""target"": [], ""time"": []}, ""edge"": {""target"": [], ""time"": []}}, ""click"": {""state"": {""target"": [""9"", ""5"", ""6"", ""7"", ""10"", ""11"", ""3"", ""8""], ""time"": [1388, 2356, 3199, 4063, 4924, 5695, 6319, 7853]}, ""edge"": {""target"": [], ""time"": []}}, ""mouseout"": {""state"": {""target"": [], ""time"": []}, ""edge"": {""target"": [], ""time"": []}}}, ""path"": [""0"", ""1"", ""2"", ""3"", ""8"", ""9""], ""internal_node_id"": ""0.0-8.0-16.0"", ""block"": ""test""}"
A1CI20SHHTUP0R:3KRVW3HTZNL7Y5KU9DO9HKFGLX4SM4,34,1520188056680,"{""rt"": [4465, 117, 232, 251, 216], ""trial_type"": ""mouselab-mdp"", ""trialTime"": 9424, ""rewards"": [0, -2, -1, 2, 47], ""stateRewards"": ["""", -1, 1, 4, -7, 8, 35, -12, -11, 2, 51, -29, 0, -2, -1, 2, 47, -23, -23, -7, -35, -49, -27, 0, 0, 5, -7, -25, -24, 6, -1, 25, -25, 29], ""actionTimes"": [4472, 5095, 5824, 6576, 7296], ""trial_id"": -6340244672629514000, ""time_elapsed"": 564449, ""actions"": [""right"", ""right"", ""right"", ""up"", ""up""], ""trialIndex"": 28, ""score"": 43, ""trial_index"": 34, ""simulationMode"": [null, null, null, null, null], ""queries"": {""mouseover"": {""state"": {""target"": [], ""time"": []}, ""edge"": {""target"": [], ""time"": []}}, ""click"": {""state"": {""target"": [""17"", ""18"", ""16""], ""time"": [1261, 2019, 2629]}, ""edge"": {""target"": [], ""time"": []}}, ""mouseout"": {""state"": {""target"": [], ""time"": []}, ""edge"": {""target"": [], ""time"": []}}}, ""path"": [""0"", ""12"", ""13"", ""14"", ""15"", ""16""], ""internal_node_id"": ""0.0-8.0-17.0"", ""block"": ""test""}"
A1CI20SHHTUP0R:3KRVW3HTZNL7Y5KU9DO9HKFGLX4SM4,35,1520188067793,"{""rt"": [4152, 104, 179, 64, 70], ""trial_type"": ""mouselab-mdp"", ""trialTime"": 9873, ""rewards"": [2, 0, 0, 5, 36], ""stateRewards"": ["""", -1, 1, 2, 3, -24, 1, 39, -1, 14, 53, 61, 2, 0, 0, -1, -16, -5, -45, 5, -9, 36, 34, 1, -2, -1, -6, -50, -21, -25, 9, -88, 16, -8], ""actionTimes"": [4161, 4768, 5481, 6048, 6632], ""trial_id"": -3568324918706024400, ""time_elapsed"": 575561, ""actions"": [""right"", ""right"", ""right"", ""down"", ""down""], ""trialIndex"": 29, ""score"": 40, ""trial_index"": 35, ""simulationMode"": [null, null, null, null, null], ""queries"": {""mouseover"": {""state"": {""target"": [], ""time"": []}, ""edge"": {""target"": [], ""time"": []}}, ""click"": {""state"": {""target"": [""21"", ""19"", ""14""], ""time"": [1398, 2515, 3298]}, ""edge"": {""target"": [], ""time"": []}}, ""mouseout"": {""state"": {""target"": [], ""time"": []}, ""edge"": {""target"": [], ""time"": []}}}, ""path"": [""0"", ""12"", ""13"", ""14"", ""19"", ""21""], ""internal_node_id"": ""0.0-8.0-18.0"", ""block"": ""test""}"
A1CI20SHHTUP0R:3KRVW3HTZNL7Y5KU9DO9HKFGLX4SM4,36,1520188078609,"{""rt"": [5434, 71, 123, 76, 46], ""trial_type"": ""mouselab-mdp"", ""trialTime"": 9562, ""rewards"": [-2, 1, -1, 7, 74], ""stateRewards"": ["""", 1, -1, 2, 14, -22, 8, -8, -9, -26, 17, -1, -2, 1, -1, 7, -21, 74, -30, 6, -34, 6, -37, 1, 0, 6, -1, -52, -27, -13, 11, 87, -4, 10], ""actionTimes"": [5441, 6025, 6665, 7265, 7833], ""trial_id"": 2574944347908743700, ""time_elapsed"": 586378, ""actions"": [""right"", ""right"", ""right"", ""up"", ""right""], ""trialIndex"": 30, ""score"": 74, ""trial_index"": 36, ""simulationMode"": [null, null, null, null, null], ""queries"": {""mouseover"": {""state"": {""target"": [], ""time"": []}, ""edge"": {""target"": [], ""time"": []}}, ""click"": {""state"": {""target"": [""17"", ""15"", ""14"", ""13"", ""12""], ""time"": [1255, 2258, 2798, 3960, 4571]}, ""edge"": {""target"": [], ""time"": []}}, ""mouseout"": {""state"": {""target"": [], ""time"": []}, ""edge"": {""target"": [], ""time"": []}}}, ""path"": [""0"", ""12"", ""13"", ""14"", ""15"", ""17""], ""internal_node_id"": ""0.0-8.0-19.0"", ""block"": ""test""}"
A1CI20SHHTUP0R:3KRVW3HTZNL7Y5KU9DO9HKFGLX4SM4,37,1520188127249,"{""rt"": 47615, ""trial_type"": ""survey-multi-choice"", ""responses"": ""[\""$-4 to $4\"",\""$-48 to $48\"",\""$1\"",\""5 cents for every $10 you make in the game\""]"", ""internal_node_id"": ""0.0-9.0"", ""time_elapsed"": 635018, ""questions"": ""[\""What is the range of node values in the first step?\"",\""What is the range of node values in the last step?\"",\""What is the cost of clicking?\"",\""How much REAL money do you earn?\""]"", ""correct"": null, ""trial_index"": 37}"
A1CI20SHHTUP0R:3KRVW3HTZNL7Y5KU9DO9HKFGLX4SM4,38,1520188348229,"{""rt"": 219974, ""trial_type"": ""survey-text"", ""responses"": ""{\""Q0\"":\""The pattern of higher payout at the last step revealed itself after the first few tries. I stuck with that strategy but, on the off chance that the pattern changed, I still checked the nodes on the first steps as well.\"",\""Q1\"":\""When the end payout was high enough to ignore the first sets of nodes.\"",\""Q2\"":\""When I felt confident of a decent payout to offset any deficits.\"",\""Q3\"":\""At the final (end) nodes.\"",\""Q4\"":\""Once a positive payout was determined, I ignored the other paths to keep costs of clicking down.\""}"", ""internal_node_id"": ""0.0-10.0"", ""time_elapsed"": 855998, ""trial_index"": 38}"
A1CI20SHHTUP0R:3KRVW3HTZNL7Y5KU9DO9HKFGLX4SM4,39,1520188425769,"{""rt"": 76528, ""trial_type"": ""survey-text"", ""responses"": ""{\""Q0\"":\""Evaluate the final payout to determine if the first steps are worth the potential costs.\"",\""Q1\"":\""No.\"",\""Q2\"":\""45\"",\""Q3\"":\""Thank you.\""}"", ""internal_node_id"": ""0.0-11.0"", ""time_elapsed"": 933538, ""trial_index"": 39}"
A1F42D4L22K5ND:3N1FSUEFL50LSQC66JTO0RCGY394DR,0,1520187285135,"{""rt"": 16156, ""trial_type"": ""text"", ""internal_node_id"": ""0.0-0.0"", ""time_elapsed"": 16184, ""key_press"": 32, ""trial_index"": 0}"
A1F42D4L22K5ND:3N1FSUEFL50LSQC66JTO0RCGY394DR,1,1520187305975,"{""rt"": 19832, ""trial_type"": ""text"", ""internal_node_id"": ""0.0-1.0"", ""time_elapsed"": 37025, ""key_press"": 32, ""trial_index"": 1}"
A1F42D4L22K5ND:3N1FSUEFL50LSQC66JTO0RCGY394DR,2,1520187323492,"{""rt"": 16505, ""trial_type"": ""text"", ""internal_node_id"": ""0.0-2.0"", ""time_elapsed"": 54541, ""key_press"": 32, ""trial_index"": 2}"
A1F42D4L22K5ND:3N1FSUEFL50LSQC66JTO0RCGY394DR,3,1520187367981,"{""rt"": [32520, 862, 679, 369, 1304], ""trial_type"": ""mouselab-mdp"", ""trialTime"": 42406, ""rewards"": [1, 0, 0, 7, 22], ""stateRewards"": ["""", -1, 4, 3, -5, 1, 10, -3, -8, 46, -38, 28, 0, -2, -1, -15, 9, 23, -17, 2, -80, -17, -43, 1, 0, 0, -2, -8, 25, -33, 7, 22, 33, -11], ""actionTimes"": [32544, 33953, 35165, 36067, 37899], ""trial_id"": 4291835154346257000, ""time_elapsed"": 99031, ""actions"": [""left"", ""left"", ""left"", ""down"", ""right""], ""trialIndex"": 0, ""score"": 12, ""trial_index"": 3, ""simulationMode"": [null, null, null, null, null], ""queries"": {""mouseover"": {""state"": {""target"": [], ""time"": []}, ""edge"": {""target"": [], ""time"": []}}, ""click"": {""state"": {""target"": [""1"", ""2"", ""12"", ""13"", ""23"", ""24"", ""31"", ""25"", ""30"", ""32"", ""33"", ""26"", ""27"", ""10"", ""8"", ""11"", ""3"", ""4""], ""time"": [2811, 4460, 6190, 7372, 8697, 9974, 11240, 13358, 14818, 16121, 18291, 20495, 21837, 23386, 24348, 26559, 28991, 30869]}, ""edge"": {""target"": [], ""time"": []}}, ""mouseout"": {""state"": {""target"": [], ""time"": []}, ""edge"": {""target"": [], ""time"": []}}}, ""path"": [""0"", ""23"", ""24"", ""25"", ""30"", ""31""], ""internal_node_id"": ""0.0-3.0-0.0"", ""block"": ""pre_test""}"
A1F42D4L22K5ND:3N1FSUEFL50LSQC66JTO0RCGY394DR,4,1520187382666,"{""rt"": 13682, ""trial_type"": ""text"", ""internal_node_id"": ""0.0-4.0"", ""time_elapsed"": 113716, ""key_press"": 32, ""trial_index"": 4}"
A1F42D4L22K5ND:3N1FSUEFL50LSQC66JTO0RCGY394DR,5,1520187411875,"{""rt"": [23959, 519, 287], ""trial_type"": ""mouselab-mdp"", ""trialTime"": 27910, ""rewards"": [2, 8, 48], ""stateRewards"": ["""", 2, 8, 48, -24, -4, -4, -48, 24, -4, -8, -48, -24], ""actionTimes"": [23969, 25000, 25788], ""trial_id"": 2372710761025483000, ""time_elapsed"": 142925, ""actions"": [""up"", ""up"", ""right""], ""trialIndex"": 1, ""score"": 51, ""trial_index"": 5, ""simulationMode"": [null, null, null], ""queries"": {""mouseover"": {""state"": {""target"": [], ""time"": []}, ""edge"": {""target"": [], ""time"": []}}, ""click"": {""state"": {""target"": [""9"", ""1"", ""7"", ""8"", ""3"", ""4"", ""2""], ""time"": [6162, 11978, 15122, 19006, 19861, 21683, 23230]}, ""edge"": {""target"": [], ""time"": []}}, ""mouseout"": {""state"": {""target"": [], ""time"": []}, ""edge"": {""target"": [], ""time"": []}}}, ""path"": [""0"", ""1"", ""2"", ""3""], ""internal_node_id"": ""0.0-5.0-0.0"", ""block"": ""training""}"
A1F42D4L22K5ND:3N1FSUEFL50LSQC66JTO0RCGY394DR,6,1520187434979,"{""rt"": [16307, 639, 504], ""trial_type"": ""mouselab-mdp"", ""trialTime"": 21873, ""rewards"": [4, 8, 24], ""stateRewards"": ["""", -2, -8, -24, -24, 4, 8, 48, 24, -2, 8, -24, -48], ""actionTimes"": [16332, 17484, 18499], ""trial_id"": 4079752410143045600, ""time_elapsed"": 166029, ""actions"": [""right"", ""right"", ""down""], ""trialIndex"": 2, ""score"": 30, ""trial_index"": 6, ""simulationMode"": [null, null, null], ""queries"": {""mouseover"": {""state"": {""target"": [], ""time"": []}, ""edge"": {""target"": [], ""time"": []}}, ""click"": {""state"": {""target"": [""11"", ""12"", ""4"", ""3"", ""7"", ""8""], ""time"": [2970, 4537, 5924, 7160, 8141, 11010]}, ""edge"": {""target"": [], ""time"": []}}, ""mouseout"": {""state"": {""target"": [], ""time"": []}, ""edge"": {""target"": [], ""time"": []}}}, ""path"": [""0"", ""5"", ""6"", ""8""], ""internal_node_id"": ""0.0-5.0-1.0"", ""block"": ""training""}"
A1F42D4L22K5ND:3N1FSUEFL50LSQC66JTO0RCGY394DR,7,1520187485500,"{""rt"": [6409, 946, 1824], ""trial_type"": ""mouselab-mdp"", ""trialTime"": 49373, ""rewards"": [-2, 8, 48], ""stateRewards"": ["""", 2, 8, -24, -48, -2, 8, 48, 24, 4, 8, -24, -48], ""actionTimes"": [6444, 44919, 47248], ""trial_id"": 7708577571422581000, ""time_elapsed"": 216550, ""actions"": [""right"", ""right"", ""up""], ""trialIndex"": 3, ""score"": 52, ""trial_index"": 7, ""simulationMode"": [null, null, null], ""queries"": {""mouseover"": {""state"": {""target"": [], ""time"": []}, ""edge"": {""target"": [], ""time"": []}}, ""click"": {""state"": {""target"": [""11"", ""4""], ""time"": [1949, 3672]}, ""edge"": {""target"": [], ""time"": []}}, ""mouseout"": {""state"": {""target"": [], ""time"": []}, ""edge"": {""target"": [], ""time"": []}}}, ""path"": [""0"", ""5"", ""6"", ""7""], ""internal_node_id"": ""0.0-5.0-2.0"", ""block"": ""training""}"
A1F42D4L22K5ND:3N1FSUEFL50LSQC66JTO0RCGY394DR,8,1520187504083,"{""rt"": [13329, 501, 284], ""trial_type"": ""mouselab-mdp"", ""trialTime"": 17422, ""rewards"": [-4, 4, 48], ""stateRewards"": ["""", -4, 4, 48, -48, -4, 4, -24, 24, -4, -8, 24, 24], ""actionTimes"": [13340, 14345, 15129], ""trial_id"": -5995301136843023000, ""time_elapsed"": 235133, ""actions"": [""up"", ""up"", ""right""], ""trialIndex"": 4, ""score"": 42, ""trial_index"": 8, ""simulationMode"": [null, null, null], ""queries"": {""mouseover"": {""state"": {""target"": [], ""time"": []}, ""edge"": {""target"": [], ""time"": []}}, ""click"": {""state"": {""target"": [""12"", ""4"", ""7"", ""8"", ""11"", ""3""], ""time"": [2900, 4650, 6679, 8255, 10219, 11687]}, ""edge"": {""target"": [], ""time"": []}}, ""mouseout"": {""state"": {""target"": [], ""time"": []}, ""edge"": {""target"": [], ""time"": []}}}, ""path"": [""0"", ""1"", ""2"", ""3""], ""internal_node_id"": ""0.0-5.0-3.0"", ""block"": ""training""}"
A1F42D4L22K5ND:3N1FSUEFL50LSQC66JTO0RCGY394DR,9,1520187529963,"{""rt"": [17312, 1490, 486], ""trial_type"": ""mouselab-mdp"", ""trialTime"": 24697, ""rewards"": [-4, -8, 48], ""stateRewards"": ["""", -4, 4, 24, -24, -2, 4, 48, -24, -4, -8, -48, 48], ""actionTimes"": [17323, 21324, 22318], ""trial_id"": 858865579533637100, ""time_elapsed"": 261013, ""actions"": [""left"", ""left"", ""down""], ""trialIndex"": 5, ""score"": 29, ""trial_index"": 9, ""simulationMode"": [null, null, null], ""queries"": {""mouseover"": {""state"": {""target"": [], ""time"": []}, ""edge"": {""target"": [], ""time"": []}}, ""click"": {""state"": {""target"": [""12"", ""11"", ""4"", ""3"", ""7"", ""8"", ""6""], ""time"": [1739, 3063, 4290, 8717, 9837, 14017, 15747]}, ""edge"": {""target"": [], ""time"": []}}, ""mouseout"": {""state"": {""target"": [], ""time"": []}, ""edge"": {""target"": [], ""time"": []}}}, ""path"": [""0"", ""9"", ""10"", ""12""], ""internal_node_id"": ""0.0-5.0-4.0"", ""block"": ""training""}"
A1F42D4L22K5ND:3N1FSUEFL50LSQC66JTO0RCGY394DR,10,1520187545611,"{""rt"": [11189, 276, 300], ""trial_type"": ""mouselab-mdp"", ""trialTime"": 14502, ""rewards"": [-4, -8, 48], ""stateRewards"": ["""", 4, 8, -24, -24, -4, -8, -48, 48, 2, -8, -24, -48], ""actionTimes"": [11200, 11986, 12793], ""trial_id"": 2630443220538220000, ""time_elapsed"": 276661, ""actions"": [""right"", ""right"", ""down""], ""trialIndex"": 6, ""score"": 30, ""trial_index"": 10, ""simulationMode"": [null, null, null], ""queries"": {""mouseover"": {""state"": {""target"": [], ""time"": []}, ""edge"": {""target"": [], ""time"": []}}, ""click"": {""state"": {""target"": [""12"", ""11"", ""4"", ""3"", ""7"", ""8""], ""time"": [2776, 4273, 5553, 7170, 8091, 9605]}, ""edge"": {""target"": [], ""time"": []}}, ""mouseout"": {""state"": {""target"": [], ""time"": []}, ""edge"": {""target"": [], ""time"": []}}}, ""path"": [""0"", ""5"", ""6"", ""8""], ""internal_node_id"": ""0.0-5.0-5.0"", ""block"": ""training""}"
A1F42D4L22K5ND:3N1FSUEFL50LSQC66JTO0RCGY394DR,11,1520187559731,"{""rt"": [8957, 314, 941], ""trial_type"": ""mouselab-mdp"", ""trialTime"": 12917, ""rewards"": [-2, -8, 48], ""stateRewards"": ["""", -2, -8, 24, 48, -2, 8, -24, -24, -2, -4, 24, -24], ""actionTimes"": [8976, 9788, 11233], ""trial_id"": -3603402282008602000, ""time_elapsed"": 290781, ""actions"": [""up"", ""up"", ""left""], ""trialIndex"": 7, ""score"": 35, ""trial_index"": 11, ""simulationMode"": [null, null, null], ""queries"": {""mouseover"": {""state"": {""target"": [], ""time"": []}, ""edge"": {""target"": [], ""time"": []}}, ""click"": {""state"": {""target"": [""12"", ""4"", ""7""], ""time"": [3242, 5153, 7158]}, ""edge"": {""target"": [], ""time"": []}}, ""mouseout"": {""state"": {""target"": [], ""time"": []}, ""edge"": {""target"": [], ""time"": []}}}, ""path"": [""0"", ""1"", ""2"", ""4""], ""internal_node_id"": ""0.0-5.0-6.0"", ""block"": ""training""}"
A1F42D4L22K5ND:3N1FSUEFL50LSQC66JTO0RCGY394DR,12,1520187572121,"{""rt"": [5891, 213, 466], ""trial_type"": ""mouselab-mdp"", ""trialTime"": 11201, ""rewards"": [-4, -4, 48], ""stateRewards"": ["""", 2, -4, -24, -24, 4, -8, -48, -48, -4, -4, 48, 48], ""actionTimes"": [5907, 6622, 7588], ""trial_id"": -7913607226466677000, ""time_elapsed"": 303170, ""actions"": [""left"", ""left"", ""down""], ""trialIndex"": 8, ""score"": 38, ""trial_index"": 12, ""simulationMode"": [null, null, null], ""queries"": {""mouseover"": {""state"": {""target"": [], ""time"": []}, ""edge"": {""target"": [], ""time"": []}}, ""click"": {""state"": {""target"": [""12"", ""11""], ""time"": [2785, 4127]}, ""edge"": {""target"": [], ""time"": []}}, ""mouseout"": {""state"": {""target"": [], ""time"": []}, ""edge"": {""target"": [], ""time"": []}}}, ""path"": [""0"", ""9"", ""10"", ""12""], ""internal_node_id"": ""0.0-5.0-7.0"", ""block"": ""training""}"
A1F42D4L22K5ND:3N1FSUEFL50LSQC66JTO0RCGY394DR,13,1520187594533,"{""rt"": [15833, 319, 564], ""trial_type"": ""mouselab-mdp"", ""trialTime"": 21268, ""rewards"": [4, 4, 48], ""stateRewards"": ["""", -4, -8, -48, -48, -4, -4, 48, 24, 4, 4, 48, -48], ""actionTimes"": [15845, 18678, 19751], ""trial_id"": -9063084800167141000, ""time_elapsed"": 325583, ""actions"": [""left"", ""left"", ""up""], ""trialIndex"": 9, ""score"": 50, ""trial_index"": 13, ""simulationMode"": [null, null, null], ""queries"": {""mouseover"": {""state"": {""target"": [], ""time"": []}, ""edge"": {""target"": [], ""time"": []}}, ""click"": {""state"": {""target"": [""11"", ""4"", ""3"", ""7"", ""8"", ""10""], ""time"": [2113, 5714, 7337, 8588, 12639, 14829]}, ""edge"": {""target"": [], ""time"": []}}, ""mouseout"": {""state"": {""target"": [], ""time"": []}, ""edge"": {""target"": [], ""time"": []}}}, ""path"": [""0"", ""9"", ""10"", ""11""], ""internal_node_id"": ""0.0-5.0-8.0"", ""block"": ""training""}"
A1F42D4L22K5ND:3N1FSUEFL50LSQC66JTO0RCGY394DR,14,1520187612038,"{""rt"": [13474, 23, 179], ""trial_type"": ""mouselab-mdp"", ""trialTime"": 16324, ""rewards"": [4, 8, 48], ""stateRewards"": ["""", -2, -4, 48, -48, 2, 4, -48, 24, 4, 8, -48, 48], ""actionTimes"": [13501, 14034, 14725], ""trial_id"": -2817098998670331000, ""time_elapsed"": 343087, ""actions"": [""left"", ""left"", ""down""], ""trialIndex"": 10, ""score"": 54, ""trial_index"": 14, ""simulationMode"": [null, null, null], ""queries"": {""mouseover"": {""state"": {""target"": [], ""time"": []}, ""edge"": {""target"": [], ""time"": []}}, ""click"": {""state"": {""target"": [""12"", ""11"", ""4"", ""3"", ""7"", ""10""], ""time"": [2143, 3429, 4304, 6071, 10254, 12743]}, ""edge"": {""target"": [], ""time"": []}}, ""mouseout"": {""state"": {""target"": [], ""time"": []}, ""edge"": {""target"": [], ""time"": []}}}, ""path"": [""0"", ""9"", ""10"", ""12""], ""internal_node_id"": ""0.0-5.0-9.0"", ""block"": ""training""}"
A1F42D4L22K5ND:3N1FSUEFL50LSQC66JTO0RCGY394DR,15,1520187614406,"{""rt"": 1364, ""trial_type"": ""text"", ""internal_node_id"": ""0.0-6.0"", ""time_elapsed"": 345456, ""key_press"": 32, ""trial_index"": 15}"
A1F42D4L22K5ND:3N1FSUEFL50LSQC66JTO0RCGY394DR,16,1520187625860,"{""rt"": 10441, ""trial_type"": ""text"", ""internal_node_id"": ""0.0-7.0"", ""time_elapsed"": 356910, ""key_press"": 32, ""trial_index"": 16}"
A1F42D4L22K5ND:3N1FSUEFL50LSQC66JTO0RCGY394DR,17,1520187653415,"{""rt"": [19612, 295, 300, 206, 1209], ""trial_type"": ""mouselab-mdp"", ""trialTime"": 25843, ""rewards"": [0, 2, 0, 0, 52], ""stateRewards"": ["""", 0, -3, -2, -9, 14, -20, 25, 4, -8, 3, 29, 0, 2, 0, 2, 26, 43, 17, 0, 23, -49, 52, -1, 2, -2, 4, -4, 10, -26, -17, 13, -19, -21], ""actionTimes"": [19638, 20471, 21306, 22048, 23824], ""trial_id"": -2599936301925274600, ""time_elapsed"": 384465, ""actions"": [""right"", ""right"", ""right"", ""down"", ""left""], ""trialIndex"": 11, ""score"": 40, ""trial_index"": 17, ""simulationMode"": [null, null, null, null, null], ""queries"": {""mouseover"": {""state"": {""target"": [], ""time"": []}, ""edge"": {""target"": [], ""time"": []}}, ""click"": {""state"": {""target"": [""32"", ""33"", ""31"", ""29"", ""27"", ""11"", ""9"", ""5"", ""6"", ""16"", ""17"", ""20"", ""21"", ""22""], ""time"": [4034, 6028, 7053, 7867, 8608, 9646, 10388, 11152, 11791, 13264, 13982, 15913, 16854, 17988]}, ""edge"": {""target"": [], ""time"": []}}, ""mouseout"": {""state"": {""target"": [], ""time"": []}, ""edge"": {""target"": [], ""time"": []}}}, ""path"": [""0"", ""12"", ""13"", ""14"", ""19"", ""22""], ""internal_node_id"": ""0.0-8.0-0.0"", ""block"": ""test""}"
A1F42D4L22K5ND:3N1FSUEFL50LSQC66JTO0RCGY394DR,18,1520187671326,"{""rt"": [10405, 191, 223, 251, 274], ""trial_type"": ""mouselab-mdp"", ""trialTime"": 16124, ""rewards"": [0, 0, 2, -12, 73], ""stateRewards"": ["""", 0, 1, 2, 0, -19, 5, 18, 0, 4, -5, 29, 0, 0, 2, 6, 48, 22, 19, -12, 19, 73, -27, -1, 0, 4, 4, -15, -1, 33, 5, 78, 32, 11], ""actionTimes"": [10424, 11154, 11944, 12747, 13556], ""trial_id"": -3598077239957759500, ""time_elapsed"": 402376, ""actions"": [""right"", ""right"", ""right"", ""down"", ""down""], ""trialIndex"": 12, ""score"": 55, ""trial_index"": 18, ""simulationMode"": [null, null, null, null, null], ""queries"": {""mouseover"": {""state"": {""target"": [], ""time"": []}, ""edge"": {""target"": [], ""time"": []}}, ""click"": {""state"": {""target"": [""11"", ""9"", ""5"", ""6"", ""16"", ""17"", ""20"", ""21""], ""time"": [2453, 3173, 3974, 4686, 5383, 5896, 7690, 8567]}, ""edge"": {""target"": [], ""time"": []}}, ""mouseout"": {""state"": {""target"": [], ""time"": []}, ""edge"": {""target"": [], ""time"": []}}}, ""path"": [""0"", ""12"", ""13"", ""14"", ""19"", ""21""], ""internal_node_id"": ""0.0-8.0-1.0"", ""block"": ""test""}"
A1F42D4L22K5ND:3N1FSUEFL50LSQC66JTO0RCGY394DR,19,1520187704845,"{""rt"": [23586, 231, 545, 588, 1227], ""trial_type"": ""mouselab-mdp"", ""trialTime"": 31811, ""rewards"": [1, -2, 2, -2, 52], ""stateRewards"": ["""", 1, -2, 2, 17, -47, -27, -28, -2, 52, 0, -22, 1, -1, 4, 2, 44, -21, 97, 7, 21, -2, -23, -1, 0, -3, 2, -26, 20, 31, -6, 38, -8, 37], ""actionTimes"": [23609, 24433, 25502, 26625, 28391], ""trial_id"": 9149485202829359000, ""time_elapsed"": 435895, ""actions"": [""up"", ""up"", ""up"", ""left"", ""up""], ""trialIndex"": 13, ""score"": 39, ""trial_index"": 19, ""simulationMode"": [null, null, null, null, null], ""queries"": {""mouseover"": {""state"": {""target"": [], ""time"": []}, ""edge"": {""target"": [], ""time"": []}}, ""click"": {""state"": {""target"": [""27"", ""29"", ""11"", ""9"", ""5"", ""6"", ""17"", ""16"", ""20"", ""32"", ""33"", ""31""], ""time"": [5256, 5761, 7139, 7785, 11671, 12454, 13816, 15113, 15984, 16999, 17807, 18628]}, ""edge"": {""target"": [], ""time"": []}}, ""mouseout"": {""state"": {""target"": [], ""time"": []}, ""edge"": {""target"": [], ""time"": []}}}, ""path"": [""0"", ""1"", ""2"", ""3"", ""8"", ""9""], ""internal_node_id"": ""0.0-8.0-2.0"", ""block"": ""test""}"
A1F42D4L22K5ND:3N1FSUEFL50LSQC66JTO0RCGY394DR,20,1520187720885,"{""rt"": [8717, 402, 523, 450, 327], ""trial_type"": ""mouselab-mdp"", ""trialTime"": 14358, ""rewards"": [0, 3, 2, -13, 127], ""stateRewards"": ["""", 0, 3, 2, -13, 127, 21, 3, -11, 3, -15, 21, 0, 4, 1, 4, 12, -5, -6, 9, 25, -20, -36, 0, 2, 0, 14, -25, 5, -81, -5, -10, 16, 55], ""actionTimes"": [8742, 9671, 10724, 11737, 12594], ""trial_id"": -7720109870475634000, ""time_elapsed"": 451934, ""actions"": [""up"", ""up"", ""up"", ""right"", ""up""], ""trialIndex"": 14, ""score"": 111, ""trial_index"": 20, ""simulationMode"": [null, null, null, null, null], ""queries"": {""mouseover"": {""state"": {""target"": [], ""time"": []}, ""edge"": {""target"": [], ""time"": []}}, ""click"": {""state"": {""target"": [""32"", ""33"", ""29"", ""27"", ""11"", ""9"", ""5"", ""6""], ""time"": [1261, 2057, 2758, 3497, 4327, 4955, 5632, 6277]}, ""edge"": {""target"": [], ""time"": []}}, ""mouseout"": {""state"": {""target"": [], ""time"": []}, ""edge"": {""target"": [], ""time"": []}}}, ""path"": [""0"", ""1"", ""2"", ""3"", ""4"", ""5""], ""internal_node_id"": ""0.0-8.0-3.0"", ""block"": ""test""}"
A1F42D4L22K5ND:3N1FSUEFL50LSQC66JTO0RCGY394DR,21,1520187747174,"{""rt"": [17754, 498, 528, 1186, 664], ""trial_type"": ""mouselab-mdp"", ""trialTime"": 24629, ""rewards"": [0, 1, 2, 9, 28], ""stateRewards"": ["""", -2, -3, 2, -4, -10, -1, -63, 1, 0, -1, 11, -2, 4, -1, -11, 4, -41, 2, 4, -42, 27, 4, 0, 1, 2, 9, 28, 16, -24, 2, -18, -46, -1], ""actionTimes"": [17781, 18806, 19904, 21628, 22856], ""trial_id"": 942220564742499600, ""time_elapsed"": 478224, ""actions"": [""left"", ""left"", ""left"", ""up"", ""up""], ""trialIndex"": 15, ""score"": 26, ""trial_index"": 21, ""simulationMode"": [null, null, null, null, null], ""queries"": {""mouseover"": {""state"": {""target"": [], ""time"": []}, ""edge"": {""target"": [], ""time"": []}}, ""click"": {""state"": {""target"": [""33"", ""29"", ""27"", ""11"", ""9"", ""5"", ""6"", ""16"", ""17"", ""20"", ""21"", ""22"", ""31"", ""32""], ""time"": [2657, 3238, 3812, 4457, 4986, 5602, 6207, 7094, 7736, 8551, 9219, 9960, 11906, 12802]}, ""edge"": {""target"": [], ""time"": []}}, ""mouseout"": {""state"": {""target"": [], ""time"": []}, ""edge"": {""target"": [], ""time"": []}}}, ""path"": [""0"", ""23"", ""24"", ""25"", ""26"", ""27""], ""internal_node_id"": ""0.0-8.0-4.0"", ""block"": ""test""}"
A1F42D4L22K5ND:3N1FSUEFL50LSQC66JTO0RCGY394DR,22,1520187769371,"{""rt"": [14868, 64, 331, 603, 311], ""trial_type"": ""mouselab-mdp"", ""trialTime"": 20481, ""rewards"": [-1, -2, 3, -2, 51], ""stateRewards"": ["""", 1, -5, -2, -2, -65, 14, 39, -16, -50, 30, 36, -1, -2, 3, -2, -17, 51, 10, -15, 8, -45, 24, 1, 1, 4, 16, 23, -12, -35, 2, -33, -46, -15], ""actionTimes"": [14885, 15490, 16358, 17527, 18368], ""trial_id"": -5050476032982882000, ""time_elapsed"": 500420, ""actions"": [""right"", ""right"", ""right"", ""up"", ""right""], ""trialIndex"": 16, ""score"": 36, ""trial_index"": 22, ""simulationMode"": [null, null, null, null, null], ""queries"": {""mouseover"": {""state"": {""target"": [], ""time"": []}, ""edge"": {""target"": [], ""time"": []}}, ""click"": {""state"": {""target"": [""32"", ""33"", ""29"", ""27"", ""11"", ""9"", ""5"", ""6"", ""16"", ""17"", ""20"", ""21"", ""22""], ""time"": [1233, 2974, 4026, 4471, 4976, 5523, 6220, 7476, 8129, 8749, 11953, 12715, 13769]}, ""edge"": {""target"": [], ""time"": []}}, ""mouseout"": {""state"": {""target"": [], ""time"": []}, ""edge"": {""target"": [], ""time"": []}}}, ""path"": [""0"", ""12"", ""13"", ""14"", ""15"", ""17""], ""internal_node_id"": ""0.0-8.0-5.0"", ""block"": ""test""}"
A1F42D4L22K5ND:3N1FSUEFL50LSQC66JTO0RCGY394DR,23,1520187794122,"{""rt"": [15183, 103, 458, 1278, 2326], ""trial_type"": ""mouselab-mdp"", ""trialTime"": 23025, ""rewards"": [-2, 1, -1, 4, 48], ""stateRewards"": ["""", 0, 0, 2, 6, 41, -4, -73, -1, 11, -6, -5, -2, 1, -1, -12, -28, -28, 19, 4, 48, 21, -43, -1, 2, 6, -2, 18, -48, -62, -9, -11, -17, -7], ""actionTimes"": [15209, 15888, 16887, 18698, 21553], ""trial_id"": 9058907521034035000, ""time_elapsed"": 525172, ""actions"": [""right"", ""right"", ""right"", ""down"", ""right""], ""trialIndex"": 17, ""score"": 36, ""trial_index"": 23, ""simulationMode"": [null, null, null, null, null], ""queries"": {""mouseover"": {""state"": {""target"": [], ""time"": []}, ""edge"": {""target"": [], ""time"": []}}, ""click"": {""state"": {""target"": [""33"", ""32"", ""29"", ""27"", ""11"", ""9"", ""5"", ""6"", ""16"", ""17"", ""20"", ""21"", ""22"", ""31""], ""time"": [1758, 2333, 2830, 4041, 4509, 5728, 6393, 7001, 7955, 8547, 9169, 9950, 11194, 12275]}, ""edge"": {""target"": [], ""time"": []}}, ""mouseout"": {""state"": {""target"": [], ""time"": []}, ""edge"": {""target"": [], ""time"": []}}}, ""path"": [""0"", ""12"", ""13"", ""14"", ""19"", ""20""], ""internal_node_id"": ""0.0-8.0-6.0"", ""block"": ""test""}"
A1F42D4L22K5ND:3N1FSUEFL50LSQC66JTO0RCGY394DR,24,1520187816479,"{""rt"": [13610, 190, 236, 1120, 1421], ""trial_type"": ""mouselab-mdp"", ""trialTime"": 20633, ""rewards"": [-1, -1, 4, -6, 37], ""stateRewards"": ["""", -1, -1, 4, -6, 37, 17, -50, 1, -47, 30, -54, -2, -2, -3, 11, -1, 9, 34, -6, -19, -27, 25, 2, 1, -2, -4, -36, 23, -34, -2, -37, -61, -81], ""actionTimes"": [13631, 14358, 15151, 16809, 18768], ""trial_id"": 6037874575086433000, ""time_elapsed"": 547528, ""actions"": [""up"", ""up"", ""up"", ""right"", ""up""], ""trialIndex"": 18, ""score"": 19, ""trial_index"": 24, ""simulationMode"": [null, null, null, null, null], ""queries"": {""mouseover"": {""state"": {""target"": [], ""time"": []}, ""edge"": {""target"": [], ""time"": []}}, ""click"": {""state"": {""target"": [""32"", ""33"", ""29"", ""27"", ""11"", ""9"", ""5"", ""6"", ""16"", ""17"", ""20"", ""21"", ""22"", ""31""], ""time"": [1504, 1811, 2509, 3133, 3689, 4100, 4626, 5204, 5878, 7254, 7758, 8560, 9258, 10417]}, ""edge"": {""target"": [], ""time"": []}}, ""mouseout"": {""state"": {""target"": [], ""time"": []}, ""edge"": {""target"": [], ""time"": []}}}, ""path"": [""0"", ""1"", ""2"", ""3"", ""4"", ""5""], ""internal_node_id"": ""0.0-8.0-7.0"", ""block"": ""test""}"
A1F42D4L22K5ND:3N1FSUEFL50LSQC66JTO0RCGY394DR,25,1520187838507,"{""rt"": [12866, 1411, 177, 600, 822], ""trial_type"": ""mouselab-mdp"", ""trialTime"": 20350, ""rewards"": [0, -1, -8, -6, 48], ""stateRewards"": ["""", 0, 4, 5, 13, -13, -29, -34, -1, -40, -20, -14, 1, -1, -6, -4, 6, 18, -29, 5, 44, 16, 8, 0, -1, -8, 5, -11, 5, 16, -6, 33, 4, 48], ""actionTimes"": [12892, 14836, 15552, 16708, 18071], ""trial_id"": -2029278689736909300, ""time_elapsed"": 569557, ""actions"": [""left"", ""left"", ""left"", ""down"", ""left""], ""trialIndex"": 19, ""score"": 20, ""trial_index"": 25, ""simulationMode"": [null, null, null, null, null], ""queries"": {""mouseover"": {""state"": {""target"": [], ""time"": []}, ""edge"": {""target"": [], ""time"": []}}, ""click"": {""state"": {""target"": [""32"", ""33"", ""29"", ""27"", ""11"", ""9"", ""5"", ""6"", ""16"", ""17"", ""20"", ""21"", ""22""], ""time"": [1708, 2195, 3069, 3858, 4495, 5013, 5588, 6552, 7184, 7692, 9065, 10603, 11283]}, ""edge"": {""target"": [], ""time"": []}}, ""mouseout"": {""state"": {""target"": [], ""time"": []}, ""edge"": {""target"": [], ""time"": []}}}, ""path"": [""0"", ""23"", ""24"", ""25"", ""30"", ""33""], ""internal_node_id"": ""0.0-8.0-8.0"", ""block"": ""test""}"
A1F42D4L22K5ND:3N1FSUEFL50LSQC66JTO0RCGY394DR,26,1520187854994,"{""rt"": [9830, 46, 250, 360, 461], ""trial_type"": ""mouselab-mdp"", ""trialTime"": 14796, ""rewards"": [-2, 2, 4, 7, 58], ""stateRewards"": ["""", -1, 0, -1, -7, 16, -15, 52, 7, -28, -1, -7, -2, 2, 4, 7, -15, 34, -7, 7, 58, 4, -45, 0, 1, 5, -9, -6, 7, 14, 7, -30, -14, 32], ""actionTimes"": [9848, 10416, 11222, 12116, 13138], ""trial_id"": -8015781877633072000, ""time_elapsed"": 586044, ""actions"": [""right"", ""right"", ""right"", ""down"", ""right""], ""trialIndex"": 20, ""score"": 57, ""trial_index"": 26, ""simulationMode"": [null, null, null, null, null], ""queries"": {""mouseover"": {""state"": {""target"": [], ""time"": []}, ""edge"": {""target"": [], ""time"": []}}, ""click"": {""state"": {""target"": [""32"", ""33"", ""29"", ""27"", ""11"", ""9"", ""5"", ""6"", ""16"", ""17"", ""20"", ""21""], ""time"": [1364, 1733, 2367, 2812, 3338, 4437, 4993, 5747, 6339, 6763, 7601, 8684]}, ""edge"": {""target"": [], ""time"": []}}, ""mouseout"": {""state"": {""target"": [], ""time"": []}, ""edge"": {""target"": [], ""time"": []}}}, ""path"": [""0"", ""12"", ""13"", ""14"", ""19"", ""20""], ""internal_node_id"": ""0.0-8.0-9.0"", ""block"": ""test""}"
A1F42D4L22K5ND:3N1FSUEFL50LSQC66JTO0RCGY394DR,27,1520187875915,"{""rt"": [13533, 176, 432, 679, 494], ""trial_type"": ""mouselab-mdp"", ""trialTime"": 19228, ""rewards"": [-1, 2, 1, -1, 19], ""stateRewards"": ["""", 0, 1, -2, 6, -2, -22, 3, -12, -59, 11, -57, -1, 2, 1, -7, 0, -46, -36, -1, 19, -1, -3, -1, 0, 3, 9, 11, 4, 11, 4, -15, -12, -21], ""actionTimes"": [13553, 14336, 15303, 16515, 17569], ""trial_id"": 1582422396905391400, ""time_elapsed"": 606965, ""actions"": [""right"", ""right"", ""right"", ""down"", ""right""], ""trialIndex"": 21, ""score"": 7, ""trial_index"": 27, ""simulationMode"": [null, null, null, null, null], ""queries"": {""mouseover"": {""state"": {""target"": [], ""time"": []}, ""edge"": {""target"": [], ""time"": []}}, ""click"": {""state"": {""target"": [""32"", ""33"", ""29"", ""27"", ""11"", ""9"", ""5"", ""6"", ""16"", ""17"", ""20"", ""21"", ""22""], ""time"": [1466, 2530, 3791, 4160, 4730, 5173, 5782, 6320, 6854, 8095, 9385, 10036, 11130]}, ""edge"": {""target"": [], ""time"": []}}, ""mouseout"": {""state"": {""target"": [], ""time"": []}, ""edge"": {""target"": [], ""time"": []}}}, ""path"": [""0"", ""12"", ""13"", ""14"", ""19"", ""20""], ""internal_node_id"": ""0.0-8.0-10.0"", ""block"": ""test""}"
A1F42D4L22K5ND:3N1FSUEFL50LSQC66JTO0RCGY394DR,28,1520187899004,"{""rt"": [16217, 161, 399, 414, 241], ""trial_type"": ""mouselab-mdp"", ""trialTime"": 21350, ""rewards"": [0, 1, 2, 6, 38], ""stateRewards"": ["""", 0, -3, 4, -12, -2, -6, 28, 14, -6, 0, -34, 1, 2, 5, -8, -28, 29, 30, -16, -26, -70, -6, 0, 1, 2, 5, -3, -48, 7, 6, -45, -31, 38], ""actionTimes"": [16238, 16924, 17868, 18805, 19570], ""trial_id"": -119874718799020460, ""time_elapsed"": 630054, ""actions"": [""left"", ""left"", ""left"", ""down"", ""left""], ""trialIndex"": 22, ""score"": 33, ""trial_index"": 28, ""simulationMode"": [null, null, null, null, null], ""queries"": {""mouseover"": {""state"": {""target"": [], ""time"": []}, ""edge"": {""target"": [], ""time"": []}}, ""click"": {""state"": {""target"": [""32"", ""33"", ""29"", ""27"", ""11"", ""9"", ""5"", ""6"", ""16"", ""17"", ""20"", ""21"", ""22"", ""18""], ""time"": [1432, 2110, 2893, 4377, 4952, 5540, 6214, 6772, 7898, 9228, 10970, 11698, 12273, 13661]}, ""edge"": {""target"": [], ""time"": []}}, ""mouseout"": {""state"": {""target"": [], ""time"": []}, ""edge"": {""target"": [], ""time"": []}}}, ""path"": [""0"", ""23"", ""24"", ""25"", ""30"", ""33""], ""internal_node_id"": ""0.0-8.0-11.0"", ""block"": ""test""}"
A1F42D4L22K5ND:3N1FSUEFL50LSQC66JTO0RCGY394DR,29,1520187927647,"{""rt"": [19155, 412, 588, 790, 1355], ""trial_type"": ""mouselab-mdp"", ""trialTime"": 26891, ""rewards"": [1, -1, 1, 4, 32], ""stateRewards"": ["""", 0, 2, -4, -1, 46, -20, -65, -16, -80, -68, -13, 1, -1, 1, -1, 0, -5, -6, 4, -38, 32, 29, 0, 2, -3, -4, 5, -6, -14, -5, -18, 30, -62], ""actionTimes"": [19183, 20134, 21262, 22650, 24547], ""trial_id"": -3135801206866439000, ""time_elapsed"": 658696, ""actions"": [""right"", ""right"", ""right"", ""down"", ""down""], ""trialIndex"": 23, ""score"": 20, ""trial_index"": 29, ""simulationMode"": [null, null, null, null, null], ""queries"": {""mouseover"": {""state"": {""target"": [], ""time"": []}, ""edge"": {""target"": [], ""time"": []}}, ""click"": {""state"": {""target"": [""32"", ""33"", ""29"", ""27"", ""11"", ""9"", ""5"", ""6"", ""16"", ""17"", ""20"", ""21"", ""22"", ""31"", ""28"", ""10"", ""7""], ""time"": [1376, 1855, 2382, 2887, 3441, 4750, 5736, 6258, 6931, 7481, 8142, 8734, 9185, 10877, 12491, 13798, 16129]}, ""edge"": {""target"": [], ""time"": []}}, ""mouseout"": {""state"": {""target"": [], ""time"": []}, ""edge"": {""target"": [], ""time"": []}}}, ""path"": [""0"", ""12"", ""13"", ""14"", ""19"", ""21""], ""internal_node_id"": ""0.0-8.0-12.0"", ""block"": ""test""}"
A1F42D4L22K5ND:3N1FSUEFL50LSQC66JTO0RCGY394DR,30,1520187944326,"{""rt"": [8765, 336, 379, 852, 301], ""trial_type"": ""mouselab-mdp"", ""trialTime"": 14932, ""rewards"": [0, -2, -6, 8, 65], ""stateRewards"": ["""", 0, -2, -6, -4, -2, 53, -45, 8, 7, 26, 65, 0, 0, -7, -5, 50, 65, 5, 0, 15, 10, 72, -1, -3, -3, -11, 4, 2, -48, 0, -9, 8, -21], ""actionTimes"": [8781, 9658, 10577, 11963, 12786], ""trial_id"": -5125511017190641000, ""time_elapsed"": 675376, ""actions"": [""up"", ""up"", ""up"", ""left"", ""left""], ""trialIndex"": 24, ""score"": 58, ""trial_index"": 30, ""simulationMode"": [null, null, null, null, null], ""queries"": {""mouseover"": {""state"": {""target"": [], ""time"": []}, ""edge"": {""target"": [], ""time"": []}}, ""click"": {""state"": {""target"": [""32"", ""33"", ""29"", ""27"", ""11"", ""9"", ""5""], ""time"": [1202, 1628, 3146, 3711, 4500, 6198, 7138]}, ""edge"": {""target"": [], ""time"": []}}, ""mouseout"": {""state"": {""target"": [], ""time"": []}, ""edge"": {""target"": [], ""time"": []}}}, ""path"": [""0"", ""1"", ""2"", ""3"", ""8"", ""11""], ""internal_node_id"": ""0.0-8.0-13.0"", ""block"": ""test""}"
A1F42D4L22K5ND:3N1FSUEFL50LSQC66JTO0RCGY394DR,31,1520187974251,"{""rt"": [17750, 108, 478, 1583, 259], ""trial_type"": ""mouselab-mdp"", ""trialTime"": 28141, ""rewards"": [0, 2, 1, 5, 47], ""stateRewards"": ["""", 0, 2, 1, 5, 2, 47, -64, 3, -10, -31, -26, -1, 1, -4, -1, 9, -37, 36, 19, -22, 29, -10, 1, 0, 9, -3, 25, 19, -35, -17, 19, 27, -17], ""actionTimes"": [17775, 18438, 19442, 21579, 22375], ""trial_id"": 7716962056045544000, ""time_elapsed"": 705300, ""actions"": [""up"", ""up"", ""up"", ""right"", ""right""], ""trialIndex"": 25, ""score"": 38, ""trial_index"": 31, ""simulationMode"": [null, null, null, null, null], ""queries"": {""mouseover"": {""state"": {""target"": [], ""time"": []}, ""edge"": {""target"": [], ""time"": []}}, ""click"": {""state"": {""target"": [""32"", ""33"", ""29"", ""27"", ""11"", ""9"", ""5"", ""6"", ""16"", ""17"", ""20"", ""21"", ""22"", ""31"", ""28"", ""10"", ""7""], ""time"": [1175, 1603, 2813, 3354, 4100, 4836, 5458, 6260, 7676, 8935, 10166, 10939, 11549, 12623, 13396, 15071, 16257]}, ""edge"": {""target"": [], ""time"": []}}, ""mouseout"": {""state"": {""target"": [], ""time"": []}, ""edge"": {""target"": [], ""time"": []}}}, ""path"": [""0"", ""1"", ""2"", ""3"", ""4"", ""6""], ""internal_node_id"": ""0.0-8.0-14.0"", ""block"": ""test""}"
A1F42D4L22K5ND:3N1FSUEFL50LSQC66JTO0RCGY394DR,32,1520187996506,"{""rt"": [12986, 201, 457, 2143, 924], ""trial_type"": ""mouselab-mdp"", ""trialTime"": 20532, ""rewards"": [1, -3, 4, 7, 45], ""stateRewards"": ["""", 1, -3, 4, 7, 45, -19, 6, 7, 10, -14, 10, 0, 2, -3, 3, 9, 24, -2, 1, -2, 1, 0, 0, 6, -3, -9, -25, -23, 0, 11, 54, 8, -80], ""actionTimes"": [13007, 13740, 14729, 17413, 18899], ""trial_id"": -8901475606039394000, ""time_elapsed"": 727556, ""actions"": [""up"", ""up"", ""up"", ""right"", ""up""], ""trialIndex"": 26, ""score"": 41, ""trial_index"": 32, ""simulationMode"": [null, null, null, null, null], ""queries"": {""mouseover"": {""state"": {""target"": [], ""time"": []}, ""edge"": {""target"": [], ""time"": []}}, ""click"": {""state"": {""target"": [""32"", ""33"", ""29"", ""27"", ""11"", ""9"", ""5"", ""6"", ""16"", ""17"", ""20"", ""21"", ""22""], ""time"": [1623, 2074, 2743, 3304, 3969, 4502, 5118, 5606, 6513, 7623, 9564, 10771, 11490]}, ""edge"": {""target"": [], ""time"": []}}, ""mouseout"": {""state"": {""target"": [], ""time"": []}, ""edge"": {""target"": [], ""time"": []}}}, ""path"": [""0"", ""1"", ""2"", ""3"", ""4"", ""5""], ""internal_node_id"": ""0.0-8.0-15.0"", ""block"": ""test""}"
A1F42D4L22K5ND:3N1FSUEFL50LSQC66JTO0RCGY394DR,33,1520188018465,"{""rt"": [13085, 356, 446, 523, 472], ""trial_type"": ""mouselab-mdp"", ""trialTime"": 20269, ""rewards"": [0, 0, -1, -6, 59], ""stateRewards"": ["""", 0, 0, 4, -10, 35, -22, 23, -3, 26, 25, -47, 0, 0, -1, -6, 59, 7, 50, -5, -34, 4, -18, 2, 0, 5, -2, -10, -1, 11, 7, -4, -22, -34], ""actionTimes"": [13108, 14003, 15019, 16098, 17101], ""trial_id"": -5494233583775162000, ""time_elapsed"": 749515, ""actions"": [""right"", ""right"", ""right"", ""up"", ""up""], ""trialIndex"": 27, ""score"": 39, ""trial_index"": 33, ""simulationMode"": [null, null, null, null, null], ""queries"": {""mouseover"": {""state"": {""target"": [], ""time"": []}, ""edge"": {""target"": [], ""time"": []}}, ""click"": {""state"": {""target"": [""32"", ""33"", ""29"", ""27"", ""11"", ""9"", ""5"", ""6"", ""16"", ""17"", ""20"", ""21"", ""22""], ""time"": [1270, 2340, 2898, 4203, 4723, 5256, 6621, 7754, 8462, 9056, 9935, 10634, 11111]}, ""edge"": {""target"": [], ""time"": []}}, ""mouseout"": {""state"": {""target"": [], ""time"": []}, ""edge"": {""target"": [], ""time"": []}}}, ""path"": [""0"", ""12"", ""13"", ""14"", ""15"", ""16""], ""internal_node_id"": ""0.0-8.0-16.0"", ""block"": ""test""}"
A1F42D4L22K5ND:3N1FSUEFL50LSQC66JTO0RCGY394DR,34,1520188035023,"{""rt"": [4742, 2126, 2530, 494, 607], ""trial_type"": ""mouselab-mdp"", ""trialTime"": 14647, ""rewards"": [0, 3, 2, -1, 0], ""stateRewards"": ["""", 0, 3, 2, 2, -5, 6, -8, -1, -21, 8, 0, -1, 0, -3, -16, 15, 50, 76, 12, -28, 38, 36, -2, 2, 3, 1, 9, 2, 52, -3, -6, 0, 9], ""actionTimes"": [4763, 7450, 10516, 11544, 12704], ""trial_id"": -8927797662910116000, ""time_elapsed"": 766072, ""actions"": [""up"", ""up"", ""up"", ""left"", ""left""], ""trialIndex"": 28, ""score"": 0, ""trial_index"": 34, ""simulationMode"": [null, null, null, null, null], ""queries"": {""mouseover"": {""state"": {""target"": [], ""time"": []}, ""edge"": {""target"": [], ""time"": []}}, ""click"": {""state"": {""target"": [""32"", ""33"", ""29"", ""27""], ""time"": [1360, 1708, 2874, 3291]}, ""edge"": {""target"": [], ""time"": []}}, ""mouseout"": {""state"": {""target"": [], ""time"": []}, ""edge"": {""target"": [], ""time"": []}}}, ""path"": [""0"", ""1"", ""2"", ""3"", ""8"", ""11""], ""internal_node_id"": ""0.0-8.0-17.0"", ""block"": ""test""}"
A1F42D4L22K5ND:3N1FSUEFL50LSQC66JTO0RCGY394DR,35,1520188056888,"{""rt"": [14455, 149, 232, 345, 509], ""trial_type"": ""mouselab-mdp"", ""trialTime"": 20172, ""rewards"": [-1, 3, 8, -15, 40], ""stateRewards"": ["""", 1, -1, 5, 3, 19, -35, 5, 6, -31, -9, 1, -1, 1, 3, -7, 11, -42, -1, -13, 36, 13, -1, -1, 3, 8, -15, 40, 52, 11, -10, 28, -6, -19], ""actionTimes"": [14476, 15171, 15933, 16829, 17877], ""trial_id"": -8482891825638606000, ""time_elapsed"": 787938, ""actions"": [""left"", ""left"", ""left"", ""up"", ""up""], ""trialIndex"": 29, ""score"": 22, ""trial_index"": 35, ""simulationMode"": [null, null, null, null, null], ""queries"": {""mouseover"": {""state"": {""target"": [], ""time"": []}, ""edge"": {""target"": [], ""time"": []}}, ""click"": {""state"": {""target"": [""32"", ""33"", ""29"", ""27"", ""11"", ""9"", ""5"", ""6"", ""16"", ""17"", ""20"", ""21"", ""22""], ""time"": [1892, 2987, 3382, 3941, 4528, 5568, 6151, 7340, 7852, 10257, 10709, 11448, 13356]}, ""edge"": {""target"": [], ""time"": []}}, ""mouseout"": {""state"": {""target"": [], ""time"": []}, ""edge"": {""target"": [], ""time"": []}}}, ""path"": [""0"", ""23"", ""24"", ""25"", ""26"", ""27""], ""internal_node_id"": ""0.0-8.0-18.0"", ""block"": ""test""}"
A1F42D4L22K5ND:3N1FSUEFL50LSQC66JTO0RCGY394DR,36,1520188077517,"{""rt"": [13574, 62, 70, 304, 53], ""trial_type"": ""mouselab-mdp"", ""trialTime"": 18923, ""rewards"": [0, 2, -7, 13, 45], ""stateRewards"": ["""", 1, -1, -4, 1, 16, -45, -17, -3, 9, -8, 14, 0, 2, -7, 13, 45, 2, 21, 5, -24, 5, 25, 0, 2, 0, 1, -25, -12, -15, 14, 8, -32, 13], ""actionTimes"": [13595, 14211, 14846, 15683, 16316], ""trial_id"": 1049182168401074200, ""time_elapsed"": 808567, ""actions"": [""right"", ""right"", ""right"", ""up"", ""up""], ""trialIndex"": 30, ""score"": 41, ""trial_index"": 36, ""simulationMode"": [null, null, null, null, null], ""queries"": {""mouseover"": {""state"": {""target"": [], ""time"": []}, ""edge"": {""target"": [], ""time"": []}}, ""click"": {""state"": {""target"": [""32"", ""33"", ""29"", ""27"", ""11"", ""9"", ""5"", ""6"", ""16"", ""17"", ""20"", ""21""], ""time"": [1402, 1815, 3825, 4835, 5704, 6148, 8165, 8780, 9531, 10763, 11544, 12333]}, ""edge"": {""target"": [], ""time"": []}}, ""mouseout"": {""state"": {""target"": [], ""time"": []}, ""edge"": {""target"": [], ""time"": []}}}, ""path"": [""0"", ""12"", ""13"", ""14"", ""15"", ""16""], ""internal_node_id"": ""0.0-8.0-19.0"", ""block"": ""test""}"
A1F42D4L22K5ND:3N1FSUEFL50LSQC66JTO0RCGY394DR,37,1520188106949,"{""rt"": 28394, ""trial_type"": ""survey-multi-choice"", ""responses"": ""[\""$-4 to $4\"",\""$-48 to $48\"",\""$1\"",\""5 cents for every $10 you make in the game\""]"", ""internal_node_id"": ""0.0-9.0"", ""time_elapsed"": 837998, ""questions"": ""[\""What is the range of node values in the first step?\"",\""What is the range of node values in the last step?\"",\""What is the cost of clicking?\"",\""How much REAL money do you earn?\""]"", ""correct"": null, ""trial_index"": 37}"
A1F42D4L22K5ND:3N1FSUEFL50LSQC66JTO0RCGY394DR,38,1520188218315,"{""rt"": 110351, ""trial_type"": ""survey-text"", ""responses"": ""{\""Q0\"":\""I decided to click along the boarders because the end result was the most important numbr to me\"",\""Q1\"":\""I did not click along the inside because i did think they mattere\"",\""Q2\"":\""I decided to stop clicking when i saw a really high number\"",\""Q3\"":\""I always started in the lower left hand corner for no particular reason.\"",\""Q4\"":\""\""}"", ""internal_node_id"": ""0.0-10.0"", ""time_elapsed"": 949365, ""trial_index"": 38}"
A1F42D4L22K5ND:3N1FSUEFL50LSQC66JTO0RCGY394DR,39,1520188251377,"{""rt"": 32045, ""trial_type"": ""survey-text"", ""responses"": ""{\""Q0\"":\""I learned that sometimes the end result is less than what you thought it would be\"",\""Q1\"":\""There was not anything confusing\"",\""Q2\"":\""27\"",\""Q3\"":\""\""}"", ""internal_node_id"": ""0.0-11.0"", ""time_elapsed"": 982426, ""trial_index"": 39}"
A1UKAS30R0MFI6:382M9COHEHFP1UKLHKVQJDSVXSXUEW,0,1520186769225,"{""rt"": 6853, ""trial_type"": ""text"", ""internal_node_id"": ""0.0-0.0"", ""time_elapsed"": 6859, ""key_press"": 32, ""trial_index"": 0}"
A1UKAS30R0MFI6:382M9COHEHFP1UKLHKVQJDSVXSXUEW,1,1520186779175,"{""rt"": 8944, ""trial_type"": ""text"", ""internal_node_id"": ""0.0-1.0"", ""time_elapsed"": 16809, ""key_press"": 32, ""trial_index"": 1}"
A1UKAS30R0MFI6:382M9COHEHFP1UKLHKVQJDSVXSXUEW,2,1520186781792,"{""rt"": 1615, ""trial_type"": ""text"", ""internal_node_id"": ""0.0-2.0"", ""time_elapsed"": 19426, ""key_press"": 32, ""trial_index"": 2}"
A1UKAS30R0MFI6:382M9COHEHFP1UKLHKVQJDSVXSXUEW,3,1520186796807,"{""rt"": [3975, 1710, 1294, 544, 926], ""trial_type"": ""mouselab-mdp"", ""trialTime"": 13855, ""rewards"": [-1, -1, 0, -9, 8], ""stateRewards"": ["""", -1, -1, 0, -9, 8, 53, 24, -2, -28, -24, 54, 0, -1, 1, 17, 4, 20, 10, -3, -37, -11, -7, 1, 2, 4, 2, 28, -24, 40, 4, -10, 16, -2], ""actionTimes"": [3983, 6192, 7992, 9041, 10472], ""trial_id"": -8141988675068219000, ""time_elapsed"": 34440, ""actions"": [""up"", ""up"", ""up"", ""right"", ""up""], ""trialIndex"": 0, ""score"": -3, ""trial_index"": 3, ""simulationMode"": [null, null, null, null, null], ""queries"": {""mouseover"": {""state"": {""target"": [], ""time"": []}, ""edge"": {""target"": [], ""time"": []}}, ""click"": {""state"": {""target"": [], ""time"": []}, ""edge"": {""target"": [], ""time"": []}}, ""mouseout"": {""state"": {""target"": [], ""time"": []}, ""edge"": {""target"": [], ""time"": []}}}, ""path"": [""0"", ""1"", ""2"", ""3"", ""4"", ""5""], ""internal_node_id"": ""0.0-3.0-0.0"", ""block"": ""pre_test""}"
A1UKAS30R0MFI6:382M9COHEHFP1UKLHKVQJDSVXSXUEW,4,1520186800167,"{""rt"": 2360, ""trial_type"": ""text"", ""internal_node_id"": ""0.0-4.0"", ""time_elapsed"": 37801, ""key_press"": 32, ""trial_index"": 4}"
A1UKAS30R0MFI6:382M9COHEHFP1UKLHKVQJDSVXSXUEW,5,1520186819686,"{""rt"": [15319, 535, 295], ""trial_type"": ""mouselab-mdp"", ""trialTime"": 18432, ""rewards"": [-2, -8, 48], ""stateRewards"": ["""", -2, -8, 24, 48, -2, 8, -24, -24, -2, -4, 24, -24], ""actionTimes"": [15322, 16361, 17153], ""trial_id"": -3603402282008602000, ""time_elapsed"": 57320, ""actions"": [""up"", ""up"", ""left""], ""trialIndex"": 1, ""score"": 35, ""trial_index"": 5, ""simulationMode"": [null, null, null], ""queries"": {""mouseover"": {""state"": {""target"": [], ""time"": []}, ""edge"": {""target"": [], ""time"": []}}, ""click"": {""state"": {""target"": [""9"", ""11"", ""4""], ""time"": [6573, 10114, 10573]}, ""edge"": {""target"": [], ""time"": []}}, ""mouseout"": {""state"": {""target"": [], ""time"": []}, ""edge"": {""target"": [], ""time"": []}}}, ""path"": [""0"", ""1"", ""2"", ""4""], ""internal_node_id"": ""0.0-5.0-0.0"", ""block"": ""training""}"
A1UKAS30R0MFI6:382M9COHEHFP1UKLHKVQJDSVXSXUEW,6,1520186840342,"{""rt"": [16651, 486, 97], ""trial_type"": ""mouselab-mdp"", ""trialTime"": 19597, ""rewards"": [4, 8, 48], ""stateRewards"": ["""", 2, -8, -24, 48, -2, -4, -24, -24, 4, 8, 24, 48], ""actionTimes"": [16654, 17637, 18230], ""trial_id"": 6516760737789360000, ""time_elapsed"": 77976, ""actions"": [""left"", ""left"", ""down""], ""trialIndex"": 2, ""score"": 48, ""trial_index"": 6, ""simulationMode"": [null, null, null], ""queries"": {""mouseover"": {""state"": {""target"": [], ""time"": []}, ""edge"": {""target"": [], ""time"": []}}, ""click"": {""state"": {""target"": [""8"", ""3"", ""4"", ""11"", ""12"", ""7"", ""2"", ""10"", ""6"", ""5"", ""1"", ""9""], ""time"": [1972, 3814, 4655, 5314, 6075, 9678, 10019, 10999, 11800, 12742, 13883, 14582]}, ""edge"": {""target"": [], ""time"": []}}, ""mouseout"": {""state"": {""target"": [], ""time"": []}, ""edge"": {""target"": [], ""time"": []}}}, ""path"": [""0"", ""9"", ""10"", ""12""], ""internal_node_id"": ""0.0-5.0-1.0"", ""block"": ""training""}"
A1UKAS30R0MFI6:382M9COHEHFP1UKLHKVQJDSVXSXUEW,7,1520186875374,"{""rt"": [31336, 113, 90], ""trial_type"": ""mouselab-mdp"", ""trialTime"": 33985, ""rewards"": [-2, -8, 48], ""stateRewards"": ["""", -2, 8, 24, -48, 2, 4, -24, 24, -2, -8, 48, -24], ""actionTimes"": [31337, 31954, 32545], ""trial_id"": 6282558609452272000, ""time_elapsed"": 113008, ""actions"": [""left"", ""left"", ""up""], ""trialIndex"": 3, ""score"": 26, ""trial_index"": 7, ""simulationMode"": [null, null, null], ""queries"": {""mouseover"": {""state"": {""target"": [], ""time"": []}, ""edge"": {""target"": [], ""time"": []}}, ""click"": {""state"": {""target"": [""5"", ""11"", ""10"", ""12"", ""7"", ""8"", ""6"", ""3"", ""4"", ""9"", ""1"", ""2""], ""time"": [5714, 8116, 9677, 13280, 13821, 15803, 19426, 19869, 20388, 21710, 22430, 23071]}, ""edge"": {""target"": [], ""time"": []}}, ""mouseout"": {""state"": {""target"": [], ""time"": []}, ""edge"": {""target"": [], ""time"": []}}}, ""path"": [""0"", ""9"", ""10"", ""11""], ""internal_node_id"": ""0.0-5.0-2.0"", ""block"": ""training""}"
A1UKAS30R0MFI6:382M9COHEHFP1UKLHKVQJDSVXSXUEW,8,1520186895687,"{""rt"": [16411, 383, 187], ""trial_type"": ""mouselab-mdp"", ""trialTime"": 19265, ""rewards"": [-4, 8, 48], ""stateRewards"": ["""", -4, 4, 24, 24, -2, -4, 48, -24, -4, 8, -48, 48], ""actionTimes"": [16417, 17290, 17993], ""trial_id"": -4874666135804490000, ""time_elapsed"": 133321, ""actions"": [""left"", ""left"", ""down""], ""trialIndex"": 4, ""score"": 40, ""trial_index"": 8, ""simulationMode"": [null, null, null], ""queries"": {""mouseover"": {""state"": {""target"": [], ""time"": []}, ""edge"": {""target"": [], ""time"": []}}, ""click"": {""state"": {""target"": [""12"", ""11"", ""10"", ""9"", ""8"", ""7"", ""6"", ""5"", ""3"", ""4"", ""2"", ""1""], ""time"": [2294, 3996, 4897, 5377, 6838, 7679, 8520, 8961, 10282, 11023, 11563, 11983]}, ""edge"": {""target"": [], ""time"": []}}, ""mouseout"": {""state"": {""target"": [], ""time"": []}, ""edge"": {""target"": [], ""time"": []}}}, ""path"": [""0"", ""9"", ""10"", ""12""], ""internal_node_id"": ""0.0-5.0-3.0"", ""block"": ""training""}"
A1UKAS30R0MFI6:382M9COHEHFP1UKLHKVQJDSVXSXUEW,9,1520186917446,"{""rt"": [18023, 275, 244], ""trial_type"": ""mouselab-mdp"", ""trialTime"": 20727, ""rewards"": [-2, 8, 48], ""stateRewards"": ["""", 2, -4, 24, -24, -2, 8, 24, 48, 4, -4, 48, 48], ""actionTimes"": [18024, 18799, 19551], ""trial_id"": 5246743485396079000, ""time_elapsed"": 155080, ""actions"": [""right"", ""right"", ""down""], ""trialIndex"": 5, ""score"": 44, ""trial_index"": 9, ""simulationMode"": [null, null, null], ""queries"": {""mouseover"": {""state"": {""target"": [], ""time"": []}, ""edge"": {""target"": [], ""time"": []}}, ""click"": {""state"": {""target"": [""9"", ""11"", ""12"", ""10"", ""4"", ""3"", ""7"", ""8"", ""6"", ""5""], ""time"": [5105, 5422, 6762, 7524, 8925, 10045, 12009, 13932, 15835, 16454]}, ""edge"": {""target"": [], ""time"": []}}, ""mouseout"": {""state"": {""target"": [], ""time"": []}, ""edge"": {""target"": [], ""time"": []}}}, ""path"": [""0"", ""5"", ""6"", ""8""], ""internal_node_id"": ""0.0-5.0-4.0"", ""block"": ""training""}"
A1UKAS30R0MFI6:382M9COHEHFP1UKLHKVQJDSVXSXUEW,10,1520186941670,"{""rt"": [20864, 106, 74], ""trial_type"": ""mouselab-mdp"", ""trialTime"": 23171, ""rewards"": [4, 4, 48], ""stateRewards"": ["""", -4, 8, 48, -24, -2, -4, 24, -48, 4, 4, 48, -48], ""actionTimes"": [20867, 21467, 22051], ""trial_id"": 7263244810589990000, ""time_elapsed"": 179304, ""actions"": [""left"", ""left"", ""up""], ""trialIndex"": 6, ""score"": 44, ""trial_index"": 10, ""simulationMode"": [null, null, null], ""queries"": {""mouseover"": {""state"": {""target"": [], ""time"": []}, ""edge"": {""target"": [], ""time"": []}}, ""click"": {""state"": {""target"": [""12"", ""11"", ""4"", ""3"", ""7"", ""10"", ""2"", ""1"", ""9"", ""8"", ""6"", ""5""], ""time"": [1582, 2683, 4304, 5626, 9711, 10610, 12293, 13052, 13734, 16196, 16877, 17317]}, ""edge"": {""target"": [], ""time"": []}}, ""mouseout"": {""state"": {""target"": [], ""time"": []}, ""edge"": {""target"": [], ""time"": []}}}, ""path"": [""0"", ""9"", ""10"", ""11""], ""internal_node_id"": ""0.0-5.0-5.0"", ""block"": ""training""}"
A1UKAS30R0MFI6:382M9COHEHFP1UKLHKVQJDSVXSXUEW,11,1520186957502,"{""rt"": [12179, 205, 81], ""trial_type"": ""mouselab-mdp"", ""trialTime"": 14788, ""rewards"": [-4, 4, 48], ""stateRewards"": ["""", 2, -4, 24, -48, -4, -8, -48, -48, -4, 4, -48, 48], ""actionTimes"": [12180, 12884, 13476], ""trial_id"": 2118335984300500500, ""time_elapsed"": 195136, ""actions"": [""left"", ""left"", ""down""], ""trialIndex"": 7, ""score"": 40, ""trial_index"": 11, ""simulationMode"": [null, null, null], ""queries"": {""mouseover"": {""state"": {""target"": [], ""time"": []}, ""edge"": {""target"": [], ""time"": []}}, ""click"": {""state"": {""target"": [""11"", ""12"", ""10"", ""9"", ""4"", ""3"", ""7"", ""8""], ""time"": [1292, 2593, 3575, 4214, 6117, 6898, 8939, 9720]}, ""edge"": {""target"": [], ""time"": []}}, ""mouseout"": {""state"": {""target"": [], ""time"": []}, ""edge"": {""target"": [], ""time"": []}}}, ""path"": [""0"", ""9"", ""10"", ""12""], ""internal_node_id"": ""0.0-5.0-6.0"", ""block"": ""training""}"
A1UKAS30R0MFI6:382M9COHEHFP1UKLHKVQJDSVXSXUEW,12,1520186969573,"{""rt"": [8594, 141, 76], ""trial_type"": ""mouselab-mdp"", ""trialTime"": 11037, ""rewards"": [-2, 8, 48], ""stateRewards"": ["""", 4, -4, -48, -48, 4, 8, 24, -24, -2, 8, 48, -48], ""actionTimes"": [8599, 9230, 9798], ""trial_id"": -6978553059181346000, ""time_elapsed"": 207207, ""actions"": [""left"", ""left"", ""up""], ""trialIndex"": 8, ""score"": 48, ""trial_index"": 12, ""simulationMode"": [null, null, null], ""queries"": {""mouseover"": {""state"": {""target"": [], ""time"": []}, ""edge"": {""target"": [], ""time"": []}}, ""click"": {""state"": {""target"": [""7"", ""8"", ""3"", ""4"", ""11"", ""12""], ""time"": [2168, 3187, 4171, 4790, 6152, 7032]}, ""edge"": {""target"": [], ""time"": []}}, ""mouseout"": {""state"": {""target"": [], ""time"": []}, ""edge"": {""target"": [], ""time"": []}}}, ""path"": [""0"", ""9"", ""10"", ""11""], ""internal_node_id"": ""0.0-5.0-7.0"", ""block"": ""training""}"
A1UKAS30R0MFI6:382M9COHEHFP1UKLHKVQJDSVXSXUEW,13,1520186982878,"{""rt"": [9690, 272, 279], ""trial_type"": ""mouselab-mdp"", ""trialTime"": 12276, ""rewards"": [4, -4, 48], ""stateRewards"": ["""", -2, -8, -48, -48, -4, -8, 24, 24, 4, -4, 48, -24], ""actionTimes"": [9692, 10460, 11252], ""trial_id"": -3027317260685893600, ""time_elapsed"": 220512, ""actions"": [""left"", ""left"", ""up""], ""trialIndex"": 9, ""score"": 42, ""trial_index"": 13, ""simulationMode"": [null, null, null], ""queries"": {""mouseover"": {""state"": {""target"": [], ""time"": []}, ""edge"": {""target"": [], ""time"": []}}, ""click"": {""state"": {""target"": [""11"", ""12"", ""4"", ""3"", ""7"", ""8""], ""time"": [994, 1674, 3016, 5239, 6340, 7021]}, ""edge"": {""target"": [], ""time"": []}}, ""mouseout"": {""state"": {""target"": [], ""time"": []}, ""edge"": {""target"": [], ""time"": []}}}, ""path"": [""0"", ""9"", ""10"", ""11""], ""internal_node_id"": ""0.0-5.0-8.0"", ""block"": ""training""}"
A1UKAS30R0MFI6:382M9COHEHFP1UKLHKVQJDSVXSXUEW,14,1520186996141,"{""rt"": [9758, 199, 108], ""trial_type"": ""mouselab-mdp"", ""trialTime"": 12232, ""rewards"": [4, -4, 24], ""stateRewards"": ["""", 2, 8, -48, -24, 2, 8, -24, -48, 4, -4, 24, -48], ""actionTimes"": [9761, 10464, 11089], ""trial_id"": 495354184512700500, ""time_elapsed"": 233775, ""actions"": [""left"", ""left"", ""up""], ""trialIndex"": 10, ""score"": 17, ""trial_index"": 14, ""simulationMode"": [null, null, null], ""queries"": {""mouseover"": {""state"": {""target"": [], ""time"": []}, ""edge"": {""target"": [], ""time"": []}}, ""click"": {""state"": {""target"": [""4"", ""3"", ""11"", ""7"", ""8"", ""12"", ""10""], ""time"": [743, 1584, 2785, 4487, 5368, 6309, 7068]}, ""edge"": {""target"": [], ""time"": []}}, ""mouseout"": {""state"": {""target"": [], ""time"": []}, ""edge"": {""target"": [], ""time"": []}}}, ""path"": [""0"", ""9"", ""10"", ""11""], ""internal_node_id"": ""0.0-5.0-9.0"", ""block"": ""training""}"
A1UKAS30R0MFI6:382M9COHEHFP1UKLHKVQJDSVXSXUEW,15,1520186998334,"{""rt"": 1190, ""trial_type"": ""text"", ""internal_node_id"": ""0.0-6.0"", ""time_elapsed"": 235968, ""key_press"": 32, ""trial_index"": 15}"
A1UKAS30R0MFI6:382M9COHEHFP1UKLHKVQJDSVXSXUEW,16,1520187005086,"{""rt"": 5749, ""trial_type"": ""text"", ""internal_node_id"": ""0.0-7.0"", ""time_elapsed"": 242720, ""key_press"": 32, ""trial_index"": 16}"
A1UKAS30R0MFI6:382M9COHEHFP1UKLHKVQJDSVXSXUEW,17,1520187030127,"{""rt"": [20076, 179, 152, 150, 171], ""trial_type"": ""mouselab-mdp"", ""trialTime"": 23887, ""rewards"": [1, 1, -1, -3, 58], ""stateRewards"": ["""", -2, 3, 1, 5, 6, -6, -11, 1, 5, 37, 11, 0, 4, -5, -11, 11, -7, -57, -2, -23, 36, -20, 1, 1, -1, 0, 14, -74, 10, -3, 58, -22, 37], ""actionTimes"": [20103, 20781, 21437, 22101, 22790], ""trial_id"": 3275425026275453400, ""time_elapsed"": 267761, ""actions"": [""left"", ""left"", ""left"", ""down"", ""right""], ""trialIndex"": 11, ""score"": 44, ""trial_index"": 17, ""simulationMode"": [null, null, null, null, null], ""queries"": {""mouseover"": {""state"": {""target"": [], ""time"": []}, ""edge"": {""target"": [], ""time"": []}}, ""click"": {""state"": {""target"": [""27"", ""29"", ""11"", ""17"", ""16"", ""32"", ""33"", ""31"", ""21"", ""22"", ""6"", ""5""], ""time"": [4605, 6867, 7789, 9350, 9871, 11895, 12915, 13777, 15780, 16539, 17901, 18743]}, ""edge"": {""target"": [], ""time"": []}}, ""mouseout"": {""state"": {""target"": [], ""time"": []}, ""edge"": {""target"": [], ""time"": []}}}, ""path"": [""0"", ""23"", ""24"", ""25"", ""30"", ""31""], ""internal_node_id"": ""0.0-8.0-0.0"", ""block"": ""test""}"
A1UKAS30R0MFI6:382M9COHEHFP1UKLHKVQJDSVXSXUEW,18,1520187049629,"{""rt"": [14227, 165, 332, 329, 326], ""trial_type"": ""mouselab-mdp"", ""trialTime"": 18372, ""rewards"": [2, 1, 6, 1, 78], ""stateRewards"": ["""", 1, 2, -2, 7, -18, 63, -43, -14, -53, -28, -36, 2, -1, -5, 9, -19, -40, 28, 5, -14, 45, 4, 2, 1, 6, 1, -39, 78, -17, -2, -22, -7, 8], ""actionTimes"": [14237, 14900, 15749, 16597, 17444], ""trial_id"": 6049577885948385000, ""time_elapsed"": 287263, ""actions"": [""left"", ""left"", ""left"", ""up"", ""right""], ""trialIndex"": 12, ""score"": 77, ""trial_index"": 18, ""simulationMode"": [null, null, null, null, null], ""queries"": {""mouseover"": {""state"": {""target"": [], ""time"": []}, ""edge"": {""target"": [], ""time"": []}}, ""click"": {""state"": {""target"": [""9"", ""10"", ""11"", ""28"", ""32"", ""31"", ""20"", ""22"", ""21"", ""16"", ""6""], ""time"": [1993, 3835, 4374, 5136, 7379, 7841, 9041, 9762, 10184, 11624, 12285]}, ""edge"": {""target"": [], ""time"": []}}, ""mouseout"": {""state"": {""target"": [], ""time"": []}, ""edge"": {""target"": [], ""time"": []}}}, ""path"": [""0"", ""23"", ""24"", ""25"", ""26"", ""28""], ""internal_node_id"": ""0.0-8.0-1.0"", ""block"": ""test""}"
A1UKAS30R0MFI6:382M9COHEHFP1UKLHKVQJDSVXSXUEW,19,1520187078581,"{""rt"": [23292, 192, 380, 410, 436], ""trial_type"": ""mouselab-mdp"", ""trialTime"": 27856, ""rewards"": [-1, 1, -2, 8, 28], ""stateRewards"": ["""", 0, -2, -2, -8, -65, 26, -5, -7, -42, -18, -40, 1, -4, -4, -7, 15, 8, -5, -1, 13, -25, 15, -1, 1, -2, 9, -39, -15, -26, 8, -45, 28, 15], ""actionTimes"": [23298, 23993, 24864, 25792, 26736], ""trial_id"": -3543506475518153700, ""time_elapsed"": 316215, ""actions"": [""left"", ""left"", ""left"", ""down"", ""down""], ""trialIndex"": 13, ""score"": 16, ""trial_index"": 19, ""simulationMode"": [null, null, null, null, null], ""queries"": {""mouseover"": {""state"": {""target"": [], ""time"": []}, ""edge"": {""target"": [], ""time"": []}}, ""click"": {""state"": {""target"": [""27"", ""28"", ""9"", ""10"", ""7"", ""18"", ""20"", ""32"", ""33"", ""31"", ""22"", ""21"", ""16"", ""17"", ""5"", ""6"", ""11"", ""29""], ""time"": [1205, 1726, 2766, 3487, 4327, 5067, 6189, 7491, 8131, 8673, 9713, 10133, 11254, 11736, 12616, 13296, 14116, 15298]}, ""edge"": {""target"": [], ""time"": []}}, ""mouseout"": {""state"": {""target"": [], ""time"": []}, ""edge"": {""target"": [], ""time"": []}}}, ""path"": [""0"", ""23"", ""24"", ""25"", ""30"", ""32""], ""internal_node_id"": ""0.0-8.0-2.0"", ""block"": ""test""}"
A1UKAS30R0MFI6:382M9COHEHFP1UKLHKVQJDSVXSXUEW,20,1520187097830,"{""rt"": [13877, 75, 556, 257, 386], ""trial_type"": ""mouselab-mdp"", ""trialTime"": 18139, ""rewards"": [-1, -3, 5, -2, 45], ""stateRewards"": ["""", 0, 2, 1, 2, 9, -23, 27, 12, 24, 28, -28, -1, -3, 5, -2, 45, -25, -14, 1, 29, 2, 7, 0, 0, -4, 1, -6, -2, 16, -5, -3, -10, 13], ""actionTimes"": [13884, 14476, 15539, 16292, 17188], ""trial_id"": -7361456564231621000, ""time_elapsed"": 335463, ""actions"": [""right"", ""right"", ""right"", ""up"", ""up""], ""trialIndex"": 14, ""score"": 28, ""trial_index"": 20, ""simulationMode"": [null, null, null, null, null], ""queries"": {""mouseover"": {""state"": {""target"": [], ""time"": []}, ""edge"": {""target"": [], ""time"": []}}, ""click"": {""state"": {""target"": [""27"", ""30"", ""32"", ""33"", ""31"", ""29"", ""5"", ""6"", ""9"", ""11"", ""16"", ""17"", ""20"", ""21"", ""22"", ""18""], ""time"": [1832, 3292, 3893, 4394, 5094, 5995, 7096, 7637, 8358, 8898, 10020, 10560, 11181, 11662, 12202, 12842]}, ""edge"": {""target"": [], ""time"": []}}, ""mouseout"": {""state"": {""target"": [], ""time"": []}, ""edge"": {""target"": [], ""time"": []}}}, ""path"": [""0"", ""12"", ""13"", ""14"", ""15"", ""16""], ""internal_node_id"": ""0.0-8.0-3.0"", ""block"": ""test""}"
A1UKAS30R0MFI6:382M9COHEHFP1UKLHKVQJDSVXSXUEW,21,1520187116933,"{""rt"": [14148, 13, 529, 175, 293], ""trial_type"": ""mouselab-mdp"", ""trialTime"": 17962, ""rewards"": [2, 1, 9, -6, 27], ""stateRewards"": ["""", 0, 0, 3, 4, -89, 19, 10, 0, -15, 27, -13, 2, 1, 9, -6, -56, 23, 27, 0, -49, -14, 20, 0, 0, -1, -7, -17, -46, 57, -4, 15, -33, 25], ""actionTimes"": [14155, 14666, 15698, 16394, 17178], ""trial_id"": -3345026250755156500, ""time_elapsed"": 354567, ""actions"": [""right"", ""right"", ""right"", ""up"", ""left""], ""trialIndex"": 15, ""score"": 17, ""trial_index"": 21, ""simulationMode"": [null, null, null, null, null], ""queries"": {""mouseover"": {""state"": {""target"": [], ""time"": []}, ""edge"": {""target"": [], ""time"": []}}, ""click"": {""state"": {""target"": [""27"", ""9"", ""17"", ""18"", ""16"", ""6"", ""5"", ""7"", ""32"", ""33"", ""31"", ""29"", ""28"", ""20"", ""22"", ""21""], ""time"": [1550, 2230, 3571, 4672, 5154, 6193, 6653, 7194, 8295, 8737, 9197, 9858, 10298, 11680, 12640, 13081]}, ""edge"": {""target"": [], ""time"": []}}, ""mouseout"": {""state"": {""target"": [], ""time"": []}, ""edge"": {""target"": [], ""time"": []}}}, ""path"": [""0"", ""12"", ""13"", ""14"", ""15"", ""18""], ""internal_node_id"": ""0.0-8.0-4.0"", ""block"": ""test""}"
A1UKAS30R0MFI6:382M9COHEHFP1UKLHKVQJDSVXSXUEW,22,1520187128949,"{""rt"": [4733, 109, 147, 131, 153], ""trial_type"": ""mouselab-mdp"", ""trialTime"": 10922, ""rewards"": [0, -2, -4, -2, 67], ""stateRewards"": ["""", 1, 4, -1, 10, -14, -16, 14, -9, -42, 31, -63, 0, -1, -1, -11, -65, -21, -37, -3, 3, -24, -34, 0, -2, -4, -2, 9, 67, 52, -10, -42, 2, 18], ""actionTimes"": [4739, 5338, 5978, 6610, 7282], ""trial_id"": 1980418482425669000, ""time_elapsed"": 366583, ""actions"": [""left"", ""left"", ""left"", ""up"", ""right""], ""trialIndex"": 16, ""score"": 55, ""trial_index"": 22, ""simulationMode"": [null, null, null, null, null], ""queries"": {""mouseover"": {""state"": {""target"": [], ""time"": []}, ""edge"": {""target"": [], ""time"": []}}, ""click"": {""state"": {""target"": [""29"", ""25"", ""28"", ""27""], ""time"": [1793, 2413, 2974, 3574]}, ""edge"": {""target"": [], ""time"": []}}, ""mouseout"": {""state"": {""target"": [], ""time"": []}, ""edge"": {""target"": [], ""time"": []}}}, ""path"": [""0"", ""23"", ""24"", ""25"", ""26"", ""28""], ""internal_node_id"": ""0.0-8.0-5.0"", ""block"": ""test""}"
A1UKAS30R0MFI6:382M9COHEHFP1UKLHKVQJDSVXSXUEW,23,1520187147885,"{""rt"": [13063, 493, 311, 310, 189], ""trial_type"": ""mouselab-mdp"", ""trialTime"": 17843, ""rewards"": [0, 2, -6, -8, 48], ""stateRewards"": ["""", 0, 2, -6, -8, 17, 48, 1, 2, -26, -1, -23, 0, 1, -8, 2, -26, -21, 36, 2, 30, -56, -13, 0, -1, 2, 7, -35, -31, -40, 9, -16, -3, -11], ""actionTimes"": [13068, 14059, 14875, 15690, 16386], ""trial_id"": 5466546309607817000, ""time_elapsed"": 385519, ""actions"": [""up"", ""up"", ""up"", ""right"", ""right""], ""trialIndex"": 17, ""score"": 20, ""trial_index"": 23, ""simulationMode"": [null, null, null, null, null], ""queries"": {""mouseover"": {""state"": {""target"": [], ""time"": []}, ""edge"": {""target"": [], ""time"": []}}, ""click"": {""state"": {""target"": [""17"", ""16"", ""6"", ""5"", ""7"", ""9"", ""11"", ""10"", ""27"", ""28"", ""29"", ""31"", ""32"", ""21"", ""20"", ""22""], ""time"": [910, 1389, 2130, 2712, 3394, 4132, 4553, 5333, 6094, 6754, 8015, 9116, 9636, 10417, 10918, 11499]}, ""edge"": {""target"": [], ""time"": []}}, ""mouseout"": {""state"": {""target"": [], ""time"": []}, ""edge"": {""target"": [], ""time"": []}}}, ""path"": [""0"", ""1"", ""2"", ""3"", ""4"", ""6""], ""internal_node_id"": ""0.0-8.0-6.0"", ""block"": ""test""}"
A1UKAS30R0MFI6:382M9COHEHFP1UKLHKVQJDSVXSXUEW,24,1520187172086,"{""rt"": [18711, 72, 137, 126, 166], ""trial_type"": ""mouselab-mdp"", ""trialTime"": 23107, ""rewards"": [-1, 1, 6, -7, 25], ""stateRewards"": ["""", 1, -3, 5, 8, -51, -2, -40, -1, 18, -4, -44, 0, 1, 0, -8, -11, 9, -5, 17, 8, -7, 15, -1, 1, 6, -7, 10, 25, -54, 13, -33, -11, 12], ""actionTimes"": [18715, 19283, 19915, 20539, 21227], ""trial_id"": 926522681451721600, ""time_elapsed"": 409720, ""actions"": [""left"", ""left"", ""left"", ""up"", ""right""], ""trialIndex"": 18, ""score"": 6, ""trial_index"": 24, ""simulationMode"": [null, null, null, null, null], ""queries"": {""mouseover"": {""state"": {""target"": [], ""time"": []}, ""edge"": {""target"": [], ""time"": []}}, ""click"": {""state"": {""target"": [""17"", ""16"", ""6"", ""7"", ""5"", ""27"", ""29"", ""32"", ""33"", ""21"", ""20"", ""22"", ""11"", ""9"", ""10"", ""28"", ""31"", ""18""], ""time"": [1432, 2032, 2873, 3394, 4014, 5095, 5636, 6376, 6918, 7858, 8240, 8780, 10301, 10922, 11802, 12403, 13424, 14765]}, ""edge"": {""target"": [], ""time"": []}}, ""mouseout"": {""state"": {""target"": [], ""time"": []}, ""edge"": {""target"": [], ""time"": []}}}, ""path"": [""0"", ""23"", ""24"", ""25"", ""26"", ""28""], ""internal_node_id"": ""0.0-8.0-7.0"", ""block"": ""test""}"
A1UKAS30R0MFI6:382M9COHEHFP1UKLHKVQJDSVXSXUEW,25,1520187188884,"{""rt"": [8639, 35, 287, 279, 3152], ""trial_type"": ""mouselab-mdp"", ""trialTime"": 15707, ""rewards"": [-1, 0, -3, -16, 50], ""stateRewards"": ["""", 0, 3, 2, 2, -5, 6, -8, -1, -21, 8, 0, -1, 0, -3, -16, 15, 50, 76, 12, -28, 38, 36, -2, 2, 3, 1, 9, 2, 52, -3, -6, 0, 9], ""actionTimes"": [8644, 9179, 9964, 10756, 14412], ""trial_id"": -8927797662910116000, ""time_elapsed"": 426518, ""actions"": [""right"", ""right"", ""right"", ""up"", ""right""], ""trialIndex"": 19, ""score"": 21, ""trial_index"": 25, ""simulationMode"": [null, null, null, null, null], ""queries"": {""mouseover"": {""state"": {""target"": [], ""time"": []}, ""edge"": {""target"": [], ""time"": []}}, ""click"": {""state"": {""target"": [""27"", ""28"", ""16"", ""17"", ""20"", ""22"", ""6"", ""5"", ""7""], ""time"": [1559, 2300, 3619, 4200, 5122, 5781, 6664, 7163, 7764]}, ""edge"": {""target"": [], ""time"": []}}, ""mouseout"": {""state"": {""target"": [], ""time"": []}, ""edge"": {""target"": [], ""time"": []}}}, ""path"": [""0"", ""12"", ""13"", ""14"", ""15"", ""17""], ""internal_node_id"": ""0.0-8.0-8.0"", ""block"": ""test""}"
