key_press,rt,time_elapsed,trial_type,pid
32.0,13804,50096,text,0
32.0,6598,57702,text,0
32.0,8822,92526,text,0
32.0,17142,110682,text,0
32.0,15076,126764,text,0
32.0,13982,141764,text,0
32.0,5802,148574,text,0
32.0,3200,7696,text,0
32.0,10688,19390,text,0
32.0,9540,29940,text,0
32.0,18192,30276,text,1
32.0,6781,38066,text,1
32.0,11454,66698,text,1
32.0,2715,70417,text,1
32.0,18377,25110,text,1
32.0,12689,38805,text,1
32.0,7685,47493,text,1
32.0,9839,17093,text,2
32.0,3224,21317,text,2
32.0,10554,32874,text,2
32.0,12446,38414,text,2
32.0,9654,49068,text,2
32.0,5322,192784,text,2
38.0,32465,226250,text,2
32.0,17716,244967,text,2
32.0,10587,256554,text,2
32.0,2508,260064,text,2
32.0,9081,15333,text,3
32.0,14277,30615,text,3
32.0,14354,45972,text,3
32.0,3596,9889,text,3
32.0,10829,21720,text,3
32.0,5217,57236,text,3
32.0,24930,83176,text,3
32.0,18267,102450,text,3
32.0,21619,125075,text,3
32.0,12146,138224,text,3
32.0,14929,34964,text,4
32.0,7095,43063,text,4
32.0,14173,98878,text,4
32.0,32194,132077,text,4
32.0,28285,161366,text,4
32.0,24098,186468,text,4
32.0,9024,196498,text,4
32.0,11340,16617,text,4
32.0,10067,27696,text,4
32.0,7992,36693,text,4
32.0,23944,31541,text,5
32.0,23049,55601,text,5
32.0,7237,63841,text,5
32.0,20611,74573,text,5
32.0,11181,86758,text,5
32.0,14019,138909,text,5
32.0,5612,145526,text,5
32.0,19361,62339,text,6
32.0,9359,72700,text,6
32.0,9090,200516,text,6
32.0,4136,205657,text,6
32.0,23124,29481,text,6
32.0,32630,63118,text,6
32.0,14964,79083,text,6
32.0,20059,25485,text,7
32.0,19158,45646,text,7
32.0,16564,63213,text,7
32.0,24428,56844,text,7
32.0,10105,67955,text,7
32.0,8032,103529,text,7
32.0,3140,107670,text,7
32.0,21346,62442,text,8
32.0,53465,116911,text,8
32.0,7489,180937,text,8
32.0,39523,221462,text,8
173.0,5999,228464,text,8
32.0,17429,246895,text,8
32.0,21922,269820,text,8
32.0,19747,25573,text,8
32.0,35614,62193,text,8
32.0,8190,71393,text,8
32.0,14160,51906,text,9
32.0,11386,64303,text,9
32.0,8343,108006,text,9
17.0,27775,136791,text,9
32.0,38111,43465,text,9
32.0,25021,69499,text,9
32.0,14657,85168,text,9
32.0,19414,32555,text,10
32.0,11536,45096,text,10
32.0,5290,90245,text,10
40.0,17281,108530,text,10
32.0,12663,122198,text,10
32.0,9814,133018,text,10
32.0,5987,140009,text,10
32.0,14613,17216,text,10
32.0,13485,31704,text,10
32.0,13775,46483,text,10
32.0,7425,13226,text,11
32.0,6595,20822,text,11
32.0,7396,29222,text,11
32.0,17885,93283,text,11
32.0,6263,100551,text,11
32.0,5349,122532,text,11
32.0,11119,134653,text,11
32.0,11744,147402,text,11
32.0,13279,161682,text,11
32.0,6445,169129,text,11
32.0,19774,28436,text,12
32.0,21729,51172,text,12
32.0,10578,62762,text,12
32.0,19585,56346,text,12
32.0,12574,69926,text,12
32.0,17166,138326,text,12
32.0,9751,149083,text,12
32.0,28214,72611,text,13
32.0,13215,86829,text,13
32.0,7067,149579,text,13
32.0,30600,181180,text,13
32.0,15357,197541,text,13
32.0,21179,219724,text,13
32.0,6219,226947,text,13
32.0,29122,81929,text,14
32.0,11990,94935,text,14
32.0,10574,169565,text,14
32.0,47917,218487,text,14
32.0,21230,240720,text,14
32.0,25545,267271,text,14
32.0,23568,291840,text,14
32.0,17014,23763,text,14
32.0,15136,39906,text,14
32.0,7282,48191,text,14
32.0,19990,62379,text,15
32.0,7454,70834,text,15
32.0,6932,115250,text,15
32.0,19637,135890,text,15
32.0,20910,157802,text,15
32.0,36942,195746,text,15
32.0,16981,213731,text,15
32.0,5884,27264,text,15
32.0,5691,33960,text,15
32.0,6779,41744,text,15
32.0,19447,73760,text,16
32.0,11837,86602,text,16
32.0,15411,136801,text,16
32.0,24291,162096,text,16
32.0,18528,181630,text,16
32.0,22510,205143,text,16
32.0,24217,230362,text,16
32.0,14105,22975,text,16
32.0,7520,31498,text,16
32.0,7678,40182,text,16
32.0,17953,24508,text,17
17.0,11865,37378,text,17
17.0,3215,41607,text,17
32.0,9942,41394,text,17
32.0,6192,48597,text,17
32.0,17818,93252,text,17
39.0,21382,115638,text,17
32.0,15530,132172,text,17
39.0,25636,158813,text,17
39.0,9135,168952,text,17
32.0,17013,73362,text,18
32.0,11346,85714,text,18
32.0,7508,125520,text,18
32.0,2664,129187,text,18
32.0,36140,45110,text,18
32.0,32284,78406,text,18
32.0,10430,89840,text,18
32.0,5447,8148,text,19
32.0,2852,12006,text,19
32.0,6780,19788,text,19
32.0,10618,36164,text,19
32.0,5628,42794,text,19
32.0,5587,75236,text,19
32.0,59568,135808,text,19
32.0,8412,145226,text,19
32.0,10555,156783,text,19
32.0,20279,178067,text,19
32.0,13558,34199,text,20
32.0,5962,41167,text,20
32.0,8046,84849,text,20
32.0,10084,95936,text,20
32.0,6506,29356,text,21
32.0,6453,36813,text,21
32.0,9916,69698,text,21
32.0,15476,86180,text,21
32.0,7005,94191,text,21
32.0,7881,103077,text,21
32.0,10460,114541,text,21
32.0,5733,10783,text,22
32.0,6132,17921,text,22
32.0,4982,23910,text,22
32.0,3472,25429,text,22
32.0,4707,31144,text,22
32.0,8575,72427,text,22
32.0,2625,76056,text,22
32.0,17991,61235,text,23
32.0,8783,71021,text,23
32.0,9427,111804,text,23
32.0,36278,149085,text,23
32.0,25136,30023,text,23
32.0,15553,46582,text,23
32.0,33263,80851,text,23
32.0,11743,16021,text,24
32.0,6178,23202,text,24
32.0,924,25136,text,24
32.0,17717,53084,text,24
32.0,11747,65832,text,24
32.0,11484,195861,text,24
32.0,6156,203018,text,24
32.0,10083,214102,text,24
32.0,12897,228001,text,24
32.0,5645,234648,text,24
32.0,6671,27016,text,25
32.0,3994,32015,text,25
32.0,63225,107392,text,25
32.0,11980,120376,text,25
32.0,14354,135736,text,25
32.0,22244,158985,text,25
32.0,14085,174072,text,25
32.0,4557,6622,text,25
32.0,2835,10460,text,25
32.0,2733,14196,text,25
32.0,25765,59499,text,26
32.0,26268,86778,text,26
32.0,94029,226293,text,26
32.0,44844,272180,text,26
32.0,37450,310637,text,26
32.0,28922,340585,text,26
32.0,16476,358088,text,26
32.0,19731,155962,text,26
32.0,19999,176970,text,26
32.0,15794,193783,text,26
32.0,21974,58167,text,27
32.0,11603,70772,text,27
32.0,14538,149158,text,27
32.0,30010,180172,text,27
32.0,36480,217654,text,27
39.0,53735,272391,text,27
32.0,9274,282668,text,27
32.0,79810,124295,text,28
32.0,7375,132673,text,28
32.0,6433,173805,text,28
32.0,19777,194584,text,28
32.0,11430,207015,text,28
32.0,70374,278392,text,28
32.0,13982,293376,text,28
32.0,6125,13829,text,28
32.0,9535,24367,text,28
32.0,7182,32550,text,28
32.0,15977,15984,text,29
32.0,18044,35045,text,29
32.0,7340,134557,text,29
32.0,1919,416741,text,29
32.0,13789,431542,text,29
32.0,13674,21720,text,30
32.0,12572,35302,text,30
32.0,7452,43756,text,30
32.0,16370,75092,text,30
32.0,9034,85130,text,30
32.0,12594,140568,text,30
39.0,25920,167494,text,30
32.0,37034,205532,text,30
32.0,22906,229442,text,30
32.0,12328,242776,text,30
32.0,8385,14869,text,31
32.0,6252,22124,text,31
32.0,7373,30502,text,31
32.0,21286,67457,text,31
32.0,9061,77526,text,31
32.0,9760,121597,text,31
32.0,17638,140241,text,31
32.0,9370,150616,text,31
32.0,29617,181240,text,31
32.0,12048,194296,text,31
32.0,15493,45644,text,32
32.0,9188,55836,text,32
32.0,10991,87466,text,32
32.0,14083,102551,text,32
32.0,13066,116621,text,32
32.0,23438,141062,text,32
13.0,50966,193030,text,32
32.0,5596,8832,text,32
32.0,4495,14334,text,32
32.0,3055,18391,text,32
32.0,10315,35571,text,33
32.0,4022,40601,text,33
32.0,12985,99620,text,33
32.0,2019,102644,text,33
32.0,9544,13923,text,33
32.0,29151,44082,text,33
32.0,6899,51984,text,33
32.0,14961,18326,text,34
32.0,10713,30040,text,34
32.0,17047,48088,text,34
32.0,25549,63895,text,34
32.0,11617,76516,text,34
32.0,11329,176067,text,34
32.0,24125,201193,text,34
32.0,15517,217712,text,34
32.0,32116,250830,text,34
32.0,12828,264660,text,34
32.0,1974,3889,text,34
32.0,1570,6463,text,34
32.0,834,8301,text,34
32.0,14635,35235,text,35
32.0,7772,44015,text,35
32.0,3669,76855,text,35
32.0,2301,80157,text,35
32.0,11868,16938,text,35
32.0,13549,31492,text,35
32.0,7789,40287,text,35
32.0,6600,12684,text,36
32.0,10518,24222,text,36
32.0,5192,30430,text,36
32.0,8456,35390,text,36
32.0,6528,42928,text,36
32.0,12706,94040,text,36
32.0,17480,112532,text,36
32.0,14940,128488,text,36
32.0,10440,139952,text,36
32.0,19160,160140,text,36
32.0,19236,46318,text,37
32.0,8922,56246,text,37
17.0,7252,92810,text,37
32.0,30750,124574,text,37
32.0,13314,138900,text,37
32.0,15894,155800,text,37
32.0,10254,167066,text,37
32.0,12176,20282,text,37
32.0,20416,41716,text,37
32.0,10686,53434,text,37
32.0,9469,46290,text,38
32.0,5595,52893,text,38
32.0,15749,99570,text,38
32.0,16434,117012,text,38
32.0,29713,147730,text,38
32.0,15746,164488,text,38
32.0,7074,172567,text,38
32.0,12950,66075,text,39
32.0,5492,72580,text,39
32.0,9335,145644,text,39
32.0,2090,148738,text,39
32.0,6787,11352,text,40
32.0,8605,20959,text,40
32.0,3454,25416,text,40
32.0,13970,30827,text,40
32.0,6686,38517,text,40
32.0,4320,65946,text,40
32.0,23067,90017,text,40
32.0,13596,104618,text,40
32.0,15409,121035,text,40
32.0,2434,124474,text,40
32.0,14450,47442,text,41
32.0,7060,55506,text,41
32.0,5781,126695,text,41
13.0,24763,152462,text,41
32.0,15788,21306,text,41
32.0,30565,52874,text,41
32.0,14786,68664,text,41
32.0,74659,100742,text,42
32.0,8657,110403,text,42
32.0,9704,180462,text,42
32.0,23758,205224,text,42
32.0,16858,223087,text,42
32.0,17673,241766,text,42
32.0,41073,283844,text,42
32.0,13052,47588,text,43
32.0,12901,61493,text,43
32.0,22845,129149,text,43
37.0,48323,178473,text,43
32.0,23755,203229,text,43
32.0,26816,231047,text,43
32.0,55016,287063,text,43
32.0,14323,18715,text,43
32.0,11788,31507,text,43
32.0,8804,41314,text,43
32.0,14438,120112,text,44
32.0,7816,128930,text,44
32.0,8742,183602,text,44
32.0,30312,214932,text,44
32.0,12192,228138,text,44
32.0,17098,246246,text,44
32.0,4788,252048,text,44
32.0,10332,15576,text,44
32.0,9878,26478,text,44
32.0,6654,34150,text,44
32.0,20072,24916,text,45
32.0,9586,35508,text,45
32.0,8267,44777,text,45
32.0,4825,8253,text,45
32.0,11589,20844,text,45
32.0,184247,246177,text,45
32.0,57084,304266,text,45
32.0,29050,334322,text,45
32.0,23134,358461,text,45
32.0,13578,373043,text,45
32.0,13358,44862,text,46
32.0,5199,51078,text,46
32.0,6228,101282,text,46
32.0,1555,103907,text,46
32.0,7475,30248,text,47
32.0,5218,36473,text,47
32.0,3932,62342,text,47
32.0,15396,78741,text,47
32.0,12207,91954,text,47
32.0,13528,106488,text,47
32.0,8870,116365,text,47
32.0,6699,10485,text,47
32.0,6882,18368,text,47
32.0,3932,23305,text,47
32.0,5806,12482,text,48
32.0,2763,16250,text,48
32.0,3470,20727,text,48
32.0,1343,3184,text,48
32.0,555,4741,text,48
32.0,886,32787,text,48
32.0,7539,41335,text,48
32.0,6105,48444,text,48
32.0,5966,55415,text,48
32.0,2228,58648,text,48
32.0,14683,55827,text,49
32.0,6305,63136,text,49
32.0,8899,238136,text,49
32.0,44460,283600,text,49
32.0,26636,311239,text,49
32.0,16894,329136,text,49
32.0,8451,338589,text,49
32.0,11242,13363,text,49
32.0,5287,19658,text,49
32.0,3753,24426,text,49
32.0,35328,101781,text,50
32.0,26353,129136,text,50
32.0,8017,247516,text,50
32.0,70301,318819,text,50
32.0,48573,368393,text,50
32.0,43574,412970,text,50
32.0,28078,442049,text,50
32.0,14993,20816,text,50
32.0,21507,43326,text,50
32.0,13611,57940,text,50
32.0,29174,71929,text,51
32.0,13426,86359,text,51
32.0,26685,311901,text,51
39.0,116551,429457,text,51
32.0,111282,541742,text,51
32.0,25234,567982,text,51
32.0,11107,580094,text,51
32.0,18014,23164,text,51
32.0,33262,57431,text,51
32.0,16430,74876,text,51
17.0,15408,17598,text,52
32.0,8118,26722,text,52
32.0,27692,72938,text,52
32.0,23148,97110,text,52
32.0,7310,105426,text,52
39.0,237758,344196,text,52
39.0,812,346014,text,52
91.0,15448,51032,text,53
91.0,9144,61189,text,53
32.0,7331,102707,text,53
32.0,3029,106739,text,53
91.0,2947,9015,text,53
122.0,113155,123175,text,53
32.0,8276,132462,text,53
32.0,9357,16856,text,54
32.0,12771,30636,text,54
32.0,89276,120917,text,54
32.0,44014,111163,text,54
32.0,29153,141321,text,54
32.0,12006,229653,text,54
32.0,27424,258082,text,54
32.0,23277,282367,text,54
32.0,34884,318258,text,54
32.0,16718,335983,text,54
32.0,18431,73166,text,55
32.0,15475,89643,text,55
32.0,22805,167545,text,55
32.0,29420,197966,text,55
32.0,25534,224503,text,55
32.0,22615,248121,text,55
32.0,17511,266634,text,55
32.0,4567,32370,text,56
32.0,8289,41662,text,56
32.0,13779,93909,text,56
32.0,8900,103812,text,56
32.0,14594,20324,text,56
32.0,15300,36628,text,56
32.0,6060,43690,text,56
32.0,30940,39182,text,57
32.0,11251,51437,text,57
32.0,18222,70660,text,57
32.0,8349,14555,text,57
32.0,1339,16899,text,57
32.0,1784,74419,text,57
32.0,1589,77010,text,57
32.0,966,78979,text,57
32.0,678,80658,text,57
32.0,1167,82826,text,57
32.0,10054,15514,text,58
32.0,17730,34248,text,58
32.0,8208,43464,text,58
32.0,10974,36320,text,58
32.0,9290,46616,text,58
32.0,13138,85582,text,58
32.0,34782,121368,text,58
39.0,14828,137200,text,58
39.0,6414,144622,text,58
39.0,14220,159846,text,58
32.0,32262,42864,text,59
32.0,43035,86928,text,59
32.0,17656,105607,text,59
32.0,31202,87075,text,59
32.0,21570,109649,text,59
32.0,24508,228970,text,59
32.0,13589,243561,text,59
32.0,32213,110406,text,60
32.0,26638,138051,text,60
32.0,27478,226622,text,60
37.0,107488,335118,text,60
32.0,74321,410448,text,60
39.0,51495,462950,text,60
32.0,16916,480875,text,60
32.0,35585,48638,text,60
32.0,34970,84614,text,60
32.0,104543,190161,text,60
32.0,25278,30965,text,61
32.0,28354,60326,text,61
32.0,5352,66693,text,61
32.0,17273,112289,text,61
32.0,23049,136342,text,61
32.0,5366,259042,text,61
32.0,2853,262898,text,61
32.0,36339,42253,text,62
109.0,69596,112868,text,62
32.0,22794,136664,text,62
32.0,29164,109948,text,62
32.0,20764,131714,text,62
32.0,5462,261924,text,62
32.0,27128,290060,text,62
32.0,22416,62058,text,63
32.0,9695,72760,text,63
32.0,7651,99240,text,63
32.0,23796,124039,text,63
32.0,27867,152909,text,63
40.0,15329,169241,text,63
32.0,15984,186228,text,63
32.0,23515,29210,text,63
32.0,14449,44661,text,63
18.0,3756,49421,text,63
32.0,10709,19391,text,64
32.0,3760,24183,text,64
32.0,10049,35251,text,64
32.0,62707,145358,text,64
32.0,12718,159098,text,64
32.0,24689,316241,text,64
32.0,28947,346208,text,64
32.0,40851,388070,text,64
32.0,34274,423357,text,64
32.0,16890,441270,text,64
32.0,11722,46222,text,65
32.0,4357,51583,text,65
32.0,7842,94574,text,65
32.0,166670,262248,text,65
32.0,40746,303998,text,65
32.0,34989,339993,text,65
32.0,8838,349834,text,65
32.0,9205,35628,text,66
32.0,7344,43986,text,66
32.0,10782,105808,text,66
32.0,18615,125450,text,66
32.0,17764,144234,text,66
32.0,17970,163218,text,66
32.0,9052,173288,text,66
32.0,8329,12135,text,66
32.0,6261,19407,text,66
32.0,4798,25214,text,66
32.0,25277,76977,text,67
32.0,8183,86165,text,67
32.0,45287,309458,text,67
32.0,80585,391051,text,67
32.0,99103,491163,text,67
32.0,277072,769243,text,67
32.0,11366,781615,text,67
32.0,20935,26693,text,68
32.0,22821,50535,text,68
32.0,53541,105090,text,68
32.0,16959,66508,text,68
32.0,9335,76863,text,68
32.0,8922,148732,text,68
38.0,24229,173979,text,68
32.0,76930,251929,text,68
32.0,38260,291204,text,68
32.0,15580,307804,text,68
32.0,16274,25716,text,69
32.0,25229,51949,text,69
32.0,10087,63037,text,69
32.0,41617,68460,text,69
32.0,16422,85883,text,69
32.0,11763,166118,text,69
32.0,29060,196180,text,69
39.0,34941,232124,text,69
39.0,10739,243866,text,69
32.0,3590,248457,text,69
32.0,14938,20957,text,70
32.0,17905,39866,text,70
32.0,17584,58453,text,70
32.0,11615,77043,text,70
32.0,5707,83765,text,70
32.0,22788,203509,text,70
32.0,2416,206931,text,70
32.0,14115,22256,text,71
32.0,14208,37469,text,71
32.0,9160,47643,text,71
32.0,21947,75179,text,71
32.0,24984,101168,text,71
32.0,15001,227032,text,71
37.0,31807,259846,text,71
32.0,29164,290015,text,71
32.0,26100,317119,text,71
32.0,15353,333486,text,71
32.0,63879,122935,text,72
32.0,18639,142579,text,72
32.0,35473,339456,text,72
32.0,13823,354283,text,72
32.0,58252,62343,text,72
39.0,2582,65933,text,72
32.0,23110,90046,text,72
32.0,2770,6780,text,72
32.0,2614,10418,text,72
32.0,1272,12712,text,72
39.0,24906,31554,text,73
32.0,25122,57688,text,73
32.0,15738,74448,text,73
32.0,23802,72192,text,73
32.0,13050,86276,text,73
32.0,17750,166808,text,73
32.0,4584,172398,text,73
32.0,55366,96366,text,74
32.0,11409,108778,text,74
32.0,19858,152902,text,74
32.0,41214,195119,text,74
32.0,14111,210230,text,74
32.0,7198,218431,text,74
32.0,1839,221270,text,74
32.0,8556,11215,text,75
32.0,7411,19629,text,75
32.0,7259,27889,text,75
32.0,1714,5574,text,75
32.0,663,7237,text,75
32.0,1331,37810,text,75
32.0,2763,41575,text,75
32.0,3321,45898,text,75
32.0,3255,50156,text,75
32.0,16075,67234,text,75
32.0,12526,53479,text,76
32.0,4006,58486,text,76
32.0,5002,105747,text,76
32.0,15858,122610,text,76
32.0,9342,132954,text,76
32.0,14909,148865,text,76
32.0,3311,153177,text,76
32.0,8800,14121,text,76
32.0,10291,25417,text,76
32.0,7580,33999,text,76
32.0,48599,108189,text,77
32.0,15398,124606,text,77
32.0,13144,180770,text,77
32.0,2851,184625,text,77
32.0,28084,31906,text,77
32.0,26424,59337,text,77
32.0,9986,70329,text,77
32.0,30128,78344,text,78
32.0,9050,88418,text,78
32.0,22130,169870,text,78
32.0,32008,202888,text,78
32.0,15852,219760,text,78
32.0,91154,311922,text,78
32.0,9888,322818,text,78
32.0,19033,48230,text,79
32.0,14296,63541,text,79
32.0,14222,133187,text,79
32.0,4760,138956,text,79
32.0,26550,31105,text,79
32.0,25943,58054,text,79
32.0,9278,68337,text,79
32.0,28095,104995,text,80
32.0,1288673,1394674,text,80
32.0,3676,1483477,text,80
32.0,2428,1486907,text,80
32.0,83951,94069,text,80
32.0,128038,223122,text,80
32.0,34059,258186,text,80
32.0,29282,64460,text,81
32.0,12746,78218,text,81
32.0,4177,239635,text,81
32.0,69316,309956,text,81
32.0,35094,346055,text,81
32.0,60510,407570,text,81
32.0,30464,439041,text,81
32.0,22270,30123,text,81
32.0,15796,46921,text,81
32.0,5861,53785,text,81
32.0,19322,24636,text,82
32.0,29455,55098,text,82
32.0,11544,67650,text,82
32.0,26288,56890,text,82
32.0,11367,69270,text,82
32.0,7232,148185,text,82
32.0,3959,153149,text,82
32.0,19275,86445,text,83
32.0,50508,137959,text,83
32.0,10717,182347,text,83
32.0,33385,216739,text,83
32.0,27641,245384,text,83
32.0,16550,262938,text,83
32.0,17708,281652,text,83
32.0,10013,16352,text,83
32.0,17701,35056,text,83
32.0,13687,49752,text,83
32.0,17029,24209,text,84
32.0,7997,33211,text,84
32.0,13555,47768,text,84
32.0,20513,84216,text,84
32.0,11504,96724,text,84
17.0,7096,158056,text,84
32.0,37337,196397,text,84
39.0,42327,239727,text,84
39.0,37124,277854,text,84
39.0,19034,297892,text,84
32.0,5236,31087,text,85
32.0,7475,39567,text,85
32.0,10878,76765,text,85
32.0,6727,84495,text,85
32.0,7356,92854,text,85
32.0,8730,102588,text,85
32.0,2444,106038,text,85
32.0,8917,11860,text,85
32.0,4895,17760,text,85
32.0,7271,26034,text,85
32.0,56175,68790,text,86
32.0,24045,93853,text,86
32.0,7129,101997,text,86
32.0,22305,64489,text,86
32.0,6201,71706,text,86
32.0,6970,110410,text,86
32.0,5541,116955,text,86
32.0,20897,27948,text,87
32.0,24772,53722,text,87
32.0,6494,61226,text,87
32.0,2153,5366,text,87
17.0,2517,8885,text,87
32.0,17639,62291,text,87
32.0,3449,66743,text,87
32.0,24188,61525,text,88
32.0,9978,72515,text,88
17.0,8683,144684,text,88
32.0,8803,154490,text,88
32.0,14831,64235,text,89
32.0,6946,72184,text,89
32.0,8356,117088,text,89
32.0,3532,121623,text,89
32.0,21005,30491,text,89
32.0,19386,50885,text,89
32.0,8973,60861,text,89
32.0,30365,36756,text,90
32.0,29109,66869,text,90
32.0,8209,76079,text,90
32.0,4400,7413,text,90
32.0,6560,14974,text,90
32.0,2909,44558,text,90
32.0,778970,824529,text,90
32.0,11764,63268,text,91
32.0,7759,72034,text,91
32.0,10699,162006,text,91
32.0,38831,201846,text,91
32.0,20573,223424,text,91
32.0,31609,256039,text,91
32.0,10369,267410,text,91
32.0,9082,16153,text,91
32.0,12754,29916,text,91
32.0,9996,40920,text,91
32.0,14108,48276,text,92
32.0,19144,68424,text,92
32.0,10412,124055,text,92
32.0,53577,178637,text,92
32.0,29786,209427,text,92
32.0,32128,242562,text,92
32.0,19894,263458,text,92
32.0,14618,21411,text,92
32.0,11214,33634,text,92
32.0,4945,39589,text,92
32.0,19288,70963,text,93
32.0,10422,82387,text,93
32.0,13140,173884,text,93
32.0,71980,246868,text,93
32.0,44392,292264,text,93
32.0,26618,319890,text,93
32.0,16377,337271,text,93
32.0,10915,15997,text,93
32.0,11186,28186,text,93
32.0,6812,36001,text,93
32.0,24188,109230,text,94
32.0,18136,128370,text,94
32.0,16368,203232,text,94
32.0,60343,264578,text,94
32.0,46687,312268,text,94
32.0,57449,370717,text,94
32.0,31991,403710,text,94
32.0,27769,36583,text,94
32.0,24795,62874,text,94
32.0,13625,77538,text,94
32.0,18109,122446,text,95
32.0,20585,144036,text,95
32.0,21716,456526,text,95
32.0,52106,509636,text,95
32.0,64914,575556,text,95
32.0,90106,666664,text,95
32.0,21619,689289,text,95
32.0,21999,28506,text,95
32.0,23027,52536,text,95
32.0,36365,89911,text,95
32.0,5250,10632,text,96
32.0,7622,19262,text,96
32.0,8614,28882,text,96
32.0,18823,62119,text,96
32.0,7415,70537,text,96
32.0,11055,116987,text,96
32.0,15368,133358,text,96
32.0,22145,156505,text,96
32.0,23555,181071,text,96
32.0,11282,193355,text,96
32.0,30654,87503,text,97
32.0,13794,102303,text,97
32.0,11742,138362,text,97
32.0,61686,201054,text,97
32.0,25949,228009,text,97
32.0,51577,280590,text,97
32.0,27786,309383,text,97
32.0,18991,69548,text,98
32.0,9200,79754,text,98
32.0,14818,134299,text,98
32.0,50214,185518,text,98
32.0,27195,213720,text,98
32.0,38493,253215,text,98
32.0,38484,292703,text,98
32.0,24516,31618,text,98
32.0,19329,51954,text,98
32.0,13898,66863,text,98
32.0,11318,17251,text,99
32.0,11167,29419,text,99
32.0,2707,33128,text,99
32.0,15840,33055,text,99
32.0,38736,72792,text,99
17.0,18022,167608,text,99
32.0,23591,192201,text,99
32.0,16157,209359,text,99
32.0,18391,228752,text,99
32.0,9607,239360,text,99
32.0,21353,67135,text,100
32.0,20211,88350,text,100
17.0,26752,181653,text,100
39.0,105876,288533,text,100
32.0,25818,315356,text,100
32.0,18357,334716,text,100
32.0,41724,377445,text,100
32.0,10013,14746,text,100
32.0,7237,22999,text,100
32.0,13582,37583,text,100
32.0,11556,18351,text,101
32.0,26828,46182,text,101
32.0,37754,84939,text,101
32.0,273419,373167,text,101
32.0,9124,383297,text,101
32.0,14671,452070,text,101
32.0,37271,490342,text,101
32.0,29318,520662,text,101
32.0,33987,555650,text,101
32.0,11140,567792,text,101
32.0,11639,37719,text,102
32.0,4612,43338,text,102
77.0,5565,78684,text,102
32.0,20165,99859,text,102
32.0,19249,120117,text,102
40.0,25357,146480,text,102
32.0,6747,154234,text,102
32.0,1658,6009,text,103
32.0,2405,9419,text,103
32.0,6569,42711,text,103
32.0,2521,46237,text,103
32.0,2978,50219,text,103
32.0,15789,67015,text,103
32.0,13347,81368,text,103
17.0,23672,96910,text,104
32.0,47837,145749,text,104
32.0,6961,371636,text,104
32.0,1909,374548,text,104
17.0,42105,47658,text,104
32.0,88819,137480,text,104
32.0,39493,177975,text,104
32.0,2076,5536,text,105
32.0,1760,8312,text,105
32.0,3545,12873,text,105
32.0,118120,196493,text,105
32.0,17588,215098,text,105
32.0,115864,430708,text,105
32.0,72859,504618,text,105
38.0,125384,631027,text,105
37.0,13516,645579,text,105
32.0,32748,679370,text,105
32.0,23666,27006,text,106
32.0,16582,44596,text,106
32.0,6974,52577,text,106
32.0,8212,33327,text,106
32.0,4299,38632,text,106
91.0,5799,61331,text,106
32.0,43741,106075,text,106
32.0,13369,22444,text,107
32.0,17897,41346,text,107
32.0,9765,52114,text,107
32.0,258847,330046,text,107
32.0,25195,356245,text,107
32.0,7460,1370562,text,107
32.0,48185,1419755,text,107
32.0,38900,1459658,text,107
32.0,46731,1507393,text,107
17.0,16772,1525169,text,107
32.0,41605,90443,text,108
32.0,10229,101678,text,108
32.0,5545,159839,text,108
32.0,14331,175173,text,108
32.0,2400,8016,text,109
32.0,6834,15860,text,109
32.0,7030,23908,text,109
32.0,3014,9848,text,109
18.0,12582,23470,text,109
32.0,4692,128930,text,109
32.0,76628,206590,text,109
32.0,57378,264984,text,109
32.0,29906,295922,text,109
32.0,16600,313558,text,109
32.0,26805,36927,text,110
32.0,34379,72314,text,110
32.0,14144,87460,text,110
32.0,31166,84526,text,110
32.0,14289,99818,text,110
32.0,11025,159287,text,110
32.0,34943,195234,text,110
32.0,47342,243576,text,110
37.0,46797,291377,text,110
32.0,32383,324762,text,110
32.0,12168,15430,text,111
32.0,10258,26691,text,111
32.0,5772,33474,text,111
32.0,7686,45872,text,111
32.0,3282,50169,text,111
32.0,10371,112162,text,111
32.0,1554,114720,text,111
32.0,4951,10155,text,112
32.0,6644,17801,text,112
32.0,13814,32618,text,112
32.0,21046,86174,text,112
32.0,13181,100358,text,112
32.0,12539,139747,text,112
32.0,42489,183241,text,112
32.0,32788,217035,text,112
32.0,64905,282946,text,112
32.0,16615,300568,text,112
32.0,15852,61322,text,113
32.0,9300,71629,text,113
32.0,8885,108626,text,113
32.0,22946,132576,text,113
32.0,25602,159185,text,113
32.0,28401,188592,text,113
32.0,9133,198732,text,113
32.0,24781,31852,text,114
32.0,13167,46024,text,114
32.0,7299,54333,text,114
32.0,25605,99471,text,114
32.0,10820,111295,text,114
32.0,18105,180361,text,114
32.0,35308,216678,text,114
32.0,39180,256861,text,114
32.0,30112,287985,text,114
32.0,21274,310268,text,114
32.0,42796,118097,text,115
32.0,21383,140496,text,115
32.0,36919,282346,text,115
32.0,47582,330931,text,115
32.0,35758,367693,text,115
32.0,39354,408051,text,115
32.0,26306,435361,text,115
32.0,28642,39683,text,115
32.0,38056,78743,text,115
32.0,13590,93334,text,115
32.0,2987,36169,text,116
32.0,1749,38920,text,116
32.0,1093,41015,text,116
32.0,4255,13920,text,116
32.0,2495,17416,text,116
32.0,3275,37056,text,116
32.0,13279,51337,text,116
32.0,6276,58616,text,116
32.0,5866,65490,text,116
32.0,3397,69887,text,116
32.0,15302,38897,text,117
32.0,7067,46968,text,117
32.0,9714,87871,text,117
32.0,12409,101286,text,117
32.0,12039,114330,text,117
32.0,48711,164045,text,117
32.0,7340,172389,text,117
32.0,18380,40241,text,118
32.0,10419,51664,text,118
32.0,16314,135222,text,118
32.0,26044,162269,text,118
32.0,19007,182278,text,118
32.0,18483,201766,text,118
32.0,6462,209229,text,118
32.0,7017,11405,text,118
32.0,18948,31357,text,118
32.0,7182,39547,text,118
32.0,55765,73298,text,119
32.0,8932,83235,text,119
32.0,11292,142513,text,119
39.0,39798,183315,text,119
32.0,15249,17419,text,120
32.0,16527,34948,text,120
32.0,25465,83003,text,120
32.0,4198,88202,text,120
32.0,15442,22801,text,120
32.0,20502,44305,text,120
32.0,7001,52312,text,120
32.0,9536,15010,text,121
32.0,8380,24392,text,121
32.0,4982,30377,text,121
32.0,36737,87482,text,121
32.0,5940,94425,text,121
32.0,12149,137906,text,121
32.0,8101,147009,text,121
32.0,3518,151529,text,121
32.0,3372,155904,text,121
32.0,4510,161417,text,121
78.0,25708,33311,text,122
32.0,20650,54967,text,122
32.0,8260,64242,text,122
32.0,17576,47603,text,122
32.0,9527,58140,text,122
32.0,6057,89335,text,122
32.0,3094,93434,text,122
32.0,27912,67748,text,123
32.0,11914,80672,text,123
32.0,11646,251986,text,123
32.0,3134,256128,text,123
32.0,32620,39496,text,123
32.0,26854,67378,text,123
32.0,7366,75750,text,123
32.0,30690,63214,text,124
32.0,19738,83959,text,124
91.0,3993,250289,text,124
32.0,62441,313737,text,124
32.0,24755,339499,text,124
32.0,35516,376021,text,124
32.0,26489,403513,text,124
32.0,15811,23413,text,124
32.0,20442,44867,text,124
32.0,10200,56074,text,124
32.0,1724,4188,text,125
32.0,11796,17006,text,125
32.0,9830,100472,text,125
32.0,4204,105684,text,125
32.0,40080,46636,text,125
32.0,31930,79580,text,125
32.0,8768,89354,text,125
32.0,16000,35497,text,126
32.0,8050,44550,text,126
32.0,6220,74014,text,126
32.0,3143,78159,text,126
32.0,18428,74458,text,127
32.0,7758,83220,text,127
32.0,5180,139496,text,127
32.0,41106,181607,text,127
32.0,25178,207787,text,127
32.0,16775,225567,text,127
32.0,16786,243356,text,127
32.0,12000,16922,text,127
32.0,7799,25731,text,127
32.0,8326,35076,text,127
32.0,1604,26709,text,128
32.0,4722,32436,text,128
32.0,6185,71875,text,128
37.0,14828,87709,text,128
32.0,25618,114334,text,128
39.0,14882,130221,text,128
32.0,1800,133028,text,128
32.0,10156,14175,text,129
32.0,4539,19717,text,129
32.0,2245,22965,text,129
32.0,16942,53247,text,129
32.0,10160,64411,text,129
32.0,9744,101484,text,129
32.0,24891,127378,text,129
32.0,25938,154318,text,129
32.0,24344,179666,text,129
32.0,11617,192285,text,129
32.0,9051,13576,text,130
32.0,16537,31115,text,130
32.0,6874,38995,text,130
32.0,473047,510124,text,130
32.0,5942,517068,text,130
32.0,12774,544993,text,130
32.0,19073,565068,text,130
32.0,97075,663146,text,130
32.0,16516,680666,text,130
32.0,9291,690960,text,130
32.0,24678,70906,text,131
32.0,22384,94293,text,131
17.0,10720,155557,text,131
32.0,4011,160571,text,131
32.0,23253,29562,text,131
32.0,23808,54371,text,131
32.0,11152,66526,text,131
32.0,8488,13049,text,132
32.0,3664,17717,text,132
32.0,5289,24008,text,132
32.0,17946,59955,text,132
32.0,9302,70259,text,132
32.0,15264,148703,text,132
32.0,24169,173876,text,132
32.0,22354,197231,text,132
32.0,28705,226938,text,132
32.0,16219,244160,text,132
32.0,29661,144810,text,133
32.0,9862,155680,text,133
32.0,9893,216161,text,133
32.0,24635,241800,text,133
32.0,22709,265512,text,133
32.0,33774,300290,text,133
32.0,18034,319328,text,133
32.0,21180,26670,text,133
32.0,27636,55312,text,133
32.0,14176,70496,text,133
32.0,48927,341795,text,134
122.0,2890,345689,text,134
32.0,60743,429685,text,134
32.0,5998,436687,text,134
32.0,47656,57502,text,134
32.0,30162,88671,text,134
32.0,14414,104088,text,134
32.0,3608,74644,text,135
32.0,10597,86244,text,135
32.0,25954,153052,text,135
32.0,4509,158564,text,135
32.0,36590,48863,text,135
32.0,34336,84206,text,135
32.0,12804,98014,text,135
91.0,7450,52448,text,136
91.0,4157,57617,text,136
32.0,20333,136919,text,136
32.0,23312,161242,text,136
32.0,15341,177591,text,136
32.0,17544,196144,text,136
32.0,8960,206115,text,136
32.0,9292,15429,text,136
32.0,11502,27941,text,136
32.0,6563,35510,text,136
32.0,16538,32546,text,137
32.0,10078,43632,text,137
32.0,9584,92552,text,137
38.0,28176,121736,text,137
38.0,8426,131166,text,137
37.0,9626,141798,text,137
37.0,19264,162070,text,137
32.0,15750,20094,text,137
32.0,17192,38292,text,137
32.0,10078,49376,text,137
32.0,12612,45391,text,138
32.0,4471,50867,text,138
32.0,6356,84084,text,138
32.0,3610,88696,text,138
32.0,17496,20713,text,138
32.0,17068,38785,text,138
32.0,6085,45875,text,138
32.0,23334,100488,text,139
32.0,17038,118540,text,139
32.0,30256,230668,text,139
39.0,99914,331596,text,139
32.0,48080,380684,text,139
37.0,36172,417858,text,139
32.0,22404,441266,text,139
32.0,28372,37068,text,140
32.0,32636,70712,text,140
32.0,11906,83638,text,140
32.0,50082,109492,text,140
32.0,25464,135974,text,140
32.0,18130,267990,text,140
32.0,35000,304014,text,140
32.0,48590,353614,text,140
32.0,41360,395988,text,140
32.0,23966,420964,text,140
32.0,21830,41168,text,141
32.0,18382,60552,text,141
32.0,11938,268682,text,141
32.0,35224,304910,text,141
32.0,13064,318978,text,141
39.0,38318,358302,text,141
39.0,20590,379894,text,141
32.0,33389,33403,text,142
32.0,16040,50453,text,142
32.0,7682,125163,text,142
32.0,1735,473215,text,142
32.0,11766,486003,text,142
32.0,20367,63026,text,143
32.0,11969,76003,text,143
32.0,15354,142261,text,143
32.0,5865,149130,text,143
32.0,2498,6333,text,143
32.0,17857,25197,text,143
32.0,3543,29742,text,143
32.0,22969,73233,text,144
32.0,14458,88695,text,144
32.0,14106,150118,text,144
32.0,49778,200902,text,144
38.0,6148,208054,text,144
32.0,35883,244943,text,144
32.0,7876,253821,text,144
32.0,16965,21158,text,145
32.0,18179,40341,text,145
32.0,11235,52579,text,145
32.0,18034,49280,text,145
32.0,7616,57898,text,145
32.0,5646,127298,text,145
32.0,2112,130411,text,145
32.0,4178,19321,text,146
32.0,3810,24139,text,146
32.0,8017,45795,text,146
32.0,12126,58932,text,146
32.0,3338,63277,text,146
32.0,10530,74811,text,146
32.0,2692,78514,text,146
32.0,2452,6701,text,146
32.0,3352,11065,text,146
32.0,2585,14657,text,146
32.0,33784,152478,text,147
32.0,18496,171982,text,147
32.0,32990,284468,text,147
38.0,63068,348554,text,147
32.0,91996,441562,text,147
32.0,95338,537904,text,147
32.0,29398,568306,text,147
32.0,13677,18128,text,148
32.0,11133,30265,text,148
32.0,5538,36807,text,148
32.0,11934,41027,text,148
32.0,14907,56942,text,148
32.0,11221,105876,text,148
32.0,33795,140677,text,148
32.0,21602,163291,text,148
32.0,21981,186281,text,148
40.0,7109,194395,text,148
32.0,12782,37017,text,149
32.0,15748,53773,text,149
32.0,3856,165977,text,149
40.0,151168,318150,text,149
32.0,67962,387118,text,149
40.0,19751,407874,text,149
32.0,6807,415686,text,149
32.0,44928,127551,text,150
32.0,23010,151568,text,150
32.0,14796,282539,text,150
32.0,5354,288895,text,150
32.0,36613,42819,text,150
32.0,89710,133542,text,150
32.0,28359,162907,text,150
32.0,2527,5912,text,151
32.0,15586,22503,text,151
32.0,11604,35114,text,151
32.0,30308,70593,text,151
32.0,16866,88469,text,151
32.0,16588,159627,text,151
39.0,34687,195318,text,151
32.0,25464,221788,text,151
40.0,37248,260046,text,151
38.0,2043,263095,text,151
32.0,46586,131562,text,152
32.0,47019,179591,text,152
32.0,14477,269941,text,152
32.0,46947,317895,text,152
32.0,40720,359621,text,152
37.0,170880,531515,text,152
32.0,36740,569274,text,152
32.0,21999,70441,text,152
32.0,30811,102259,text,152
32.0,13167,116430,text,152
32.0,17802,17810,text,153
32.0,22789,41619,text,153
32.0,11039,125937,text,153
32.0,5750,836278,text,153
32.0,11993,849279,text,153
32.0,18998,23816,text,154
32.0,21802,46648,text,154
32.0,8192,55892,text,154
32.0,19970,62806,text,154
32.0,9833,73651,text,154
32.0,10803,127245,text,154
32.0,7200,135451,text,154
32.0,20065,67379,text,155
32.0,45793,114175,text,155
32.0,10533,125712,text,155
32.0,13986,140702,text,155
32.0,4193,145900,text,155
32.0,1585,148489,text,155
