action_times,actions,block,path,queries,rewards,rt,score,simulation_mode,state_rewards,time_elapsed,trial_index,trial_time,trial_id,trial_type,pid
"[39060, 40437, 43837]","[u'right', u'right', u'down']",train_basic,"[u'0', u'5', u'6', u'8']","{u'mouseover': {u'state': {u'target': [], u'time': []}, u'edge': {u'target': [], u'time': []}}, u'click': {u'state': {u'target': [], u'time': []}, u'edge': {u'target': [], u'time': []}}, u'mouseout': {u'state': {u'target': [], u'time': []}, u'edge': {u'target': [], u'time': []}}}","[10, 5, -5]","[39056, 854, 2888]",10.0,"[None, None, None]","[u'', -5, 10, 5, -10, 10, 5, -10, -5, 5, 10, -10, 10]",48517,0.0,48141.0,-9.148803387183103e+18,mouselab-mdp,0
"[7978, 8975, 11894]","[u'left', u'left', u'up']",train_basic,"[u'0', u'9', u'10', u'11']","{u'mouseover': {u'state': {u'target': [], u'time': []}, u'edge': {u'target': [], u'time': []}}, u'click': {u'state': {u'target': [], u'time': []}, u'edge': {u'target': [], u'time': []}}, u'mouseout': {u'state': {u'target': [], u'time': []}, u'edge': {u'target': [], u'time': []}}}","[5, -5, 10]","[7974, 479, 2400]",10.0,"[None, None, None]","[u'', 10, 10, 5, 5, -10, -5, -5, -10, 5, -5, 10, 10]",63650,1.0,13990.0,8.086241799233455e+18,mouselab-mdp,0
"[5530, 6481, 7287]","[u'left', u'left', u'up']",train_basic,"[u'0', u'9', u'10', u'11']","{u'mouseover': {u'state': {u'target': [], u'time': []}, u'edge': {u'target': [], u'time': []}}, u'click': {u'state': {u'target': [], u'time': []}, u'edge': {u'target': [], u'time': []}}, u'mouseout': {u'state': {u'target': [], u'time': []}, u'edge': {u'target': [], u'time': []}}}","[10, -5, 10]","[5527, 428, 286]",15.0,"[None, None, None]","[u'', 10, -10, 5, 5, 5, 5, -5, 5, 10, -5, 10, -10]",74401,2.0,9632.0,-6.577176273229301e+18,mouselab-mdp,0
"[5587, 6950, 8054]","[u'left', u'left', u'down']",train_basic,"[u'0', u'9', u'10', u'12']","{u'mouseover': {u'state': {u'target': [], u'time': []}, u'edge': {u'target': [], u'time': []}}, u'click': {u'state': {u'target': [], u'time': []}, u'edge': {u'target': [], u'time': []}}, u'mouseout': {u'state': {u'target': [], u'time': []}, u'edge': {u'target': [], u'time': []}}}","[-5, 5, 5]","[5584, 849, 586]",5.0,"[None, None, None]","[u'', -5, 5, -10, -5, -10, -10, -10, -5, -5, 5, -5, 5]",85597,3.0,10079.0,-8.315324230000916e+18,mouselab-mdp,0
"[10279, 11265, 12237]","[u'left', u'left', u'down']",train_basic,"[u'0', u'9', u'10', u'12']","{u'mouseover': {u'state': {u'target': [], u'time': []}, u'edge': {u'target': [], u'time': []}}, u'click': {u'state': {u'target': [], u'time': []}, u'edge': {u'target': [], u'time': []}}, u'mouseout': {u'state': {u'target': [], u'time': []}, u'edge': {u'target': [], u'time': []}}}","[5, 5, 10]","[10277, 464, 454]",20.0,"[None, None, None]","[u'', 10, -5, -10, 10, -10, 10, 10, -5, 5, 5, 5, 10]",100990,4.0,14254.0,-6.044130621866826e+18,mouselab-mdp,0
"[3995, 4890, 5881]","[u'up', u'up', u'left']",train_basic,"[u'0', u'1', u'2', u'4']","{u'mouseover': {u'state': {u'target': [], u'time': []}, u'edge': {u'target': [], u'time': []}}, u'click': {u'state': {u'target': [], u'time': []}, u'edge': {u'target': [], u'time': []}}, u'mouseout': {u'state': {u'target': [], u'time': []}, u'edge': {u'target': [], u'time': []}}}","[-10, 5, 10]","[3993, 374, 482]",5.0,"[None, None, None]","[u'', -10, 5, 10, 10, -10, -5, 5, 10, -10, -10, -10, -5]",109717,5.0,7632.0,8.607347987074356e+18,mouselab-mdp,0
"[1835, 2765, 3825]","[u'left', u'left', u'down']",train_basic,"[u'0', u'9', u'10', u'12']","{u'mouseover': {u'state': {u'target': [], u'time': []}, u'edge': {u'target': [], u'time': []}}, u'click': {u'state': {u'target': [], u'time': []}, u'edge': {u'target': [], u'time': []}}, u'mouseout': {u'state': {u'target': [], u'time': []}, u'edge': {u'target': [], u'time': []}}}","[10, 10, 10]","[1833, 414, 540]",30.0,"[None, None, None]","[u'', 5, -5, -5, -5, -10, 5, 5, -10, 10, 10, 10, 10]",116281,6.0,5464.0,6.349377679140465e+18,mouselab-mdp,0
"[2459, 3350, 4320]","[u'right', u'right', u'down']",train_basic,"[u'0', u'5', u'6', u'8']","{u'mouseover': {u'state': {u'target': [], u'time': []}, u'edge': {u'target': [], u'time': []}}, u'click': {u'state': {u'target': [], u'time': []}, u'edge': {u'target': [], u'time': []}}, u'mouseout': {u'state': {u'target': [], u'time': []}, u'edge': {u'target': [], u'time': []}}}","[5, 5, 10]","[2456, 367, 450]",20.0,"[None, None, None]","[u'', 5, -5, -10, 5, 5, 5, -10, 10, -10, 5, 10, -10]",124097,7.0,6713.0,-4.2127595583966556e+18,mouselab-mdp,0
"[6296, 7249, 8106]","[u'left', u'left', u'up']",train_basic,"[u'0', u'9', u'10', u'11']","{u'mouseover': {u'state': {u'target': [], u'time': []}, u'edge': {u'target': [], u'time': []}}, u'click': {u'state': {u'target': [], u'time': []}, u'edge': {u'target': [], u'time': []}}, u'mouseout': {u'state': {u'target': [], u'time': []}, u'edge': {u'target': [], u'time': []}}}","[10, -5, 10]","[6293, 431, 339]",15.0,"[None, None, None]","[u'', -5, 5, 5, -5, 10, -10, 5, -5, 10, -5, 10, -5]",134777,8.0,9595.0,3.344637441394107e+17,mouselab-mdp,0
"[7049, 7954, 13571]","[u'up', u'up', u'left']",train_basic,"[u'0', u'1', u'2', u'4']","{u'mouseover': {u'state': {u'target': [], u'time': []}, u'edge': {u'target': [], u'time': []}}, u'click': {u'state': {u'target': [], u'time': []}, u'edge': {u'target': [], u'time': []}}, u'mouseout': {u'state': {u'target': [], u'time': []}, u'edge': {u'target': [], u'time': []}}}","[-5, 10, -5]","[7046, 383, 5118]",0.0,"[None, None, None]","[u'', -5, 10, -5, -5, -5, 5, -10, 5, -10, -10, 10, -10]",151041,9.0,15162.0,3.932980794305715e+18,mouselab-mdp,0
"[12956, 13838, 16018]","[u'up', u'up', u'left']",train_hidden,"[u'0', u'1', u'2', u'4']","{u'mouseover': {u'state': {u'target': [], u'time': []}, u'edge': {u'target': [], u'time': []}}, u'click': {u'state': {u'target': [], u'time': []}, u'edge': {u'target': [], u'time': []}}, u'mouseout': {u'state': {u'target': [], u'time': []}, u'edge': {u'target': [], u'time': []}}}","[-5, 10, -10]","[12953, 366, 1662]",-5.0,"[None, None, None]","[u'', -5, 10, 5, -10, -10, 5, -10, -10, -10, 10, 5, 10]",172524,10.0,17998.0,-2.935497867899124e+18,mouselab-mdp,0
"[426, 1261, 2070]","[u'right', u'right', u'down']",train_hidden,"[u'0', u'5', u'6', u'8']","{u'mouseover': {u'state': {u'target': [], u'time': []}, u'edge': {u'target': [], u'time': []}}, u'click': {u'state': {u'target': [], u'time': []}, u'edge': {u'target': [], u'time': []}}, u'mouseout': {u'state': {u'target': [], u'time': []}, u'edge': {u'target': [], u'time': []}}}","[5, -5, 5]","[424, 314, 291]",5.0,"[None, None, None]","[u'', 5, 5, -5, 10, 5, -5, 5, 5, 5, -5, -10, -5]",177164,11.0,3545.0,7.374792400222714e+18,mouselab-mdp,0
"[493, 1423, 2497]","[u'left', u'left', u'down']",train_hidden,"[u'0', u'9', u'10', u'12']","{u'mouseover': {u'state': {u'target': [], u'time': []}, u'edge': {u'target': [], u'time': []}}, u'click': {u'state': {u'target': [], u'time': []}, u'edge': {u'target': [], u'time': []}}, u'mouseout': {u'state': {u'target': [], u'time': []}, u'edge': {u'target': [], u'time': []}}}","[-10, -5, 10]","[492, 415, 556]",-5.0,"[None, None, None]","[u'', -5, -5, 10, 5, -5, -5, -10, -5, -10, -5, 5, 10]",181948,12.0,3691.0,-2.317078987107653e+18,mouselab-mdp,0
"[872, 2054, 3029]","[u'up', u'up', u'left']",train_hidden,"[u'0', u'1', u'2', u'4']","{u'mouseover': {u'state': {u'target': [], u'time': []}, u'edge': {u'target': [], u'time': []}}, u'click': {u'state': {u'target': [], u'time': []}, u'edge': {u'target': [], u'time': []}}, u'mouseout': {u'state': {u'target': [], u'time': []}, u'edge': {u'target': [], u'time': []}}}","[-10, -10, -10]","[870, 664, 474]",-30.0,"[None, None, None]","[u'', -10, -10, 10, -10, -5, -10, 10, 5, -5, 10, 5, -5]",187628,13.0,4583.0,5.603840126336082e+18,mouselab-mdp,0
"[1056, 2057, 3013]","[u'right', u'right', u'up']",train_hidden,"[u'0', u'5', u'6', u'7']","{u'mouseover': {u'state': {u'target': [], u'time': []}, u'edge': {u'target': [], u'time': []}}, u'click': {u'state': {u'target': [], u'time': []}, u'edge': {u'target': [], u'time': []}}, u'mouseout': {u'state': {u'target': [], u'time': []}, u'edge': {u'target': [], u'time': []}}}","[-10, 10, -10]","[1053, 492, 431]",-10.0,"[None, None, None]","[u'', 10, 10, -10, -10, -10, 10, -10, -5, 10, 5, 5, -5]",192974,14.0,4258.0,1.2413699960697694e+17,mouselab-mdp,0
"[3298, 4875, 6090]","[u'left', u'left', u'down']",train_inspector,"[u'0', u'9', u'10', u'12']","{u'mouseover': {u'state': {u'target': [], u'time': []}, u'edge': {u'target': [], u'time': []}}, u'click': {u'state': {u'target': [], u'time': []}, u'edge': {u'target': [], u'time': []}}, u'mouseout': {u'state': {u'target': [], u'time': []}, u'edge': {u'target': [], u'time': []}}}","[10, -5, 10]","[3294, 1068, 702]",15.0,"[None, None, None]","[u'', -5, 10, -5, 10, 5, 5, -10, 5, 10, -5, 10, 10]",203761,15.0,7820.0,3.8024071126860584e+16,mouselab-mdp,0
"[1835, 3231, 4676]","[u'left', u'left', u'up']",train_inspector,"[u'0', u'9', u'10', u'11']","{u'mouseover': {u'state': {u'target': [], u'time': []}, u'edge': {u'target': [], u'time': []}}, u'click': {u'state': {u'target': [], u'time': []}, u'edge': {u'target': [], u'time': []}}, u'mouseout': {u'state': {u'target': [], u'time': []}, u'edge': {u'target': [], u'time': []}}}","[10, 10, -10]","[1831, 876, 919]",10.0,"[None, None, None]","[u'', 5, 5, -5, 10, -5, -10, 10, 5, 10, 10, -10, -10]",211042,16.0,6184.0,5.938094249628056e+18,mouselab-mdp,0
"[2034, 3145, 4202]","[u'right', u'right', u'up']",train_inspector,"[u'0', u'5', u'6', u'7']","{u'mouseover': {u'state': {u'target': [], u'time': []}, u'edge': {u'target': [], u'time': []}}, u'click': {u'state': {u'target': [], u'time': []}, u'edge': {u'target': [], u'time': []}}, u'mouseout': {u'state': {u'target': [], u'time': []}, u'edge': {u'target': [], u'time': []}}}","[5, -5, 10]","[2031, 589, 547]",10.0,"[None, None, None]","[u'', -5, 10, 5, 10, 5, -5, 10, -10, 5, 10, 5, -10]",217990,17.0,5850.0,7.308726088184663e+18,mouselab-mdp,0
"[1887, 2926, 4053]","[u'left', u'left', u'down']",train_inspector,"[u'0', u'9', u'10', u'12']","{u'mouseover': {u'state': {u'target': [], u'time': []}, u'edge': {u'target': [], u'time': []}}, u'click': {u'state': {u'target': [], u'time': []}, u'edge': {u'target': [], u'time': []}}, u'mouseout': {u'state': {u'target': [], u'time': []}, u'edge': {u'target': [], u'time': []}}}","[5, -10, 5]","[1884, 526, 620]",0.0,"[None, None, None]","[u'', -5, -10, -10, 5, -10, -5, -5, -10, 5, -10, 5, 5]",224784,18.0,5706.0,7.710656893126775e+18,mouselab-mdp,0
"[1664, 2705, 3670]","[u'right', u'right', u'down']",train_inspector,"[u'0', u'5', u'6', u'8']","{u'mouseover': {u'state': {u'target': [], u'time': []}, u'edge': {u'target': [], u'time': []}}, u'click': {u'state': {u'target': [], u'time': []}, u'edge': {u'target': [], u'time': []}}, u'mouseout': {u'state': {u'target': [], u'time': []}, u'edge': {u'target': [], u'time': []}}}","[5, -10, 10]","[1661, 542, 474]",5.0,"[None, None, None]","[u'', -10, -10, -10, 5, 5, -10, -10, 10, 5, -10, -5, 5]",230993,19.0,5110.0,7.530557414679124e+18,mouselab-mdp,0
"[1687, 22770, 24153]","[u'left', u'left', u'down']",train_inspect_cost,"[u'0', u'9', u'10', u'12']","{u'mouseover': {u'state': {u'target': [], u'time': []}, u'edge': {u'target': [], u'time': []}}, u'click': {u'state': {u'target': [], u'time': []}, u'edge': {u'target': [], u'time': []}}, u'mouseout': {u'state': {u'target': [], u'time': []}, u'edge': {u'target': [], u'time': []}}}","[-5, -5, -10]","[1684, 20568, 869]",-20.0,"[None, None, None]","[u'', -5, -10, 5, 5, 5, -5, 5, -10, -5, -5, -5, -10]",259693,20.0,25885.0,-7.611027172769307e+18,mouselab-mdp,0
"[2064, 3812, 4870]","[u'up', u'up', u'left']",train_inspect_cost,"[u'0', u'1', u'2', u'4']","{u'mouseover': {u'state': {u'target': [], u'time': []}, u'edge': {u'target': [], u'time': []}}, u'click': {u'state': {u'target': [], u'time': []}, u'edge': {u'target': [], u'time': []}}, u'mouseout': {u'state': {u'target': [], u'time': []}, u'edge': {u'target': [], u'time': []}}}","[5, -5, -10]","[2062, 1234, 539]",-10.0,"[None, None, None]","[u'', 5, -5, 10, -10, 5, -10, 5, -5, -10, -10, 5, -5]",266849,21.0,6069.0,-6.260275842353281e+18,mouselab-mdp,0
"[382, 1333, 2268]","[u'right', u'right', u'down']",train_inspect_cost,"[u'0', u'5', u'6', u'8']","{u'mouseover': {u'state': {u'target': [], u'time': []}, u'edge': {u'target': [], u'time': []}}, u'click': {u'state': {u'target': [], u'time': []}, u'edge': {u'target': [], u'time': []}}, u'mouseout': {u'state': {u'target': [], u'time': []}, u'edge': {u'target': [], u'time': []}}}","[10, 5, 5]","[381, 436, 418]",20.0,"[None, None, None]","[u'', 5, -10, -5, 10, 10, 5, -10, 5, 5, -5, -5, 5]",271658,22.0,3715.0,8.034619116489217e+18,mouselab-mdp,0
"[710, 1714, 2515]","[u'left', u'left', u'up']",train_inspect_cost,"[u'0', u'9', u'10', u'11']","{u'mouseover': {u'state': {u'target': [], u'time': []}, u'edge': {u'target': [], u'time': []}}, u'click': {u'state': {u'target': [], u'time': []}, u'edge': {u'target': [], u'time': []}}, u'mouseout': {u'state': {u'target': [], u'time': []}, u'edge': {u'target': [], u'time': []}}}","[-5, 10, -5]","[707, 487, 287]",0.0,"[None, None, None]","[u'', 5, 10, -10, -10, -10, 10, 5, 5, -5, 10, -5, 10]",276372,23.0,3625.0,-7.119666741695585e+18,mouselab-mdp,0
"[779, 3449, 4247]","[u'right', u'right', u'up']",train_inspect_cost,"[u'0', u'5', u'6', u'7']","{u'mouseover': {u'state': {u'target': [], u'time': []}, u'edge': {u'target': [], u'time': []}}, u'click': {u'state': {u'target': [], u'time': []}, u'edge': {u'target': [], u'time': []}}, u'mouseout': {u'state': {u'target': [], u'time': []}, u'edge': {u'target': [], u'time': []}}}","[-10, -10, -5]","[776, 2161, 275]",-25.0,"[None, None, None]","[u'', 5, -5, -10, 10, -10, -10, -5, -5, -10, 5, -10, 5]",283047,24.0,5576.0,2.252076120381865e+18,mouselab-mdp,0
"[23450, 24987, 26884]","[u'left', u'left', u'down']",train_final,"[u'0', u'9', u'10', u'12']","{u'mouseover': {u'state': {u'target': [], u'time': []}, u'edge': {u'target': [], u'time': []}}, u'click': {u'state': {u'target': [], u'time': []}, u'edge': {u'target': [], u'time': []}}, u'mouseout': {u'state': {u'target': [], u'time': []}, u'edge': {u'target': [], u'time': []}}}","[5, -10, -10]","[23449, 1017, 1384]",-15.0,"[None, None, None]","[u'', -5, -10, 10, 5, 10, 5, 10, 5, 5, -10, -5, -10]",316557,25.0,30634.0,3.569831271632112e+18,mouselab-mdp,0
"[2104, 2959, 3892]","[u'up', u'up', u'left']",train_final,"[u'0', u'1', u'2', u'4']","{u'mouseover': {u'state': {u'target': [], u'time': []}, u'edge': {u'target': [], u'time': []}}, u'click': {u'state': {u'target': [], u'time': []}, u'edge': {u'target': [], u'time': []}}, u'mouseout': {u'state': {u'target': [], u'time': []}, u'edge': {u'target': [], u'time': []}}}","[10, 10, 10]","[2102, 338, 421]",30.0,"[None, None, None]","[u'', 10, 10, 5, 10, -10, -10, -5, -5, 10, -5, 5, 10]",322849,26.0,5197.0,-3.019010559255296e+18,mouselab-mdp,0
"[596, 1491, 2475]","[u'right', u'right', u'down']",train_final,"[u'0', u'5', u'6', u'8']","{u'mouseover': {u'state': {u'target': [], u'time': []}, u'edge': {u'target': [], u'time': []}}, u'click': {u'state': {u'target': [], u'time': []}, u'edge': {u'target': [], u'time': []}}, u'mouseout': {u'state': {u'target': [], u'time': []}, u'edge': {u'target': [], u'time': []}}}","[-10, 5, 5]","[594, 377, 462]",0.0,"[None, None, None]","[u'', -10, -5, 5, -5, -10, 5, 5, 5, 10, 5, 10, -10]",327721,27.0,3778.0,-5.4249062934784986e+17,mouselab-mdp,0
"[551, 1490, 2252]","[u'left', u'left', u'up']",train_final,"[u'0', u'9', u'10', u'11']","{u'mouseover': {u'state': {u'target': [], u'time': []}, u'edge': {u'target': [], u'time': []}}, u'click': {u'state': {u'target': [], u'time': []}, u'edge': {u'target': [], u'time': []}}, u'mouseout': {u'state': {u'target': [], u'time': []}, u'edge': {u'target': [], u'time': []}}}","[-10, -5, -10]","[549, 425, 254]",-25.0,"[None, None, None]","[u'', 5, 10, 10, -5, 5, 10, -5, 5, -10, -5, -10, 5]",332097,28.0,3274.0,5.25598264187708e+18,mouselab-mdp,0
"[965, 1788, 2860]","[u'left', u'left', u'down']",train_final,"[u'0', u'9', u'10', u'12']","{u'mouseover': {u'state': {u'target': [], u'time': []}, u'edge': {u'target': [], u'time': []}}, u'click': {u'state': {u'target': [], u'time': []}, u'edge': {u'target': [], u'time': []}}, u'mouseout': {u'state': {u'target': [], u'time': []}, u'edge': {u'target': [], u'time': []}}}","[5, -5, 10]","[963, 302, 572]",10.0,"[None, None, None]","[u'', -5, 5, 5, -10, 10, 10, 10, -5, 5, -5, 5, 10]",337456,29.0,4272.0,-2.6104954135648773e+18,mouselab-mdp,0
"[6978, 7764, 8744]","[u'left', u'left', u'down']",test,"[u'0', u'9', u'10', u'12']","{u'mouseover': {u'state': {u'target': [], u'time': []}, u'edge': {u'target': [], u'time': []}}, u'click': {u'state': {u'target': [u'9', u'5'], u'time': [1085, 3104]}, u'edge': {u'target': [], u'time': []}}, u'mouseout': {u'state': {u'target': [], u'time': []}, u'edge': {u'target': [], u'time': []}}}","[5, -10, 10]","[6976, 273, 470]",3.0,"[None, None, None]","[u'', -10, -5, -5, 5, -5, 5, 5, 5, 5, -10, 10, 10]",389318,30.0,11587.0,5.514906028833953e+18,mouselab-mdp,0
"[914, 1689, 2482]","[u'left', u'left', u'up']",test,"[u'0', u'9', u'10', u'11']","{u'mouseover': {u'state': {u'target': [], u'time': []}, u'edge': {u'target': [], u'time': []}}, u'click': {u'state': {u'target': [], u'time': []}, u'edge': {u'target': [], u'time': []}}, u'mouseout': {u'state': {u'target': [], u'time': []}, u'edge': {u'target': [], u'time': []}}}","[-10, -10, 5]","[911, 253, 282]",-15.0,"[None, None, None]","[u'', -5, 5, -5, 5, -10, 10, -5, -10, -10, -10, 5, 5]",402858,31.0,12440.0,8.808609661304966e+18,mouselab-mdp,0
"[380, 1284, 2227]","[u'right', u'right', u'up']",test,"[u'0', u'5', u'6', u'7']","{u'mouseover': {u'state': {u'target': [], u'time': []}, u'edge': {u'target': [], u'time': []}}, u'click': {u'state': {u'target': [], u'time': []}, u'edge': {u'target': [], u'time': []}}, u'mouseout': {u'state': {u'target': [], u'time': []}, u'edge': {u'target': [], u'time': []}}}","[10, -5, -5]","[378, 397, 405]",0.0,"[None, None, None]","[u'', 10, 10, -5, 5, 10, -5, -5, 5, -10, 5, -5, 10]",411676,32.0,7708.0,5.48878703662108e+18,mouselab-mdp,0
"[1133, 2239, 3156]","[u'right', u'right', u'down']",test,"[u'0', u'5', u'6', u'8']","{u'mouseover': {u'state': {u'target': [], u'time': []}, u'edge': {u'target': [], u'time': []}}, u'click': {u'state': {u'target': [], u'time': []}, u'edge': {u'target': [], u'time': []}}, u'mouseout': {u'state': {u'target': [], u'time': []}, u'edge': {u'target': [], u'time': []}}}","[10, 10, 5]","[1130, 583, 397]",25.0,"[None, None, None]","[u'', -5, -5, 10, -10, 10, 10, 10, 5, 5, -5, -10, -5]",421199,33.0,8419.0,-6.412333170858073e+18,mouselab-mdp,0
"[792, 2046, 2911]","[u'left', u'left', u'up']",test,"[u'0', u'9', u'10', u'11']","{u'mouseover': {u'state': {u'target': [], u'time': []}, u'edge': {u'target': [], u'time': []}}, u'click': {u'state': {u'target': [], u'time': []}, u'edge': {u'target': [], u'time': []}}, u'mouseout': {u'state': {u'target': [], u'time': []}, u'edge': {u'target': [], u'time': []}}}","[10, 10, 5]","[787, 741, 358]",25.0,"[None, None, None]","[u'', 10, 10, 10, 10, -10, -10, -10, 5, 10, 10, 5, 5]",432064,34.0,9768.0,1.1933479039128937e+18,mouselab-mdp,0
"[590, 1699, 2868]","[u'right', u'right', u'down']",test,"[u'0', u'5', u'6', u'8']","{u'mouseover': {u'state': {u'target': [], u'time': []}, u'edge': {u'target': [], u'time': []}}, u'click': {u'state': {u'target': [], u'time': []}, u'edge': {u'target': [], u'time': []}}, u'mouseout': {u'state': {u'target': [], u'time': []}, u'edge': {u'target': [], u'time': []}}}","[-10, 10, -10]","[587, 595, 647]",-10.0,"[None, None, None]","[u'', 5, 5, -10, 5, -10, 10, 5, -10, 10, -10, 10, 5]",443978,35.0,10814.0,7.494910043448008e+18,mouselab-mdp,0
"[425, 1427, 2292]","[u'left', u'left', u'up']",test,"[u'0', u'9', u'10', u'11']","{u'mouseover': {u'state': {u'target': [], u'time': []}, u'edge': {u'target': [], u'time': []}}, u'click': {u'state': {u'target': [], u'time': []}, u'edge': {u'target': [], u'time': []}}, u'mouseout': {u'state': {u'target': [], u'time': []}, u'edge': {u'target': [], u'time': []}}}","[-5, 10, -5]","[422, 460, 346]",0.0,"[None, None, None]","[u'', -5, 10, -5, 10, 5, -5, 10, 5, -5, 10, -5, -5]",455054,36.0,9987.0,7.213920450040262e+18,mouselab-mdp,0
"[290, 1026, 1763]","[u'up', u'up', u'right']",test,"[u'0', u'1', u'2', u'3']","{u'mouseover': {u'state': {u'target': [], u'time': []}, u'edge': {u'target': [], u'time': []}}, u'click': {u'state': {u'target': [], u'time': []}, u'edge': {u'target': [], u'time': []}}, u'mouseout': {u'state': {u'target': [], u'time': []}, u'edge': {u'target': [], u'time': []}}}","[-5, 5, 5]","[287, 227, 214]",5.0,"[None, None, None]","[u'', -5, 5, 5, 5, 10, 10, -10, 5, -5, 10, -10, -5]",465418,37.0,9267.0,9.142111453001215e+18,mouselab-mdp,0
"[401, 1198, 1912]","[u'left', u'left', u'up']",test,"[u'0', u'9', u'10', u'11']","{u'mouseover': {u'state': {u'target': [], u'time': []}, u'edge': {u'target': [], u'time': []}}, u'click': {u'state': {u'target': [], u'time': []}, u'edge': {u'target': [], u'time': []}}, u'mouseout': {u'state': {u'target': [], u'time': []}, u'edge': {u'target': [], u'time': []}}}","[-10, -5, 5]","[398, 307, 202]",-10.0,"[None, None, None]","[u'', -10, -10, -10, -10, 10, 5, 5, 10, -10, -5, 5, 10]",475154,38.0,8648.0,-6.516136021771222e+18,mouselab-mdp,0
"[905, 1859, 2689]","[u'right', u'right', u'up']",test,"[u'0', u'5', u'6', u'7']","{u'mouseover': {u'state': {u'target': [], u'time': []}, u'edge': {u'target': [], u'time': []}}, u'click': {u'state': {u'target': [], u'time': []}, u'edge': {u'target': [], u'time': []}}, u'mouseout': {u'state': {u'target': [], u'time': []}, u'edge': {u'target': [], u'time': []}}}","[-5, 5, -5]","[902, 428, 310]",-5.0,"[None, None, None]","[u'', -5, 10, 5, 5, -5, 5, -5, -10, 5, -5, 5, 10]",488038,39.0,11786.0,-5.812682556850434e+18,mouselab-mdp,0
"[243, 1189, 2289]","[u'up', u'up', u'right']",test,"[u'0', u'1', u'2', u'3']","{u'mouseover': {u'state': {u'target': [], u'time': []}, u'edge': {u'target': [], u'time': []}}, u'click': {u'state': {u'target': [], u'time': []}, u'edge': {u'target': [], u'time': []}}, u'mouseout': {u'state': {u'target': [], u'time': []}, u'edge': {u'target': [], u'time': []}}}","[10, -10, -5]","[241, 431, 581]",-5.0,"[None, None, None]","[u'', 10, -10, -5, -5, -10, 10, -5, 5, -5, -10, -10, -10]",497811,40.0,8638.0,-3.7612916714616883e+18,mouselab-mdp,0
"[1380, 2277, 3365]","[u'left', u'left', u'down']",test,"[u'0', u'9', u'10', u'12']","{u'mouseover': {u'state': {u'target': [], u'time': []}, u'edge': {u'target': [], u'time': []}}, u'click': {u'state': {u'target': [], u'time': []}, u'edge': {u'target': [], u'time': []}}, u'mouseout': {u'state': {u'target': [], u'time': []}, u'edge': {u'target': [], u'time': []}}}","[10, -10, 10]","[1376, 378, 566]",10.0,"[None, None, None]","[u'', -5, 5, -5, 10, -5, 5, -5, 10, 10, -10, 5, 10]",508622,41.0,9709.0,-7.97546906179963e+18,mouselab-mdp,0
"[2059, 2879, 3659]","[u'right', u'right', u'up']",test,"[u'0', u'5', u'6', u'7']","{u'mouseover': {u'state': {u'target': [], u'time': []}, u'edge': {u'target': [], u'time': []}}, u'click': {u'state': {u'target': [], u'time': []}, u'edge': {u'target': [], u'time': []}}, u'mouseout': {u'state': {u'target': [], u'time': []}, u'edge': {u'target': [], u'time': []}}}","[-10, -10, 5]","[2056, 310, 258]",-15.0,"[None, None, None]","[u'', 5, 5, 5, 5, -10, -10, 5, 10, -10, -5, -5, -5]",519766,42.0,10055.0,-5.299628366905943e+18,mouselab-mdp,0
"[862, 1793, 2807]","[u'left', u'left', u'down']",test,"[u'0', u'9', u'10', u'12']","{u'mouseover': {u'state': {u'target': [], u'time': []}, u'edge': {u'target': [], u'time': []}}, u'click': {u'state': {u'target': [], u'time': []}, u'edge': {u'target': [], u'time': []}}, u'mouseout': {u'state': {u'target': [], u'time': []}, u'edge': {u'target': [], u'time': []}}}","[-10, -5, 5]","[859, 416, 500]",-10.0,"[None, None, None]","[u'', -10, 5, 5, -5, 10, 5, -10, -10, -10, -5, -10, 5]",531846,43.0,10990.0,6.62653966049298e+17,mouselab-mdp,0
"[478, 1527, 2579]","[u'right', u'right', u'up']",test,"[u'0', u'5', u'6', u'7']","{u'mouseover': {u'state': {u'target': [], u'time': []}, u'edge': {u'target': [], u'time': []}}, u'click': {u'state': {u'target': [], u'time': []}, u'edge': {u'target': [], u'time': []}}, u'mouseout': {u'state': {u'target': [], u'time': []}, u'edge': {u'target': [], u'time': []}}}","[10, -5, 10]","[460, 535, 540]",15.0,"[None, None, None]","[u'', 5, -10, 10, -10, 10, -5, 10, 5, 5, -10, -10, -10]",543972,44.0,10936.0,-6.90593884411209e+17,mouselab-mdp,0
"[944, 1974, 3277]","[u'up', u'up', u'right']",test,"[u'0', u'1', u'2', u'3']","{u'mouseover': {u'state': {u'target': [], u'time': []}, u'edge': {u'target': [], u'time': []}}, u'click': {u'state': {u'target': [], u'time': []}, u'edge': {u'target': [], u'time': []}}, u'mouseout': {u'state': {u'target': [], u'time': []}, u'edge': {u'target': [], u'time': []}}}","[-5, 10, 5]","[940, 521, 790]",10.0,"[None, None, None]","[u'', -5, 10, 5, 10, 5, 5, -5, 5, 10, 10, 10, 5]",555970,45.0,10912.0,-6.877572132778754e+18,mouselab-mdp,0
"[580, 1549, 2378]","[u'left', u'left', u'up']",test,"[u'0', u'9', u'10', u'11']","{u'mouseover': {u'state': {u'target': [], u'time': []}, u'edge': {u'target': [], u'time': []}}, u'click': {u'state': {u'target': [], u'time': []}, u'edge': {u'target': [], u'time': []}}, u'mouseout': {u'state': {u'target': [], u'time': []}, u'edge': {u'target': [], u'time': []}}}","[-5, 10, 5]","[577, 446, 311]",10.0,"[None, None, None]","[u'', -10, 10, 10, -10, -10, -5, -10, 10, -5, 10, 5, 10]",567007,46.0,9950.0,-3.5316257003419013e+18,mouselab-mdp,0
"[449, 1067, 1788]","[u'right', u'right', u'up']",test,"[u'0', u'5', u'6', u'7']","{u'mouseover': {u'state': {u'target': [], u'time': []}, u'edge': {u'target': [], u'time': []}}, u'click': {u'state': {u'target': [], u'time': []}, u'edge': {u'target': [], u'time': []}}, u'mouseout': {u'state': {u'target': [], u'time': []}, u'edge': {u'target': [], u'time': []}}}","[10, 5, -5]","[446, 102, 204]",10.0,"[None, None, None]","[u'', 5, 10, -10, 10, 10, 5, -5, 10, -10, -5, 10, -5]",576936,47.0,8844.0,8.737010464064418e+18,mouselab-mdp,0
"[1357, 2243, 3302]","[u'up', u'up', u'left']",test,"[u'0', u'1', u'2', u'4']","{u'mouseover': {u'state': {u'target': [], u'time': []}, u'edge': {u'target': [], u'time': []}}, u'click': {u'state': {u'target': [], u'time': []}, u'edge': {u'target': [], u'time': []}}, u'mouseout': {u'state': {u'target': [], u'time': []}, u'edge': {u'target': [], u'time': []}}}","[-10, 10, 5]","[1351, 363, 538]",5.0,"[None, None, None]","[u'', -10, 10, -10, 5, -5, 5, -10, -10, 10, 10, -5, 5]",585464,48.0,7385.0,-4.940336971661e+18,mouselab-mdp,0
"[866, 1769, 2817]","[u'right', u'right', u'up']",test,"[u'0', u'5', u'6', u'7']","{u'mouseover': {u'state': {u'target': [], u'time': []}, u'edge': {u'target': [], u'time': []}}, u'click': {u'state': {u'target': [], u'time': []}, u'edge': {u'target': [], u'time': []}}, u'mouseout': {u'state': {u'target': [], u'time': []}, u'edge': {u'target': [], u'time': []}}}","[-5, 5, -10]","[863, 380, 521]",-10.0,"[None, None, None]","[u'', -5, 10, 10, 5, -5, 5, -10, 10, 10, -10, -10, -10]",597486,49.0,10918.0,7.801448459840969e+18,mouselab-mdp,0
"[1161, 1959, 2726]","[u'right', u'right', u'down']",test,"[u'0', u'5', u'6', u'8']","{u'mouseover': {u'state': {u'target': [], u'time': []}, u'edge': {u'target': [], u'time': []}}, u'click': {u'state': {u'target': [], u'time': []}, u'edge': {u'target': [], u'time': []}}, u'mouseout': {u'state': {u'target': [], u'time': []}, u'edge': {u'target': [], u'time': []}}}","[-10, 10, -10]","[1158, 277, 243]",-10.0,"[None, None, None]","[u'', 10, 10, 5, 10, -10, 10, -10, -10, -5, -10, 5, -10]",609626,50.0,11050.0,4.981813421836143e+18,mouselab-mdp,0
"[384, 1053, 1893]","[u'up', u'up', u'left']",test,"[u'0', u'1', u'2', u'4']","{u'mouseover': {u'state': {u'target': [], u'time': []}, u'edge': {u'target': [], u'time': []}}, u'click': {u'state': {u'target': [], u'time': []}, u'edge': {u'target': [], u'time': []}}, u'mouseout': {u'state': {u'target': [], u'time': []}, u'edge': {u'target': [], u'time': []}}}","[-5, 5, -5]","[381, 157, 333]",-5.0,"[None, None, None]","[u'', -5, 5, -5, -5, -10, -10, 10, -5, 10, -10, -5, 5]",621328,51.0,10600.0,8.077601249506434e+18,mouselab-mdp,0
"[376, 1163, 2304]","[u'left', u'left', u'up']",test,"[u'0', u'9', u'10', u'11']","{u'mouseover': {u'state': {u'target': [], u'time': []}, u'edge': {u'target': [], u'time': []}}, u'click': {u'state': {u'target': [], u'time': []}, u'edge': {u'target': [], u'time': []}}, u'mouseout': {u'state': {u'target': [], u'time': []}, u'edge': {u'target': [], u'time': []}}}","[10, -5, 5]","[374, 274, 645]",10.0,"[None, None, None]","[u'', -5, -10, 5, 5, -5, -10, 5, -5, 10, -5, 5, -10]",630128,52.0,7712.0,-8.166458029472813e+18,mouselab-mdp,0
"[14208, 15882, 16842]","[u'up', u'up', u'left']",test,"[u'0', u'1', u'2', u'4']","{u'mouseover': {u'state': {u'target': [], u'time': []}, u'edge': {u'target': [], u'time': []}}, u'click': {u'state': {u'target': [u'12', u'11', u'10', u'9', u'5', u'6', u'7', u'8'], u'time': [2061, 3028, 3700, 5489, 6274, 6960, 7620, 8244]}, u'edge': {u'target': [], u'time': []}}, u'mouseout': {u'state': {u'target': [], u'time': []}, u'edge': {u'target': [], u'time': []}}}","[-10, -10, -10]","[14206, 1154, 446]",-38.0,"[None, None, None]","[u'', -10, -10, -10, -10, -5, -10, -10, 10, -5, 5, -5, -5]",655338,53.0,24128.0,4.1891588108237983e+18,mouselab-mdp,0
"[542, 1379, 2353]","[u'right', u'right', u'down']",test,"[u'0', u'5', u'6', u'8']","{u'mouseover': {u'state': {u'target': [], u'time': []}, u'edge': {u'target': [], u'time': []}}, u'click': {u'state': {u'target': [], u'time': []}, u'edge': {u'target': [], u'time': []}}, u'mouseout': {u'state': {u'target': [], u'time': []}, u'edge': {u'target': [], u'time': []}}}","[10, 5, 10]","[539, 317, 454]",25.0,"[None, None, None]","[u'', 5, -10, 5, 10, 10, 5, 10, 10, 5, -10, -10, -10]",664804,54.0,8362.0,2.8266579347923113e+18,mouselab-mdp,0
"[524, 1349, 2121]","[u'left', u'left', u'up']",test,"[u'0', u'9', u'10', u'11']","{u'mouseover': {u'state': {u'target': [], u'time': []}, u'edge': {u'target': [], u'time': []}}, u'click': {u'state': {u'target': [], u'time': []}, u'edge': {u'target': [], u'time': []}}, u'mouseout': {u'state': {u'target': [], u'time': []}, u'edge': {u'target': [], u'time': []}}}","[10, 10, -5]","[521, 309, 280]",15.0,"[None, None, None]","[u'', -10, 10, 10, -5, -5, 10, -5, -10, 10, 10, -5, 10]",674648,55.0,8751.0,-4.1003180650031995e+18,mouselab-mdp,0
"[733, 1637, 2514]","[u'left', u'left', u'down']",test,"[u'0', u'9', u'10', u'12']","{u'mouseover': {u'state': {u'target': [], u'time': []}, u'edge': {u'target': [], u'time': []}}, u'click': {u'state': {u'target': [], u'time': []}, u'edge': {u'target': [], u'time': []}}, u'mouseout': {u'state': {u'target': [], u'time': []}, u'edge': {u'target': [], u'time': []}}}","[5, 5, 10]","[725, 391, 383]",20.0,"[None, None, None]","[u'', -5, 10, 5, 10, -5, -10, 10, 10, 5, 5, 5, 10]",686342,56.0,10586.0,8.130696467842232e+18,mouselab-mdp,0
"[420, 1303, 3170]","[u'right', u'right', u'down']",test,"[u'0', u'5', u'6', u'8']","{u'mouseover': {u'state': {u'target': [], u'time': []}, u'edge': {u'target': [], u'time': []}}, u'click': {u'state': {u'target': [], u'time': []}, u'edge': {u'target': [], u'time': []}}, u'mouseout': {u'state': {u'target': [], u'time': []}, u'edge': {u'target': [], u'time': []}}}","[-5, 10, 10]","[418, 367, 1354]",15.0,"[None, None, None]","[u'', -5, 5, -5, 10, -5, 10, 10, 10, -5, -10, -10, -5]",695239,57.0,7770.0,3.7409315186213e+18,mouselab-mdp,0
"[1033, 1940, 2770]","[u'left', u'left', u'up']",test,"[u'0', u'9', u'10', u'11']","{u'mouseover': {u'state': {u'target': [], u'time': []}, u'edge': {u'target': [], u'time': []}}, u'click': {u'state': {u'target': [], u'time': []}, u'edge': {u'target': [], u'time': []}}, u'mouseout': {u'state': {u'target': [], u'time': []}, u'edge': {u'target': [], u'time': []}}}","[5, 10, -5]","[1031, 384, 315]",10.0,"[None, None, None]","[u'', 5, -10, 10, -10, -5, 10, -10, 5, 5, 10, -5, -10]",707865,58.0,11502.0,-5.616229570178317e+18,mouselab-mdp,0
"[718, 1538, 2292]","[u'left', u'left', u'down']",test,"[u'0', u'9', u'10', u'12']","{u'mouseover': {u'state': {u'target': [], u'time': []}, u'edge': {u'target': [], u'time': []}}, u'click': {u'state': {u'target': [], u'time': []}, u'edge': {u'target': [], u'time': []}}, u'mouseout': {u'state': {u'target': [], u'time': []}, u'edge': {u'target': [], u'time': []}}}","[5, -10, -10]","[715, 322, 242]",-15.0,"[None, None, None]","[u'', -5, -5, 10, -5, 10, -10, 10, -10, 5, -10, 5, -10]",718590,59.0,9637.0,3.9686635761738235e+18,mouselab-mdp,0
"[81937, 84231, 85039]","[u'up', u'up', u'right']",train_basic,"[u'0', u'1', u'2', u'3']","{u'mouseover': {u'state': {u'target': [], u'time': []}, u'edge': {u'target': [], u'time': []}}, u'click': {u'state': {u'target': [], u'time': []}, u'edge': {u'target': [], u'time': []}}, u'mouseout': {u'state': {u'target': [], u'time': []}, u'edge': {u'target': [], u'time': []}}}","[10, -5, 5]","[81931, 1783, 292]",10.0,"[None, None, None]","[u'', 10, -5, 5, -5, -5, -5, -5, -5, 5, -5, 10, 5]",90257,0.0,90079.0,1.3034732393768448e+18,mouselab-mdp,1
"[16960, 17871, 19208]","[u'up', u'up', u'left']",train_basic,"[u'0', u'1', u'2', u'4']","{u'mouseover': {u'state': {u'target': [], u'time': []}, u'edge': {u'target': [], u'time': []}}, u'click': {u'state': {u'target': [], u'time': []}, u'edge': {u'target': [], u'time': []}}, u'mouseout': {u'state': {u'target': [], u'time': []}, u'edge': {u'target': [], u'time': []}}}","[10, 10, 10]","[16957, 393, 830]",30.0,"[None, None, None]","[u'', 10, 10, 10, 10, -10, -10, -10, 5, 10, 10, 5, 5]",112656,1.0,21295.0,1.1933479039128937e+18,mouselab-mdp,1
"[7313, 7920, 8609]","[u'left', u'left', u'down']",train_basic,"[u'0', u'9', u'10', u'12']","{u'mouseover': {u'state': {u'target': [], u'time': []}, u'edge': {u'target': [], u'time': []}}, u'click': {u'state': {u'target': [], u'time': []}, u'edge': {u'target': [], u'time': []}}, u'mouseout': {u'state': {u'target': [], u'time': []}, u'edge': {u'target': [], u'time': []}}}","[10, 10, 5]","[7311, 100, 171]",25.0,"[None, None, None]","[u'', -10, 10, -10, 5, -5, 5, -10, -10, 10, 10, -5, 5]",123920,2.0,10168.0,-4.940336971661e+18,mouselab-mdp,1
"[7875, 8434, 9938]","[u'up', u'up', u'right']",train_basic,"[u'0', u'1', u'2', u'3']","{u'mouseover': {u'state': {u'target': [], u'time': []}, u'edge': {u'target': [], u'time': []}}, u'click': {u'state': {u'target': [], u'time': []}, u'edge': {u'target': [], u'time': []}}, u'mouseout': {u'state': {u'target': [], u'time': []}, u'edge': {u'target': [], u'time': []}}}","[10, 5, 10]","[7872, 49, 987]",25.0,"[None, None, None]","[u'', 10, 5, 10, -5, 10, -5, -10, 10, 5, -10, 10, 5]",136312,3.0,11290.0,3.6441571471145324e+18,mouselab-mdp,1
"[7373, 8156, 8780]","[u'left', u'left', u'up']",train_basic,"[u'0', u'9', u'10', u'11']","{u'mouseover': {u'state': {u'target': [], u'time': []}, u'edge': {u'target': [], u'time': []}}, u'click': {u'state': {u'target': [], u'time': []}, u'edge': {u'target': [], u'time': []}}, u'mouseout': {u'state': {u'target': [], u'time': []}, u'edge': {u'target': [], u'time': []}}}","[5, 10, 5]","[7371, 264, 104]",20.0,"[None, None, None]","[u'', -5, 10, 5, 10, 5, -5, 10, -10, 5, 10, 5, -10]",149664,4.0,12268.0,7.308726088184663e+18,mouselab-mdp,1
"[10962, 11610, 12194]","[u'left', u'left', u'up']",train_basic,"[u'0', u'9', u'10', u'11']","{u'mouseover': {u'state': {u'target': [], u'time': []}, u'edge': {u'target': [], u'time': []}}, u'click': {u'state': {u'target': [], u'time': []}, u'edge': {u'target': [], u'time': []}}, u'mouseout': {u'state': {u'target': [], u'time': []}, u'edge': {u'target': [], u'time': []}}}","[10, 10, 5]","[10960, 130, 63]",25.0,"[None, None, None]","[u'', 5, 10, -10, -10, 10, 5, -10, 10, 10, 10, 5, -10]",164688,5.0,13930.0,-8.624537318595376e+18,mouselab-mdp,1
"[4113, 4922, 5529]","[u'left', u'left', u'up']",train_basic,"[u'0', u'9', u'10', u'11']","{u'mouseover': {u'state': {u'target': [], u'time': []}, u'edge': {u'target': [], u'time': []}}, u'click': {u'state': {u'target': [], u'time': []}, u'edge': {u'target': [], u'time': []}}, u'mouseout': {u'state': {u'target': [], u'time': []}, u'edge': {u'target': [], u'time': []}}}","[10, 5, 5]","[4111, 292, 100]",20.0,"[None, None, None]","[u'', 10, 10, -10, -10, -10, 10, -10, -5, 10, 5, 5, -5]",172808,6.0,7033.0,1.2413699960697694e+17,mouselab-mdp,1
"[12217, 12856, 13448]","[u'right', u'right', u'down']",train_basic,"[u'0', u'5', u'6', u'8']","{u'mouseover': {u'state': {u'target': [], u'time': []}, u'edge': {u'target': [], u'time': []}}, u'click': {u'state': {u'target': [], u'time': []}, u'edge': {u'target': [], u'time': []}}, u'mouseout': {u'state': {u'target': [], u'time': []}, u'edge': {u'target': [], u'time': []}}}","[5, 5, 5]","[12214, 124, 83]",15.0,"[None, None, None]","[u'', 10, -10, 5, 5, 5, 5, -5, 5, 10, -5, 10, -10]",188840,7.0,14952.0,-6.577176273229301e+18,mouselab-mdp,1
"[11066, 11690, 12306]","[u'up', u'up', u'right']",train_basic,"[u'0', u'1', u'2', u'3']","{u'mouseover': {u'state': {u'target': [], u'time': []}, u'edge': {u'target': [], u'time': []}}, u'click': {u'state': {u'target': [], u'time': []}, u'edge': {u'target': [], u'time': []}}, u'mouseout': {u'state': {u'target': [], u'time': []}, u'edge': {u'target': [], u'time': []}}}","[10, 10, 5]","[11063, 104, 103]",25.0,"[None, None, None]","[u'', 10, 10, 5, 5, -10, -5, -5, -10, 5, -5, 10, 10]",203648,8.0,13730.0,8.086241799233455e+18,mouselab-mdp,1
"[3966, 4614, 5342]","[u'left', u'left', u'down']",train_basic,"[u'0', u'9', u'10', u'12']","{u'mouseover': {u'state': {u'target': [], u'time': []}, u'edge': {u'target': [], u'time': []}}, u'click': {u'state': {u'target': [], u'time': []}, u'edge': {u'target': [], u'time': []}}, u'mouseout': {u'state': {u'target': [], u'time': []}, u'edge': {u'target': [], u'time': []}}}","[10, 10, 10]","[3963, 133, 210]",30.0,"[None, None, None]","[u'', 5, -5, -5, -5, -10, 5, 5, -10, 10, 10, 10, 10]",212160,9.0,7422.0,6.349377679140465e+18,mouselab-mdp,1
"[18758, 21469, 23278]","[u'up', u'up', u'left']",train_hidden,"[u'0', u'1', u'2', u'4']","{u'mouseover': {u'state': {u'target': [], u'time': []}, u'edge': {u'target': [], u'time': []}}, u'click': {u'state': {u'target': [], u'time': []}, u'edge': {u'target': [], u'time': []}}, u'mouseout': {u'state': {u'target': [], u'time': []}, u'edge': {u'target': [], u'time': []}}}","[-10, 5, -5]","[18756, 2207, 1298]",-10.0,"[None, None, None]","[u'', -10, 5, -10, -5, 10, 5, 5, -10, -5, 5, 10, -10]",241184,10.0,25661.0,3.5302878717738757e+18,mouselab-mdp,1
"[2488, 4320, 5495]","[u'up', u'up', u'right']",train_hidden,"[u'0', u'1', u'2', u'3']","{u'mouseover': {u'state': {u'target': [], u'time': []}, u'edge': {u'target': [], u'time': []}}, u'click': {u'state': {u'target': [], u'time': []}, u'edge': {u'target': [], u'time': []}}, u'mouseout': {u'state': {u'target': [], u'time': []}, u'edge': {u'target': [], u'time': []}}}","[-5, 5, -5]","[2486, 1313, 656]",-5.0,"[None, None, None]","[u'', -5, 5, -5, 10, -5, 10, 10, 10, -5, -10, -10, -5]",249496,11.0,7215.0,3.7409315186213e+18,mouselab-mdp,1
"[2189, 3333, 4533]","[u'right', u'right', u'up']",train_hidden,"[u'0', u'5', u'6', u'7']","{u'mouseover': {u'state': {u'target': [], u'time': []}, u'edge': {u'target': [], u'time': []}}, u'click': {u'state': {u'target': [], u'time': []}, u'edge': {u'target': [], u'time': []}}, u'mouseout': {u'state': {u'target': [], u'time': []}, u'edge': {u'target': [], u'time': []}}}","[5, -10, -10]","[2186, 626, 694]",-15.0,"[None, None, None]","[u'', -10, 10, -5, 5, 5, -10, -10, -10, -10, -5, -10, -10]",257448,12.0,6868.0,6.612009546738605e+18,mouselab-mdp,1
"[2490, 3770, 5258]","[u'left', u'left', u'down']",train_hidden,"[u'0', u'9', u'10', u'12']","{u'mouseover': {u'state': {u'target': [], u'time': []}, u'edge': {u'target': [], u'time': []}}, u'click': {u'state': {u'target': [], u'time': []}, u'edge': {u'target': [], u'time': []}}, u'mouseout': {u'state': {u'target': [], u'time': []}, u'edge': {u'target': [], u'time': []}}}","[-5, -10, 10]","[2489, 769, 973]",-5.0,"[None, None, None]","[u'', -10, -5, 10, -5, -10, 5, -10, 10, -5, -10, 5, 10]",265512,13.0,6978.0,8.491606456270313e+18,mouselab-mdp,1
"[2740, 4244, 5804]","[u'left', u'left', u'up']",train_hidden,"[u'0', u'9', u'10', u'11']","{u'mouseover': {u'state': {u'target': [], u'time': []}, u'edge': {u'target': [], u'time': []}}, u'click': {u'state': {u'target': [], u'time': []}, u'edge': {u'target': [], u'time': []}}, u'mouseout': {u'state': {u'target': [], u'time': []}, u'edge': {u'target': [], u'time': []}}}","[10, -10, -10]","[2737, 989, 1049]",-10.0,"[None, None, None]","[u'', -5, 10, 10, 5, -5, 5, -10, 10, 10, -10, -10, -10]",273928,14.0,7332.0,7.801448459840969e+18,mouselab-mdp,1
"[46034, 47449, 48569]","[u'left', u'left', u'up']",train_inspector,"[u'0', u'9', u'10', u'11']","{u'mouseover': {u'state': {u'target': [], u'time': []}, u'edge': {u'target': [], u'time': []}}, u'click': {u'state': {u'target': [u'1', u'9', u'5', u'6'], u'time': [24273, 26038, 28542, 33117]}, u'edge': {u'target': [], u'time': []}}, u'mouseout': {u'state': {u'target': [], u'time': []}, u'edge': {u'target': [], u'time': []}}}","[5, 5, -10]","[46032, 903, 607]",0.0,"[None, None, None]","[u'', 5, 5, -5, 5, 10, -10, -10, 10, 5, 5, -10, -5]",328976,15.0,50921.0,-5.368470092922741e+18,mouselab-mdp,1
"[19263, 20503, 21943]","[u'left', u'left', u'down']",train_inspector,"[u'0', u'9', u'10', u'12']","{u'mouseover': {u'state': {u'target': [], u'time': []}, u'edge': {u'target': [], u'time': []}}, u'click': {u'state': {u'target': [u'9', u'1'], u'time': [6331, 14770]}, u'edge': {u'target': [], u'time': []}}, u'mouseout': {u'state': {u'target': [], u'time': []}, u'edge': {u'target': [], u'time': []}}}","[10, 5, 10]","[19260, 720, 925]",25.0,"[None, None, None]","[u'', 10, 5, -10, 5, -5, 5, 10, -5, 10, 5, -10, 10]",353705,16.0,23638.0,-6.457953215426968e+18,mouselab-mdp,1
"[10194, 10986, 12089]","[u'right', u'right', u'down']",train_inspector,"[u'0', u'5', u'6', u'8']","{u'mouseover': {u'state': {u'target': [], u'time': []}, u'edge': {u'target': [], u'time': []}}, u'click': {u'state': {u'target': [u'5', u'1'], u'time': [3293, 4333]}, u'edge': {u'target': [], u'time': []}}, u'mouseout': {u'state': {u'target': [], u'time': []}, u'edge': {u'target': [], u'time': []}}}","[10, -5, -10]","[10191, 286, 590]",-5.0,"[None, None, None]","[u'', 10, 5, 10, 5, 10, -5, 5, -10, -5, -10, -5, -10]",368288,17.0,13505.0,-8.861839220469794e+18,mouselab-mdp,1
"[5921, 7281, 8408]","[u'up', u'up', u'right']",train_inspector,"[u'0', u'1', u'2', u'3']","{u'mouseover': {u'state': {u'target': [], u'time': []}, u'edge': {u'target': [], u'time': []}}, u'click': {u'state': {u'target': [u'9', u'5'], u'time': [2884, 3884]}, u'edge': {u'target': [], u'time': []}}, u'mouseout': {u'state': {u'target': [], u'time': []}, u'edge': {u'target': [], u'time': []}}}","[-5, 5, -10]","[5918, 848, 611]",-10.0,"[None, None, None]","[u'', -5, 5, -10, -5, -10, -10, -10, -5, -5, 5, -5, 5]",378904,18.0,9520.0,-8.315324230000916e+18,mouselab-mdp,1
"[17900, 23172, 24788]","[u'right', u'right', u'up']",train_inspector,"[u'0', u'5', u'6', u'7']","{u'mouseover': {u'state': {u'target': [], u'time': []}, u'edge': {u'target': [], u'time': []}}, u'click': {u'state': {u'target': [u'1', u'5'], u'time': [15041, 16184]}, u'edge': {u'target': [], u'time': []}}, u'mouseout': {u'state': {u'target': [], u'time': []}, u'edge': {u'target': [], u'time': []}}}","[10, 5, -10]","[17897, 4762, 1095]",5.0,"[None, None, None]","[u'', -5, 10, 5, -10, 10, 5, -10, -5, 5, 10, -10, 10]",406201,19.0,26213.0,-9.148803387183103e+18,mouselab-mdp,1
"[52268, 53116, 53916]","[u'left', u'left', u'down']",train_inspect_cost,"[u'0', u'9', u'10', u'12']","{u'mouseover': {u'state': {u'target': [], u'time': []}, u'edge': {u'target': [], u'time': []}}, u'click': {u'state': {u'target': [u'9', u'10', u'12'], u'time': [39424, 46440, 49055]}, u'edge': {u'target': [], u'time': []}}, u'mouseout': {u'state': {u'target': [], u'time': []}, u'edge': {u'target': [], u'time': []}}}","[5, -10, 5]","[52266, 342, 292]",-3.0,"[None, None, None]","[u'', -10, -10, -10, 5, 5, -10, -10, 10, 5, -10, -5, 5]",466040,20.0,56668.0,7.530557414679124e+18,mouselab-mdp,1
"[5772, 13988, 20180]","[u'left', u'left', u'up']",train_inspect_cost,"[u'0', u'9', u'10', u'11']","{u'mouseover': {u'state': {u'target': [], u'time': []}, u'edge': {u'target': [], u'time': []}}, u'click': {u'state': {u'target': [], u'time': []}, u'edge': {u'target': [], u'time': []}}, u'mouseout': {u'state': {u'target': [], u'time': []}, u'edge': {u'target': [], u'time': []}}}","[5, 5, 5]","[5771, 7708, 5683]",15.0,"[None, None, None]","[u'', -5, 10, 5, 10, -5, -10, 10, 10, 5, 5, 5, 10]",488928,21.0,21795.0,8.130696467842232e+18,mouselab-mdp,1
"[11988, 13716, 14796]","[u'right', u'right', u'down']",train_inspect_cost,"[u'0', u'5', u'6', u'8']","{u'mouseover': {u'state': {u'target': [], u'time': []}, u'edge': {u'target': [], u'time': []}}, u'click': {u'state': {u'target': [u'9', u'1', u'5'], u'time': [5993, 7216, 7943]}, u'edge': {u'target': [], u'time': []}}, u'mouseout': {u'state': {u'target': [], u'time': []}, u'edge': {u'target': [], u'time': []}}}","[5, -5, 5]","[11986, 1207, 570]",2.0,"[None, None, None]","[u'', 5, 5, -5, 10, 5, -5, 5, 5, 5, -5, -10, -5]",507744,22.0,17724.0,7.374792400222714e+18,mouselab-mdp,1
"[11641, 12881, 14465]","[u'right', u'right', u'up']",train_inspect_cost,"[u'0', u'5', u'6', u'7']","{u'mouseover': {u'state': {u'target': [], u'time': []}, u'edge': {u'target': [], u'time': []}}, u'click': {u'state': {u'target': [u'5'], u'time': [4350]}, u'edge': {u'target': [], u'time': []}}, u'mouseout': {u'state': {u'target': [], u'time': []}, u'edge': {u'target': [], u'time': []}}}","[10, 10, 10]","[11639, 726, 1076]",29.0,"[None, None, None]","[u'', -5, 5, 5, -10, 10, 10, 10, -5, 5, -5, 5, 10]",525176,23.0,16353.0,-2.6104954135648773e+18,mouselab-mdp,1
"[10579, 12387, 13563]","[u'right', u'right', u'down']",train_inspect_cost,"[u'0', u'5', u'6', u'8']","{u'mouseover': {u'state': {u'target': [], u'time': []}, u'edge': {u'target': [], u'time': []}}, u'click': {u'state': {u'target': [u'9', u'1'], u'time': [2110, 8135]}, u'edge': {u'target': [], u'time': []}}, u'mouseout': {u'state': {u'target': [], u'time': []}, u'edge': {u'target': [], u'time': []}}}","[10, 5, 10]","[10577, 1295, 656]",23.0,"[None, None, None]","[u'', -10, -10, -10, -10, 10, 5, 5, 10, -10, -5, 5, 10]",541201,24.0,14947.0,-6.516136021771222e+18,mouselab-mdp,1
"[55047, 56238, 57430]","[u'left', u'left', u'down']",train_final,"[u'0', u'9', u'10', u'12']","{u'mouseover': {u'state': {u'target': [], u'time': []}, u'edge': {u'target': [], u'time': []}}, u'click': {u'state': {u'target': [u'9'], u'time': [49523]}, u'edge': {u'target': [], u'time': []}}, u'mouseout': {u'state': {u'target': [], u'time': []}, u'edge': {u'target': [], u'time': []}}}","[10, 10, -10]","[55045, 676, 683]",9.0,"[None, None, None]","[u'', 5, 5, -5, 10, -5, -10, 10, 5, 10, 10, -10, -10]",603233,25.0,58919.0,5.938094249628056e+18,mouselab-mdp,1
"[6578, 7889, 8977]","[u'left', u'left', u'up']",train_final,"[u'0', u'9', u'10', u'11']","{u'mouseover': {u'state': {u'target': [], u'time': []}, u'edge': {u'target': [], u'time': []}}, u'click': {u'state': {u'target': [u'1', u'5'], u'time': [1838, 3445]}, u'edge': {u'target': [], u'time': []}}, u'mouseout': {u'state': {u'target': [], u'time': []}, u'edge': {u'target': [], u'time': []}}}","[-5, 5, -5]","[6577, 799, 570]",-7.0,"[None, None, None]","[u'', -5, 10, -5, 10, 5, 5, -10, 10, -5, 5, -5, -10]",614840,26.0,10521.0,-1.6198589960716582e+18,mouselab-mdp,1
"[9718, 11502, 12526]","[u'left', u'left', u'up']",train_final,"[u'0', u'9', u'10', u'11']","{u'mouseover': {u'state': {u'target': [], u'time': []}, u'edge': {u'target': [], u'time': []}}, u'click': {u'state': {u'target': [u'5', u'1'], u'time': [2546, 6970]}, u'edge': {u'target': [], u'time': []}}, u'mouseout': {u'state': {u'target': [], u'time': []}, u'edge': {u'target': [], u'time': []}}}","[5, -5, 5]","[9716, 1265, 507]",3.0,"[None, None, None]","[u'', -5, 10, 5, 5, -5, 5, -5, -10, 5, -5, 5, 10]",629801,27.0,13879.0,-5.812682556850434e+18,mouselab-mdp,1
"[4318, 6230, 7494]","[u'right', u'right', u'up']",train_final,"[u'0', u'5', u'6', u'7']","{u'mouseover': {u'state': {u'target': [], u'time': []}, u'edge': {u'target': [], u'time': []}}, u'click': {u'state': {u'target': [u'5'], u'time': [2026]}, u'edge': {u'target': [], u'time': []}}, u'mouseout': {u'state': {u'target': [], u'time': []}, u'edge': {u'target': [], u'time': []}}}","[10, 5, -5]","[4316, 1395, 742]",9.0,"[None, None, None]","[u'', 5, 10, -10, 10, 10, 5, -5, 10, -10, -5, 10, -5]",639768,28.0,8878.0,8.737010464064418e+18,mouselab-mdp,1
"[5774, 8454, 9574]","[u'right', u'right', u'down']",train_final,"[u'0', u'5', u'6', u'8']","{u'mouseover': {u'state': {u'target': [], u'time': []}, u'edge': {u'target': [], u'time': []}}, u'click': {u'state': {u'target': [u'9', u'1'], u'time': [2227, 4010]}, u'edge': {u'target': [], u'time': []}}, u'mouseout': {u'state': {u'target': [], u'time': []}, u'edge': {u'target': [], u'time': []}}}","[-10, -5, 10]","[5772, 2163, 601]",-7.0,"[None, None, None]","[u'', -10, 10, 10, -10, -10, -5, -10, 10, -5, 10, 5, 10]",651944,29.0,11094.0,-3.5316257003419013e+18,mouselab-mdp,1
"[11467, 13434, 16274]","[u'left', u'left', u'up']",test,"[u'0', u'9', u'10', u'11']","{u'mouseover': {u'state': {u'target': [], u'time': []}, u'edge': {u'target': [], u'time': []}}, u'click': {u'state': {u'target': [u'9'], u'time': [2991]}, u'edge': {u'target': [], u'time': []}}, u'mouseout': {u'state': {u'target': [], u'time': []}, u'edge': {u'target': [], u'time': []}}}","[5, -5, -5]","[11465, 1450, 2324]",-6.0,"[None, None, None]","[u'', 5, -10, -5, 10, 10, 5, -10, 5, 5, -5, -5, 5]",728336,30.0,20130.0,8.034619116489217e+18,mouselab-mdp,1
"[7272, 9200, 10360]","[u'left', u'left', u'down']",test,"[u'0', u'9', u'10', u'12']","{u'mouseover': {u'state': {u'target': [], u'time': []}, u'edge': {u'target': [], u'time': []}}, u'click': {u'state': {u'target': [u'5', u'9'], u'time': [2629, 4212]}, u'edge': {u'target': [], u'time': []}}, u'mouseout': {u'state': {u'target': [], u'time': []}, u'edge': {u'target': [], u'time': []}}}","[10, -5, 10]","[7270, 1410, 654]",13.0,"[None, None, None]","[u'', -5, 10, -5, 10, 5, 5, -10, 5, 10, -5, 10, 10]",741664,31.0,12248.0,3.8024071126860584e+16,mouselab-mdp,1
"[8883, 10283, 11587]","[u'right', u'right', u'up']",test,"[u'0', u'5', u'6', u'7']","{u'mouseover': {u'state': {u'target': [], u'time': []}, u'edge': {u'target': [], u'time': []}}, u'click': {u'state': {u'target': [u'1', u'9'], u'time': [4007, 6358]}, u'edge': {u'target': [], u'time': []}}, u'mouseout': {u'state': {u'target': [], u'time': []}, u'edge': {u'target': [], u'time': []}}}","[-10, -5, 5]","[8881, 894, 798]",-12.0,"[None, None, None]","[u'', -10, 5, 10, 10, -10, -5, 5, 10, -10, -10, -10, -5]",755720,32.0,12971.0,8.607347987074356e+18,mouselab-mdp,1
"[7585, 9313, 10649]","[u'left', u'left', u'up']",test,"[u'0', u'9', u'10', u'11']","{u'mouseover': {u'state': {u'target': [], u'time': []}, u'edge': {u'target': [], u'time': []}}, u'click': {u'state': {u'target': [u'1', u'5'], u'time': [3373, 4981]}, u'edge': {u'target': [], u'time': []}}, u'mouseout': {u'state': {u'target': [], u'time': []}, u'edge': {u'target': [], u'time': []}}}","[5, 10, -10]","[7583, 1215, 818]",3.0,"[None, None, None]","[u'', 5, -5, 10, -5, -5, 5, 10, -10, 5, 10, -10, 5]",769472,33.0,12665.0,4.859092002678591e+18,mouselab-mdp,1
"[3343, 4415, 5295]","[u'left', u'left', u'down']",test,"[u'0', u'9', u'10', u'12']","{u'mouseover': {u'state': {u'target': [], u'time': []}, u'edge': {u'target': [], u'time': []}}, u'click': {u'state': {u'target': [], u'time': []}, u'edge': {u'target': [], u'time': []}}, u'mouseout': {u'state': {u'target': [], u'time': []}, u'edge': {u'target': [], u'time': []}}}","[-5, -10, 10]","[3341, 555, 369]",-5.0,"[None, None, None]","[u'', -5, 5, 10, -10, 10, -10, 10, 5, -5, -10, 5, 10]",778857,34.0,8295.0,4.754602433487655e+18,mouselab-mdp,1
"[6174, 7630, 8694]","[u'up', u'up', u'right']",test,"[u'0', u'1', u'2', u'3']","{u'mouseover': {u'state': {u'target': [], u'time': []}, u'edge': {u'target': [], u'time': []}}, u'click': {u'state': {u'target': [u'5', u'9'], u'time': [1897, 3402]}, u'edge': {u'target': [], u'time': []}}, u'mouseout': {u'state': {u'target': [], u'time': []}, u'edge': {u'target': [], u'time': []}}}","[5, 10, -10]","[6171, 938, 554]",3.0,"[None, None, None]","[u'', 5, 10, -10, -10, -10, 10, 5, 5, -5, 10, -5, 10]",790392,35.0,10461.0,-7.119666741695585e+18,mouselab-mdp,1
"[4996, 6571, 7523]","[u'right', u'right', u'down']",test,"[u'0', u'5', u'6', u'8']","{u'mouseover': {u'state': {u'target': [], u'time': []}, u'edge': {u'target': [], u'time': []}}, u'click': {u'state': {u'target': [u'1', u'9'], u'time': [1903, 2999]}, u'edge': {u'target': [], u'time': []}}, u'mouseout': {u'state': {u'target': [], u'time': []}, u'edge': {u'target': [], u'time': []}}}","[-5, -10, 10]","[4993, 1053, 439]",-7.0,"[None, None, None]","[u'', -10, -10, -10, -10, -5, -10, -10, 10, -5, 5, -5, -5]",800864,36.0,9395.0,4.1891588108237983e+18,mouselab-mdp,1
"[5746, 7025, 8209]","[u'up', u'up', u'left']",test,"[u'0', u'1', u'2', u'4']","{u'mouseover': {u'state': {u'target': [], u'time': []}, u'edge': {u'target': [], u'time': []}}, u'click': {u'state': {u'target': [u'9', u'5'], u'time': [2262, 3669]}, u'edge': {u'target': [], u'time': []}}, u'mouseout': {u'state': {u'target': [], u'time': []}, u'edge': {u'target': [], u'time': []}}}","[-10, -10, -10]","[5744, 763, 665]",-32.0,"[None, None, None]","[u'', -10, -10, 10, -10, -5, -10, 10, 5, -5, 10, 5, -5]",811808,37.0,9849.0,5.603840126336082e+18,mouselab-mdp,1
"[5410, 7233, 8409]","[u'left', u'left', u'down']",test,"[u'0', u'9', u'10', u'12']","{u'mouseover': {u'state': {u'target': [], u'time': []}, u'edge': {u'target': [], u'time': []}}, u'click': {u'state': {u'target': [u'5', u'9'], u'time': [2404, 3573]}, u'edge': {u'target': [], u'time': []}}, u'mouseout': {u'state': {u'target': [], u'time': []}, u'edge': {u'target': [], u'time': []}}}","[10, -5, 10]","[5407, 1308, 668]",13.0,"[None, None, None]","[u'', 10, -10, 10, 5, -5, -5, 5, -5, 10, -5, 10, 10]",822840,38.0,9945.0,-2.528293413986772e+18,mouselab-mdp,1
"[8407, 11758, 14918]","[u'right', u'right', u'down']",test,"[u'0', u'5', u'6', u'8']","{u'mouseover': {u'state': {u'target': [], u'time': []}, u'edge': {u'target': [], u'time': []}}, u'click': {u'state': {u'target': [u'9', u'1'], u'time': [3162, 6042]}, u'edge': {u'target': [], u'time': []}}, u'mouseout': {u'state': {u'target': [], u'time': []}, u'edge': {u'target': [], u'time': []}}}","[10, 10, 5]","[8403, 2844, 2654]",23.0,"[None, None, None]","[u'', -5, 5, 5, 5, 10, 10, -10, 5, -5, 10, -10, -5]",840969,39.0,17046.0,9.142111453001215e+18,mouselab-mdp,1
"[7827, 10323, 11819]","[u'right', u'right', u'up']",test,"[u'0', u'5', u'6', u'7']","{u'mouseover': {u'state': {u'target': [], u'time': []}, u'edge': {u'target': [], u'time': []}}, u'click': {u'state': {u'target': [u'5', u'9'], u'time': [2511, 4998]}, u'edge': {u'target': [], u'time': []}}, u'mouseout': {u'state': {u'target': [], u'time': []}, u'edge': {u'target': [], u'time': []}}}","[5, -5, 5]","[7825, 1991, 987]",3.0,"[None, None, None]","[u'', -5, -10, 5, 5, 5, -5, 5, -10, -5, -5, -5, -10]",855568,40.0,13515.0,-7.611027172769307e+18,mouselab-mdp,1
"[6722, 8042, 9154]","[u'up', u'up', u'right']",test,"[u'0', u'1', u'2', u'3']","{u'mouseover': {u'state': {u'target': [], u'time': []}, u'edge': {u'target': [], u'time': []}}, u'click': {u'state': {u'target': [u'9', u'5'], u'time': [1398, 4718]}, u'edge': {u'target': [], u'time': []}}, u'mouseout': {u'state': {u'target': [], u'time': []}, u'edge': {u'target': [], u'time': []}}}","[-5, 10, -5]","[6720, 811, 607]",-2.0,"[None, None, None]","[u'', -5, 10, -5, 10, 5, -5, 10, 5, -5, 10, -5, -5]",867064,41.0,10410.0,7.213920450040262e+18,mouselab-mdp,1
"[4662, 6102, 7462]","[u'right', u'right', u'down']",test,"[u'0', u'5', u'6', u'8']","{u'mouseover': {u'state': {u'target': [], u'time': []}, u'edge': {u'target': [], u'time': []}}, u'click': {u'state': {u'target': [u'5'], u'time': [2473]}, u'edge': {u'target': [], u'time': []}}, u'mouseout': {u'state': {u'target': [], u'time': []}, u'edge': {u'target': [], u'time': []}}}","[10, 10, 5]","[4660, 930, 840]",24.0,"[None, None, None]","[u'', -5, -5, 10, -10, 10, 10, 10, 5, 5, -5, -10, -5]",877120,42.0,8974.0,-6.412333170858073e+18,mouselab-mdp,1
"[10076, 11308, 12556]","[u'up', u'up', u'left']",test,"[u'0', u'1', u'2', u'4']","{u'mouseover': {u'state': {u'target': [], u'time': []}, u'edge': {u'target': [], u'time': []}}, u'click': {u'state': {u'target': [u'9', u'5'], u'time': [6671, 7968]}, u'edge': {u'target': [], u'time': []}}, u'mouseout': {u'state': {u'target': [], u'time': []}, u'edge': {u'target': [], u'time': []}}}","[-5, -5, 5]","[10072, 718, 734]",-7.0,"[None, None, None]","[u'', -5, -5, 10, 5, -5, -5, -10, -5, -10, -5, 5, 10]",892432,43.0,14236.0,-2.317078987107653e+18,mouselab-mdp,1
"[3958, 5734, 6717]","[u'right', u'right', u'down']",test,"[u'0', u'5', u'6', u'8']","{u'mouseover': {u'state': {u'target': [], u'time': []}, u'edge': {u'target': [], u'time': []}}, u'click': {u'state': {u'target': [u'5'], u'time': [2226]}, u'edge': {u'target': [], u'time': []}}, u'mouseout': {u'state': {u'target': [], u'time': []}, u'edge': {u'target': [], u'time': []}}}","[10, -5, 5]","[3956, 1255, 474]",9.0,"[None, None, None]","[u'', 10, 10, -5, 5, 10, -5, -5, 5, -10, 5, -5, 10]",904680,44.0,11173.0,5.48878703662108e+18,mouselab-mdp,1
"[4798, 6237, 7677]","[u'left', u'left', u'down']",test,"[u'0', u'9', u'10', u'12']","{u'mouseover': {u'state': {u'target': [], u'time': []}, u'edge': {u'target': [], u'time': []}}, u'click': {u'state': {u'target': [u'5', u'9'], u'time': [1705, 3113]}, u'edge': {u'target': [], u'time': []}}, u'mouseout': {u'state': {u'target': [], u'time': []}, u'edge': {u'target': [], u'time': []}}}","[10, 5, 5]","[4794, 925, 932]",18.0,"[None, None, None]","[u'', 5, 5, -5, 10, 5, -10, -5, 10, 10, 5, 5, 5]",916144,45.0,10389.0,5.627389738084794e+17,mouselab-mdp,1
"[4632, 7336, 9976]","[u'right', u'right', u'up']",test,"[u'0', u'5', u'6', u'7']","{u'mouseover': {u'state': {u'target': [], u'time': []}, u'edge': {u'target': [], u'time': []}}, u'click': {u'state': {u'target': [u'5'], u'time': [2573]}, u'edge': {u'target': [], u'time': []}}, u'mouseout': {u'state': {u'target': [], u'time': []}, u'edge': {u'target': [], u'time': []}}}","[10, 5, 10]","[4629, 2193, 2133]",24.0,"[None, None, None]","[u'', -5, -10, 10, 5, 10, 5, 10, 5, 5, -10, -5, -10]",929256,46.0,12032.0,3.569831271632112e+18,mouselab-mdp,1
"[7020, 9636, 12028]","[u'up', u'up', u'left']",test,"[u'0', u'1', u'2', u'4']","{u'mouseover': {u'state': {u'target': [], u'time': []}, u'edge': {u'target': [], u'time': []}}, u'click': {u'state': {u'target': [u'5', u'9'], u'time': [3160, 4648]}, u'edge': {u'target': [], u'time': []}}, u'mouseout': {u'state': {u'target': [], u'time': []}, u'edge': {u'target': [], u'time': []}}}","[-10, 5, 10]","[7018, 2102, 1878]",3.0,"[None, None, None]","[u'', -10, 5, -5, 10, -10, -10, -5, 10, -10, 10, -5, -10]",943824,47.0,13492.0,-6.477964297241529e+18,mouselab-mdp,1
"[9274, 10657, 11689]","[u'right', u'right', u'down']",test,"[u'0', u'5', u'6', u'8']","{u'mouseover': {u'state': {u'target': [], u'time': []}, u'edge': {u'target': [], u'time': []}}, u'click': {u'state': {u'target': [u'9', u'5', u'1'], u'time': [2756, 4284, 6605]}, u'edge': {u'target': [], u'time': []}}, u'mouseout': {u'state': {u'target': [], u'time': []}, u'edge': {u'target': [], u'time': []}}}","[-5, -10, 10]","[9271, 869, 518]",-8.0,"[None, None, None]","[u'', -10, -5, 10, -10, -5, -10, 10, 10, -10, -5, -10, 10]",959680,48.0,14785.0,-7.342034422792319e+18,mouselab-mdp,1
"[5364, 6988, 8812]","[u'right', u'right', u'up']",test,"[u'0', u'5', u'6', u'7']","{u'mouseover': {u'state': {u'target': [], u'time': []}, u'edge': {u'target': [], u'time': []}}, u'click': {u'state': {u'target': [u'5'], u'time': [2841]}, u'edge': {u'target': [], u'time': []}}, u'mouseout': {u'state': {u'target': [], u'time': []}, u'edge': {u'target': [], u'time': []}}}","[10, 10, -5]","[5362, 1112, 1303]",14.0,"[None, None, None]","[u'', 10, 5, 10, 5, 10, 10, -5, -10, 5, -5, -10, 5]",971208,49.0,10452.0,4.3967390784059443e+18,mouselab-mdp,1
"[9651, 10795, 12123]","[u'left', u'left', u'down']",test,"[u'0', u'9', u'10', u'12']","{u'mouseover': {u'state': {u'target': [], u'time': []}, u'edge': {u'target': [], u'time': []}}, u'click': {u'state': {u'target': [u'5', u'1'], u'time': [6159, 7823]}, u'edge': {u'target': [], u'time': []}}, u'mouseout': {u'state': {u'target': [], u'time': []}, u'edge': {u'target': [], u'time': []}}}","[-10, -10, -10]","[9649, 624, 818]",-32.0,"[None, None, None]","[u'', -5, 10, -5, -5, -5, 5, -10, 5, -10, -10, 10, -10]",986264,50.0,13987.0,3.932980794305715e+18,mouselab-mdp,1
"[9059, 10559, 11567]","[u'left', u'left', u'down']",test,"[u'0', u'9', u'10', u'12']","{u'mouseover': {u'state': {u'target': [], u'time': []}, u'edge': {u'target': [], u'time': []}}, u'click': {u'state': {u'target': [u'5'], u'time': [2051]}, u'edge': {u'target': [], u'time': []}}, u'mouseout': {u'state': {u'target': [], u'time': []}, u'edge': {u'target': [], u'time': []}}}","[5, -5, 5]","[9057, 987, 498]",4.0,"[None, None, None]","[u'', -10, -5, -5, 5, -10, -10, -10, -10, 5, -5, -5, 5]",1000520,51.0,13175.0,-9.136662483728007e+18,mouselab-mdp,1
"[8078, 9655, 10951]","[u'left', u'left', u'up']",test,"[u'0', u'9', u'10', u'11']","{u'mouseover': {u'state': {u'target': [], u'time': []}, u'edge': {u'target': [], u'time': []}}, u'click': {u'state': {u'target': [u'1', u'5'], u'time': [1729, 4569]}, u'edge': {u'target': [], u'time': []}}, u'mouseout': {u'state': {u'target': [], u'time': []}, u'edge': {u'target': [], u'time': []}}}","[5, -10, 5]","[8075, 1059, 787]",-2.0,"[None, None, None]","[u'', -5, -10, -10, 5, -10, -5, -5, -10, 5, -10, 5, 5]",1014209,52.0,12607.0,7.710656893126775e+18,mouselab-mdp,1
"[6214, 7782, 9582]","[u'right', u'right', u'up']",test,"[u'0', u'5', u'6', u'7']","{u'mouseover': {u'state': {u'target': [], u'time': []}, u'edge': {u'target': [], u'time': []}}, u'click': {u'state': {u'target': [u'9', u'5'], u'time': [1689, 4329]}, u'edge': {u'target': [], u'time': []}}, u'mouseout': {u'state': {u'target': [], u'time': []}, u'edge': {u'target': [], u'time': []}}}","[10, 10, -5]","[6212, 1056, 1291]",13.0,"[None, None, None]","[u'', -5, -5, 5, 5, 10, 10, -5, 10, -10, -10, -10, 5]",1026600,53.0,11309.0,4.176600634517876e+18,mouselab-mdp,1
"[8359, 10126, 11199]","[u'left', u'left', u'down']",test,"[u'0', u'9', u'10', u'12']","{u'mouseover': {u'state': {u'target': [], u'time': []}, u'edge': {u'target': [], u'time': []}}, u'click': {u'state': {u'target': [u'5', u'9'], u'time': [5338, 6650]}, u'edge': {u'target': [], u'time': []}}, u'mouseout': {u'state': {u'target': [], u'time': []}, u'edge': {u'target': [], u'time': []}}}","[10, -5, -10]","[8355, 1260, 567]",-7.0,"[None, None, None]","[u'', -5, -10, 5, 5, -5, -10, 5, -5, 10, -5, 5, -10]",1040513,54.0,12831.0,-8.166458029472813e+18,mouselab-mdp,1
"[5347, 6723, 8115]","[u'up', u'up', u'right']",test,"[u'0', u'1', u'2', u'3']","{u'mouseover': {u'state': {u'target': [], u'time': []}, u'edge': {u'target': [], u'time': []}}, u'click': {u'state': {u'target': [u'5', u'9', u'1'], u'time': [1200, 2440, 3655]}, u'edge': {u'target': [], u'time': []}}, u'mouseout': {u'state': {u'target': [], u'time': []}, u'edge': {u'target': [], u'time': []}}}","[5, 5, 5]","[5344, 856, 881]",12.0,"[None, None, None]","[u'', 5, 5, 5, 5, -10, -10, 5, 10, -10, -5, -5, -5]",1051784,55.0,10187.0,-5.299628366905943e+18,mouselab-mdp,1
"[6080, 7616, 8824]","[u'left', u'left', u'up']",test,"[u'0', u'9', u'10', u'11']","{u'mouseover': {u'state': {u'target': [], u'time': []}, u'edge': {u'target': [], u'time': []}}, u'click': {u'state': {u'target': [u'9'], u'time': [3124]}, u'edge': {u'target': [], u'time': []}}, u'mouseout': {u'state': {u'target': [], u'time': []}, u'edge': {u'target': [], u'time': []}}}","[5, -10, 5]","[6079, 1026, 700]",-1.0,"[None, None, None]","[u'', -5, -5, 10, -5, 10, -10, 10, -10, 5, -10, 5, -10]",1063872,56.0,11016.0,3.9686635761738235e+18,mouselab-mdp,1
"[6605, 7829, 8877]","[u'up', u'up', u'left']",test,"[u'0', u'1', u'2', u'4']","{u'mouseover': {u'state': {u'target': [], u'time': []}, u'edge': {u'target': [], u'time': []}}, u'click': {u'state': {u'target': [u'5', u'9', u'1'], u'time': [1849, 3159, 4455]}, u'edge': {u'target': [], u'time': []}}, u'mouseout': {u'state': {u'target': [], u'time': []}, u'edge': {u'target': [], u'time': []}}}","[5, -10, -10]","[6603, 704, 536]",-18.0,"[None, None, None]","[u'', 5, -10, 10, -10, -5, 10, -10, 5, 5, 10, -5, -10]",1075936,57.0,10980.0,-5.616229570178317e+18,mouselab-mdp,1
"[6357, 9100, 10237]","[u'up', u'up', u'right']",test,"[u'0', u'1', u'2', u'3']","{u'mouseover': {u'state': {u'target': [], u'time': []}, u'edge': {u'target': [], u'time': []}}, u'click': {u'state': {u'target': [u'5', u'9', u'1'], u'time': [1570, 2904, 3928]}, u'edge': {u'target': [], u'time': []}}, u'mouseout': {u'state': {u'target': [], u'time': []}, u'edge': {u'target': [], u'time': []}}}","[10, -5, -10]","[6354, 2232, 619]",-8.0,"[None, None, None]","[u'', 10, -5, -10, -5, 5, 5, 10, -10, -10, 5, 10, -10]",1088568,58.0,11556.0,-8.642469369171842e+18,mouselab-mdp,1
"[6928, 8359, 9431]","[u'up', u'up', u'right']",test,"[u'0', u'1', u'2', u'3']","{u'mouseover': {u'state': {u'target': [], u'time': []}, u'edge': {u'target': [], u'time': []}}, u'click': {u'state': {u'target': [u'5', u'1', u'9'], u'time': [2291, 3619, 4795]}, u'edge': {u'target': [], u'time': []}}, u'mouseout': {u'state': {u'target': [], u'time': []}, u'edge': {u'target': [], u'time': []}}}","[5, 5, 5]","[6925, 911, 550]",12.0,"[None, None, None]","[u'', 5, 5, 5, 10, 5, -5, -5, -10, -5, -10, 10, -10]",1100776,59.0,11127.0,5.189627300054367e+18,mouselab-mdp,1
"[3779, 4926, 5590]","[u'up', u'up', u'right']",train_basic,"[u'0', u'1', u'2', u'3']","{u'mouseover': {u'state': {u'target': [], u'time': []}, u'edge': {u'target': [], u'time': []}}, u'click': {u'state': {u'target': [], u'time': []}, u'edge': {u'target': [], u'time': []}}, u'mouseout': {u'state': {u'target': [], u'time': []}, u'edge': {u'target': [], u'time': []}}}","[-5, -5, 10]","[3773, 627, 142]",0.0,"[None, None, None]","[u'', -5, -5, 10, 5, -5, -5, -10, -5, -10, -5, 5, 10]",6905,0.0,6725.0,-2.317078987107653e+18,mouselab-mdp,2
"[1216, 1980, 2577]","[u'left', u'left', u'up']",train_basic,"[u'0', u'9', u'10', u'11']","{u'mouseover': {u'state': {u'target': [], u'time': []}, u'edge': {u'target': [], u'time': []}}, u'click': {u'state': {u'target': [], u'time': []}, u'edge': {u'target': [], u'time': []}}, u'mouseout': {u'state': {u'target': [], u'time': []}, u'edge': {u'target': [], u'time': []}}}","[5, -5, 10]","[1214, 247, 76]",10.0,"[None, None, None]","[u'', -10, -5, -5, 10, 10, -5, 5, -10, 5, -5, 10, 5]",11137,1.0,3111.0,-4.641247981390103e+18,mouselab-mdp,2
"[1484, 2879, 3823]","[u'left', u'left', u'down']",train_basic,"[u'0', u'9', u'10', u'12']","{u'mouseover': {u'state': {u'target': [], u'time': []}, u'edge': {u'target': [], u'time': []}}, u'click': {u'state': {u'target': [], u'time': []}, u'edge': {u'target': [], u'time': []}}, u'mouseout': {u'state': {u'target': [], u'time': []}, u'edge': {u'target': [], u'time': []}}}","[-10, 10, 10]","[1481, 880, 425]",10.0,"[None, None, None]","[u'', -5, 10, 5, -10, -10, 5, -10, -10, -10, 10, 5, 10]",17198,2.0,4953.0,-2.935497867899124e+18,mouselab-mdp,2
"[1678, 2436, 3050]","[u'up', u'up', u'left']",train_basic,"[u'0', u'1', u'2', u'4']","{u'mouseover': {u'state': {u'target': [], u'time': []}, u'edge': {u'target': [], u'time': []}}, u'click': {u'state': {u'target': [], u'time': []}, u'edge': {u'target': [], u'time': []}}, u'mouseout': {u'state': {u'target': [], u'time': []}, u'edge': {u'target': [], u'time': []}}}","[-5, 10, 5]","[1676, 245, 92]",10.0,"[None, None, None]","[u'', -5, 10, 5, 5, -5, 5, -5, -10, 5, -5, 5, 10]",21966,3.0,3661.0,-5.812682556850434e+18,mouselab-mdp,2
"[1195, 1818, 2432]","[u'up', u'up', u'left']",train_basic,"[u'0', u'1', u'2', u'4']","{u'mouseover': {u'state': {u'target': [], u'time': []}, u'edge': {u'target': [], u'time': []}}, u'click': {u'state': {u'target': [], u'time': []}, u'edge': {u'target': [], u'time': []}}, u'mouseout': {u'state': {u'target': [], u'time': []}, u'edge': {u'target': [], u'time': []}}}","[5, 5, 5]","[1193, 107, 90]",15.0,"[None, None, None]","[u'', 5, 5, -5, 5, 10, -10, -10, 10, 5, 5, -10, -5]",26088,4.0,3019.0,-5.368470092922741e+18,mouselab-mdp,2
"[1244, 2292, 2901]","[u'left', u'left', u'down']",train_basic,"[u'0', u'9', u'10', u'12']","{u'mouseover': {u'state': {u'target': [], u'time': []}, u'edge': {u'target': [], u'time': []}}, u'click': {u'state': {u'target': [], u'time': []}, u'edge': {u'target': [], u'time': []}}, u'mouseout': {u'state': {u'target': [], u'time': []}, u'edge': {u'target': [], u'time': []}}}","[10, -10, 10]","[1241, 522, 96]",10.0,"[None, None, None]","[u'', -5, 5, -5, 10, -5, 5, -5, 10, 10, -10, 5, 10]",30944,5.0,3754.0,-7.97546906179963e+18,mouselab-mdp,2
"[720, 1362, 1901]","[u'right', u'right', u'down']",train_basic,"[u'0', u'5', u'6', u'8']","{u'mouseover': {u'state': {u'target': [], u'time': []}, u'edge': {u'target': [], u'time': []}}, u'click': {u'state': {u'target': [], u'time': []}, u'edge': {u'target': [], u'time': []}}, u'mouseout': {u'state': {u'target': [], u'time': []}, u'edge': {u'target': [], u'time': []}}}","[-10, 5, 10]","[716, 129, 17]",5.0,"[None, None, None]","[u'', -10, -5, 10, -5, -10, 5, -10, 10, -5, -10, 5, 10]",34611,6.0,2584.0,8.491606456270313e+18,mouselab-mdp,2
"[1791, 2446, 3001]","[u'up', u'up', u'left']",train_basic,"[u'0', u'1', u'2', u'4']","{u'mouseover': {u'state': {u'target': [], u'time': []}, u'edge': {u'target': [], u'time': []}}, u'click': {u'state': {u'target': [], u'time': []}, u'edge': {u'target': [], u'time': []}}, u'mouseout': {u'state': {u'target': [], u'time': []}, u'edge': {u'target': [], u'time': []}}}","[5, 5, 10]","[1789, 136, 43]",20.0,"[None, None, None]","[u'', 5, 5, 5, 10, 5, -5, -5, -10, -5, -10, 10, -10]",39421,7.0,3703.0,5.189627300054367e+18,mouselab-mdp,2
"[2613, 3271, 3802]","[u'right', u'right', u'down']",train_basic,"[u'0', u'5', u'6', u'8']","{u'mouseover': {u'state': {u'target': [], u'time': []}, u'edge': {u'target': [], u'time': []}}, u'click': {u'state': {u'target': [], u'time': []}, u'edge': {u'target': [], u'time': []}}, u'mouseout': {u'state': {u'target': [], u'time': []}, u'edge': {u'target': [], u'time': []}}}","[10, -5, 10]","[2611, 143, 6]",15.0,"[None, None, None]","[u'', 10, 5, 10, -5, 10, -5, -10, 10, 5, -10, 10, 5]",45026,8.0,4510.0,3.6441571471145324e+18,mouselab-mdp,2
"[3291, 4029, 4896]","[u'right', u'right', u'down']",train_basic,"[u'0', u'5', u'6', u'8']","{u'mouseover': {u'state': {u'target': [], u'time': []}, u'edge': {u'target': [], u'time': []}}, u'click': {u'state': {u'target': [], u'time': []}, u'edge': {u'target': [], u'time': []}}, u'mouseout': {u'state': {u'target': [], u'time': []}, u'edge': {u'target': [], u'time': []}}}","[-5, -10, 10]","[3289, 220, 352]",-5.0,"[None, None, None]","[u'', -10, -10, -10, -10, -5, -10, -10, 10, -5, 5, -5, -5]",51873,9.0,5755.0,4.1891588108237983e+18,mouselab-mdp,2
"[6871, 7868, 8787]","[u'up', u'up', u'left']",train_hidden,"[u'0', u'1', u'2', u'4']","{u'mouseover': {u'state': {u'target': [], u'time': []}, u'edge': {u'target': [], u'time': []}}, u'click': {u'state': {u'target': [], u'time': []}, u'edge': {u'target': [], u'time': []}}, u'mouseout': {u'state': {u'target': [], u'time': []}, u'edge': {u'target': [], u'time': []}}}","[10, 5, 5]","[6869, 478, 396]",20.0,"[None, None, None]","[u'', 10, 5, -10, 5, -5, 5, 10, -5, 10, 5, -10, 10]",64972,10.0,10235.0,-6.457953215426968e+18,mouselab-mdp,2
"[552, 1198, 2293]","[u'up', u'up', u'right']",train_hidden,"[u'0', u'1', u'2', u'3']","{u'mouseover': {u'state': {u'target': [], u'time': []}, u'edge': {u'target': [], u'time': []}}, u'click': {u'state': {u'target': [], u'time': []}, u'edge': {u'target': [], u'time': []}}, u'mouseout': {u'state': {u'target': [], u'time': []}, u'edge': {u'target': [], u'time': []}}}","[-10, -10, -10]","[550, 119, 581]",-30.0,"[None, None, None]","[u'', -10, -10, -10, -10, 10, 5, 5, 10, -10, -5, 5, 10]",69208,11.0,3143.0,-6.516136021771222e+18,mouselab-mdp,2
"[354, 894, 1814]","[u'left', u'left', u'down']",train_hidden,"[u'0', u'9', u'10', u'12']","{u'mouseover': {u'state': {u'target': [], u'time': []}, u'edge': {u'target': [], u'time': []}}, u'click': {u'state': {u'target': [], u'time': []}, u'edge': {u'target': [], u'time': []}}, u'mouseout': {u'state': {u'target': [], u'time': []}, u'edge': {u'target': [], u'time': []}}}","[-5, -5, -10]","[351, 18, 406]",-20.0,"[None, None, None]","[u'', -5, -10, 5, 5, 5, -5, 5, -10, -5, -5, -5, -10]",72831,12.0,2531.0,-7.611027172769307e+18,mouselab-mdp,2
"[399, 1100, 1808]","[u'right', u'right', u'up']",train_hidden,"[u'0', u'5', u'6', u'7']","{u'mouseover': {u'state': {u'target': [], u'time': []}, u'edge': {u'target': [], u'time': []}}, u'click': {u'state': {u'target': [], u'time': []}, u'edge': {u'target': [], u'time': []}}, u'mouseout': {u'state': {u'target': [], u'time': []}, u'edge': {u'target': [], u'time': []}}}","[-10, -10, -5]","[394, 177, 185]",-25.0,"[None, None, None]","[u'', -10, 5, -5, 10, -10, -10, -5, 10, -10, 10, -5, -10]",76473,13.0,2552.0,-6.477964297241529e+18,mouselab-mdp,2
"[871, 1620, 2318]","[u'up', u'up', u'left']",train_hidden,"[u'0', u'1', u'2', u'4']","{u'mouseover': {u'state': {u'target': [], u'time': []}, u'edge': {u'target': [], u'time': []}}, u'click': {u'state': {u'target': [], u'time': []}, u'edge': {u'target': [], u'time': []}}, u'mouseout': {u'state': {u'target': [], u'time': []}, u'edge': {u'target': [], u'time': []}}}","[5, -5, -10]","[868, 231, 180]",-10.0,"[None, None, None]","[u'', 5, -5, -5, -10, 10, -10, 10, -10, 5, -10, 10, -10]",80594,14.0,3037.0,-5.537817334537116e+18,mouselab-mdp,2
"[616, 6732, 7674]","[u'left', u'left', u'up']",train_inspector,"[u'0', u'9', u'10', u'11']","{u'mouseover': {u'state': {u'target': [], u'time': []}, u'edge': {u'target': [], u'time': []}}, u'click': {u'state': {u'target': [], u'time': []}, u'edge': {u'target': [], u'time': []}}, u'mouseout': {u'state': {u'target': [], u'time': []}, u'edge': {u'target': [], u'time': []}}}","[-5, -5, 10]","[614, 5595, 422]",0.0,"[None, None, None]","[u'', -5, 10, 5, -5, -10, -5, 5, -5, -5, -5, 10, -5]",92074,15.0,8731.0,6.150233340115579e+18,mouselab-mdp,2
"[10557, 11426, 11974]","[u'up', u'up', u'left']",train_inspector,"[u'0', u'1', u'2', u'4']","{u'mouseover': {u'state': {u'target': [], u'time': []}, u'edge': {u'target': [], u'time': []}}, u'click': {u'state': {u'target': [u'5', u'1', u'9', u'6', u'7', u'8', u'10', u'2', u'3', u'4', u'11', u'12'], u'time': [695, 1174, 2102, 3166, 3605, 5078, 6022, 6582, 7343, 8095, 8710, 9606]}, u'edge': {u'target': [], u'time': []}}, u'mouseout': {u'state': {u'target': [], u'time': []}, u'edge': {u'target': [], u'time': []}}}","[-10, 10, 5]","[10554, 350, 33]",5.0,"[None, None, None]","[u'', -10, 10, -5, 5, 5, -10, -10, -10, -10, -5, -10, -10]",106191,16.0,13003.0,6.612009546738605e+18,mouselab-mdp,2
"[6158, 6782, 7682]","[u'left', u'left', u'up']",train_inspector,"[u'0', u'9', u'10', u'11']","{u'mouseover': {u'state': {u'target': [], u'time': []}, u'edge': {u'target': [], u'time': []}}, u'click': {u'state': {u'target': [u'5', u'9', u'1', u'10', u'12', u'11'], u'time': [2181, 2773, 3253, 3997, 4437, 4989]}, u'edge': {u'target': [], u'time': []}}, u'mouseout': {u'state': {u'target': [], u'time': []}, u'edge': {u'target': [], u'time': []}}}","[10, -5, 5]","[6152, 103, 389]",10.0,"[None, None, None]","[u'', -5, 5, -10, -5, -5, 5, 10, -5, 10, -5, 5, -10]",115688,17.0,8404.0,8.572648276602424e+18,mouselab-mdp,2
"[3130, 3822, 4467]","[u'right', u'right', u'up']",train_inspector,"[u'0', u'5', u'6', u'7']","{u'mouseover': {u'state': {u'target': [], u'time': []}, u'edge': {u'target': [], u'time': []}}, u'click': {u'state': {u'target': [u'5', u'6', u'7'], u'time': [614, 1693, 2214]}, u'edge': {u'target': [], u'time': []}}, u'mouseout': {u'state': {u'target': [], u'time': []}, u'edge': {u'target': [], u'time': []}}}","[10, 5, 10]","[3128, 164, 127]",25.0,"[None, None, None]","[u'', 10, -5, 5, 5, 10, 5, 10, -10, 10, -10, -5, 10]",122421,18.0,5634.0,-3.683992464584856e+18,mouselab-mdp,2
"[6818, 7564, 8350]","[u'right', u'right', u'down']",train_inspector,"[u'0', u'5', u'6', u'8']","{u'mouseover': {u'state': {u'target': [], u'time': []}, u'edge': {u'target': [], u'time': []}}, u'click': {u'state': {u'target': [u'5', u'1', u'9', u'6', u'7'], u'time': [761, 1464, 3008, 4128, 4544]}, u'edge': {u'target': [], u'time': []}}, u'mouseout': {u'state': {u'target': [], u'time': []}, u'edge': {u'target': [], u'time': []}}}","[-5, -10, -5]","[6815, 226, 263]",-20.0,"[None, None, None]","[u'', -10, 10, 5, 5, -5, -10, -10, -5, -10, -10, 5, 5]",132927,19.0,9422.0,3.4622403069545196e+18,mouselab-mdp,2
"[12811, 13556, 14136]","[u'right', u'right', u'down']",train_inspect_cost,"[u'0', u'5', u'6', u'8']","{u'mouseover': {u'state': {u'target': [], u'time': []}, u'edge': {u'target': [], u'time': []}}, u'click': {u'state': {u'target': [u'5', u'6', u'7', u'9', u'1', u'8', u'2', u'3', u'4', u'11', u'10', u'12'], u'time': [669, 1707, 2259, 3157, 3599, 4517, 6526, 7127, 7781, 8365, 8813, 11957]}, u'edge': {u'target': [], u'time': []}}, u'mouseout': {u'state': {u'target': [], u'time': []}, u'edge': {u'target': [], u'time': []}}}","[5, -10, 10]","[12809, 232, 62]",-7.0,"[None, None, None]","[u'', -5, -10, -10, -5, 5, -10, -10, 10, -5, 5, -10, -10]",151008,20.0,15186.0,1.960338415622663e+18,mouselab-mdp,2
"[5829, 6479, 7175]","[u'left', u'left', u'up']",train_inspect_cost,"[u'0', u'9', u'10', u'11']","{u'mouseover': {u'state': {u'target': [], u'time': []}, u'edge': {u'target': [], u'time': []}}, u'click': {u'state': {u'target': [u'1', u'9', u'5', u'10', u'12', u'11'], u'time': [1450, 2083, 2578, 3194, 3644, 4659]}, u'edge': {u'target': [], u'time': []}}, u'mouseout': {u'state': {u'target': [], u'time': []}, u'edge': {u'target': [], u'time': []}}}","[10, -5, 10]","[5826, 130, 175]",9.0,"[None, None, None]","[u'', -5, 10, -5, 5, 5, -10, -10, -5, 10, -5, 10, -10]",160229,21.0,8116.0,1.0826444805002026e+18,mouselab-mdp,2
"[3428, 4066, 4625]","[u'right', u'right', u'down']",train_inspect_cost,"[u'0', u'5', u'6', u'8']","{u'mouseover': {u'state': {u'target': [], u'time': []}, u'edge': {u'target': [], u'time': []}}, u'click': {u'state': {u'target': [u'5', u'6', u'8'], u'time': [712, 1768, 2376]}, u'edge': {u'target': [], u'time': []}}, u'mouseout': {u'state': {u'target': [], u'time': []}, u'edge': {u'target': [], u'time': []}}}","[10, 10, 5]","[3426, 128, 37]",22.0,"[None, None, None]","[u'', -5, 5, 5, 5, 10, 10, -10, 5, -5, 10, -10, -5]",166745,22.0,5422.0,9.142111453001215e+18,mouselab-mdp,2
"[4853, 5514, 6190]","[u'left', u'left', u'up']",train_inspect_cost,"[u'0', u'9', u'10', u'11']","{u'mouseover': {u'state': {u'target': [], u'time': []}, u'edge': {u'target': [], u'time': []}}, u'click': {u'state': {u'target': [u'5', u'1', u'9', u'6', u'10', u'11'], u'time': [599, 1310, 1910, 2590, 3270, 3806]}, u'edge': {u'target': [], u'time': []}}, u'mouseout': {u'state': {u'target': [], u'time': []}, u'edge': {u'target': [], u'time': []}}}","[10, -5, 10]","[4850, 142, 149]",9.0,"[None, None, None]","[u'', -5, 5, 5, -5, 10, -10, 5, -5, 10, -5, 10, -5]",174752,23.0,6915.0,3.344637441394107e+17,mouselab-mdp,2
"[3763, 4447, 5038]","[u'left', u'left', u'up']",train_inspect_cost,"[u'0', u'9', u'10', u'11']","{u'mouseover': {u'state': {u'target': [], u'time': []}, u'edge': {u'target': [], u'time': []}}, u'click': {u'state': {u'target': [u'9', u'10', u'12', u'11'], u'time': [867, 1786, 2258, 2882]}, u'edge': {u'target': [], u'time': []}}, u'mouseout': {u'state': {u'target': [], u'time': []}, u'edge': {u'target': [], u'time': []}}}","[10, 5, 10]","[3760, 169, 78]",21.0,"[None, None, None]","[u'', -10, -5, 5, -5, -10, 5, 5, 5, 10, 5, 10, -10]",181727,24.0,5894.0,-5.4249062934784986e+17,mouselab-mdp,2
"[10366, 11012, 11587]","[u'left', u'left', u'down']",train_final,"[u'0', u'9', u'10', u'12']","{u'mouseover': {u'state': {u'target': [], u'time': []}, u'edge': {u'target': [], u'time': []}}, u'click': {u'state': {u'target': [u'9', u'6', u'1', u'2', u'10', u'11', u'3', u'4', u'12'], u'time': [2080, 2695, 3431, 4671, 5295, 5863, 7255, 7823, 8471]}, u'edge': {u'target': [], u'time': []}}, u'mouseout': {u'state': {u'target': [], u'time': []}, u'edge': {u'target': [], u'time': []}}}","[-5, 5, 5]","[10364, 121, 62]",-4.0,"[None, None, None]","[u'', -5, 5, -10, -5, -10, -10, -10, -5, -5, 5, -5, 5]",198534,25.0,14066.0,-8.315324230000916e+18,mouselab-mdp,2
"[7019, 7653, 8397]","[u'right', u'right', u'down']",train_final,"[u'0', u'5', u'6', u'8']","{u'mouseover': {u'state': {u'target': [], u'time': []}, u'edge': {u'target': [], u'time': []}}, u'click': {u'state': {u'target': [u'1', u'9', u'5', u'12', u'10', u'6', u'7', u'8'], u'time': [1234, 1763, 2524, 3284, 3739, 4355, 5066, 5755]}, u'edge': {u'target': [], u'time': []}}, u'mouseout': {u'state': {u'target': [], u'time': []}, u'edge': {u'target': [], u'time': []}}}","[10, 5, 10]","[7015, 117, 228]",17.0,"[None, None, None]","[u'', 5, 10, -10, -10, 10, 5, -10, 10, 10, 10, 5, -10]",208805,26.0,9163.0,-8.624537318595376e+18,mouselab-mdp,2
"[5857, 6498, 7095]","[u'right', u'right', u'down']",train_final,"[u'0', u'5', u'6', u'8']","{u'mouseover': {u'state': {u'target': [], u'time': []}, u'edge': {u'target': [], u'time': []}}, u'click': {u'state': {u'target': [u'9', u'1', u'5', u'7', u'6', u'8'], u'time': [1332, 1764, 2180, 3100, 3499, 5019]}, u'edge': {u'target': [], u'time': []}}, u'mouseout': {u'state': {u'target': [], u'time': []}, u'edge': {u'target': [], u'time': []}}}","[10, 5, 10]","[5855, 120, 83]",19.0,"[None, None, None]","[u'', 5, 10, -10, 10, 10, 5, -5, 10, -10, -5, 10, -5]",218034,27.0,8136.0,8.737010464064418e+18,mouselab-mdp,2
"[7948, 8586, 9184]","[u'left', u'left', u'up']",train_final,"[u'0', u'9', u'10', u'11']","{u'mouseover': {u'state': {u'target': [], u'time': []}, u'edge': {u'target': [], u'time': []}}, u'click': {u'state': {u'target': [u'5', u'1', u'9', u'2', u'10', u'3', u'4', u'12', u'11'], u'time': [829, 1357, 1909, 2717, 3310, 3958, 5221, 6140, 7045]}, u'edge': {u'target': [], u'time': []}}, u'mouseout': {u'state': {u'target': [], u'time': []}, u'edge': {u'target': [], u'time': []}}}","[10, 5, 5]","[7946, 112, 76]",11.0,"[None, None, None]","[u'', 10, 10, -10, -10, -10, 10, -10, -5, 10, 5, 5, -5]",229502,28.0,10382.0,1.2413699960697694e+17,mouselab-mdp,2
"[4693, 5368, 6093]","[u'right', u'right', u'up']",train_final,"[u'0', u'5', u'6', u'7']","{u'mouseover': {u'state': {u'target': [], u'time': []}, u'edge': {u'target': [], u'time': []}}, u'click': {u'state': {u'target': [u'9', u'1', u'5', u'6', u'7'], u'time': [1254, 1717, 2212, 3245, 3877]}, u'edge': {u'target': [], u'time': []}}, u'mouseout': {u'state': {u'target': [], u'time': []}, u'edge': {u'target': [], u'time': []}}}","[10, 10, 10]","[4691, 160, 201]",25.0,"[None, None, None]","[u'', -5, 5, 5, -10, 10, 10, 10, -5, 5, -5, 5, 10]",237874,29.0,7273.0,-2.6104954135648773e+18,mouselab-mdp,2
"[5151, 5941, 6811]","[u'right', u'right', u'up']",test,"[u'0', u'5', u'6', u'7']","{u'mouseover': {u'state': {u'target': [], u'time': []}, u'edge': {u'target': [], u'time': []}}, u'click': {u'state': {u'target': [u'1', u'5', u'9', u'6', u'7'], u'time': [1057, 1688, 2298, 2935, 3983]}, u'edge': {u'target': [], u'time': []}}, u'mouseout': {u'state': {u'target': [], u'time': []}, u'edge': {u'target': [], u'time': []}}}","[10, 10, 5]","[5147, 268, 355]",20.0,"[None, None, None]","[u'', -10, -5, -5, 10, 10, 10, 5, -5, -5, 10, 5, 10]",261611,30.0,10357.0,-2.464562972607473e+18,mouselab-mdp,2
"[5451, 6184, 6872]","[u'up', u'up', u'left']",test,"[u'0', u'1', u'2', u'4']","{u'mouseover': {u'state': {u'target': [], u'time': []}, u'edge': {u'target': [], u'time': []}}, u'click': {u'state': {u'target': [u'5', u'1', u'9', u'2', u'4'], u'time': [736, 1488, 2095, 3521, 4177]}, u'edge': {u'target': [], u'time': []}}, u'mouseout': {u'state': {u'target': [], u'time': []}, u'edge': {u'target': [], u'time': []}}}","[5, -5, 10]","[5447, 218, 171]",5.0,"[None, None, None]","[u'', 5, -5, -10, 10, -10, -10, -5, -5, -10, 5, -10, 5]",272820,31.0,10109.0,2.252076120381865e+18,mouselab-mdp,2
"[4442, 5271, 6136]","[u'right', u'right', u'up']",test,"[u'0', u'5', u'6', u'7']","{u'mouseover': {u'state': {u'target': [], u'time': []}, u'edge': {u'target': [], u'time': []}}, u'click': {u'state': {u'target': [u'9', u'1', u'5', u'6', u'7'], u'time': [593, 1351, 1903, 2664, 3464]}, u'edge': {u'target': [], u'time': []}}, u'mouseout': {u'state': {u'target': [], u'time': []}, u'edge': {u'target': [], u'time': []}}}","[10, 10, 10]","[4439, 305, 353]",25.0,"[None, None, None]","[u'', -5, -5, 10, -10, 10, 10, 10, 5, 5, -5, -10, -5]",281977,32.0,8049.0,-6.412333170858073e+18,mouselab-mdp,2
"[6880, 7520, 8225]","[u'up', u'up', u'left']",test,"[u'0', u'1', u'2', u'4']","{u'mouseover': {u'state': {u'target': [], u'time': []}, u'edge': {u'target': [], u'time': []}}, u'click': {u'state': {u'target': [u'5', u'1', u'9', u'2', u'4', u'3'], u'time': [955, 1610, 2323, 3523, 4930, 5642]}, u'edge': {u'target': [], u'time': []}}, u'mouseout': {u'state': {u'target': [], u'time': []}, u'edge': {u'target': [], u'time': []}}}","[-5, 5, 5]","[6878, 128, 185]",-1.0,"[None, None, None]","[u'', -5, 5, -5, 5, -10, 10, -5, -10, -10, -10, 5, 5]",292303,33.0,9218.0,8.808609661304966e+18,mouselab-mdp,2
"[5785, 6430, 7076]","[u'up', u'up', u'left']",test,"[u'0', u'1', u'2', u'4']","{u'mouseover': {u'state': {u'target': [], u'time': []}, u'edge': {u'target': [], u'time': []}}, u'click': {u'state': {u'target': [u'5', u'1', u'9', u'2', u'4'], u'time': [2380, 2836, 3493, 4036, 4662]}, u'edge': {u'target': [], u'time': []}}, u'mouseout': {u'state': {u'target': [], u'time': []}, u'edge': {u'target': [], u'time': []}}}","[10, -5, 10]","[5782, 132, 126]",10.0,"[None, None, None]","[u'', 10, -5, -10, 10, -10, 10, 10, -5, 5, 5, 5, 10]",302782,34.0,9387.0,-6.044130621866826e+18,mouselab-mdp,2
"[4635, 5454, 6238]","[u'right', u'right', u'up']",test,"[u'0', u'5', u'6', u'7']","{u'mouseover': {u'state': {u'target': [], u'time': []}, u'edge': {u'target': [], u'time': []}}, u'click': {u'state': {u'target': [u'1', u'9', u'5', u'6', u'7'], u'time': [857, 1481, 2193, 2905, 3632]}, u'edge': {u'target': [], u'time': []}}, u'mouseout': {u'state': {u'target': [], u'time': []}, u'edge': {u'target': [], u'time': []}}}","[10, 5, 10]","[4632, 306, 258]",20.0,"[None, None, None]","[u'', 5, -10, 5, 10, 10, 5, 10, 10, 5, -10, -10, -10]",312922,35.0,9043.0,2.8266579347923113e+18,mouselab-mdp,2
"[12943, 13618, 14224]","[u'up', u'up', u'left']",test,"[u'0', u'1', u'2', u'4']","{u'mouseover': {u'state': {u'target': [], u'time': []}, u'edge': {u'target': [], u'time': []}}, u'click': {u'state': {u'target': [u'1', u'9', u'5', u'6', u'2', u'10', u'8', u'7', u'3', u'4'], u'time': [2230, 2790, 3366, 4191, 4886, 6169, 7321, 8513, 9521, 10832]}, u'edge': {u'target': [], u'time': []}}, u'mouseout': {u'state': {u'target': [], u'time': []}, u'edge': {u'target': [], u'time': []}}}","[-10, 5, 10]","[12941, 149, 89]",-5.0,"[None, None, None]","[u'', -10, 5, 10, 10, -10, -5, 5, 10, -10, -10, -10, -5]",329370,36.0,15344.0,8.607347987074356e+18,mouselab-mdp,2
"[3915, 4751, 5498]","[u'left', u'left', u'up']",test,"[u'0', u'9', u'10', u'11']","{u'mouseover': {u'state': {u'target': [], u'time': []}, u'edge': {u'target': [], u'time': []}}, u'click': {u'state': {u'target': [u'9', u'10', u'11'], u'time': [1212, 2180, 2804]}, u'edge': {u'target': [], u'time': []}}, u'mouseout': {u'state': {u'target': [], u'time': []}, u'edge': {u'target': [], u'time': []}}}","[10, -5, 10]","[3912, 321, 235]",12.0,"[None, None, None]","[u'', -5, 10, -5, 10, 5, 5, -10, 5, 10, -5, 10, 10]",341583,37.0,11136.0,3.8024071126860584e+16,mouselab-mdp,2
"[6005, 6755, 7457]","[u'left', u'left', u'up']",test,"[u'0', u'9', u'10', u'11']","{u'mouseover': {u'state': {u'target': [], u'time': []}, u'edge': {u'target': [], u'time': []}}, u'click': {u'state': {u'target': [u'5', u'1', u'9', u'6', u'10', u'12', u'11'], u'time': [596, 1387, 2154, 3019, 3834, 4378, 5059]}, u'edge': {u'target': [], u'time': []}}, u'mouseout': {u'state': {u'target': [], u'time': []}, u'edge': {u'target': [], u'time': []}}}","[-5, 10, 5]","[6002, 233, 185]",3.0,"[None, None, None]","[u'', -10, -10, 10, -10, -5, -10, 10, 5, -5, 10, 5, -5]",352060,38.0,9388.0,5.603840126336082e+18,mouselab-mdp,2
"[10506, 11144, 11896]","[u'right', u'right', u'up']",test,"[u'0', u'5', u'6', u'7']","{u'mouseover': {u'state': {u'target': [], u'time': []}, u'edge': {u'target': [], u'time': []}}, u'click': {u'state': {u'target': [u'9', u'1', u'5', u'2', u'3', u'4', u'7', u'6', u'8'], u'time': [1684, 2387, 2828, 3836, 4284, 5452, 8004, 8539, 9148]}, u'edge': {u'target': [], u'time': []}}, u'mouseout': {u'state': {u'target': [], u'time': []}, u'edge': {u'target': [], u'time': []}}}","[-10, 10, 10]","[10502, 118, 237]",1.0,"[None, None, None]","[u'', -5, 5, 5, 5, -10, 10, 10, 5, -10, 10, -10, -5]",366230,39.0,13079.0,-8.511375057859465e+18,mouselab-mdp,2
"[3845, 4540, 5328]","[u'left', u'left', u'up']",test,"[u'0', u'9', u'10', u'11']","{u'mouseover': {u'state': {u'target': [], u'time': []}, u'edge': {u'target': [], u'time': []}}, u'click': {u'state': {u'target': [u'5', u'1', u'9', u'10', u'11'], u'time': [676, 1228, 1732, 2340, 2899]}, u'edge': {u'target': [], u'time': []}}, u'mouseout': {u'state': {u'target': [], u'time': []}, u'edge': {u'target': [], u'time': []}}}","[10, 5, 10]","[3843, 176, 263]",20.0,"[None, None, None]","[u'', 5, -5, -10, -5, -5, -5, 10, -5, 10, 5, 10, -5]",377502,40.0,10191.0,1.1475102415505539e+18,mouselab-mdp,2
"[10695, 11355, 12024]","[u'right', u'right', u'up']",test,"[u'0', u'5', u'6', u'7']","{u'mouseover': {u'state': {u'target': [], u'time': []}, u'edge': {u'target': [], u'time': []}}, u'click': {u'state': {u'target': [u'5', u'6', u'7', u'9', u'8'], u'time': [1474, 2698, 7483, 8153, 9714]}, u'edge': {u'target': [], u'time': []}}, u'mouseout': {u'state': {u'target': [], u'time': []}, u'edge': {u'target': [], u'time': []}}}","[10, 5, 5]","[10693, 147, 151]",15.0,"[None, None, None]","[u'', -10, 5, -10, -5, 10, 5, 5, -10, -5, 5, 10, -10]",391762,41.0,13175.0,3.5302878717738757e+18,mouselab-mdp,2
"[12614, 13296, 13987]","[u'right', u'right', u'up']",test,"[u'0', u'5', u'6', u'7']","{u'mouseover': {u'state': {u'target': [], u'time': []}, u'edge': {u'target': [], u'time': []}}, u'click': {u'state': {u'target': [u'1', u'9', u'5', u'6', u'8', u'7', u'10', u'11', u'12', u'2'], u'time': [1812, 3755, 4411, 5258, 5907, 6723, 8147, 8707, 9379, 11611]}, u'edge': {u'target': [], u'time': []}}, u'mouseout': {u'state': {u'target': [], u'time': []}, u'edge': {u'target': [], u'time': []}}}","[10, -10, 10]","[12609, 169, 176]",0.0,"[None, None, None]","[u'', -5, -5, 10, -5, 10, -10, 10, -10, 5, -10, 5, -10]",408612,42.0,15762.0,3.9686635761738235e+18,mouselab-mdp,2
"[8973, 9606, 10221]","[u'up', u'up', u'left']",test,"[u'0', u'1', u'2', u'4']","{u'mouseover': {u'state': {u'target': [], u'time': []}, u'edge': {u'target': [], u'time': []}}, u'click': {u'state': {u'target': [u'5', u'1', u'9', u'10', u'11', u'12', u'2', u'3', u'4'], u'time': [1146, 1530, 2538, 3242, 3834, 4833, 6962, 7522, 8074]}, u'edge': {u'target': [], u'time': []}}, u'mouseout': {u'state': {u'target': [], u'time': []}, u'edge': {u'target': [], u'time': []}}}","[5, 5, 10]","[8969, 111, 93]",11.0,"[None, None, None]","[u'', 5, 5, -5, 10, -5, -10, 10, 5, 10, 10, -10, -10]",421316,43.0,11617.0,5.938094249628056e+18,mouselab-mdp,2
"[11889, 12562, 13235]","[u'right', u'right', u'up']",test,"[u'0', u'5', u'6', u'7']","{u'mouseover': {u'state': {u'target': [], u'time': []}, u'edge': {u'target': [], u'time': []}}, u'click': {u'state': {u'target': [u'1', u'9', u'5', u'10', u'11', u'12', u'6', u'2', u'7', u'8'], u'time': [640, 1595, 2115, 3955, 4595, 5722, 7051, 7837, 9123, 10059]}, u'edge': {u'target': [], u'time': []}}, u'mouseout': {u'state': {u'target': [], u'time': []}, u'edge': {u'target': [], u'time': []}}}","[-5, 5, 5]","[11887, 146, 151]",-5.0,"[None, None, None]","[u'', -10, -5, -5, 5, -5, 5, 5, 5, 5, -10, 10, 10]",437813,44.0,15419.0,5.514906028833953e+18,mouselab-mdp,2
"[3418, 4090, 4931]","[u'right', u'right', u'down']",test,"[u'0', u'5', u'6', u'8']","{u'mouseover': {u'state': {u'target': [], u'time': []}, u'edge': {u'target': [], u'time': []}}, u'click': {u'state': {u'target': [u'5', u'6', u'8'], u'time': [971, 1683, 2379]}, u'edge': {u'target': [], u'time': []}}, u'mouseout': {u'state': {u'target': [], u'time': []}, u'edge': {u'target': [], u'time': []}}}","[5, 5, 10]","[3414, 153, 329]",17.0,"[None, None, None]","[u'', -5, 10, -5, 10, 5, 5, -10, 10, -5, 5, -5, -10]",447479,45.0,8585.0,-1.6198589960716582e+18,mouselab-mdp,2
"[7260, 8071, 8846]","[u'up', u'up', u'right']",test,"[u'0', u'1', u'2', u'3']","{u'mouseover': {u'state': {u'target': [], u'time': []}, u'edge': {u'target': [], u'time': []}}, u'click': {u'state': {u'target': [u'9', u'1', u'5', u'2', u'3'], u'time': [3151, 3728, 4471, 5711, 6319]}, u'edge': {u'target': [], u'time': []}}, u'mouseout': {u'state': {u'target': [], u'time': []}, u'edge': {u'target': [], u'time': []}}}","[5, 5, 5]","[7256, 288, 262]",10.0,"[None, None, None]","[u'', 5, 5, 5, 5, -10, -10, 5, 10, -10, -5, -5, -5]",459167,46.0,10605.0,-5.299628366905943e+18,mouselab-mdp,2
"[12728, 13323, 13966]","[u'right', u'right', u'down']",test,"[u'0', u'5', u'6', u'8']","{u'mouseover': {u'state': {u'target': [], u'time': []}, u'edge': {u'target': [], u'time': []}}, u'click': {u'state': {u'target': [u'9', u'10', u'11', u'12', u'5', u'1', u'2', u'3', u'4', u'7', u'6', u'8'], u'time': [911, 2141, 2846, 3670, 4797, 5750, 6526, 7166, 7926, 10008, 10504, 11534]}, u'edge': {u'target': [], u'time': []}}, u'mouseout': {u'state': {u'target': [], u'time': []}, u'edge': {u'target': [], u'time': []}}}","[-5, 10, 5]","[12725, 70, 129]",-2.0,"[None, None, None]","[u'', 5, -10, 10, -10, -5, 10, -10, 5, 5, 10, -5, -10]",475751,47.0,15492.0,-5.616229570178317e+18,mouselab-mdp,2
"[14515, 15206, 16153]","[u'right', u'right', u'down']",test,"[u'0', u'5', u'6', u'8']","{u'mouseover': {u'state': {u'target': [], u'time': []}, u'edge': {u'target': [], u'time': []}}, u'click': {u'state': {u'target': [u'5', u'1', u'9', u'6', u'7', u'8', u'10', u'2'], u'time': [477, 1318, 2549, 3469, 4134, 5333, 10277, 11191]}, u'edge': {u'target': [], u'time': []}}, u'mouseout': {u'state': {u'target': [], u'time': []}, u'edge': {u'target': [], u'time': []}}}","[-5, -10, 10]","[14512, 177, 427]",-13.0,"[None, None, None]","[u'', -10, -5, 10, -10, -5, -10, 10, 10, -10, -5, -10, 10]",494024,48.0,17156.0,-7.342034422792319e+18,mouselab-mdp,2
"[7393, 8130, 8857]","[u'left', u'left', u'down']",test,"[u'0', u'9', u'10', u'12']","{u'mouseover': {u'state': {u'target': [], u'time': []}, u'edge': {u'target': [], u'time': []}}, u'click': {u'state': {u'target': [u'5', u'1', u'9', u'10', u'12'], u'time': [1715, 2426, 3139, 5039, 6319]}, u'edge': {u'target': [], u'time': []}}, u'mouseout': {u'state': {u'target': [], u'time': []}, u'edge': {u'target': [], u'time': []}}}","[10, 5, 5]","[7391, 218, 212]",15.0,"[None, None, None]","[u'', 5, 5, -5, 10, 5, -10, -5, 10, 10, 5, 5, 5]",505382,49.0,10264.0,5.627389738084794e+17,mouselab-mdp,2
"[3164, 3901, 4672]","[u'right', u'right', u'down']",test,"[u'0', u'5', u'6', u'8']","{u'mouseover': {u'state': {u'target': [], u'time': []}, u'edge': {u'target': [], u'time': []}}, u'click': {u'state': {u'target': [u'5', u'6', u'8'], u'time': [971, 1666, 2250]}, u'edge': {u'target': [], u'time': []}}, u'mouseout': {u'state': {u'target': [], u'time': []}, u'edge': {u'target': [], u'time': []}}}","[10, 10, 10]","[3162, 222, 257]",27.0,"[None, None, None]","[u'', -5, -5, 5, 5, 10, 10, -5, 10, -10, -10, -10, 5]",516160,50.0,9694.0,4.176600634517876e+18,mouselab-mdp,2
"[7927, 8670, 9561]","[u'right', u'right', u'down']",test,"[u'0', u'5', u'6', u'8']","{u'mouseover': {u'state': {u'target': [], u'time': []}, u'edge': {u'target': [], u'time': []}}, u'click': {u'state': {u'target': [u'5', u'9', u'1', u'2', u'3', u'4', u'10', u'6', u'8'], u'time': [688, 1527, 2166, 2983, 3438, 4343, 5239, 5902, 6783]}, u'edge': {u'target': [], u'time': []}}, u'mouseout': {u'state': {u'target': [], u'time': []}, u'edge': {u'target': [], u'time': []}}}","[-5, 10, 10]","[7923, 218, 376]",6.0,"[None, None, None]","[u'', 10, -10, -10, -5, -5, 10, 5, 10, -5, -10, -10, -5]",528276,51.0,11014.0,-9.003921373543949e+18,mouselab-mdp,2
"[4049, 4878, 5709]","[u'left', u'left', u'down']",test,"[u'0', u'9', u'10', u'12']","{u'mouseover': {u'state': {u'target': [], u'time': []}, u'edge': {u'target': [], u'time': []}}, u'click': {u'state': {u'target': [u'5', u'1', u'9', u'10', u'12'], u'time': [733, 1388, 1941, 2684, 3189]}, u'edge': {u'target': [], u'time': []}}, u'mouseout': {u'state': {u'target': [], u'time': []}, u'edge': {u'target': [], u'time': []}}}","[10, 10, 10]","[4045, 316, 314]",25.0,"[None, None, None]","[u'', 5, -5, -5, -5, -10, 5, 5, -10, 10, 10, 10, 10]",539081,52.0,9713.0,6.349377679140465e+18,mouselab-mdp,2
"[8177, 8843, 9654]","[u'left', u'left', u'up']",test,"[u'0', u'9', u'10', u'11']","{u'mouseover': {u'state': {u'target': [], u'time': []}, u'edge': {u'target': [], u'time': []}}, u'click': {u'state': {u'target': [u'9', u'10', u'12', u'11'], u'time': [1247, 5248, 5983, 6935]}, u'edge': {u'target': [], u'time': []}}, u'mouseout': {u'state': {u'target': [], u'time': []}, u'edge': {u'target': [], u'time': []}}}","[10, -5, 10]","[8175, 146, 289]",11.0,"[None, None, None]","[u'', 10, -10, 5, 5, 5, 5, -5, 5, 10, -5, 10, -10]",551213,53.0,11048.0,-6.577176273229301e+18,mouselab-mdp,2
"[3150, 3996, 4901]","[u'right', u'right', u'up']",test,"[u'0', u'5', u'6', u'7']","{u'mouseover': {u'state': {u'target': [], u'time': []}, u'edge': {u'target': [], u'time': []}}, u'click': {u'state': {u'target': [u'5', u'6', u'7'], u'time': [626, 1713, 2266]}, u'edge': {u'target': [], u'time': []}}, u'mouseout': {u'state': {u'target': [], u'time': []}, u'edge': {u'target': [], u'time': []}}}","[10, 10, 10]","[3148, 333, 373]",27.0,"[None, None, None]","[u'', -5, -10, -5, 10, 10, 10, 10, -10, -10, -10, -5, -10]",561907,54.0,9608.0,2.356810097693599e+18,mouselab-mdp,2
"[3790, 4489, 5122]","[u'right', u'right', u'up']",test,"[u'0', u'5', u'6', u'7']","{u'mouseover': {u'state': {u'target': [], u'time': []}, u'edge': {u'target': [], u'time': []}}, u'click': {u'state': {u'target': [u'5', u'6', u'8', u'7'], u'time': [598, 1413, 1917, 2757]}, u'edge': {u'target': [], u'time': []}}, u'mouseout': {u'state': {u'target': [], u'time': []}, u'edge': {u'target': [], u'time': []}}}","[10, -5, 10]","[3787, 175, 110]",11.0,"[None, None, None]","[u'', 5, -10, 10, -10, 10, -5, 10, 5, 5, -10, -10, -10]",572816,55.0,9814.0,-6.90593884411209e+17,mouselab-mdp,2
