A10Z4QVBJIA914:3QILPRALQ5VVX3QL7GX4D84FCFCN8A,0,1517352693436,"{""rt"": [14267, 2404, 757], ""trial_type"": ""mouselab-mdp"", ""trialTime"": 21247, ""rewards"": [24, 8, 2], ""stateRewards"": ["""", -24, 8, 2, 4, 24, -4, 4, -4, 24, 8, 2, -4], ""actionTimes"": [14269, 17194, 18467], ""trial_id"": 9054881315092481000, ""time_elapsed"": 21429, ""actions"": [""left"", ""left"", ""up""], ""trialIndex"": 0, ""score"": 34, ""trial_index"": 0, ""simulationMode"": [null, null, null], ""queries"": {""mouseover"": {""state"": {""target"": [], ""time"": []}, ""edge"": {""target"": [], ""time"": []}}, ""click"": {""state"": {""target"": [], ""time"": []}, ""edge"": {""target"": [], ""time"": []}}, ""mouseout"": {""state"": {""target"": [], ""time"": []}, ""edge"": {""target"": [], ""time"": []}}}, ""path"": [""0"", ""9"", ""10"", ""11""], ""internal_node_id"": ""0.0-0.0-0.0-0.0"", ""block"": ""train_basic""}"
A10Z4QVBJIA914:3QILPRALQ5VVX3QL7GX4D84FCFCN8A,1,1517352717747,"{""rt"": [15153, 2417, 383], ""trial_type"": ""mouselab-mdp"", ""trialTime"": 23184, ""rewards"": [-24, 4, 2], ""stateRewards"": ["""", -24, 8, -2, -2, -24, 4, -4, 2, -48, -8, 4, -4], ""actionTimes"": [15155, 18087, 18987], ""trial_id"": -8165349352988156000, ""time_elapsed"": 45741, ""actions"": [""right"", ""right"", ""down""], ""trialIndex"": 1, ""score"": -18, ""trial_index"": 1, ""simulationMode"": [null, null, null], ""queries"": {""mouseover"": {""state"": {""target"": [], ""time"": []}, ""edge"": {""target"": [], ""time"": []}}, ""click"": {""state"": {""target"": [], ""time"": []}, ""edge"": {""target"": [], ""time"": []}}, ""mouseout"": {""state"": {""target"": [], ""time"": []}, ""edge"": {""target"": [], ""time"": []}}}, ""path"": [""0"", ""5"", ""6"", ""8""], ""internal_node_id"": ""0.0-0.0-0.0-1.0"", ""block"": ""train_basic""}"
A10Z4QVBJIA914:3QILPRALQ5VVX3QL7GX4D84FCFCN8A,2,1517352733191,"{""rt"": [6623, 3397, 758], ""trial_type"": ""mouselab-mdp"", ""trialTime"": 14317, ""rewards"": [-24, 8, 4], ""stateRewards"": ["""", -24, 4, -2, 4, -24, 8, 4, 4, -24, -8, -4, -2], ""actionTimes"": [6624, 10535, 11815], ""trial_id"": 2303261828388215800, ""time_elapsed"": 61184, ""actions"": [""right"", ""right"", ""down""], ""trialIndex"": 2, ""score"": -12, ""trial_index"": 2, ""simulationMode"": [null, null, null], ""queries"": {""mouseover"": {""state"": {""target"": [], ""time"": []}, ""edge"": {""target"": [], ""time"": []}}, ""click"": {""state"": {""target"": [], ""time"": []}, ""edge"": {""target"": [], ""time"": []}}, ""mouseout"": {""state"": {""target"": [], ""time"": []}, ""edge"": {""target"": [], ""time"": []}}}, ""path"": [""0"", ""5"", ""6"", ""8""], ""internal_node_id"": ""0.0-0.0-0.0-2.0"", ""block"": ""train_basic""}"
A10Z4QVBJIA914:3QILPRALQ5VVX3QL7GX4D84FCFCN8A,3,1517352751690,"{""rt"": [8477, 5463, 424], ""trial_type"": ""mouselab-mdp"", ""trialTime"": 17370, ""rewards"": [48, -8, 4], ""stateRewards"": ["""", 24, 4, -4, 2, -48, 8, 2, -4, 48, -8, 4, 2], ""actionTimes"": [8480, 14465, 15404], ""trial_id"": 6636728231623435000, ""time_elapsed"": 79684, ""actions"": [""left"", ""left"", ""up""], ""trialIndex"": 3, ""score"": 44, ""trial_index"": 3, ""simulationMode"": [null, null, null], ""queries"": {""mouseover"": {""state"": {""target"": [], ""time"": []}, ""edge"": {""target"": [], ""time"": []}}, ""click"": {""state"": {""target"": [], ""time"": []}, ""edge"": {""target"": [], ""time"": []}}, ""mouseout"": {""state"": {""target"": [], ""time"": []}, ""edge"": {""target"": [], ""time"": []}}}, ""path"": [""0"", ""9"", ""10"", ""11""], ""internal_node_id"": ""0.0-0.0-0.0-3.0"", ""block"": ""train_basic""}"
A10Z4QVBJIA914:3QILPRALQ5VVX3QL7GX4D84FCFCN8A,4,1517352767298,"{""rt"": [10868, 821, 136], ""trial_type"": ""mouselab-mdp"", ""trialTime"": 14461, ""rewards"": [48, -8, 4], ""stateRewards"": ["""", -24, 4, 4, -4, 48, -8, 4, 2, -24, -8, 2, 4], ""actionTimes"": [10869, 12206, 12852], ""trial_id"": -3443558030085234000, ""time_elapsed"": 95292, ""actions"": [""right"", ""right"", ""up""], ""trialIndex"": 4, ""score"": 44, ""trial_index"": 4, ""simulationMode"": [null, null, null], ""queries"": {""mouseover"": {""state"": {""target"": [], ""time"": []}, ""edge"": {""target"": [], ""time"": []}}, ""click"": {""state"": {""target"": [], ""time"": []}, ""edge"": {""target"": [], ""time"": []}}, ""mouseout"": {""state"": {""target"": [], ""time"": []}, ""edge"": {""target"": [], ""time"": []}}}, ""path"": [""0"", ""5"", ""6"", ""7""], ""internal_node_id"": ""0.0-0.0-0.0-4.0"", ""block"": ""train_basic""}"
A10Z4QVBJIA914:3QILPRALQ5VVX3QL7GX4D84FCFCN8A,5,1517352769414,"{""rt"": 1111, ""trial_type"": ""text"", ""internal_node_id"": ""0.0-0.0-1.0"", ""time_elapsed"": 97408, ""key_press"": 32, ""trial_index"": 5}"
A10Z4QVBJIA914:3QILPRALQ5VVX3QL7GX4D84FCFCN8A,6,1517352806370,"{""rt"": [32771, 302, 121], ""trial_type"": ""mouselab-mdp"", ""trialTime"": 35853, ""rewards"": [-24, 8, 2], ""stateRewards"": ["""", -48, -8, 4, -4, -24, -8, 4, 2, -24, 8, 2, -2], ""actionTimes"": [32772, 33593, 34236], ""trial_id"": 4653016388854402000, ""time_elapsed"": 134363, ""actions"": [""left"", ""left"", ""up""], ""trialIndex"": 5, ""score"": -14, ""trial_index"": 6, ""simulationMode"": [null, null, null], ""queries"": {""mouseover"": {""state"": {""target"": [], ""time"": []}, ""edge"": {""target"": [], ""time"": []}}, ""click"": {""state"": {""target"": [], ""time"": []}, ""edge"": {""target"": [], ""time"": []}}, ""mouseout"": {""state"": {""target"": [], ""time"": []}, ""edge"": {""target"": [], ""time"": []}}}, ""path"": [""0"", ""9"", ""10"", ""11""], ""internal_node_id"": ""0.0-0.0-2.0-0.0"", ""block"": ""train_basic2""}"
A10Z4QVBJIA914:3QILPRALQ5VVX3QL7GX4D84FCFCN8A,7,1517352816423,"{""rt"": [2790, 3578, 378], ""trial_type"": ""mouselab-mdp"", ""trialTime"": 8962, ""rewards"": [24, -8, -4], ""stateRewards"": ["""", -48, 8, -2, 2, 24, -8, -4, -4, -48, -4, -4, -4], ""actionTimes"": [2791, 6882, 7780], ""trial_id"": -7375083842812206000, ""time_elapsed"": 144417, ""actions"": [""right"", ""right"", ""down""], ""trialIndex"": 6, ""score"": 12, ""trial_index"": 7, ""simulationMode"": [null, null, null], ""queries"": {""mouseover"": {""state"": {""target"": [], ""time"": []}, ""edge"": {""target"": [], ""time"": []}}, ""click"": {""state"": {""target"": [], ""time"": []}, ""edge"": {""target"": [], ""time"": []}}, ""mouseout"": {""state"": {""target"": [], ""time"": []}, ""edge"": {""target"": [], ""time"": []}}}, ""path"": [""0"", ""5"", ""6"", ""8""], ""internal_node_id"": ""0.0-0.0-2.0-1.0"", ""block"": ""train_basic2""}"
A10Z4QVBJIA914:3QILPRALQ5VVX3QL7GX4D84FCFCN8A,8,1517352824361,"{""rt"": [2619, 676, 1009], ""trial_type"": ""mouselab-mdp"", ""trialTime"": 6767, ""rewards"": [48, 4, 4], ""stateRewards"": ["""", -48, 8, -2, -4, 48, -4, 4, 2, 48, 4, 4, -2], ""actionTimes"": [2620, 3819, 5345], ""trial_id"": 4413295922410590700, ""time_elapsed"": 152355, ""actions"": [""left"", ""left"", ""up""], ""trialIndex"": 7, ""score"": 56, ""trial_index"": 8, ""simulationMode"": [null, null, null], ""queries"": {""mouseover"": {""state"": {""target"": [], ""time"": []}, ""edge"": {""target"": [], ""time"": []}}, ""click"": {""state"": {""target"": [], ""time"": []}, ""edge"": {""target"": [], ""time"": []}}, ""mouseout"": {""state"": {""target"": [], ""time"": []}, ""edge"": {""target"": [], ""time"": []}}}, ""path"": [""0"", ""9"", ""10"", ""11""], ""internal_node_id"": ""0.0-0.0-2.0-2.0"", ""block"": ""train_basic2""}"
A10Z4QVBJIA914:3QILPRALQ5VVX3QL7GX4D84FCFCN8A,9,1517352833410,"{""rt"": [2965, 2664, 151], ""trial_type"": ""mouselab-mdp"", ""trialTime"": 7963, ""rewards"": [48, -4, 4], ""stateRewards"": ["""", 48, -4, -4, -4, -48, 8, -4, -2, 48, -4, 4, -2], ""actionTimes"": [2966, 6148, 6810], ""trial_id"": 3274653396402311700, ""time_elapsed"": 161403, ""actions"": [""left"", ""left"", ""up""], ""trialIndex"": 8, ""score"": 48, ""trial_index"": 9, ""simulationMode"": [null, null, null], ""queries"": {""mouseover"": {""state"": {""target"": [], ""time"": []}, ""edge"": {""target"": [], ""time"": []}}, ""click"": {""state"": {""target"": [], ""time"": []}, ""edge"": {""target"": [], ""time"": []}}, ""mouseout"": {""state"": {""target"": [], ""time"": []}, ""edge"": {""target"": [], ""time"": []}}}, ""path"": [""0"", ""9"", ""10"", ""11""], ""internal_node_id"": ""0.0-0.0-2.0-3.0"", ""block"": ""train_basic2""}"
A10Z4QVBJIA914:3QILPRALQ5VVX3QL7GX4D84FCFCN8A,10,1517352839628,"{""rt"": [1988, 170, 184], ""trial_type"": ""mouselab-mdp"", ""trialTime"": 5117, ""rewards"": [48, 4, 4], ""stateRewards"": ["""", 48, -4, 2, 2, 48, 4, 4, -4, 48, -8, -2, 4], ""actionTimes"": [1988, 2676, 3381], ""trial_id"": 8523654686996209000, ""time_elapsed"": 167621, ""actions"": [""right"", ""right"", ""up""], ""trialIndex"": 9, ""score"": 56, ""trial_index"": 10, ""simulationMode"": [null, null, null], ""queries"": {""mouseover"": {""state"": {""target"": [], ""time"": []}, ""edge"": {""target"": [], ""time"": []}}, ""click"": {""state"": {""target"": [], ""time"": []}, ""edge"": {""target"": [], ""time"": []}}, ""mouseout"": {""state"": {""target"": [], ""time"": []}, ""edge"": {""target"": [], ""time"": []}}}, ""path"": [""0"", ""5"", ""6"", ""7""], ""internal_node_id"": ""0.0-0.0-2.0-4.0"", ""block"": ""train_basic2""}"
A10Z4QVBJIA914:3QILPRALQ5VVX3QL7GX4D84FCFCN8A,11,1517352841638,"{""rt"": 1007, ""trial_type"": ""text"", ""internal_node_id"": ""0.0-0.0-3.0"", ""time_elapsed"": 169632, ""key_press"": 32, ""trial_index"": 11}"
A10Z4QVBJIA914:3QILPRALQ5VVX3QL7GX4D84FCFCN8A,12,1517352855790,"{""rt"": [8911, 585, 601], ""trial_type"": ""mouselab-mdp"", ""trialTime"": 13067, ""rewards"": [-48, 8, 2], ""stateRewards"": ["""", 24, 8, -4, -4, -48, 8, 2, 2, -24, 8, -2, 4], ""actionTimes"": [8913, 10015, 11139], ""trial_id"": 6820297650917602000, ""time_elapsed"": 183784, ""actions"": [""right"", ""right"", ""up""], ""trialIndex"": 10, ""score"": -38, ""trial_index"": 12, ""simulationMode"": [null, null, null], ""queries"": {""mouseover"": {""state"": {""target"": [], ""time"": []}, ""edge"": {""target"": [], ""time"": []}}, ""click"": {""state"": {""target"": [], ""time"": []}, ""edge"": {""target"": [], ""time"": []}}, ""mouseout"": {""state"": {""target"": [], ""time"": []}, ""edge"": {""target"": [], ""time"": []}}}, ""path"": [""0"", ""5"", ""6"", ""7""], ""internal_node_id"": ""0.0-0.0-4.0-0.0"", ""block"": ""train_hidden""}"
A10Z4QVBJIA914:3QILPRALQ5VVX3QL7GX4D84FCFCN8A,13,1517352866599,"{""rt"": [4503, 1392, 924], ""trial_type"": ""mouselab-mdp"", ""trialTime"": 9683, ""rewards"": [24, -4, -4], ""stateRewards"": ["""", 24, 4, -2, 4, 24, -4, 2, 2, 24, -4, -4, -2], ""actionTimes"": [4504, 6416, 7859], ""trial_id"": 7850525288607038000, ""time_elapsed"": 194593, ""actions"": [""left"", ""left"", ""up""], ""trialIndex"": 11, ""score"": 16, ""trial_index"": 13, ""simulationMode"": [null, null, null], ""queries"": {""mouseover"": {""state"": {""target"": [], ""time"": []}, ""edge"": {""target"": [], ""time"": []}}, ""click"": {""state"": {""target"": [], ""time"": []}, ""edge"": {""target"": [], ""time"": []}}, ""mouseout"": {""state"": {""target"": [], ""time"": []}, ""edge"": {""target"": [], ""time"": []}}}, ""path"": [""0"", ""9"", ""10"", ""11""], ""internal_node_id"": ""0.0-0.0-4.0-1.0"", ""block"": ""train_hidden""}"
A10Z4QVBJIA914:3QILPRALQ5VVX3QL7GX4D84FCFCN8A,14,1517352873818,"{""rt"": [2098, 395, 430], ""trial_type"": ""mouselab-mdp"", ""trialTime"": 6090, ""rewards"": [-48, 4, -4], ""stateRewards"": ["""", -48, -4, 4, -2, -48, 4, -4, 4, -24, -8, 2, 4], ""actionTimes"": [2099, 3010, 3951], ""trial_id"": 2634433296407865300, ""time_elapsed"": 201812, ""actions"": [""right"", ""right"", ""up""], ""trialIndex"": 12, ""score"": -48, ""trial_index"": 14, ""simulationMode"": [null, null, null], ""queries"": {""mouseover"": {""state"": {""target"": [], ""time"": []}, ""edge"": {""target"": [], ""time"": []}}, ""click"": {""state"": {""target"": [], ""time"": []}, ""edge"": {""target"": [], ""time"": []}}, ""mouseout"": {""state"": {""target"": [], ""time"": []}, ""edge"": {""target"": [], ""time"": []}}}, ""path"": [""0"", ""5"", ""6"", ""7""], ""internal_node_id"": ""0.0-0.0-4.0-2.0"", ""block"": ""train_hidden""}"
A10Z4QVBJIA914:3QILPRALQ5VVX3QL7GX4D84FCFCN8A,15,1517352879968,"{""rt"": [1422, 409, 480], ""trial_type"": ""mouselab-mdp"", ""trialTime"": 5029, ""rewards"": [24, -4, 2], ""stateRewards"": ["""", -24, 4, 2, -4, 48, 8, 4, -2, 24, -4, 2, 4], ""actionTimes"": [1424, 2350, 3354], ""trial_id"": 5384505665381450000, ""time_elapsed"": 207961, ""actions"": [""left"", ""left"", ""up""], ""trialIndex"": 13, ""score"": 22, ""trial_index"": 15, ""simulationMode"": [null, null, null], ""queries"": {""mouseover"": {""state"": {""target"": [], ""time"": []}, ""edge"": {""target"": [], ""time"": []}}, ""click"": {""state"": {""target"": [], ""time"": []}, ""edge"": {""target"": [], ""time"": []}}, ""mouseout"": {""state"": {""target"": [], ""time"": []}, ""edge"": {""target"": [], ""time"": []}}}, ""path"": [""0"", ""9"", ""10"", ""11""], ""internal_node_id"": ""0.0-0.0-4.0-3.0"", ""block"": ""train_hidden""}"
A10Z4QVBJIA914:3QILPRALQ5VVX3QL7GX4D84FCFCN8A,16,1517352884653,"{""rt"": [1050, 115, 130], ""trial_type"": ""mouselab-mdp"", ""trialTime"": 3578, ""rewards"": [48, -8, -2], ""stateRewards"": ["""", -24, 4, -2, -2, -48, -8, 4, -2, 48, -8, -2, 2], ""actionTimes"": [1051, 1685, 2337], ""trial_id"": -4642030233960879000, ""time_elapsed"": 212647, ""actions"": [""left"", ""left"", ""up""], ""trialIndex"": 14, ""score"": 38, ""trial_index"": 16, ""simulationMode"": [null, null, null], ""queries"": {""mouseover"": {""state"": {""target"": [], ""time"": []}, ""edge"": {""target"": [], ""time"": []}}, ""click"": {""state"": {""target"": [], ""time"": []}, ""edge"": {""target"": [], ""time"": []}}, ""mouseout"": {""state"": {""target"": [], ""time"": []}, ""edge"": {""target"": [], ""time"": []}}}, ""path"": [""0"", ""9"", ""10"", ""11""], ""internal_node_id"": ""0.0-0.0-4.0-4.0"", ""block"": ""train_hidden""}"
A10Z4QVBJIA914:3QILPRALQ5VVX3QL7GX4D84FCFCN8A,17,1517352886515,"{""rt"": 859, ""trial_type"": ""text"", ""internal_node_id"": ""0.0-0.0-5.0"", ""time_elapsed"": 214508, ""key_press"": 32, ""trial_index"": 17}"
A10Z4QVBJIA914:3QILPRALQ5VVX3QL7GX4D84FCFCN8A,18,1517352926084,"{""rt"": [35259, 39, 402], ""trial_type"": ""mouselab-mdp"", ""trialTime"": 38455, ""rewards"": [-48, -4, 4], ""stateRewards"": ["""", -48, 4, 4, 4, -48, -4, 2, 4, -48, -8, -4, -2], ""actionTimes"": [35260, 35823, 36746], ""trial_id"": 3590351361399784000, ""time_elapsed"": 254077, ""actions"": [""right"", ""right"", ""down""], ""trialIndex"": 15, ""score"": -48, ""trial_index"": 18, ""simulationMode"": [null, null, null], ""queries"": {""mouseover"": {""state"": {""target"": [], ""time"": []}, ""edge"": {""target"": [], ""time"": []}}, ""click"": {""state"": {""target"": [""5"", ""9"", ""10"", ""6"", ""7"", ""11"", ""12"", ""8""], ""time"": [12470, 13856, 16180, 18828, 21934, 23822, 25555, 30451]}, ""edge"": {""target"": [], ""time"": []}}, ""mouseout"": {""state"": {""target"": [], ""time"": []}, ""edge"": {""target"": [], ""time"": []}}}, ""path"": [""0"", ""5"", ""6"", ""8""], ""internal_node_id"": ""0.0-0.0-6.0-0.0"", ""block"": ""train_inspector""}"
A10Z4QVBJIA914:3QILPRALQ5VVX3QL7GX4D84FCFCN8A,19,1517352964981,"{""rt"": [33729, 413, 926], ""trial_type"": ""mouselab-mdp"", ""trialTime"": 37755, ""rewards"": [48, -4, 4], ""stateRewards"": ["""", -24, 8, -2, 4, 24, 4, -4, 2, 48, -4, 4, 4], ""actionTimes"": [33730, 34662, 36111], ""trial_id"": -8942250757264293000, ""time_elapsed"": 292975, ""actions"": [""left"", ""left"", ""up""], ""trialIndex"": 16, ""score"": 48, ""trial_index"": 19, ""simulationMode"": [null, null, null], ""queries"": {""mouseover"": {""state"": {""target"": [], ""time"": []}, ""edge"": {""target"": [], ""time"": []}}, ""click"": {""state"": {""target"": [""5"", ""9"", ""10"", ""6"", ""11"", ""1"", ""12"", ""8"", ""2"", ""3"", ""4"", ""7""], ""time"": [3935, 6461, 8364, 10544, 12265, 14149, 15563, 18318, 19985, 21380, 21969, 27450]}, ""edge"": {""target"": [], ""time"": []}}, ""mouseout"": {""state"": {""target"": [], ""time"": []}, ""edge"": {""target"": [], ""time"": []}}}, ""path"": [""0"", ""9"", ""10"", ""11""], ""internal_node_id"": ""0.0-0.0-6.0-1.0"", ""block"": ""train_inspector""}"
A10Z4QVBJIA914:3QILPRALQ5VVX3QL7GX4D84FCFCN8A,20,1517352992286,"{""rt"": [23404, 228, 62], ""trial_type"": ""mouselab-mdp"", ""trialTime"": 26191, ""rewards"": [48, -4, 2], ""stateRewards"": ["""", -24, -8, 2, 2, -24, -8, 2, -2, 48, -4, 2, -4], ""actionTimes"": [23405, 24149, 24734], ""trial_id"": 333569623558220, ""time_elapsed"": 320280, ""actions"": [""left"", ""left"", ""up""], ""trialIndex"": 17, ""score"": 46, ""trial_index"": 20, ""simulationMode"": [null, null, null], ""queries"": {""mouseover"": {""state"": {""target"": [], ""time"": []}, ""edge"": {""target"": [], ""time"": []}}, ""click"": {""state"": {""target"": [""5"", ""9"", ""10"", ""12"", ""6"", ""8"", ""7"", ""11"", ""1"", ""2"", ""4"", ""3""], ""time"": [1516, 2469, 3349, 4172, 5513, 6325, 7328, 8394, 9532, 10413, 11278, 19817]}, ""edge"": {""target"": [], ""time"": []}}, ""mouseout"": {""state"": {""target"": [], ""time"": []}, ""edge"": {""target"": [], ""time"": []}}}, ""path"": [""0"", ""9"", ""10"", ""11""], ""internal_node_id"": ""0.0-0.0-6.0-2.0"", ""block"": ""train_inspector""}"
A10Z4QVBJIA914:3QILPRALQ5VVX3QL7GX4D84FCFCN8A,21,1517353016188,"{""rt"": [20101, 143, 413], ""trial_type"": ""mouselab-mdp"", ""trialTime"": 22779, ""rewards"": [-24, 4, -2], ""stateRewards"": ["""", -48, -8, -4, -4, -24, -8, -4, 4, -24, 4, -2, -2], ""actionTimes"": [20104, 20760, 21695], ""trial_id"": -7420987091216639000, ""time_elapsed"": 344181, ""actions"": [""left"", ""left"", ""up""], ""trialIndex"": 18, ""score"": -22, ""trial_index"": 21, ""simulationMode"": [null, null, null], ""queries"": {""mouseover"": {""state"": {""target"": [], ""time"": []}, ""edge"": {""target"": [], ""time"": []}}, ""click"": {""state"": {""target"": [""5"", ""9"", ""10"", ""12"", ""6"", ""8"", ""7"", ""11"", ""1"", ""2"", ""3"", ""4""], ""time"": [2257, 3055, 3764, 4343, 5181, 5955, 8012, 9975, 16286, 18262, 18720, 19270]}, ""edge"": {""target"": [], ""time"": []}}, ""mouseout"": {""state"": {""target"": [], ""time"": []}, ""edge"": {""target"": [], ""time"": []}}}, ""path"": [""0"", ""9"", ""10"", ""11""], ""internal_node_id"": ""0.0-0.0-6.0-3.0"", ""block"": ""train_inspector""}"
A10Z4QVBJIA914:3QILPRALQ5VVX3QL7GX4D84FCFCN8A,22,1517353041669,"{""rt"": [21148, 293, 242], ""trial_type"": ""mouselab-mdp"", ""trialTime"": 24362, ""rewards"": [48, -4, 2], ""stateRewards"": ["""", -48, -4, -2, 4, 48, -4, 2, -4, 24, -4, 4, 2], ""actionTimes"": [21149, 21963, 22728], ""trial_id"": -6240655041065633000, ""time_elapsed"": 369663, ""actions"": [""right"", ""right"", ""up""], ""trialIndex"": 19, ""score"": 46, ""trial_index"": 22, ""simulationMode"": [null, null, null], ""queries"": {""mouseover"": {""state"": {""target"": [], ""time"": []}, ""edge"": {""target"": [], ""time"": []}}, ""click"": {""state"": {""target"": [""5"", ""9"", ""10"", ""6"", ""12"", ""1"", ""8"", ""7"", ""11"", ""3"", ""2""], ""time"": [1231, 1925, 2788, 3591, 4587, 5783, 9711, 11913, 13360, 17707, 18567]}, ""edge"": {""target"": [], ""time"": []}}, ""mouseout"": {""state"": {""target"": [], ""time"": []}, ""edge"": {""target"": [], ""time"": []}}}, ""path"": [""0"", ""5"", ""6"", ""7""], ""internal_node_id"": ""0.0-0.0-6.0-4.0"", ""block"": ""train_inspector""}"
A10Z4QVBJIA914:3QILPRALQ5VVX3QL7GX4D84FCFCN8A,23,1517353043650,"{""rt"": 978, ""trial_type"": ""text"", ""internal_node_id"": ""0.0-0.0-7.0"", ""time_elapsed"": 371644, ""key_press"": 32, ""trial_index"": 23}"
A10Z4QVBJIA914:3QILPRALQ5VVX3QL7GX4D84FCFCN8A,24,1517353067944,"{""rt"": [19755, 237, 523], ""trial_type"": ""mouselab-mdp"", ""trialTime"": 23179, ""rewards"": [24, -4, 4], ""stateRewards"": ["""", -48, 8, -4, 4, 24, -4, 4, -4, 24, -8, 2, -4], ""actionTimes"": [19756, 20515, 21562], ""trial_id"": 8559184883711798000, ""time_elapsed"": 395938, ""actions"": [""right"", ""right"", ""up""], ""trialIndex"": 20, ""score"": 18, ""trial_index"": 24, ""simulationMode"": [null, null, null], ""queries"": {""mouseover"": {""state"": {""target"": [], ""time"": []}, ""edge"": {""target"": [], ""time"": []}}, ""click"": {""state"": {""target"": [""5"", ""9"", ""6"", ""10"", ""7"", ""8""], ""time"": [10035, 10938, 12781, 14183, 17230, 18233]}, ""edge"": {""target"": [], ""time"": []}}, ""mouseout"": {""state"": {""target"": [], ""time"": []}, ""edge"": {""target"": [], ""time"": []}}}, ""path"": [""0"", ""5"", ""6"", ""7""], ""internal_node_id"": ""0.0-0.0-8.0-0.0"", ""block"": ""train_inspect_cost""}"
A10Z4QVBJIA914:3QILPRALQ5VVX3QL7GX4D84FCFCN8A,25,1517353080555,"{""rt"": [6216, 1012, 1463], ""trial_type"": ""mouselab-mdp"", ""trialTime"": 11463, ""rewards"": [24, -8, 2], ""stateRewards"": ["""", -24, -8, -4, 2, -48, -4, -2, -4, 24, -8, 2, 2], ""actionTimes"": [6217, 7745, 9738], ""trial_id"": 4395717977986892000, ""time_elapsed"": 408549, ""actions"": [""left"", ""left"", ""up""], ""trialIndex"": 21, ""score"": 16, ""trial_index"": 25, ""simulationMode"": [null, null, null], ""queries"": {""mouseover"": {""state"": {""target"": [], ""time"": []}, ""edge"": {""target"": [], ""time"": []}}, ""click"": {""state"": {""target"": [""5"", ""9""], ""time"": [1230, 2011]}, ""edge"": {""target"": [], ""time"": []}}, ""mouseout"": {""state"": {""target"": [], ""time"": []}, ""edge"": {""target"": [], ""time"": []}}}, ""path"": [""0"", ""9"", ""10"", ""11""], ""internal_node_id"": ""0.0-0.0-8.0-1.0"", ""block"": ""train_inspect_cost""}"
A10Z4QVBJIA914:3QILPRALQ5VVX3QL7GX4D84FCFCN8A,26,1517353089058,"{""rt"": [3624, 388, 483], ""trial_type"": ""mouselab-mdp"", ""trialTime"": 7373, ""rewards"": [24, -4, -2], ""stateRewards"": ["""", 24, 4, 2, 4, 24, -4, -2, -4, -24, -8, 4, -4], ""actionTimes"": [3625, 4539, 5535], ""trial_id"": -3159164286004775400, ""time_elapsed"": 417051, ""actions"": [""right"", ""right"", ""up""], ""trialIndex"": 22, ""score"": 16, ""trial_index"": 26, ""simulationMode"": [null, null, null], ""queries"": {""mouseover"": {""state"": {""target"": [], ""time"": []}, ""edge"": {""target"": [], ""time"": []}}, ""click"": {""state"": {""target"": [""5"", ""9""], ""time"": [1017, 1920]}, ""edge"": {""target"": [], ""time"": []}}, ""mouseout"": {""state"": {""target"": [], ""time"": []}, ""edge"": {""target"": [], ""time"": []}}}, ""path"": [""0"", ""5"", ""6"", ""7""], ""internal_node_id"": ""0.0-0.0-8.0-2.0"", ""block"": ""train_inspect_cost""}"
A10Z4QVBJIA914:3QILPRALQ5VVX3QL7GX4D84FCFCN8A,27,1517353097780,"{""rt"": [3853, 297, 455], ""trial_type"": ""mouselab-mdp"", ""trialTime"": 7617, ""rewards"": [48, -4, 4], ""stateRewards"": ["""", -24, 8, -2, 2, 24, -8, -4, -2, 48, -4, 4, -4], ""actionTimes"": [3855, 4675, 5651], ""trial_id"": -3200073298740256000, ""time_elapsed"": 425773, ""actions"": [""left"", ""left"", ""up""], ""trialIndex"": 23, ""score"": 46, ""trial_index"": 27, ""simulationMode"": [null, null, null], ""queries"": {""mouseover"": {""state"": {""target"": [], ""time"": []}, ""edge"": {""target"": [], ""time"": []}}, ""click"": {""state"": {""target"": [""5"", ""9""], ""time"": [1177, 2673]}, ""edge"": {""target"": [], ""time"": []}}, ""mouseout"": {""state"": {""target"": [], ""time"": []}, ""edge"": {""target"": [], ""time"": []}}}, ""path"": [""0"", ""9"", ""10"", ""11""], ""internal_node_id"": ""0.0-0.0-8.0-3.0"", ""block"": ""train_inspect_cost""}"
A10Z4QVBJIA914:3QILPRALQ5VVX3QL7GX4D84FCFCN8A,28,1517353104955,"{""rt"": [2797, 229, 314], ""trial_type"": ""mouselab-mdp"", ""trialTime"": 6064, ""rewards"": [48, 4, -4], ""stateRewards"": ["""", -24, 8, 2, -4, 48, 4, -4, -2, 24, 8, -4, 4], ""actionTimes"": [2799, 3550, 4382], ""trial_id"": -2421391282226169300, ""time_elapsed"": 432948, ""actions"": [""right"", ""right"", ""up""], ""trialIndex"": 24, ""score"": 46, ""trial_index"": 28, ""simulationMode"": [null, null, null], ""queries"": {""mouseover"": {""state"": {""target"": [], ""time"": []}, ""edge"": {""target"": [], ""time"": []}}, ""click"": {""state"": {""target"": [""5"", ""9""], ""time"": [1228, 1917]}, ""edge"": {""target"": [], ""time"": []}}, ""mouseout"": {""state"": {""target"": [], ""time"": []}, ""edge"": {""target"": [], ""time"": []}}}, ""path"": [""0"", ""5"", ""6"", ""7""], ""internal_node_id"": ""0.0-0.0-8.0-4.0"", ""block"": ""train_inspect_cost""}"
A10Z4QVBJIA914:3QILPRALQ5VVX3QL7GX4D84FCFCN8A,29,1517353107039,"{""rt"": 1081, ""trial_type"": ""text"", ""internal_node_id"": ""0.0-0.0-9.0"", ""time_elapsed"": 435032, ""key_press"": 32, ""trial_index"": 29}"
A10Z4QVBJIA914:3QILPRALQ5VVX3QL7GX4D84FCFCN8A,30,1517353132191,"{""rt"": [20981, 273, 391], ""trial_type"": ""mouselab-mdp"", ""trialTime"": 24007, ""rewards"": [24, 4, 4], ""stateRewards"": ["""", 48, -4, -4, -2, 24, 4, 4, -4, -48, 4, 4, -4], ""actionTimes"": [20982, 21770, 22680], ""trial_id"": 6764290216486745000, ""time_elapsed"": 460185, ""actions"": [""right"", ""right"", ""up""], ""trialIndex"": 25, ""score"": 30, ""trial_index"": 30, ""simulationMode"": [null, null, null], ""queries"": {""mouseover"": {""state"": {""target"": [], ""time"": []}, ""edge"": {""target"": [], ""time"": []}}, ""click"": {""state"": {""target"": [""5"", ""9""], ""time"": [18951, 19800]}, ""edge"": {""target"": [], ""time"": []}}, ""mouseout"": {""state"": {""target"": [], ""time"": []}, ""edge"": {""target"": [], ""time"": []}}}, ""path"": [""0"", ""5"", ""6"", ""7""], ""internal_node_id"": ""0.0-0.0-10.0-0.0"", ""block"": ""train_final""}"
A10Z4QVBJIA914:3QILPRALQ5VVX3QL7GX4D84FCFCN8A,31,1517353142513,"{""rt"": [4819, 673, 1001], ""trial_type"": ""mouselab-mdp"", ""trialTime"": 9209, ""rewards"": [48, -8, -4], ""stateRewards"": ["""", -24, 8, 4, 2, -24, 4, -4, 4, 48, -8, -4, -4], ""actionTimes"": [4820, 6018, 7545], ""trial_id"": -3322572432162840600, ""time_elapsed"": 470507, ""actions"": [""left"", ""left"", ""up""], ""trialIndex"": 26, ""score"": 34, ""trial_index"": 31, ""simulationMode"": [null, null, null], ""queries"": {""mouseover"": {""state"": {""target"": [], ""time"": []}, ""edge"": {""target"": [], ""time"": []}}, ""click"": {""state"": {""target"": [""5"", ""9""], ""time"": [1448, 3690]}, ""edge"": {""target"": [], ""time"": []}}, ""mouseout"": {""state"": {""target"": [], ""time"": []}, ""edge"": {""target"": [], ""time"": []}}}, ""path"": [""0"", ""9"", ""10"", ""11""], ""internal_node_id"": ""0.0-0.0-10.0-1.0"", ""block"": ""train_final""}"
A10Z4QVBJIA914:3QILPRALQ5VVX3QL7GX4D84FCFCN8A,32,1517353149114,"{""rt"": [2618, 178, 330], ""trial_type"": ""mouselab-mdp"", ""trialTime"": 5422, ""rewards"": [48, 8, 4], ""stateRewards"": ["""", -24, -8, -2, 4, 48, 8, 4, -4, -48, -8, -2, -4], ""actionTimes"": [2619, 3320, 4165], ""trial_id"": 7152582990751535000, ""time_elapsed"": 477108, ""actions"": [""right"", ""right"", ""up""], ""trialIndex"": 27, ""score"": 58, ""trial_index"": 32, ""simulationMode"": [null, null, null], ""queries"": {""mouseover"": {""state"": {""target"": [], ""time"": []}, ""edge"": {""target"": [], ""time"": []}}, ""click"": {""state"": {""target"": [""5"", ""9""], ""time"": [948, 1572]}, ""edge"": {""target"": [], ""time"": []}}, ""mouseout"": {""state"": {""target"": [], ""time"": []}, ""edge"": {""target"": [], ""time"": []}}}, ""path"": [""0"", ""5"", ""6"", ""7""], ""internal_node_id"": ""0.0-0.0-10.0-2.0"", ""block"": ""train_final""}"
A10Z4QVBJIA914:3QILPRALQ5VVX3QL7GX4D84FCFCN8A,33,1517353156564,"{""rt"": [2774, 92, 578], ""trial_type"": ""mouselab-mdp"", ""trialTime"": 6320, ""rewards"": [48, -4, 4], ""stateRewards"": ["""", 48, 8, 2, 4, -48, -8, -2, -2, 48, -4, 2, 4], ""actionTimes"": [2776, 3389, 4491], ""trial_id"": 5214569414586692000, ""time_elapsed"": 484558, ""actions"": [""left"", ""left"", ""down""], ""trialIndex"": 28, ""score"": 46, ""trial_index"": 33, ""simulationMode"": [null, null, null], ""queries"": {""mouseover"": {""state"": {""target"": [], ""time"": []}, ""edge"": {""target"": [], ""time"": []}}, ""click"": {""state"": {""target"": [""5"", ""9""], ""time"": [1134, 1865]}, ""edge"": {""target"": [], ""time"": []}}, ""mouseout"": {""state"": {""target"": [], ""time"": []}, ""edge"": {""target"": [], ""time"": []}}}, ""path"": [""0"", ""9"", ""10"", ""12""], ""internal_node_id"": ""0.0-0.0-10.0-3.0"", ""block"": ""train_final""}"
A10Z4QVBJIA914:3QILPRALQ5VVX3QL7GX4D84FCFCN8A,34,1517353165606,"{""rt"": [4710, 3, 276], ""trial_type"": ""mouselab-mdp"", ""trialTime"": 7952, ""rewards"": [48, 4, -4], ""stateRewards"": ["""", 48, 4, -4, 2, -24, 4, 4, -2, 48, 4, -4, 4], ""actionTimes"": [4712, 5233, 6025], ""trial_id"": -7729495515346041000, ""time_elapsed"": 493599, ""actions"": [""left"", ""left"", ""up""], ""trialIndex"": 29, ""score"": 46, ""trial_index"": 34, ""simulationMode"": [null, null, null], ""queries"": {""mouseover"": {""state"": {""target"": [], ""time"": []}, ""edge"": {""target"": [], ""time"": []}}, ""click"": {""state"": {""target"": [""5"", ""9""], ""time"": [2888, 3824]}, ""edge"": {""target"": [], ""time"": []}}, ""mouseout"": {""state"": {""target"": [], ""time"": []}, ""edge"": {""target"": [], ""time"": []}}}, ""path"": [""0"", ""9"", ""10"", ""11""], ""internal_node_id"": ""0.0-0.0-10.0-4.0"", ""block"": ""train_final""}"
A10Z4QVBJIA914:3QILPRALQ5VVX3QL7GX4D84FCFCN8A,35,1517353185259,"{""rt"": 18620, ""trial_type"": ""survey-multi-choice"", ""responses"": ""[\""$-48 to $48\"",\""$-4 to $4\"",\""$1\"",\""1 cent for every $5 you make in the game\""]"", ""internal_node_id"": ""0.0-1.0"", ""time_elapsed"": 513252, ""questions"": ""[\""What is the range of node values in the first step?\"",\""What is the range of node values in the last step?\"",\""What is the cost of clicking?\"",\""How much REAL money do you earn?\""]"", ""correct"": null, ""trial_index"": 35}"
A10Z4QVBJIA914:3QILPRALQ5VVX3QL7GX4D84FCFCN8A,36,1517353195318,"{""rt"": 9038, ""trial_type"": ""button-response"", ""button_pressed"": 0, ""stimulus"": ""<h1 id=\""trainingcompleted\"">Training Completed</h1>\n\n<p>Well done! You've completed the training phase and you're ready to\nplay <em>Web of Cash</em> for real. You will have <strong>30\nrounds</strong> to make as much money as you can. Remember, <strong>you will earn 1 cent for every $5 you make in the game.</strong></p>\n\n<p>One more thing: <strong>You must spend <em>at least</em> 7 seconds on each round.</strong>\nIf you finish a round early, you'll have to wait until 7 seconds have\npassed.</p>\n\n<p>To thank you for your work so far, we'll start you off with <strong>$50</strong>.\nGood luck!</p>"", ""internal_node_id"": ""0.0-2.0"", ""time_elapsed"": 523312, ""trial_index"": 36}"
A10Z4QVBJIA914:3QILPRALQ5VVX3QL7GX4D84FCFCN8A,37,1517353215403,"{""rt"": [14746, 590, 809], ""trial_type"": ""mouselab-mdp"", ""trialTime"": 18927, ""rewards"": [-48, 8, -2], ""stateRewards"": ["""", -48, 4, -2, 4, -48, -8, -2, 4, -48, 8, -2, -4], ""actionTimes"": [14748, 15862, 17187], ""trial_id"": 2045193736832319500, ""time_elapsed"": 543397, ""actions"": [""left"", ""left"", ""up""], ""trialIndex"": 30, ""score"": -46, ""trial_index"": 37, ""simulationMode"": [null, null, null], ""queries"": {""mouseover"": {""state"": {""target"": [], ""time"": []}, ""edge"": {""target"": [], ""time"": []}}, ""click"": {""state"": {""target"": [""5"", ""9"", ""6"", ""10""], ""time"": [5409, 8094, 11671, 12662]}, ""edge"": {""target"": [], ""time"": []}}, ""mouseout"": {""state"": {""target"": [], ""time"": []}, ""edge"": {""target"": [], ""time"": []}}}, ""path"": [""0"", ""9"", ""10"", ""11""], ""internal_node_id"": ""0.0-3.0-0.0"", ""block"": ""test""}"
A10Z4QVBJIA914:3QILPRALQ5VVX3QL7GX4D84FCFCN8A,38,1517353225227,"{""rt"": [3525, 268, 409], ""trial_type"": ""mouselab-mdp"", ""trialTime"": 8684, ""rewards"": [48, 4, 2], ""stateRewards"": ["""", 24, 4, -2, 4, 24, -8, -2, 4, 48, 4, 2, 2], ""actionTimes"": [3527, 4321, 5260], ""trial_id"": -8875376664198753000, ""time_elapsed"": 553221, ""actions"": [""left"", ""left"", ""up""], ""trialIndex"": 31, ""score"": 52, ""trial_index"": 38, ""simulationMode"": [null, null, null], ""queries"": {""mouseover"": {""state"": {""target"": [], ""time"": []}, ""edge"": {""target"": [], ""time"": []}}, ""click"": {""state"": {""target"": [""5"", ""9""], ""time"": [1321, 2360]}, ""edge"": {""target"": [], ""time"": []}}, ""mouseout"": {""state"": {""target"": [], ""time"": []}, ""edge"": {""target"": [], ""time"": []}}}, ""path"": [""0"", ""9"", ""10"", ""11""], ""internal_node_id"": ""0.0-3.0-1.0"", ""block"": ""test""}"
A10Z4QVBJIA914:3QILPRALQ5VVX3QL7GX4D84FCFCN8A,39,1517353235825,"{""rt"": [4543, 328, 652], ""trial_type"": ""mouselab-mdp"", ""trialTime"": 9475, ""rewards"": [-24, -8, -4], ""stateRewards"": ["""", 48, -8, -2, -2, -48, 8, -2, 2, -24, -8, -4, -4], ""actionTimes"": [4544, 5403, 6581], ""trial_id"": -7461013785341379000, ""time_elapsed"": 563819, ""actions"": [""left"", ""left"", ""down""], ""trialIndex"": 32, ""score"": -38, ""trial_index"": 39, ""simulationMode"": [null, null, null], ""queries"": {""mouseover"": {""state"": {""target"": [], ""time"": []}, ""edge"": {""target"": [], ""time"": []}}, ""click"": {""state"": {""target"": [""5"", ""9""], ""time"": [2352, 3388]}, ""edge"": {""target"": [], ""time"": []}}, ""mouseout"": {""state"": {""target"": [], ""time"": []}, ""edge"": {""target"": [], ""time"": []}}}, ""path"": [""0"", ""9"", ""10"", ""12""], ""internal_node_id"": ""0.0-3.0-2.0"", ""block"": ""test""}"
A10Z4QVBJIA914:3QILPRALQ5VVX3QL7GX4D84FCFCN8A,40,1517353246496,"{""rt"": [2788, 185, 172], ""trial_type"": ""mouselab-mdp"", ""trialTime"": 9571, ""rewards"": [48, -8, 4], ""stateRewards"": ["""", 24, -4, -2, -4, 48, -8, 4, -4, 24, -8, 4, -4], ""actionTimes"": [2789, 3497, 4189], ""trial_id"": 8449844250359773000, ""time_elapsed"": 574489, ""actions"": [""right"", ""right"", ""up""], ""trialIndex"": 33, ""score"": 42, ""trial_index"": 40, ""simulationMode"": [null, null, null], ""queries"": {""mouseover"": {""state"": {""target"": [], ""time"": []}, ""edge"": {""target"": [], ""time"": []}}, ""click"": {""state"": {""target"": [""5"", ""9""], ""time"": [1042, 1914]}, ""edge"": {""target"": [], ""time"": []}}, ""mouseout"": {""state"": {""target"": [], ""time"": []}, ""edge"": {""target"": [], ""time"": []}}}, ""path"": [""0"", ""5"", ""6"", ""7""], ""internal_node_id"": ""0.0-3.0-3.0"", ""block"": ""test""}"
A10Z4QVBJIA914:3QILPRALQ5VVX3QL7GX4D84FCFCN8A,41,1517353257602,"{""rt"": [4084, 159, 395], ""trial_type"": ""mouselab-mdp"", ""trialTime"": 9995, ""rewards"": [48, -4, 4], ""stateRewards"": ["""", 48, -8, 4, 2, -24, -4, 2, -2, 48, -4, 4, 4], ""actionTimes"": [4085, 4761, 5677], ""trial_id"": 1644612169789315000, ""time_elapsed"": 585596, ""actions"": [""left"", ""left"", ""up""], ""trialIndex"": 34, ""score"": 46, ""trial_index"": 41, ""simulationMode"": [null, null, null], ""queries"": {""mouseover"": {""state"": {""target"": [], ""time"": []}, ""edge"": {""target"": [], ""time"": []}}, ""click"": {""state"": {""target"": [""5"", ""9""], ""time"": [2283, 3127]}, ""edge"": {""target"": [], ""time"": []}}, ""mouseout"": {""state"": {""target"": [], ""time"": []}, ""edge"": {""target"": [], ""time"": []}}}, ""path"": [""0"", ""9"", ""10"", ""11""], ""internal_node_id"": ""0.0-3.0-4.0"", ""block"": ""test""}"
A10Z4QVBJIA914:3QILPRALQ5VVX3QL7GX4D84FCFCN8A,42,1517353267635,"{""rt"": [3311, 361, 998], ""trial_type"": ""mouselab-mdp"", ""trialTime"": 8943, ""rewards"": [48, -8, 2], ""stateRewards"": ["""", -24, 4, -2, 4, -24, 4, -2, 4, 48, -8, 2, 4], ""actionTimes"": [3314, 4187, 5706], ""trial_id"": -7496072523028631000, ""time_elapsed"": 595628, ""actions"": [""left"", ""left"", ""up""], ""trialIndex"": 35, ""score"": 40, ""trial_index"": 42, ""simulationMode"": [null, null, null], ""queries"": {""mouseover"": {""state"": {""target"": [], ""time"": []}, ""edge"": {""target"": [], ""time"": []}}, ""click"": {""state"": {""target"": [""5"", ""9""], ""time"": [1600, 2377]}, ""edge"": {""target"": [], ""time"": []}}, ""mouseout"": {""state"": {""target"": [], ""time"": []}, ""edge"": {""target"": [], ""time"": []}}}, ""path"": [""0"", ""9"", ""10"", ""11""], ""internal_node_id"": ""0.0-3.0-5.0"", ""block"": ""test""}"
A10Z4QVBJIA914:3QILPRALQ5VVX3QL7GX4D84FCFCN8A,43,1517353277508,"{""rt"": [3218, 630, 636], ""trial_type"": ""mouselab-mdp"", ""trialTime"": 8760, ""rewards"": [24, 4, 2], ""stateRewards"": ["""", -24, 8, 2, 4, -24, -8, 4, 4, 24, 4, 2, 4], ""actionTimes"": [3220, 4363, 5515], ""trial_id"": -6711636099440446000, ""time_elapsed"": 605502, ""actions"": [""left"", ""left"", ""up""], ""trialIndex"": 36, ""score"": 28, ""trial_index"": 43, ""simulationMode"": [null, null, null], ""queries"": {""mouseover"": {""state"": {""target"": [], ""time"": []}, ""edge"": {""target"": [], ""time"": []}}, ""click"": {""state"": {""target"": [""5"", ""9""], ""time"": [1115, 1927]}, ""edge"": {""target"": [], ""time"": []}}, ""mouseout"": {""state"": {""target"": [], ""time"": []}, ""edge"": {""target"": [], ""time"": []}}}, ""path"": [""0"", ""9"", ""10"", ""11""], ""internal_node_id"": ""0.0-3.0-6.0"", ""block"": ""test""}"
A10Z4QVBJIA914:3QILPRALQ5VVX3QL7GX4D84FCFCN8A,44,1517353288004,"{""rt"": [3730, 945, 1700], ""trial_type"": ""mouselab-mdp"", ""trialTime"": 9398, ""rewards"": [24, -4, -4], ""stateRewards"": ["""", -24, -8, 2, 2, 24, -4, 2, -4, -24, -4, -2, -4], ""actionTimes"": [3732, 5196, 7420], ""trial_id"": 8411118124329565000, ""time_elapsed"": 615998, ""actions"": [""right"", ""right"", ""down""], ""trialIndex"": 37, ""score"": 14, ""trial_index"": 44, ""simulationMode"": [null, null, null], ""queries"": {""mouseover"": {""state"": {""target"": [], ""time"": []}, ""edge"": {""target"": [], ""time"": []}}, ""click"": {""state"": {""target"": [""5"", ""9""], ""time"": [1259, 2233]}, ""edge"": {""target"": [], ""time"": []}}, ""mouseout"": {""state"": {""target"": [], ""time"": []}, ""edge"": {""target"": [], ""time"": []}}}, ""path"": [""0"", ""5"", ""6"", ""8""], ""internal_node_id"": ""0.0-3.0-7.0"", ""block"": ""test""}"
A10Z4QVBJIA914:3QILPRALQ5VVX3QL7GX4D84FCFCN8A,45,1517353297326,"{""rt"": [3443, 305, 479], ""trial_type"": ""mouselab-mdp"", ""trialTime"": 8230, ""rewards"": [48, 4, 4], ""stateRewards"": ["""", 24, -4, -4, -2, -24, -4, 4, -2, 48, 4, 4, -2], ""actionTimes"": [3445, 4269, 5270], ""trial_id"": -7341785688242717000, ""time_elapsed"": 625320, ""actions"": [""left"", ""left"", ""up""], ""trialIndex"": 38, ""score"": 54, ""trial_index"": 45, ""simulationMode"": [null, null, null], ""queries"": {""mouseover"": {""state"": {""target"": [], ""time"": []}, ""edge"": {""target"": [], ""time"": []}}, ""click"": {""state"": {""target"": [""5"", ""9""], ""time"": [1439, 2408]}, ""edge"": {""target"": [], ""time"": []}}, ""mouseout"": {""state"": {""target"": [], ""time"": []}, ""edge"": {""target"": [], ""time"": []}}}, ""path"": [""0"", ""9"", ""10"", ""11""], ""internal_node_id"": ""0.0-3.0-8.0"", ""block"": ""test""}"
A10Z4QVBJIA914:3QILPRALQ5VVX3QL7GX4D84FCFCN8A,46,1517353307900,"{""rt"": [5015, 283, 419], ""trial_type"": ""mouselab-mdp"", ""trialTime"": 9453, ""rewards"": [24, 8, -2], ""stateRewards"": ["""", 24, 8, 4, -2, 24, 8, -2, 2, -48, -4, -4, 2], ""actionTimes"": [5016, 5820, 6756], ""trial_id"": -5963520477137013000, ""time_elapsed"": 635894, ""actions"": [""right"", ""right"", ""up""], ""trialIndex"": 39, ""score"": 28, ""trial_index"": 46, ""simulationMode"": [null, null, null], ""queries"": {""mouseover"": {""state"": {""target"": [], ""time"": []}, ""edge"": {""target"": [], ""time"": []}}, ""click"": {""state"": {""target"": [""5"", ""9""], ""time"": [2804, 4134]}, ""edge"": {""target"": [], ""time"": []}}, ""mouseout"": {""state"": {""target"": [], ""time"": []}, ""edge"": {""target"": [], ""time"": []}}}, ""path"": [""0"", ""5"", ""6"", ""7""], ""internal_node_id"": ""0.0-3.0-9.0"", ""block"": ""test""}"
A10Z4QVBJIA914:3QILPRALQ5VVX3QL7GX4D84FCFCN8A,47,1517353319638,"{""rt"": [6378, 503, 607], ""trial_type"": ""mouselab-mdp"", ""trialTime"": 10586, ""rewards"": [48, 8, 4], ""stateRewards"": ["""", -24, -4, 4, -4, 48, 8, 4, 2, 24, -4, -4, -2], ""actionTimes"": [6379, 7397, 8515], ""trial_id"": 6044912267409369000, ""time_elapsed"": 647632, ""actions"": [""right"", ""right"", ""up""], ""trialIndex"": 40, ""score"": 58, ""trial_index"": 47, ""simulationMode"": [null, null, null], ""queries"": {""mouseover"": {""state"": {""target"": [], ""time"": []}, ""edge"": {""target"": [], ""time"": []}}, ""click"": {""state"": {""target"": [""9"", ""5""], ""time"": [4317, 5145]}, ""edge"": {""target"": [], ""time"": []}}, ""mouseout"": {""state"": {""target"": [], ""time"": []}, ""edge"": {""target"": [], ""time"": []}}}, ""path"": [""0"", ""5"", ""6"", ""7""], ""internal_node_id"": ""0.0-3.0-10.0"", ""block"": ""test""}"
A10Z4QVBJIA914:3QILPRALQ5VVX3QL7GX4D84FCFCN8A,48,1517353331015,"{""rt"": [2560, 353, 2008], ""trial_type"": ""mouselab-mdp"", ""trialTime"": 10256, ""rewards"": [48, -4, 4], ""stateRewards"": ["""", 48, 4, 4, -2, 48, -4, -4, 4, 24, -8, 4, 2], ""actionTimes"": [2562, 3436, 5960], ""trial_id"": -7361508945269942000, ""time_elapsed"": 659008, ""actions"": [""right"", ""right"", ""down""], ""trialIndex"": 41, ""score"": 46, ""trial_index"": 48, ""simulationMode"": [null, null, null], ""queries"": {""mouseover"": {""state"": {""target"": [], ""time"": []}, ""edge"": {""target"": [], ""time"": []}}, ""click"": {""state"": {""target"": [""5"", ""9""], ""time"": [763, 1739]}, ""edge"": {""target"": [], ""time"": []}}, ""mouseout"": {""state"": {""target"": [], ""time"": []}, ""edge"": {""target"": [], ""time"": []}}}, ""path"": [""0"", ""5"", ""6"", ""8""], ""internal_node_id"": ""0.0-3.0-11.0"", ""block"": ""test""}"
A10Z4QVBJIA914:3QILPRALQ5VVX3QL7GX4D84FCFCN8A,49,1517353340969,"{""rt"": [4148, 739, 791], ""trial_type"": ""mouselab-mdp"", ""trialTime"": 8843, ""rewards"": [48, 4, 4], ""stateRewards"": ["""", -24, -8, 4, 2, 48, 4, 4, 2, 24, -8, -2, -4], ""actionTimes"": [4149, 5409, 6711], ""trial_id"": -3480690972123815400, ""time_elapsed"": 668963, ""actions"": [""right"", ""right"", ""up""], ""trialIndex"": 42, ""score"": 55, ""trial_index"": 49, ""simulationMode"": [null, null, null], ""queries"": {""mouseover"": {""state"": {""target"": [], ""time"": []}, ""edge"": {""target"": [], ""time"": []}}, ""click"": {""state"": {""target"": [""5""], ""time"": [859]}, ""edge"": {""target"": [], ""time"": []}}, ""mouseout"": {""state"": {""target"": [], ""time"": []}, ""edge"": {""target"": [], ""time"": []}}}, ""path"": [""0"", ""5"", ""6"", ""7""], ""internal_node_id"": ""0.0-3.0-12.0"", ""block"": ""test""}"
A10Z4QVBJIA914:3QILPRALQ5VVX3QL7GX4D84FCFCN8A,50,1517353351431,"{""rt"": [4536, 75, 1244], ""trial_type"": ""mouselab-mdp"", ""trialTime"": 9346, ""rewards"": [-24, -8, -4], ""stateRewards"": ["""", 48, 8, 2, 4, -48, 8, -4, -4, -24, -8, 2, -4], ""actionTimes"": [4538, 5132, 6902], ""trial_id"": 8294941551334705000, ""time_elapsed"": 679425, ""actions"": [""left"", ""left"", ""down""], ""trialIndex"": 43, ""score"": -38, ""trial_index"": 50, ""simulationMode"": [null, null, null], ""queries"": {""mouseover"": {""state"": {""target"": [], ""time"": []}, ""edge"": {""target"": [], ""time"": []}}, ""click"": {""state"": {""target"": [""5"", ""9""], ""time"": [1682, 3684]}, ""edge"": {""target"": [], ""time"": []}}, ""mouseout"": {""state"": {""target"": [], ""time"": []}, ""edge"": {""target"": [], ""time"": []}}}, ""path"": [""0"", ""9"", ""10"", ""12""], ""internal_node_id"": ""0.0-3.0-13.0"", ""block"": ""test""}"
A10Z4QVBJIA914:3QILPRALQ5VVX3QL7GX4D84FCFCN8A,51,1517353361090,"{""rt"": [2350, 327, 69], ""trial_type"": ""mouselab-mdp"", ""trialTime"": 8525, ""rewards"": [48, 8, 4], ""stateRewards"": ["""", -24, 8, 2, 4, 24, 4, -2, 2, 48, 8, 4, 2], ""actionTimes"": [2351, 3208, 3799], ""trial_id"": -527612495948224960, ""time_elapsed"": 689084, ""actions"": [""left"", ""left"", ""up""], ""trialIndex"": 44, ""score"": 58, ""trial_index"": 51, ""simulationMode"": [null, null, null], ""queries"": {""mouseover"": {""state"": {""target"": [], ""time"": []}, ""edge"": {""target"": [], ""time"": []}}, ""click"": {""state"": {""target"": [""5"", ""9""], ""time"": [736, 1658]}, ""edge"": {""target"": [], ""time"": []}}, ""mouseout"": {""state"": {""target"": [], ""time"": []}, ""edge"": {""target"": [], ""time"": []}}}, ""path"": [""0"", ""9"", ""10"", ""11""], ""internal_node_id"": ""0.0-3.0-14.0"", ""block"": ""test""}"
A10Z4QVBJIA914:3QILPRALQ5VVX3QL7GX4D84FCFCN8A,52,1517353371584,"{""rt"": [2330, 216, 405], ""trial_type"": ""mouselab-mdp"", ""trialTime"": 9388, ""rewards"": [24, -4, 4], ""stateRewards"": ["""", -24, 8, -2, 4, 24, -4, 4, 2, -24, 8, -2, -2], ""actionTimes"": [2331, 3064, 3990], ""trial_id"": 5226332817684622000, ""time_elapsed"": 699578, ""actions"": [""right"", ""right"", ""up""], ""trialIndex"": 45, ""score"": 22, ""trial_index"": 52, ""simulationMode"": [null, null, null], ""queries"": {""mouseover"": {""state"": {""target"": [], ""time"": []}, ""edge"": {""target"": [], ""time"": []}}, ""click"": {""state"": {""target"": [""5"", ""9""], ""time"": [632, 1592]}, ""edge"": {""target"": [], ""time"": []}}, ""mouseout"": {""state"": {""target"": [], ""time"": []}, ""edge"": {""target"": [], ""time"": []}}}, ""path"": [""0"", ""5"", ""6"", ""7""], ""internal_node_id"": ""0.0-3.0-15.0"", ""block"": ""test""}"
A10Z4QVBJIA914:3QILPRALQ5VVX3QL7GX4D84FCFCN8A,53,1517353385954,"{""rt"": [6783, 3265, 723], ""trial_type"": ""mouselab-mdp"", ""trialTime"": 13273, ""rewards"": [-24, 4, -4], ""stateRewards"": ["""", -48, 8, -4, 2, -24, 4, -4, -4, 48, 8, -2, 2], ""actionTimes"": [6785, 10561, 11796], ""trial_id"": -2321811865101253000, ""time_elapsed"": 713948, ""actions"": [""right"", ""right"", ""up""], ""trialIndex"": 46, ""score"": -24, ""trial_index"": 53, ""simulationMode"": [null, null, null], ""queries"": {""mouseover"": {""state"": {""target"": [], ""time"": []}, ""edge"": {""target"": [], ""time"": []}}, ""click"": {""state"": {""target"": [], ""time"": []}, ""edge"": {""target"": [], ""time"": []}}, ""mouseout"": {""state"": {""target"": [], ""time"": []}, ""edge"": {""target"": [], ""time"": []}}}, ""path"": [""0"", ""5"", ""6"", ""7""], ""internal_node_id"": ""0.0-3.0-16.0"", ""block"": ""test""}"
A10Z4QVBJIA914:3QILPRALQ5VVX3QL7GX4D84FCFCN8A,54,1517353398126,"{""rt"": [2522, 289, 411], ""trial_type"": ""mouselab-mdp"", ""trialTime"": 11085, ""rewards"": [48, 4, -2], ""stateRewards"": ["""", 48, 8, -4, -4, -48, 8, -4, -2, 48, 4, 2, -2], ""actionTimes"": [2524, 3334, 4259], ""trial_id"": 1115635260886355000, ""time_elapsed"": 726120, ""actions"": [""left"", ""left"", ""down""], ""trialIndex"": 47, ""score"": 49, ""trial_index"": 54, ""simulationMode"": [null, null, null], ""queries"": {""mouseover"": {""state"": {""target"": [], ""time"": []}, ""edge"": {""target"": [], ""time"": []}}, ""click"": {""state"": {""target"": [""9""], ""time"": [895]}, ""edge"": {""target"": [], ""time"": []}}, ""mouseout"": {""state"": {""target"": [], ""time"": []}, ""edge"": {""target"": [], ""time"": []}}}, ""path"": [""0"", ""9"", ""10"", ""12""], ""internal_node_id"": ""0.0-3.0-17.0"", ""block"": ""test""}"
A10Z4QVBJIA914:3QILPRALQ5VVX3QL7GX4D84FCFCN8A,55,1517353411782,"{""rt"": [3241, 245, 91], ""trial_type"": ""mouselab-mdp"", ""trialTime"": 12546, ""rewards"": [48, 4, 4], ""stateRewards"": ["""", -48, -4, 2, -2, -48, 4, 2, 2, 48, 4, 4, -4], ""actionTimes"": [3243, 4011, 4617], ""trial_id"": 4780664877551959000, ""time_elapsed"": 739776, ""actions"": [""left"", ""left"", ""up""], ""trialIndex"": 48, ""score"": 54, ""trial_index"": 55, ""simulationMode"": [null, null, null], ""queries"": {""mouseover"": {""state"": {""target"": [], ""time"": []}, ""edge"": {""target"": [], ""time"": []}}, ""click"": {""state"": {""target"": [""5"", ""9""], ""time"": [891, 2097]}, ""edge"": {""target"": [], ""time"": []}}, ""mouseout"": {""state"": {""target"": [], ""time"": []}, ""edge"": {""target"": [], ""time"": []}}}, ""path"": [""0"", ""9"", ""10"", ""11""], ""internal_node_id"": ""0.0-3.0-18.0"", ""block"": ""test""}"
A10Z4QVBJIA914:3QILPRALQ5VVX3QL7GX4D84FCFCN8A,56,1517353425317,"{""rt"": [7724, 25, 319], ""trial_type"": ""mouselab-mdp"", ""trialTime"": 12376, ""rewards"": [24, -4, 4], ""stateRewards"": ["""", 48, 8, 2, 2, -48, -4, -2, -4, 24, -4, 4, 4], ""actionTimes"": [7725, 8267, 9103], ""trial_id"": 3674785269816744000, ""time_elapsed"": 753311, ""actions"": [""left"", ""left"", ""up""], ""trialIndex"": 49, ""score"": 22, ""trial_index"": 56, ""simulationMode"": [null, null, null], ""queries"": {""mouseover"": {""state"": {""target"": [], ""time"": []}, ""edge"": {""target"": [], ""time"": []}}, ""click"": {""state"": {""target"": [""9"", ""5""], ""time"": [5778, 6806]}, ""edge"": {""target"": [], ""time"": []}}, ""mouseout"": {""state"": {""target"": [], ""time"": []}, ""edge"": {""target"": [], ""time"": []}}}, ""path"": [""0"", ""9"", ""10"", ""11""], ""internal_node_id"": ""0.0-3.0-19.0"", ""block"": ""test""}"
A10Z4QVBJIA914:3QILPRALQ5VVX3QL7GX4D84FCFCN8A,57,1517353435449,"{""rt"": [3096, 284, 64], ""trial_type"": ""mouselab-mdp"", ""trialTime"": 9002, ""rewards"": [24, 8, -4], ""stateRewards"": ["""", 24, -4, 4, -2, -24, 4, 4, -4, 24, 8, -4, 2], ""actionTimes"": [3098, 3896, 4481], ""trial_id"": -4617299664132868000, ""time_elapsed"": 763443, ""actions"": [""left"", ""left"", ""up""], ""trialIndex"": 50, ""score"": 26, ""trial_index"": 57, ""simulationMode"": [null, null, null], ""queries"": {""mouseover"": {""state"": {""target"": [], ""time"": []}, ""edge"": {""target"": [], ""time"": []}}, ""click"": {""state"": {""target"": [""5"", ""9""], ""time"": [1298, 2001]}, ""edge"": {""target"": [], ""time"": []}}, ""mouseout"": {""state"": {""target"": [], ""time"": []}, ""edge"": {""target"": [], ""time"": []}}}, ""path"": [""0"", ""9"", ""10"", ""11""], ""internal_node_id"": ""0.0-3.0-20.0"", ""block"": ""test""}"
A10Z4QVBJIA914:3QILPRALQ5VVX3QL7GX4D84FCFCN8A,58,1517353444911,"{""rt"": [3688, 147, 505], ""trial_type"": ""mouselab-mdp"", ""trialTime"": 8347, ""rewards"": [48, 4, -2], ""stateRewards"": ["""", 24, 8, -4, 4, 48, 4, -2, 4, -48, -4, 4, -2], ""actionTimes"": [3690, 4352, 5383], ""trial_id"": -3972913898696210000, ""time_elapsed"": 772905, ""actions"": [""right"", ""right"", ""up""], ""trialIndex"": 51, ""score"": 49, ""trial_index"": 58, ""simulationMode"": [null, null, null], ""queries"": {""mouseover"": {""state"": {""target"": [], ""time"": []}, ""edge"": {""target"": [], ""time"": []}}, ""click"": {""state"": {""target"": [""5""], ""time"": [2036]}, ""edge"": {""target"": [], ""time"": []}}, ""mouseout"": {""state"": {""target"": [], ""time"": []}, ""edge"": {""target"": [], ""time"": []}}}, ""path"": [""0"", ""5"", ""6"", ""7""], ""internal_node_id"": ""0.0-3.0-21.0"", ""block"": ""test""}"
A10Z4QVBJIA914:3QILPRALQ5VVX3QL7GX4D84FCFCN8A,59,1517353455482,"{""rt"": [2835, 735, 630], ""trial_type"": ""mouselab-mdp"", ""trialTime"": 9436, ""rewards"": [24, 8, -2], ""stateRewards"": ["""", 24, -8, 4, -4, -24, 8, -4, 2, 24, 8, -2, -4], ""actionTimes"": [2836, 4090, 5238], ""trial_id"": 7324429958880588000, ""time_elapsed"": 783476, ""actions"": [""left"", ""left"", ""up""], ""trialIndex"": 52, ""score"": 28, ""trial_index"": 59, ""simulationMode"": [null, null, null], ""queries"": {""mouseover"": {""state"": {""target"": [], ""time"": []}, ""edge"": {""target"": [], ""time"": []}}, ""click"": {""state"": {""target"": [""5"", ""9""], ""time"": [1272, 2051]}, ""edge"": {""target"": [], ""time"": []}}, ""mouseout"": {""state"": {""target"": [], ""time"": []}, ""edge"": {""target"": [], ""time"": []}}}, ""path"": [""0"", ""9"", ""10"", ""11""], ""internal_node_id"": ""0.0-3.0-22.0"", ""block"": ""test""}"
A10Z4QVBJIA914:3QILPRALQ5VVX3QL7GX4D84FCFCN8A,60,1517353472023,"{""rt"": [11919, 336, 106], ""trial_type"": ""mouselab-mdp"", ""trialTime"": 15420, ""rewards"": [24, -8, -2], ""stateRewards"": ["""", 24, -4, 4, -4, 24, -8, 2, -2, -48, -8, 2, -2], ""actionTimes"": [11921, 12780, 13405], ""trial_id"": -2890696603446714000, ""time_elapsed"": 800017, ""actions"": [""right"", ""right"", ""down""], ""trialIndex"": 53, ""score"": 12, ""trial_index"": 60, ""simulationMode"": [null, null, null], ""queries"": {""mouseover"": {""state"": {""target"": [], ""time"": []}, ""edge"": {""target"": [], ""time"": []}}, ""click"": {""state"": {""target"": [""5"", ""9""], ""time"": [7246, 10876]}, ""edge"": {""target"": [], ""time"": []}}, ""mouseout"": {""state"": {""target"": [], ""time"": []}, ""edge"": {""target"": [], ""time"": []}}}, ""path"": [""0"", ""5"", ""6"", ""8""], ""internal_node_id"": ""0.0-3.0-23.0"", ""block"": ""test""}"
A10Z4QVBJIA914:3QILPRALQ5VVX3QL7GX4D84FCFCN8A,61,1517353486102,"{""rt"": [9197, 388, 819], ""trial_type"": ""mouselab-mdp"", ""trialTime"": 12960, ""rewards"": [48, 4, 4], ""stateRewards"": ["""", 24, -8, 2, 4, 48, 4, 4, 4, 24, -8, -4, -4], ""actionTimes"": [9199, 10109, 11456], ""trial_id"": 1495900817449636000, ""time_elapsed"": 814095, ""actions"": [""right"", ""right"", ""up""], ""trialIndex"": 54, ""score"": 55, ""trial_index"": 61, ""simulationMode"": [null, null, null], ""queries"": {""mouseover"": {""state"": {""target"": [], ""time"": []}, ""edge"": {""target"": [], ""time"": []}}, ""click"": {""state"": {""target"": [""5""], ""time"": [6876]}, ""edge"": {""target"": [], ""time"": []}}, ""mouseout"": {""state"": {""target"": [], ""time"": []}, ""edge"": {""target"": [], ""time"": []}}}, ""path"": [""0"", ""5"", ""6"", ""7""], ""internal_node_id"": ""0.0-3.0-24.0"", ""block"": ""test""}"
A10Z4QVBJIA914:3QILPRALQ5VVX3QL7GX4D84FCFCN8A,62,1517353498437,"{""rt"": [8107, 37, 109], ""trial_type"": ""mouselab-mdp"", ""trialTime"": 11247, ""rewards"": [-48, 8, -4], ""stateRewards"": ["""", -24, 4, 2, 2, -48, 8, 4, 2, -48, 8, -4, -2], ""actionTimes"": [8109, 8659, 9294], ""trial_id"": -110181998132624670, ""time_elapsed"": 826431, ""actions"": [""left"", ""left"", ""up""], ""trialIndex"": 55, ""score"": -48, ""trial_index"": 62, ""simulationMode"": [null, null, null], ""queries"": {""mouseover"": {""state"": {""target"": [], ""time"": []}, ""edge"": {""target"": [], ""time"": []}}, ""click"": {""state"": {""target"": [""5"", ""9"", ""10"", ""6""], ""time"": [1796, 2724, 4786, 6235]}, ""edge"": {""target"": [], ""time"": []}}, ""mouseout"": {""state"": {""target"": [], ""time"": []}, ""edge"": {""target"": [], ""time"": []}}}, ""path"": [""0"", ""9"", ""10"", ""11""], ""internal_node_id"": ""0.0-3.0-25.0"", ""block"": ""test""}"
A10Z4QVBJIA914:3QILPRALQ5VVX3QL7GX4D84FCFCN8A,63,1517353509156,"{""rt"": [3388, 55, 117], ""trial_type"": ""mouselab-mdp"", ""trialTime"": 9607, ""rewards"": [48, 4, 4], ""stateRewards"": ["""", 24, 8, -4, -4, 48, 4, -4, 4, 48, 8, 2, -4], ""actionTimes"": [3390, 3963, 4594], ""trial_id"": -3859873252487120000, ""time_elapsed"": 837150, ""actions"": [""right"", ""right"", ""down""], ""trialIndex"": 56, ""score"": 55, ""trial_index"": 63, ""simulationMode"": [null, null, null], ""queries"": {""mouseover"": {""state"": {""target"": [], ""time"": []}, ""edge"": {""target"": [], ""time"": []}}, ""click"": {""state"": {""target"": [""5""], ""time"": [1963]}, ""edge"": {""target"": [], ""time"": []}}, ""mouseout"": {""state"": {""target"": [], ""time"": []}, ""edge"": {""target"": [], ""time"": []}}}, ""path"": [""0"", ""5"", ""6"", ""8""], ""internal_node_id"": ""0.0-3.0-26.0"", ""block"": ""test""}"
A10Z4QVBJIA914:3QILPRALQ5VVX3QL7GX4D84FCFCN8A,64,1517353522534,"{""rt"": [9661, 217, 41], ""trial_type"": ""mouselab-mdp"", ""trialTime"": 12268, ""rewards"": [24, -8, 2], ""stateRewards"": ["""", -48, -8, -4, 2, 24, -8, -4, 4, 24, -8, -2, 2], ""actionTimes"": [9662, 10399, 10955], ""trial_id"": -4856524421793075000, ""time_elapsed"": 850527, ""actions"": [""left"", ""left"", ""down""], ""trialIndex"": 57, ""score"": 14, ""trial_index"": 64, ""simulationMode"": [null, null, null], ""queries"": {""mouseover"": {""state"": {""target"": [], ""time"": []}, ""edge"": {""target"": [], ""time"": []}}, ""click"": {""state"": {""target"": [""5"", ""9"", ""7"", ""12""], ""time"": [3873, 4787, 7402, 8552]}, ""edge"": {""target"": [], ""time"": []}}, ""mouseout"": {""state"": {""target"": [], ""time"": []}, ""edge"": {""target"": [], ""time"": []}}}, ""path"": [""0"", ""9"", ""10"", ""12""], ""internal_node_id"": ""0.0-3.0-27.0"", ""block"": ""test""}"
A10Z4QVBJIA914:3QILPRALQ5VVX3QL7GX4D84FCFCN8A,65,1517353533636,"{""rt"": [6656, 2, 445], ""trial_type"": ""mouselab-mdp"", ""trialTime"": 9945, ""rewards"": [48, 8, -4], ""stateRewards"": ["""", -24, 4, 2, 2, 48, 8, -4, 2, -24, 8, -4, -2], ""actionTimes"": [6658, 7173, 8142], ""trial_id"": -4804384296184081000, ""time_elapsed"": 861629, ""actions"": [""right"", ""right"", ""up""], ""trialIndex"": 58, ""score"": 51, ""trial_index"": 65, ""simulationMode"": [null, null, null], ""queries"": {""mouseover"": {""state"": {""target"": [], ""time"": []}, ""edge"": {""target"": [], ""time"": []}}, ""click"": {""state"": {""target"": [""5""], ""time"": [5587]}, ""edge"": {""target"": [], ""time"": []}}, ""mouseout"": {""state"": {""target"": [], ""time"": []}, ""edge"": {""target"": [], ""time"": []}}}, ""path"": [""0"", ""5"", ""6"", ""7""], ""internal_node_id"": ""0.0-3.0-28.0"", ""block"": ""test""}"
A10Z4QVBJIA914:3QILPRALQ5VVX3QL7GX4D84FCFCN8A,66,1517353542357,"{""rt"": [3370, 100, 503], ""trial_type"": ""mouselab-mdp"", ""trialTime"": 7589, ""rewards"": [48, -4, -4], ""stateRewards"": ["""", 48, 4, 4, 2, 48, -4, 2, -4, -24, -8, -2, -4], ""actionTimes"": [3373, 4001, 5030], ""trial_id"": -6737615681404892000, ""time_elapsed"": 870350, ""actions"": [""right"", ""right"", ""down""], ""trialIndex"": 59, ""score"": 39, ""trial_index"": 66, ""simulationMode"": [null, null, null], ""queries"": {""mouseover"": {""state"": {""target"": [], ""time"": []}, ""edge"": {""target"": [], ""time"": []}}, ""click"": {""state"": {""target"": [""5""], ""time"": [1832]}, ""edge"": {""target"": [], ""time"": []}}, ""mouseout"": {""state"": {""target"": [], ""time"": []}, ""edge"": {""target"": [], ""time"": []}}}, ""path"": [""0"", ""5"", ""6"", ""8""], ""internal_node_id"": ""0.0-3.0-29.0"", ""block"": ""test""}"
A10Z4QVBJIA914:3QILPRALQ5VVX3QL7GX4D84FCFCN8A,67,1517353634873,"{""rt"": 91498, ""trial_type"": ""survey-text"", ""responses"": ""{\""Q0\"":\""Used inspector when possible to direct me where to click.\"",\""Q1\"":\""If it was a negative amount that I could avoid\"",\""Q2\"":\""Based on the previous result\"",\""Q3\"":\""To the right or left of the spider\"",\""Q4\"":\""If the first circle had the highest amount, I would take that direction\""}"", ""internal_node_id"": ""0.0-4.0"", ""time_elapsed"": 962866, ""trial_index"": 67}"
A10Z4QVBJIA914:3QILPRALQ5VVX3QL7GX4D84FCFCN8A,68,1517353646081,"{""rt"": 10201, ""trial_type"": ""survey-text"", ""responses"": ""{\""Q0\"":\""no\"",\""Q1\"":\""44\"",\""Q2\"":\""\""}"", ""internal_node_id"": ""0.0-5.0"", ""time_elapsed"": 974075, ""trial_index"": 68}"
A120PN22KW0VPY:3JCG6DTRV3QM6439926L3TKKBWOQQE,0,1517353611168,"{""rt"": [46847, 540, 7120], ""trial_type"": ""mouselab-mdp"", ""trialTime"": 62207, ""rewards"": [48, 4, 4], ""stateRewards"": ["""", -24, -8, 4, 2, 48, 4, 4, 2, 24, -8, -2, -4], ""actionTimes"": [46856, 47903, 55549], ""trial_id"": -3480690972123815400, ""time_elapsed"": 62749, ""actions"": [""right"", ""right"", ""up""], ""trialIndex"": 0, ""score"": 56, ""trial_index"": 0, ""simulationMode"": [null, null, null], ""queries"": {""mouseover"": {""state"": {""target"": [], ""time"": []}, ""edge"": {""target"": [], ""time"": []}}, ""click"": {""state"": {""target"": [], ""time"": []}, ""edge"": {""target"": [], ""time"": []}}, ""mouseout"": {""state"": {""target"": [], ""time"": []}, ""edge"": {""target"": [], ""time"": []}}}, ""path"": [""0"", ""5"", ""6"", ""7""], ""internal_node_id"": ""0.0-0.0-0.0-0.0"", ""block"": ""train_basic""}"
A120PN22KW0VPY:3JCG6DTRV3QM6439926L3TKKBWOQQE,1,1517353633187,"{""rt"": [10901, 554, 1237], ""trial_type"": ""mouselab-mdp"", ""trialTime"": 20771, ""rewards"": [-48, -8, 4], ""stateRewards"": ["""", -48, -8, 4, -4, -24, -8, 4, 2, -24, 8, 2, -2], ""actionTimes"": [10907, 11972, 13720], ""trial_id"": 4653016388854402000, ""time_elapsed"": 84767, ""actions"": [""up"", ""up"", ""right""], ""trialIndex"": 1, ""score"": -52, ""trial_index"": 1, ""simulationMode"": [null, null, null], ""queries"": {""mouseover"": {""state"": {""target"": [], ""time"": []}, ""edge"": {""target"": [], ""time"": []}}, ""click"": {""state"": {""target"": [], ""time"": []}, ""edge"": {""target"": [], ""time"": []}}, ""mouseout"": {""state"": {""target"": [], ""time"": []}, ""edge"": {""target"": [], ""time"": []}}}, ""path"": [""0"", ""1"", ""2"", ""3""], ""internal_node_id"": ""0.0-0.0-0.0-1.0"", ""block"": ""train_basic""}"
A120PN22KW0VPY:3JCG6DTRV3QM6439926L3TKKBWOQQE,2,1517353650907,"{""rt"": [9726, 585, 875], ""trial_type"": ""mouselab-mdp"", ""trialTime"": 16453, ""rewards"": [-48, 8, 2], ""stateRewards"": ["""", 48, -8, -2, -2, -48, 8, -2, 2, -24, -8, -4, -4], ""actionTimes"": [9735, 10844, 12239], ""trial_id"": -7461013785341379000, ""time_elapsed"": 102488, ""actions"": [""right"", ""right"", ""down""], ""trialIndex"": 2, ""score"": -38, ""trial_index"": 2, ""simulationMode"": [null, null, null], ""queries"": {""mouseover"": {""state"": {""target"": [], ""time"": []}, ""edge"": {""target"": [], ""time"": []}}, ""click"": {""state"": {""target"": [], ""time"": []}, ""edge"": {""target"": [], ""time"": []}}, ""mouseout"": {""state"": {""target"": [], ""time"": []}, ""edge"": {""target"": [], ""time"": []}}}, ""path"": [""0"", ""5"", ""6"", ""8""], ""internal_node_id"": ""0.0-0.0-0.0-2.0"", ""block"": ""train_basic""}"
A120PN22KW0VPY:3JCG6DTRV3QM6439926L3TKKBWOQQE,3,1517353663586,"{""rt"": [4681, 2241, 954], ""trial_type"": ""mouselab-mdp"", ""trialTime"": 11454, ""rewards"": [24, -4, 2], ""stateRewards"": ["""", -48, -4, -2, 2, -48, -8, -4, -4, 24, -4, -2, 2], ""actionTimes"": [4691, 7453, 8933], ""trial_id"": 5876485437376657000, ""time_elapsed"": 115167, ""actions"": [""left"", ""left"", ""down""], ""trialIndex"": 3, ""score"": 22, ""trial_index"": 3, ""simulationMode"": [null, null, null], ""queries"": {""mouseover"": {""state"": {""target"": [], ""time"": []}, ""edge"": {""target"": [], ""time"": []}}, ""click"": {""state"": {""target"": [], ""time"": []}, ""edge"": {""target"": [], ""time"": []}}, ""mouseout"": {""state"": {""target"": [], ""time"": []}, ""edge"": {""target"": [], ""time"": []}}}, ""path"": [""0"", ""9"", ""10"", ""12""], ""internal_node_id"": ""0.0-0.0-0.0-3.0"", ""block"": ""train_basic""}"
A120PN22KW0VPY:3JCG6DTRV3QM6439926L3TKKBWOQQE,4,1517353678800,"{""rt"": [6075, 241, 2848], ""trial_type"": ""mouselab-mdp"", ""trialTime"": 13963, ""rewards"": [-24, 4, 2], ""stateRewards"": ["""", -24, 4, 2, -2, 48, -8, 2, -2, 48, -4, 4, -2], ""actionTimes"": [6086, 6848, 10220], ""trial_id"": 8881725448036551000, ""time_elapsed"": 130380, ""actions"": [""up"", ""up"", ""right""], ""trialIndex"": 4, ""score"": -18, ""trial_index"": 4, ""simulationMode"": [null, null, null], ""queries"": {""mouseover"": {""state"": {""target"": [], ""time"": []}, ""edge"": {""target"": [], ""time"": []}}, ""click"": {""state"": {""target"": [], ""time"": []}, ""edge"": {""target"": [], ""time"": []}}, ""mouseout"": {""state"": {""target"": [], ""time"": []}, ""edge"": {""target"": [], ""time"": []}}}, ""path"": [""0"", ""1"", ""2"", ""3""], ""internal_node_id"": ""0.0-0.0-0.0-4.0"", ""block"": ""train_basic""}"
A120PN22KW0VPY:3JCG6DTRV3QM6439926L3TKKBWOQQE,5,1517353681260,"{""rt"": 1454, ""trial_type"": ""text"", ""internal_node_id"": ""0.0-0.0-1.0"", ""time_elapsed"": 132841, ""key_press"": 32, ""trial_index"": 5}"
A120PN22KW0VPY:3JCG6DTRV3QM6439926L3TKKBWOQQE,6,1517353758770,"{""rt"": [68789, 720, 1697], ""trial_type"": ""mouselab-mdp"", ""trialTime"": 76296, ""rewards"": [-48, -8, 2], ""stateRewards"": ["""", -24, 4, -2, 2, -48, 8, -2, -4, -48, -8, 2, 2], ""actionTimes"": [68798, 70022, 72232], ""trial_id"": 3174442205688015000, ""time_elapsed"": 210351, ""actions"": [""left"", ""left"", ""down""], ""trialIndex"": 5, ""score"": -54, ""trial_index"": 6, ""simulationMode"": [null, null, null], ""queries"": {""mouseover"": {""state"": {""target"": [], ""time"": []}, ""edge"": {""target"": [], ""time"": []}}, ""click"": {""state"": {""target"": [], ""time"": []}, ""edge"": {""target"": [], ""time"": []}}, ""mouseout"": {""state"": {""target"": [], ""time"": []}, ""edge"": {""target"": [], ""time"": []}}}, ""path"": [""0"", ""9"", ""10"", ""12""], ""internal_node_id"": ""0.0-0.0-2.0-0.0"", ""block"": ""train_basic2""}"
A120PN22KW0VPY:3JCG6DTRV3QM6439926L3TKKBWOQQE,7,1517353788267,"{""rt"": [13965, 4956, 2324], ""trial_type"": ""mouselab-mdp"", ""trialTime"": 28272, ""rewards"": [-24, 8, 2], ""stateRewards"": ["""", -24, 8, 2, -4, -48, 4, -4, -4, -48, 8, 2, 4], ""actionTimes"": [13973, 19450, 22286], ""trial_id"": 4357526703987185700, ""time_elapsed"": 239848, ""actions"": [""up"", ""up"", ""right""], ""trialIndex"": 6, ""score"": -14, ""trial_index"": 7, ""simulationMode"": [null, null, null], ""queries"": {""mouseover"": {""state"": {""target"": [], ""time"": []}, ""edge"": {""target"": [], ""time"": []}}, ""click"": {""state"": {""target"": [], ""time"": []}, ""edge"": {""target"": [], ""time"": []}}, ""mouseout"": {""state"": {""target"": [], ""time"": []}, ""edge"": {""target"": [], ""time"": []}}}, ""path"": [""0"", ""1"", ""2"", ""3""], ""internal_node_id"": ""0.0-0.0-2.0-1.0"", ""block"": ""train_basic2""}"
A120PN22KW0VPY:3JCG6DTRV3QM6439926L3TKKBWOQQE,8,1517353822296,"{""rt"": [16505, 1316, 11018], ""trial_type"": ""mouselab-mdp"", ""trialTime"": 32791, ""rewards"": [-48, -8, -2], ""stateRewards"": ["""", -24, 4, -4, -2, -48, -8, -4, -2, -24, 4, -2, 2], ""actionTimes"": [16513, 18344, 29877], ""trial_id"": -3258223678767038000, ""time_elapsed"": 273877, ""actions"": [""right"", ""right"", ""down""], ""trialIndex"": 7, ""score"": -58, ""trial_index"": 8, ""simulationMode"": [null, null, null], ""queries"": {""mouseover"": {""state"": {""target"": [], ""time"": []}, ""edge"": {""target"": [], ""time"": []}}, ""click"": {""state"": {""target"": [], ""time"": []}, ""edge"": {""target"": [], ""time"": []}}, ""mouseout"": {""state"": {""target"": [], ""time"": []}, ""edge"": {""target"": [], ""time"": []}}}, ""path"": [""0"", ""5"", ""6"", ""8""], ""internal_node_id"": ""0.0-0.0-2.0-2.0"", ""block"": ""train_basic2""}"
A120PN22KW0VPY:3JCG6DTRV3QM6439926L3TKKBWOQQE,9,1517353842286,"{""rt"": [12071, 2192, 808], ""trial_type"": ""mouselab-mdp"", ""trialTime"": 18799, ""rewards"": [48, -8, 2], ""stateRewards"": ["""", 24, 4, -4, 2, -48, 8, 2, -4, 48, -8, 4, 2], ""actionTimes"": [12080, 14790, 16117], ""trial_id"": 6636728231623435000, ""time_elapsed"": 293867, ""actions"": [""left"", ""left"", ""down""], ""trialIndex"": 8, ""score"": 42, ""trial_index"": 9, ""simulationMode"": [null, null, null], ""queries"": {""mouseover"": {""state"": {""target"": [], ""time"": []}, ""edge"": {""target"": [], ""time"": []}}, ""click"": {""state"": {""target"": [], ""time"": []}, ""edge"": {""target"": [], ""time"": []}}, ""mouseout"": {""state"": {""target"": [], ""time"": []}, ""edge"": {""target"": [], ""time"": []}}}, ""path"": [""0"", ""9"", ""10"", ""12""], ""internal_node_id"": ""0.0-0.0-2.0-3.0"", ""block"": ""train_basic2""}"
A120PN22KW0VPY:3JCG6DTRV3QM6439926L3TKKBWOQQE,10,1517353874736,"{""rt"": [21425, 719, 1097], ""trial_type"": ""mouselab-mdp"", ""trialTime"": 31229, ""rewards"": [48, -8, 4], ""stateRewards"": ["""", 48, -4, 2, 2, 48, 4, 4, -4, 48, -8, -2, 4], ""actionTimes"": [21431, 22667, 24278], ""trial_id"": 8523654686996209000, ""time_elapsed"": 326317, ""actions"": [""left"", ""left"", ""down""], ""trialIndex"": 9, ""score"": 44, ""trial_index"": 10, ""simulationMode"": [null, null, null], ""queries"": {""mouseover"": {""state"": {""target"": [], ""time"": []}, ""edge"": {""target"": [], ""time"": []}}, ""click"": {""state"": {""target"": [], ""time"": []}, ""edge"": {""target"": [], ""time"": []}}, ""mouseout"": {""state"": {""target"": [], ""time"": []}, ""edge"": {""target"": [], ""time"": []}}}, ""path"": [""0"", ""9"", ""10"", ""12""], ""internal_node_id"": ""0.0-0.0-2.0-4.0"", ""block"": ""train_basic2""}"
A120PN22KW0VPY:3JCG6DTRV3QM6439926L3TKKBWOQQE,11,1517353877058,"{""rt"": 1319, ""trial_type"": ""text"", ""internal_node_id"": ""0.0-0.0-3.0"", ""time_elapsed"": 328638, ""key_press"": 32, ""trial_index"": 11}"
A120PN22KW0VPY:3JCG6DTRV3QM6439926L3TKKBWOQQE,12,1517353895905,"{""rt"": [12115, 646, 1103], ""trial_type"": ""mouselab-mdp"", ""trialTime"": 17548, ""rewards"": [24, -8, 2], ""stateRewards"": ["""", -24, -8, -4, 2, -48, -4, -2, -4, 24, -8, 2, 2], ""actionTimes"": [12120, 13290, 14917], ""trial_id"": 4395717977986892000, ""time_elapsed"": 347486, ""actions"": [""left"", ""left"", ""down""], ""trialIndex"": 10, ""score"": 18, ""trial_index"": 12, ""simulationMode"": [null, null, null], ""queries"": {""mouseover"": {""state"": {""target"": [], ""time"": []}, ""edge"": {""target"": [], ""time"": []}}, ""click"": {""state"": {""target"": [], ""time"": []}, ""edge"": {""target"": [], ""time"": []}}, ""mouseout"": {""state"": {""target"": [], ""time"": []}, ""edge"": {""target"": [], ""time"": []}}}, ""path"": [""0"", ""9"", ""10"", ""12""], ""internal_node_id"": ""0.0-0.0-4.0-0.0"", ""block"": ""train_hidden""}"
A120PN22KW0VPY:3JCG6DTRV3QM6439926L3TKKBWOQQE,13,1517353905493,"{""rt"": [2551, 794, 1393], ""trial_type"": ""mouselab-mdp"", ""trialTime"": 8363, ""rewards"": [48, 4, 4], ""stateRewards"": ["""", 48, 4, 4, 2, 48, 8, -2, -4, 24, -4, -4, 2], ""actionTimes"": [2558, 3884, 5798], ""trial_id"": -2994124655389963300, ""time_elapsed"": 357074, ""actions"": [""up"", ""up"", ""right""], ""trialIndex"": 11, ""score"": 56, ""trial_index"": 13, ""simulationMode"": [null, null, null], ""queries"": {""mouseover"": {""state"": {""target"": [], ""time"": []}, ""edge"": {""target"": [], ""time"": []}}, ""click"": {""state"": {""target"": [], ""time"": []}, ""edge"": {""target"": [], ""time"": []}}, ""mouseout"": {""state"": {""target"": [], ""time"": []}, ""edge"": {""target"": [], ""time"": []}}}, ""path"": [""0"", ""1"", ""2"", ""3""], ""internal_node_id"": ""0.0-0.0-4.0-1.0"", ""block"": ""train_hidden""}"
A120PN22KW0VPY:3JCG6DTRV3QM6439926L3TKKBWOQQE,14,1517353914494,"{""rt"": [2468, 550, 1596], ""trial_type"": ""mouselab-mdp"", ""trialTime"": 7810, ""rewards"": [24, -4, -2], ""stateRewards"": ["""", 24, 4, 2, 4, 24, -4, -2, -4, -24, -8, 4, -4], ""actionTimes"": [2477, 3547, 5662], ""trial_id"": -3159164286004775400, ""time_elapsed"": 366074, ""actions"": [""right"", ""right"", ""up""], ""trialIndex"": 12, ""score"": 18, ""trial_index"": 14, ""simulationMode"": [null, null, null], ""queries"": {""mouseover"": {""state"": {""target"": [], ""time"": []}, ""edge"": {""target"": [], ""time"": []}}, ""click"": {""state"": {""target"": [], ""time"": []}, ""edge"": {""target"": [], ""time"": []}}, ""mouseout"": {""state"": {""target"": [], ""time"": []}, ""edge"": {""target"": [], ""time"": []}}}, ""path"": [""0"", ""5"", ""6"", ""7""], ""internal_node_id"": ""0.0-0.0-4.0-2.0"", ""block"": ""train_hidden""}"
A120PN22KW0VPY:3JCG6DTRV3QM6439926L3TKKBWOQQE,15,1517353923553,"{""rt"": [4163, 361, 874], ""trial_type"": ""mouselab-mdp"", ""trialTime"": 7869, ""rewards"": [-48, 4, -4], ""stateRewards"": ["""", 24, -4, -4, 4, -48, -8, -2, -2, -48, 4, -4, 2], ""actionTimes"": [4169, 5060, 6450], ""trial_id"": -8047596607375325000, ""time_elapsed"": 375134, ""actions"": [""left"", ""left"", ""up""], ""trialIndex"": 13, ""score"": -48, ""trial_index"": 15, ""simulationMode"": [null, null, null], ""queries"": {""mouseover"": {""state"": {""target"": [], ""time"": []}, ""edge"": {""target"": [], ""time"": []}}, ""click"": {""state"": {""target"": [], ""time"": []}, ""edge"": {""target"": [], ""time"": []}}, ""mouseout"": {""state"": {""target"": [], ""time"": []}, ""edge"": {""target"": [], ""time"": []}}}, ""path"": [""0"", ""9"", ""10"", ""11""], ""internal_node_id"": ""0.0-0.0-4.0-3.0"", ""block"": ""train_hidden""}"
A120PN22KW0VPY:3JCG6DTRV3QM6439926L3TKKBWOQQE,16,1517353939921,"{""rt"": [10482, 320, 1201], ""trial_type"": ""mouselab-mdp"", ""trialTime"": 15171, ""rewards"": [-48, 4, -2], ""stateRewards"": ["""", -48, 4, 2, -2, 48, 4, -4, -4, -48, -4, -4, 2], ""actionTimes"": [10487, 11329, 13041], ""trial_id"": -7116968879879831000, ""time_elapsed"": 391502, ""actions"": [""up"", ""up"", ""left""], ""trialIndex"": 14, ""score"": -46, ""trial_index"": 16, ""simulationMode"": [null, null, null], ""queries"": {""mouseover"": {""state"": {""target"": [], ""time"": []}, ""edge"": {""target"": [], ""time"": []}}, ""click"": {""state"": {""target"": [], ""time"": []}, ""edge"": {""target"": [], ""time"": []}}, ""mouseout"": {""state"": {""target"": [], ""time"": []}, ""edge"": {""target"": [], ""time"": []}}}, ""path"": [""0"", ""1"", ""2"", ""4""], ""internal_node_id"": ""0.0-0.0-4.0-4.0"", ""block"": ""train_hidden""}"
A120PN22KW0VPY:3JCG6DTRV3QM6439926L3TKKBWOQQE,17,1517353942523,"{""rt"": 1598, ""trial_type"": ""text"", ""internal_node_id"": ""0.0-0.0-5.0"", ""time_elapsed"": 394104, ""key_press"": 32, ""trial_index"": 17}"
A120PN22KW0VPY:3JCG6DTRV3QM6439926L3TKKBWOQQE,18,1517353982331,"{""rt"": [29962, 671, 4321], ""trial_type"": ""mouselab-mdp"", ""trialTime"": 38611, ""rewards"": [48, 8, 2], ""stateRewards"": ["""", -24, 4, 2, 2, 48, 8, -4, 2, -24, 8, -4, -2], ""actionTimes"": [29967, 31153, 35986], ""trial_id"": -4804384296184081000, ""time_elapsed"": 433912, ""actions"": [""right"", ""right"", ""down""], ""trialIndex"": 15, ""score"": 58, ""trial_index"": 18, ""simulationMode"": [null, null, null], ""queries"": {""mouseover"": {""state"": {""target"": [], ""time"": []}, ""edge"": {""target"": [], ""time"": []}}, ""click"": {""state"": {""target"": [""9"", ""5""], ""time"": [23588, 26024]}, ""edge"": {""target"": [], ""time"": []}}, ""mouseout"": {""state"": {""target"": [], ""time"": []}, ""edge"": {""target"": [], ""time"": []}}}, ""path"": [""0"", ""5"", ""6"", ""8""], ""internal_node_id"": ""0.0-0.0-6.0-0.0"", ""block"": ""train_inspector""}"
A120PN22KW0VPY:3JCG6DTRV3QM6439926L3TKKBWOQQE,19,1517354000436,"{""rt"": [5735, 5160, 2743], ""trial_type"": ""mouselab-mdp"", ""trialTime"": 16896, ""rewards"": [24, -4, -4], ""stateRewards"": ["""", 24, -4, -4, -2, -24, -4, 4, -2, 48, 4, 4, -2], ""actionTimes"": [5741, 11421, 14685], ""trial_id"": -7341785688242717000, ""time_elapsed"": 452017, ""actions"": [""up"", ""up"", ""right""], ""trialIndex"": 16, ""score"": 16, ""trial_index"": 19, ""simulationMode"": [null, null, null], ""queries"": {""mouseover"": {""state"": {""target"": [], ""time"": []}, ""edge"": {""target"": [], ""time"": []}}, ""click"": {""state"": {""target"": [""1""], ""time"": [3920]}, ""edge"": {""target"": [], ""time"": []}}, ""mouseout"": {""state"": {""target"": [], ""time"": []}, ""edge"": {""target"": [], ""time"": []}}}, ""path"": [""0"", ""1"", ""2"", ""3""], ""internal_node_id"": ""0.0-0.0-6.0-1.0"", ""block"": ""train_inspector""}"
A120PN22KW0VPY:3JCG6DTRV3QM6439926L3TKKBWOQQE,20,1517354022099,"{""rt"": [15450, 523, 1895], ""trial_type"": ""mouselab-mdp"", ""trialTime"": 20414, ""rewards"": [-24, 8, 4], ""stateRewards"": ["""", -48, 8, 4, -4, -48, -4, -4, 4, -24, 8, 2, 4], ""actionTimes"": [15462, 16498, 18905], ""trial_id"": -355749592705351500, ""time_elapsed"": 473680, ""actions"": [""left"", ""left"", ""down""], ""trialIndex"": 17, ""score"": -12, ""trial_index"": 20, ""simulationMode"": [null, null, null], ""queries"": {""mouseover"": {""state"": {""target"": [], ""time"": []}, ""edge"": {""target"": [], ""time"": []}}, ""click"": {""state"": {""target"": [""9"", ""5"", ""1""], ""time"": [8230, 11025, 12623]}, ""edge"": {""target"": [], ""time"": []}}, ""mouseout"": {""state"": {""target"": [], ""time"": []}, ""edge"": {""target"": [], ""time"": []}}}, ""path"": [""0"", ""9"", ""10"", ""12""], ""internal_node_id"": ""0.0-0.0-6.0-2.0"", ""block"": ""train_inspector""}"
A120PN22KW0VPY:3JCG6DTRV3QM6439926L3TKKBWOQQE,21,1517354036880,"{""rt"": [7332, 2675, 220], ""trial_type"": ""mouselab-mdp"", ""trialTime"": 13468, ""rewards"": [24, -4, 2], ""stateRewards"": ["""", -24, -8, 2, 2, 24, -4, 2, -4, -24, -4, -2, -4], ""actionTimes"": [7337, 10537, 11281], ""trial_id"": 8411118124329565000, ""time_elapsed"": 488461, ""actions"": [""right"", ""right"", ""up""], ""trialIndex"": 18, ""score"": 22, ""trial_index"": 21, ""simulationMode"": [null, null, null], ""queries"": {""mouseover"": {""state"": {""target"": [], ""time"": []}, ""edge"": {""target"": [], ""time"": []}}, ""click"": {""state"": {""target"": [""5""], ""time"": [4924]}, ""edge"": {""target"": [], ""time"": []}}, ""mouseout"": {""state"": {""target"": [], ""time"": []}, ""edge"": {""target"": [], ""time"": []}}}, ""path"": [""0"", ""5"", ""6"", ""7""], ""internal_node_id"": ""0.0-0.0-6.0-3.0"", ""block"": ""train_inspector""}"
A120PN22KW0VPY:3JCG6DTRV3QM6439926L3TKKBWOQQE,22,1517354052185,"{""rt"": [5264, 571, 4817], ""trial_type"": ""mouselab-mdp"", ""trialTime"": 14027, ""rewards"": [24, 4, -2], ""stateRewards"": ["""", 24, 4, -2, 4, 24, -8, -2, 4, 48, 4, 2, 2], ""actionTimes"": [5269, 6353, 11683], ""trial_id"": -8875376664198753000, ""time_elapsed"": 503766, ""actions"": [""up"", ""up"", ""right""], ""trialIndex"": 19, ""score"": 26, ""trial_index"": 22, ""simulationMode"": [null, null, null], ""queries"": {""mouseover"": {""state"": {""target"": [], ""time"": []}, ""edge"": {""target"": [], ""time"": []}}, ""click"": {""state"": {""target"": [], ""time"": []}, ""edge"": {""target"": [], ""time"": []}}, ""mouseout"": {""state"": {""target"": [], ""time"": []}, ""edge"": {""target"": [], ""time"": []}}}, ""path"": [""0"", ""1"", ""2"", ""3""], ""internal_node_id"": ""0.0-0.0-6.0-4.0"", ""block"": ""train_inspector""}"
A120PN22KW0VPY:3JCG6DTRV3QM6439926L3TKKBWOQQE,23,1517354054828,"{""rt"": 1641, ""trial_type"": ""text"", ""internal_node_id"": ""0.0-0.0-7.0"", ""time_elapsed"": 506409, ""key_press"": 32, ""trial_index"": 23}"
A120PN22KW0VPY:3JCG6DTRV3QM6439926L3TKKBWOQQE,24,1517354122523,"{""rt"": [61216, 649, 1337], ""trial_type"": ""mouselab-mdp"", ""trialTime"": 66478, ""rewards"": [24, 4, 4], ""stateRewards"": ["""", -24, 8, -2, 4, 24, 4, -4, 4, -24, 4, -2, -4], ""actionTimes"": [61222, 62398, 64249], ""trial_id"": -3440447034149305300, ""time_elapsed"": 574103, ""actions"": [""right"", ""right"", ""down""], ""trialIndex"": 20, ""score"": 20, ""trial_index"": 24, ""simulationMode"": [null, null, null], ""queries"": {""mouseover"": {""state"": {""target"": [], ""time"": []}, ""edge"": {""target"": [], ""time"": []}}, ""click"": {""state"": {""target"": [""5"", ""9"", ""1"", ""2"", ""3"", ""4"", ""10"", ""11"", ""6"", ""8"", ""12"", ""7""], ""time"": [16837, 18371, 20540, 21866, 23323, 24773, 28247, 30179, 41091, 42240, 44028, 53081]}, ""edge"": {""target"": [], ""time"": []}}, ""mouseout"": {""state"": {""target"": [], ""time"": []}, ""edge"": {""target"": [], ""time"": []}}}, ""path"": [""0"", ""5"", ""6"", ""8""], ""internal_node_id"": ""0.0-0.0-8.0-0.0"", ""block"": ""train_inspect_cost""}"
A120PN22KW0VPY:3JCG6DTRV3QM6439926L3TKKBWOQQE,25,1517354155402,"{""rt"": [23292, 2831, 2134], ""trial_type"": ""mouselab-mdp"", ""trialTime"": 31682, ""rewards"": [24, -4, -2], ""stateRewards"": ["""", 24, -8, -2, 4, 48, 4, -4, 2, 24, -4, -2, 2], ""actionTimes"": [23299, 26654, 29298], ""trial_id"": 2198791126510285000, ""time_elapsed"": 606983, ""actions"": [""left"", ""left"", ""up""], ""trialIndex"": 21, ""score"": 17, ""trial_index"": 25, ""simulationMode"": [null, null, null], ""queries"": {""mouseover"": {""state"": {""target"": [], ""time"": []}, ""edge"": {""target"": [], ""time"": []}}, ""click"": {""state"": {""target"": [""9""], ""time"": [19525]}, ""edge"": {""target"": [], ""time"": []}}, ""mouseout"": {""state"": {""target"": [], ""time"": []}, ""edge"": {""target"": [], ""time"": []}}}, ""path"": [""0"", ""9"", ""10"", ""11""], ""internal_node_id"": ""0.0-0.0-8.0-1.0"", ""block"": ""train_inspect_cost""}"
A120PN22KW0VPY:3JCG6DTRV3QM6439926L3TKKBWOQQE,26,1517354182025,"{""rt"": [19461, 675, 2144], ""trial_type"": ""mouselab-mdp"", ""trialTime"": 25419, ""rewards"": [48, -8, -4], ""stateRewards"": ["""", -24, 8, 4, 2, -24, 4, -4, 4, 48, -8, -4, -4], ""actionTimes"": [19468, 20668, 23341], ""trial_id"": -3322572432162840600, ""time_elapsed"": 633606, ""actions"": [""left"", ""left"", ""down""], ""trialIndex"": 22, ""score"": 33, ""trial_index"": 26, ""simulationMode"": [null, null, null], ""queries"": {""mouseover"": {""state"": {""target"": [], ""time"": []}, ""edge"": {""target"": [], ""time"": []}}, ""click"": {""state"": {""target"": [""5"", ""1"", ""9""], ""time"": [7431, 9645, 13781]}, ""edge"": {""target"": [], ""time"": []}}, ""mouseout"": {""state"": {""target"": [], ""time"": []}, ""edge"": {""target"": [], ""time"": []}}}, ""path"": [""0"", ""9"", ""10"", ""12""], ""internal_node_id"": ""0.0-0.0-8.0-2.0"", ""block"": ""train_inspect_cost""}"
A120PN22KW0VPY:3JCG6DTRV3QM6439926L3TKKBWOQQE,27,1517354210781,"{""rt"": [22590, 662, 1218], ""trial_type"": ""mouselab-mdp"", ""trialTime"": 27529, ""rewards"": [-48, 8, -2], ""stateRewards"": ["""", -24, 4, 2, 2, -48, 8, 4, 2, -48, 8, -4, -2], ""actionTimes"": [22596, 23783, 25528], ""trial_id"": -110181998132624670, ""time_elapsed"": 662361, ""actions"": [""left"", ""left"", ""down""], ""trialIndex"": 23, ""score"": -46, ""trial_index"": 27, ""simulationMode"": [null, null, null], ""queries"": {""mouseover"": {""state"": {""target"": [], ""time"": []}, ""edge"": {""target"": [], ""time"": []}}, ""click"": {""state"": {""target"": [""9"", ""1"", ""5"", ""10""], ""time"": [10072, 11581, 13152, 19533]}, ""edge"": {""target"": [], ""time"": []}}, ""mouseout"": {""state"": {""target"": [], ""time"": []}, ""edge"": {""target"": [], ""time"": []}}}, ""path"": [""0"", ""9"", ""10"", ""12""], ""internal_node_id"": ""0.0-0.0-8.0-3.0"", ""block"": ""train_inspect_cost""}"
A120PN22KW0VPY:3JCG6DTRV3QM6439926L3TKKBWOQQE,28,1517354224300,"{""rt"": [7266, 383, 938], ""trial_type"": ""mouselab-mdp"", ""trialTime"": 12325, ""rewards"": [24, 4, -2], ""stateRewards"": ["""", -24, 8, 2, 4, 24, 4, -2, 2, 48, 8, 4, 2], ""actionTimes"": [7275, 8180, 9635], ""trial_id"": -527612495948224960, ""time_elapsed"": 675881, ""actions"": [""right"", ""right"", ""up""], ""trialIndex"": 24, ""score"": 24, ""trial_index"": 28, ""simulationMode"": [null, null, null], ""queries"": {""mouseover"": {""state"": {""target"": [], ""time"": []}, ""edge"": {""target"": [], ""time"": []}}, ""click"": {""state"": {""target"": [""1"", ""5""], ""time"": [3049, 4549]}, ""edge"": {""target"": [], ""time"": []}}, ""mouseout"": {""state"": {""target"": [], ""time"": []}, ""edge"": {""target"": [], ""time"": []}}}, ""path"": [""0"", ""5"", ""6"", ""7""], ""internal_node_id"": ""0.0-0.0-8.0-4.0"", ""block"": ""train_inspect_cost""}"
A120PN22KW0VPY:3JCG6DTRV3QM6439926L3TKKBWOQQE,29,1517354226802,"{""rt"": 1467, ""trial_type"": ""text"", ""internal_node_id"": ""0.0-0.0-9.0"", ""time_elapsed"": 678383, ""key_press"": 32, ""trial_index"": 29}"
A120PN22KW0VPY:3JCG6DTRV3QM6439926L3TKKBWOQQE,30,1517354257754,"{""rt"": [23881, 538, 1958], ""trial_type"": ""mouselab-mdp"", ""trialTime"": 29715, ""rewards"": [24, -8, -2], ""stateRewards"": ["""", 24, -4, 4, -4, 24, -8, 2, -2, -48, -8, 2, -2], ""actionTimes"": [23892, 24949, 27436], ""trial_id"": -2890696603446714000, ""time_elapsed"": 709335, ""actions"": [""right"", ""right"", ""down""], ""trialIndex"": 25, ""score"": 13, ""trial_index"": 30, ""simulationMode"": [null, null, null], ""queries"": {""mouseover"": {""state"": {""target"": [], ""time"": []}, ""edge"": {""target"": [], ""time"": []}}, ""click"": {""state"": {""target"": [""5""], ""time"": [21526]}, ""edge"": {""target"": [], ""time"": []}}, ""mouseout"": {""state"": {""target"": [], ""time"": []}, ""edge"": {""target"": [], ""time"": []}}}, ""path"": [""0"", ""5"", ""6"", ""8""], ""internal_node_id"": ""0.0-0.0-10.0-0.0"", ""block"": ""train_final""}"
A120PN22KW0VPY:3JCG6DTRV3QM6439926L3TKKBWOQQE,31,1517354272285,"{""rt"": [8427, 320, 1880], ""trial_type"": ""mouselab-mdp"", ""trialTime"": 13323, ""rewards"": [-48, 8, -2], ""stateRewards"": ["""", -48, 8, -2, 2, 24, -8, -4, -4, -48, -4, -4, -4], ""actionTimes"": [8433, 9271, 11664], ""trial_id"": -7375083842812206000, ""time_elapsed"": 723865, ""actions"": [""up"", ""up"", ""right""], ""trialIndex"": 26, ""score"": -44, ""trial_index"": 31, ""simulationMode"": [null, null, null], ""queries"": {""mouseover"": {""state"": {""target"": [], ""time"": []}, ""edge"": {""target"": [], ""time"": []}}, ""click"": {""state"": {""target"": [""1"", ""2""], ""time"": [3294, 6174]}, ""edge"": {""target"": [], ""time"": []}}, ""mouseout"": {""state"": {""target"": [], ""time"": []}, ""edge"": {""target"": [], ""time"": []}}}, ""path"": [""0"", ""1"", ""2"", ""3""], ""internal_node_id"": ""0.0-0.0-10.0-1.0"", ""block"": ""train_final""}"
A120PN22KW0VPY:3JCG6DTRV3QM6439926L3TKKBWOQQE,32,1517354291156,"{""rt"": [10781, 332, 873], ""trial_type"": ""mouselab-mdp"", ""trialTime"": 17686, ""rewards"": [24, -4, 2], ""stateRewards"": ["""", -48, -4, -2, 4, 48, -4, 2, -4, 24, -4, 4, 2], ""actionTimes"": [10787, 11641, 13029], ""trial_id"": -6240655041065633000, ""time_elapsed"": 742737, ""actions"": [""left"", ""left"", ""down""], ""trialIndex"": 27, ""score"": 19, ""trial_index"": 32, ""simulationMode"": [null, null, null], ""queries"": {""mouseover"": {""state"": {""target"": [], ""time"": []}, ""edge"": {""target"": [], ""time"": []}}, ""click"": {""state"": {""target"": [""9"", ""10"", ""12""], ""time"": [4721, 6143, 7715]}, ""edge"": {""target"": [], ""time"": []}}, ""mouseout"": {""state"": {""target"": [], ""time"": []}, ""edge"": {""target"": [], ""time"": []}}}, ""path"": [""0"", ""9"", ""10"", ""12""], ""internal_node_id"": ""0.0-0.0-10.0-2.0"", ""block"": ""train_final""}"
A120PN22KW0VPY:3JCG6DTRV3QM6439926L3TKKBWOQQE,33,1517354340116,"{""rt"": [42214, 513, 1850], ""trial_type"": ""mouselab-mdp"", ""trialTime"": 47776, ""rewards"": [-48, 4, 4], ""stateRewards"": ["""", -48, 4, 4, 4, -48, -4, 2, 4, -48, -8, -4, -2], ""actionTimes"": [42226, 43257, 45633], ""trial_id"": 3590351361399784000, ""time_elapsed"": 791697, ""actions"": [""up"", ""up"", ""left""], ""trialIndex"": 28, ""score"": -45, ""trial_index"": 33, ""simulationMode"": [null, null, null], ""queries"": {""mouseover"": {""state"": {""target"": [], ""time"": []}, ""edge"": {""target"": [], ""time"": []}}, ""click"": {""state"": {""target"": [""1"", ""9"", ""5"", ""10"", ""12""], ""time"": [7095, 15310, 16993, 21937, 23764]}, ""edge"": {""target"": [], ""time"": []}}, ""mouseout"": {""state"": {""target"": [], ""time"": []}, ""edge"": {""target"": [], ""time"": []}}}, ""path"": [""0"", ""1"", ""2"", ""4""], ""internal_node_id"": ""0.0-0.0-10.0-3.0"", ""block"": ""train_final""}"
A120PN22KW0VPY:3JCG6DTRV3QM6439926L3TKKBWOQQE,34,1517354364710,"{""rt"": [17635, 384, 1067], ""trial_type"": ""mouselab-mdp"", ""trialTime"": 23342, ""rewards"": [-24, -4, -2], ""stateRewards"": ["""", -24, -4, 4, 2, -24, -4, -4, -2, -48, -4, 2, 4], ""actionTimes"": [17639, 18546, 20129], ""trial_id"": 5554899666121657000, ""time_elapsed"": 816291, ""actions"": [""right"", ""right"", ""down""], ""trialIndex"": 29, ""score"": -35, ""trial_index"": 34, ""simulationMode"": [null, null, null], ""queries"": {""mouseover"": {""state"": {""target"": [], ""time"": []}, ""edge"": {""target"": [], ""time"": []}}, ""click"": {""state"": {""target"": [""5"", ""9"", ""10"", ""11"", ""12""], ""time"": [4359, 10007, 11267, 12733, 14079]}, ""edge"": {""target"": [], ""time"": []}}, ""mouseout"": {""state"": {""target"": [], ""time"": []}, ""edge"": {""target"": [], ""time"": []}}}, ""path"": [""0"", ""5"", ""6"", ""8""], ""internal_node_id"": ""0.0-0.0-10.0-4.0"", ""block"": ""train_final""}"
A120PN22KW0VPY:3JCG6DTRV3QM6439926L3TKKBWOQQE,35,1517354405691,"{""rt"": 39942, ""trial_type"": ""survey-multi-choice"", ""responses"": ""[\""$-48 to $48\"",\""$-8 to $8\"",\""$1\"",\""1 cent for every $1 you make in the game\""]"", ""internal_node_id"": ""0.0-1.0"", ""time_elapsed"": 857271, ""questions"": ""[\""What is the range of node values in the first step?\"",\""What is the range of node values in the last step?\"",\""What is the cost of clicking?\"",\""How much REAL money do you earn?\""]"", ""correct"": null, ""trial_index"": 35}"
A120PN22KW0VPY:3JCG6DTRV3QM6439926L3TKKBWOQQE,36,1517354423885,"{""rt"": 17156, ""trial_type"": ""button-response"", ""button_pressed"": 0, ""stimulus"": ""<h1 id=\""trainingcompleted\"">Training Completed</h1>\n\n<p>Well done! You've completed the training phase and you're ready to\nplay <em>Web of Cash</em> for real. You will have <strong>30\nrounds</strong> to make as much money as you can. Remember, <strong>you will earn 1 cent for every $5 you make in the game.</strong></p>\n\n<p>One more thing: <strong>You must spend <em>at least</em> 7 seconds on each round.</strong>\nIf you finish a round early, you'll have to wait until 7 seconds have\npassed.</p>\n\n<p>To thank you for your work so far, we'll start you off with <strong>$50</strong>.\nGood luck!</p>"", ""internal_node_id"": ""0.0-2.0"", ""time_elapsed"": 875465, ""trial_index"": 36}"
A120PN22KW0VPY:3JCG6DTRV3QM6439926L3TKKBWOQQE,37,1517354458335,"{""rt"": [27352, 358, 2108], ""trial_type"": ""mouselab-mdp"", ""trialTime"": 33253, ""rewards"": [48, -4, -4], ""stateRewards"": ["""", 48, -4, -4, 4, -48, 8, 4, -2, 24, 4, 2, 4], ""actionTimes"": [27360, 28240, 30872], ""trial_id"": -6892260789029242000, ""time_elapsed"": 909916, ""actions"": [""up"", ""up"", ""right""], ""trialIndex"": 30, ""score"": 39, ""trial_index"": 37, ""simulationMode"": [null, null, null], ""queries"": {""mouseover"": {""state"": {""target"": [], ""time"": []}, ""edge"": {""target"": [], ""time"": []}}, ""click"": {""state"": {""target"": [""1""], ""time"": [16861]}, ""edge"": {""target"": [], ""time"": []}}, ""mouseout"": {""state"": {""target"": [], ""time"": []}, ""edge"": {""target"": [], ""time"": []}}}, ""path"": [""0"", ""1"", ""2"", ""3""], ""internal_node_id"": ""0.0-3.0-0.0"", ""block"": ""test""}"
A120PN22KW0VPY:3JCG6DTRV3QM6439926L3TKKBWOQQE,38,1517354483303,"{""rt"": [16795, 495, 1620], ""trial_type"": ""mouselab-mdp"", ""trialTime"": 23792, ""rewards"": [-24, -8, 4], ""stateRewards"": ["""", -48, -4, 4, -4, -24, -8, 4, 4, -48, -4, -4, 4], ""actionTimes"": [16801, 17811, 19952], ""trial_id"": 1072867529527937500, ""time_elapsed"": 934884, ""actions"": [""right"", ""right"", ""down""], ""trialIndex"": 31, ""score"": -33, ""trial_index"": 38, ""simulationMode"": [null, null, null], ""queries"": {""mouseover"": {""state"": {""target"": [], ""time"": []}, ""edge"": {""target"": [], ""time"": []}}, ""click"": {""state"": {""target"": [""9"", ""5"", ""1"", ""6"", ""8""], ""time"": [3783, 5485, 7434, 11504, 12878]}, ""edge"": {""target"": [], ""time"": []}}, ""mouseout"": {""state"": {""target"": [], ""time"": []}, ""edge"": {""target"": [], ""time"": []}}}, ""path"": [""0"", ""5"", ""6"", ""8""], ""internal_node_id"": ""0.0-3.0-1.0"", ""block"": ""test""}"
A120PN22KW0VPY:3JCG6DTRV3QM6439926L3TKKBWOQQE,39,1517354503145,"{""rt"": [13663, 625, 1296], ""trial_type"": ""mouselab-mdp"", ""trialTime"": 18607, ""rewards"": [24, -8, 4], ""stateRewards"": ["""", 24, -4, -2, -4, 48, -8, 4, -4, 24, -8, 4, -4], ""actionTimes"": [13673, 14806, 16627], ""trial_id"": 8449844250359773000, ""time_elapsed"": 954725, ""actions"": [""left"", ""left"", ""up""], ""trialIndex"": 32, ""score"": 17, ""trial_index"": 39, ""simulationMode"": [null, null, null], ""queries"": {""mouseover"": {""state"": {""target"": [], ""time"": []}, ""edge"": {""target"": [], ""time"": []}}, ""click"": {""state"": {""target"": [""9"", ""10"", ""11""], ""time"": [7019, 8552, 9832]}, ""edge"": {""target"": [], ""time"": []}}, ""mouseout"": {""state"": {""target"": [], ""time"": []}, ""edge"": {""target"": [], ""time"": []}}}, ""path"": [""0"", ""9"", ""10"", ""11""], ""internal_node_id"": ""0.0-3.0-2.0"", ""block"": ""test""}"
A120PN22KW0VPY:3JCG6DTRV3QM6439926L3TKKBWOQQE,40,1517354527587,"{""rt"": [16096, 483, 3368], ""trial_type"": ""mouselab-mdp"", ""trialTime"": 23186, ""rewards"": [24, -8, 2], ""stateRewards"": ["""", -48, 8, -4, 4, 24, -4, 4, -4, 24, -8, 2, -4], ""actionTimes"": [16103, 17098, 20983], ""trial_id"": 8559184883711798000, ""time_elapsed"": 979167, ""actions"": [""left"", ""left"", ""up""], ""trialIndex"": 33, ""score"": 14, ""trial_index"": 40, ""simulationMode"": [null, null, null], ""queries"": {""mouseover"": {""state"": {""target"": [], ""time"": []}, ""edge"": {""target"": [], ""time"": []}}, ""click"": {""state"": {""target"": [""9"", ""10"", ""12"", ""11""], ""time"": [5647, 9085, 10183, 11656]}, ""edge"": {""target"": [], ""time"": []}}, ""mouseout"": {""state"": {""target"": [], ""time"": []}, ""edge"": {""target"": [], ""time"": []}}}, ""path"": [""0"", ""9"", ""10"", ""11""], ""internal_node_id"": ""0.0-3.0-3.0"", ""block"": ""test""}"
A120PN22KW0VPY:3JCG6DTRV3QM6439926L3TKKBWOQQE,41,1517354550963,"{""rt"": [15940, 230, 2280], ""trial_type"": ""mouselab-mdp"", ""trialTime"": 22198, ""rewards"": [-48, -8, 4], ""stateRewards"": ["""", 24, 4, 2, 2, -48, -8, 2, 4, -48, -4, -2, -2], ""actionTimes"": [15945, 16695, 19492], ""trial_id"": -6856174728852411000, ""time_elapsed"": 1002543, ""actions"": [""right"", ""right"", ""down""], ""trialIndex"": 34, ""score"": -55, ""trial_index"": 41, ""simulationMode"": [null, null, null], ""queries"": {""mouseover"": {""state"": {""target"": [], ""time"": []}, ""edge"": {""target"": [], ""time"": []}}, ""click"": {""state"": {""target"": [""5"", ""6"", ""8""], ""time"": [6003, 9943, 12898]}, ""edge"": {""target"": [], ""time"": []}}, ""mouseout"": {""state"": {""target"": [], ""time"": []}, ""edge"": {""target"": [], ""time"": []}}}, ""path"": [""0"", ""5"", ""6"", ""8""], ""internal_node_id"": ""0.0-3.0-4.0"", ""block"": ""test""}"
A120PN22KW0VPY:3JCG6DTRV3QM6439926L3TKKBWOQQE,42,1517354567117,"{""rt"": [9611, 608, 1255], ""trial_type"": ""mouselab-mdp"", ""trialTime"": 14937, ""rewards"": [48, 8, 4], ""stateRewards"": ["""", 48, 8, 2, 4, -48, -8, -2, -2, 48, -4, 2, 4], ""actionTimes"": [9617, 10737, 12537], ""trial_id"": 5214569414586692000, ""time_elapsed"": 1018698, ""actions"": [""up"", ""up"", ""left""], ""trialIndex"": 35, ""score"": 58, ""trial_index"": 42, ""simulationMode"": [null, null, null], ""queries"": {""mouseover"": {""state"": {""target"": [], ""time"": []}, ""edge"": {""target"": [], ""time"": []}}, ""click"": {""state"": {""target"": [""1"", ""2""], ""time"": [4228, 5686]}, ""edge"": {""target"": [], ""time"": []}}, ""mouseout"": {""state"": {""target"": [], ""time"": []}, ""edge"": {""target"": [], ""time"": []}}}, ""path"": [""0"", ""1"", ""2"", ""4""], ""internal_node_id"": ""0.0-3.0-5.0"", ""block"": ""test""}"
A120PN22KW0VPY:3JCG6DTRV3QM6439926L3TKKBWOQQE,43,1517354589044,"{""rt"": [12524, 606, 1505], ""trial_type"": ""mouselab-mdp"", ""trialTime"": 20684, ""rewards"": [-48, -4, 4], ""stateRewards"": ["""", -48, -8, -4, -4, 48, 4, 2, 4, -48, -4, 2, 4], ""actionTimes"": [12532, 13651, 15668], ""trial_id"": -4492789382924295000, ""time_elapsed"": 1040625, ""actions"": [""left"", ""left"", ""down""], ""trialIndex"": 36, ""score"": -50, ""trial_index"": 43, ""simulationMode"": [null, null, null], ""queries"": {""mouseover"": {""state"": {""target"": [], ""time"": []}, ""edge"": {""target"": [], ""time"": []}}, ""click"": {""state"": {""target"": [""9"", ""10""], ""time"": [8207, 9645]}, ""edge"": {""target"": [], ""time"": []}}, ""mouseout"": {""state"": {""target"": [], ""time"": []}, ""edge"": {""target"": [], ""time"": []}}}, ""path"": [""0"", ""9"", ""10"", ""12""], ""internal_node_id"": ""0.0-3.0-6.0"", ""block"": ""test""}"
A120PN22KW0VPY:3JCG6DTRV3QM6439926L3TKKBWOQQE,44,1517354601566,"{""rt"": [6167, 236, 1400], ""trial_type"": ""mouselab-mdp"", ""trialTime"": 11338, ""rewards"": [-48, -8, 4], ""stateRewards"": ["""", -48, 4, -2, 4, -48, -8, -2, 4, -48, 8, -2, -4], ""actionTimes"": [6172, 6927, 8841], ""trial_id"": 2045193736832319500, ""time_elapsed"": 1053147, ""actions"": [""right"", ""right"", ""down""], ""trialIndex"": 37, ""score"": -53, ""trial_index"": 44, ""simulationMode"": [null, null, null], ""queries"": {""mouseover"": {""state"": {""target"": [], ""time"": []}, ""edge"": {""target"": [], ""time"": []}}, ""click"": {""state"": {""target"": [""5""], ""time"": [3700]}, ""edge"": {""target"": [], ""time"": []}}, ""mouseout"": {""state"": {""target"": [], ""time"": []}, ""edge"": {""target"": [], ""time"": []}}}, ""path"": [""0"", ""5"", ""6"", ""8""], ""internal_node_id"": ""0.0-3.0-7.0"", ""block"": ""test""}"
A120PN22KW0VPY:3JCG6DTRV3QM6439926L3TKKBWOQQE,45,1517354614812,"{""rt"": [4761, 1013, 2257], ""trial_type"": ""mouselab-mdp"", ""trialTime"": 12040, ""rewards"": [48, 4, -4], ""stateRewards"": ["""", 48, 4, -4, 2, -24, 4, 4, -2, 48, 4, -4, 4], ""actionTimes"": [4766, 6292, 9069], ""trial_id"": -7729495515346041000, ""time_elapsed"": 1066393, ""actions"": [""up"", ""up"", ""right""], ""trialIndex"": 38, ""score"": 47, ""trial_index"": 45, ""simulationMode"": [null, null, null], ""queries"": {""mouseover"": {""state"": {""target"": [], ""time"": []}, ""edge"": {""target"": [], ""time"": []}}, ""click"": {""state"": {""target"": [""1""], ""time"": [2846]}, ""edge"": {""target"": [], ""time"": []}}, ""mouseout"": {""state"": {""target"": [], ""time"": []}, ""edge"": {""target"": [], ""time"": []}}}, ""path"": [""0"", ""1"", ""2"", ""3""], ""internal_node_id"": ""0.0-3.0-8.0"", ""block"": ""test""}"
A120PN22KW0VPY:3JCG6DTRV3QM6439926L3TKKBWOQQE,46,1517354630723,"{""rt"": [7276, 346, 1505], ""trial_type"": ""mouselab-mdp"", ""trialTime"": 14708, ""rewards"": [48, -4, 2], ""stateRewards"": ["""", 48, -4, 2, -2, -24, -4, -2, -2, 24, -4, 4, 2], ""actionTimes"": [7281, 8146, 10170], ""trial_id"": -3005817615203553300, ""time_elapsed"": 1082304, ""actions"": [""up"", ""up"", ""right""], ""trialIndex"": 39, ""score"": 45, ""trial_index"": 46, ""simulationMode"": [null, null, null], ""queries"": {""mouseover"": {""state"": {""target"": [], ""time"": []}, ""edge"": {""target"": [], ""time"": []}}, ""click"": {""state"": {""target"": [""1""], ""time"": [5203]}, ""edge"": {""target"": [], ""time"": []}}, ""mouseout"": {""state"": {""target"": [], ""time"": []}, ""edge"": {""target"": [], ""time"": []}}}, ""path"": [""0"", ""1"", ""2"", ""3""], ""internal_node_id"": ""0.0-3.0-9.0"", ""block"": ""test""}"
