action_times,actions,block,path,queries,rewards,rt,score,simulation_mode,state_rewards,time_elapsed,trial_index,trial_time,trial_id,trial_type,pid
"[7975, 12430, 15959, 17550, 19630]","[u'up', u'up', u'up', u'left', u'left']",pre_test,"[u'0', u'1', u'2', u'3', u'8', u'11']","{u'mouseover': {u'state': {u'target': [], u'time': []}, u'edge': {u'target': [], u'time': []}}, u'click': {u'state': {u'target': [], u'time': []}, u'edge': {u'target': [], u'time': []}}, u'mouseout': {u'state': {u'target': [], u'time': []}, u'edge': {u'target': [], u'time': []}}}","[1, -1, 0, -5, -43]","[7967, 3954, 3030, 1085, 1582]",-48.0,"[None, None, None, None, None]","[u'', 1, -1, 0, 9, 2, -26, -23, -5, 0, 27, -43, -1, -2, -7, 11, -1, 61, -46, 10, -22, -13, -32, -1, -3, 1, -11, -8, 0, 21, 1, 10, 16, -1]",81290,0.0,22342.0,3.45966285876e+18,mouselab-mdp,0
"[6429, 54403, 56251]","[u'right', u'right', u'up']",training,"[u'0', u'5', u'6', u'7']","{u'mouseover': {u'state': {u'target': [], u'time': []}, u'edge': {u'target': [], u'time': []}}, u'click': {u'state': {u'target': [], u'time': []}, u'edge': {u'target': [], u'time': []}}, u'mouseout': {u'state': {u'target': [], u'time': []}, u'edge': {u'target': [], u'time': []}}}","[2, -8, -24]","[6427, 5442, 1353]",-30.0,"[None, None, None]","[u'', 2, 8, 24, -24, 2, -8, -24, -24, 4, -8, 48, 48]",159201,1.0,58883.0,-3.20049588135e+18,mouselab-mdp,0
"[7994, 49596, 50731]","[u'left', u'left', u'up']",training,"[u'0', u'9', u'10', u'11']","{u'mouseover': {u'state': {u'target': [], u'time': []}, u'edge': {u'target': [], u'time': []}}, u'click': {u'state': {u'target': [u'9'], u'time': [6189]}, u'edge': {u'target': [], u'time': []}}, u'mouseout': {u'state': {u'target': [], u'time': []}, u'edge': {u'target': [], u'time': []}}}","[4, -4, 48]","[7990, 1087, 639]",47.0,"[None, None, None]","[u'', 2, -4, 24, -24, -2, 8, 24, 48, 4, -4, 48, 48]",214576,2.0,54331.0,5.2467434854e+18,mouselab-mdp,0
"[10296, 25505, 26546]","[u'up', u'up', u'right']",training,"[u'0', u'1', u'2', u'3']","{u'mouseover': {u'state': {u'target': [], u'time': []}, u'edge': {u'target': [], u'time': []}}, u'click': {u'state': {u'target': [u'11', u'7', u'3'], u'time': [5260, 7556, 9012]}, u'edge': {u'target': [], u'time': []}}, u'mouseout': {u'state': {u'target': [], u'time': []}, u'edge': {u'target': [], u'time': []}}}","[-2, -4, 24]","[10291, 685, 541]",15.0,"[None, None, None]","[u'', -2, -4, 24, -48, -4, 8, -24, -24, 4, -4, -48, 24]",244322,3.0,28698.0,1.39930365593e+18,mouselab-mdp,0
"[10781, 12402, 13396]","[u'right', u'right', u'down']",training,"[u'0', u'5', u'6', u'8']","{u'mouseover': {u'state': {u'target': [], u'time': []}, u'edge': {u'target': [], u'time': []}}, u'click': {u'state': {u'target': [u'4', u'3', u'7', u'8', u'12', u'11'], u'time': [3137, 4779, 6057, 7169, 7992, 8639]}, u'edge': {u'target': [], u'time': []}}, u'mouseout': {u'state': {u'target': [], u'time': []}, u'edge': {u'target': [], u'time': []}}}","[-2, 8, 48]","[10779, 1127, 504]",48.0,"[None, None, None]","[u'', -4, -8, 24, -24, -2, 8, 24, 48, 4, -4, 24, -48]",261825,4.0,16461.0,-1.10044903072e+18,mouselab-mdp,0
"[16945, 18072, 19408]","[u'right', u'right', u'down']",training,"[u'0', u'5', u'6', u'8']","{u'mouseover': {u'state': {u'target': [], u'time': []}, u'edge': {u'target': [], u'time': []}}, u'click': {u'state': {u'target': [u'8', u'7', u'4', u'12', u'11', u'6', u'10'], u'time': [2461, 4540, 5921, 7212, 13184, 14013, 15588]}, u'edge': {u'target': [], u'time': []}}, u'mouseout': {u'state': {u'target': [], u'time': []}, u'edge': {u'target': [], u'time': []}}}","[-4, 8, 48]","[16929, 629, 832]",45.0,"[None, None, None]","[u'', -4, 8, -24, -48, -4, 8, -48, 48, 4, -8, -24, 48]",284471,5.0,21592.0,-1.41484517897e+18,mouselab-mdp,0
"[12787, 13962, 15378]","[u'left', u'left', u'up']",training,"[u'0', u'9', u'10', u'11']","{u'mouseover': {u'state': {u'target': [], u'time': []}, u'edge': {u'target': [], u'time': []}}, u'click': {u'state': {u'target': [u'7', u'8', u'12', u'11', u'4', u'3'], u'time': [2587, 3788, 4939, 6123, 7116, 7947]}, u'edge': {u'target': [], u'time': []}}, u'mouseout': {u'state': {u'target': [], u'time': []}, u'edge': {u'target': [], u'time': []}}}","[2, 4, 24]","[12783, 687, 902]",24.0,"[None, None, None]","[u'', -2, -4, -48, -48, 2, -8, -24, -24, 2, 4, 24, 24]",302881,6.0,17370.0,-7.65696612779e+18,mouselab-mdp,0
"[11668, 12716, 13604]","[u'right', u'right', u'down']",training,"[u'0', u'5', u'6', u'8']","{u'mouseover': {u'state': {u'target': [], u'time': []}, u'edge': {u'target': [], u'time': []}}, u'click': {u'state': {u'target': [u'7', u'4', u'12', u'11', u'8'], u'time': [4592, 6216, 7337, 8216, 9297]}, u'edge': {u'target': [], u'time': []}}, u'mouseout': {u'state': {u'target': [], u'time': []}, u'edge': {u'target': [], u'time': []}}}","[2, 4, 48]","[11667, 551, 389]",49.0,"[None, None, None]","[u'', 4, -8, 24, 24, 2, 4, 24, 48, -2, 4, 24, -48]",319008,7.0,15092.0,6.72269827856e+18,mouselab-mdp,0
"[9108, 9924, 10598]","[u'left', u'left', u'up']",training,"[u'0', u'9', u'10', u'11']","{u'mouseover': {u'state': {u'target': [], u'time': []}, u'edge': {u'target': [], u'time': []}}, u'click': {u'state': {u'target': [u'7', u'8', u'12', u'11', u'4', u'3'], u'time': [2577, 3580, 4377, 5160, 5825, 6616]}, u'edge': {u'target': [], u'time': []}}, u'mouseout': {u'state': {u'target': [], u'time': []}, u'edge': {u'target': [], u'time': []}}}","[4, -4, 24]","[9106, 327, 183]",18.0,"[None, None, None]","[u'', 2, 8, -48, -24, 2, 8, -24, -48, 4, -4, 24, -48]",333047,8.0,13004.0,4.95354184513e+17,mouselab-mdp,0
"[7827, 8707, 9451]","[u'right', u'right', u'down']",training,"[u'0', u'5', u'6', u'8']","{u'mouseover': {u'state': {u'target': [], u'time': []}, u'edge': {u'target': [], u'time': []}}, u'click': {u'state': {u'target': [u'7', u'8', u'12', u'11', u'4', u'3'], u'time': [1943, 3319, 4902, 5511, 6047, 6614]}, u'edge': {u'target': [], u'time': []}}, u'mouseout': {u'state': {u'target': [], u'time': []}, u'edge': {u'target': [], u'time': []}}}","[-2, -8, 48]","[7824, 384, 244]",32.0,"[None, None, None]","[u'', -4, -4, -48, -48, -2, -8, 24, 48, 2, 4, -24, -48]",345622,9.0,11514.0,-1.84824368346e+18,mouselab-mdp,0
"[6772, 7516, 8308]","[u'left', u'left', u'up']",training,"[u'0', u'9', u'10', u'11']","{u'mouseover': {u'state': {u'target': [], u'time': []}, u'edge': {u'target': [], u'time': []}}, u'click': {u'state': {u'target': [u'7', u'8', u'12', u'11', u'4', u'3'], u'time': [2176, 2856, 3721, 4448, 5072, 5600]}, u'edge': {u'target': [], u'time': []}}, u'mouseout': {u'state': {u'target': [], u'time': []}, u'edge': {u'target': [], u'time': []}}}","[-2, 8, 24]","[6770, 251, 292]",24.0,"[None, None, None]","[u'', 2, 4, -24, -48, -2, -4, -24, -24, -2, 8, 24, -24]",356712,10.0,10054.0,1.18238643611e+16,mouselab-mdp,0
"[30162, 31075, 32322, 33235, 34602]","[u'up', u'up', u'up', u'left', u'down']",test,"[u'0', u'1', u'2', u'3', u'8', u'10']","{u'mouseover': {u'state': {u'target': [], u'time': []}, u'edge': {u'target': [], u'time': []}}, u'click': {u'state': {u'target': [u'5', u'9', u'11', u'6', u'16', u'17', u'20', u'18', u'29', u'33', u'31', u'28', u'10', u'7', u'22', u'21', u'27', u'32'], u'time': [3033, 4946, 6770, 7609, 8338, 9689, 10561, 13953, 15001, 16362, 18402, 19466, 20634, 22049, 23329, 24585, 25626, 26458]}, u'edge': {u'target': [], u'time': []}}, u'mouseout': {u'state': {u'target': [], u'time': []}, u'edge': {u'target': [], u'time': []}}}","[-1, 2, 3, -16, 61]","[30153, 416, 746, 407, 874]",31.0,"[None, None, None, None, None]","[u'', -1, 2, 3, 8, 8, -25, -39, -16, -2, 61, 15, 0, -3, -3, 0, -7, 29, -5, 6, -4, -6, 40, -1, -1, -5, 1, 34, 22, 23, 8, 20, 24, 13]",410406,11.0,37419.0,-4.35323372058e+18,mouselab-mdp,0
"[20798, 22150, 22997, 23885, 25366]","[u'right', u'right', u'right', u'down', u'left']",test,"[u'0', u'12', u'13', u'14', u'19', u'22']","{u'mouseover': {u'state': {u'target': [], u'time': []}, u'edge': {u'target': [], u'time': []}}, u'click': {u'state': {u'target': [u'11', u'10', u'9', u'5', u'6', u'7', u'16', u'17', u'18', u'22', u'20', u'21', u'31', u'32', u'33', u'29', u'27', u'28'], u'time': [1992, 2801, 3632, 4225, 4987, 6556, 9236, 9804, 10419, 11000, 11612, 12531, 14075, 14699, 15291, 15899, 16443, 16995]}, u'edge': {u'target': [], u'time': []}}, u'mouseout': {u'state': {u'target': [], u'time': []}, u'edge': {u'target': [], u'time': []}}}","[1, 1, 1, -2, 70]","[20794, 847, 344, 382, 980]",53.0,"[None, None, None, None, None]","[u'', -1, 1, 3, -5, 17, -37, 26, 0, -6, -3, 28, 1, 1, 1, 1, 20, 7, 22, -2, -78, 33, 70, 0, 0, -1, -1, 1, -36, -17, -8, 8, -9, 16]",438783,12.0,27149.0,2.56897496286e+18,mouselab-mdp,0
"[18957, 19885, 20741, 21764, 22669]","[u'left', u'left', u'left', u'down', u'down']",test,"[u'0', u'23', u'24', u'25', u'30', u'32']","{u'mouseover': {u'state': {u'target': [], u'time': []}, u'edge': {u'target': [], u'time': []}}, u'click': {u'state': {u'target': [u'32', u'27', u'33', u'29', u'31', u'28', u'11', u'6', u'5', u'9', u'10', u'7', u'16', u'17', u'20', u'21', u'22', u'18'], u'time': [1827, 3666, 4379, 5267, 6018, 7043, 8403, 9357, 10226, 11026, 11899, 12947, 13682, 14322, 14866, 15515, 16210, 16882]}, u'edge': {u'target': [], u'time': []}}, u'mouseout': {u'state': {u'target': [], u'time': []}, u'edge': {u'target': [], u'time': []}}}","[0, 0, 2, -12, 59]","[18951, 423, 361, 518, 406]",31.0,"[None, None, None, None, None]","[u'', 1, -2, -6, 10, 10, -20, -34, -6, 39, -1, -45, 1, 1, -1, 5, -26, 31, -46, -7, -44, -13, -24, 0, 0, 2, 1, 8, 51, -9, -12, 30, 59, 6]",464150,13.0,24125.0,-7.446303972e+18,mouselab-mdp,0
"[18792, 19592, 20344, 21263, 25816]","[u'right', u'right', u'right', u'up', u'right']",test,"[u'0', u'12', u'13', u'14', u'15', u'17']","{u'mouseover': {u'state': {u'target': [], u'time': []}, u'edge': {u'target': [], u'time': []}}, u'click': {u'state': {u'target': [u'5', u'9', u'32', u'21', u'20', u'22', u'17', u'18', u'6', u'7', u'10', u'11', u'27', u'28', u'29', u'33', u'31'], u'time': [2570, 3842, 4882, 5946, 6698, 7315, 7995, 8818, 9658, 10314, 10970, 12086, 12798, 13590, 14166, 14725, 15486]}, u'edge': {u'target': [], u'time': []}}, u'mouseout': {u'state': {u'target': [], u'time': []}, u'edge': {u'target': [], u'time': []}}}","[-1, -2, 3, -2, 51]","[18787, 298, 232, 402, 4054]",32.0,"[None, None, None, None, None]","[u'', 1, -5, -2, -2, -65, 14, 39, -16, -50, 30, 36, -1, -2, 3, -2, -17, 51, 10, -15, 8, -45, 24, 1, 1, 4, 16, 23, -12, -35, 2, -33, -46, -15]",492377,14.0,27049.0,-5.05047603298e+18,mouselab-mdp,0
"[17279, 18135, 18911, 19799, 21711]","[u'up', u'up', u'up', u'right', u'up']",test,"[u'0', u'1', u'2', u'3', u'4', u'5']","{u'mouseover': {u'state': {u'target': [], u'time': []}, u'edge': {u'target': [], u'time': []}}, u'click': {u'state': {u'target': [u'5', u'9', u'10', u'11', u'7', u'6', u'16', u'18', u'17', u'20', u'21', u'22', u'31', u'32', u'33', u'29', u'27', u'28'], u'time': [1430, 1989, 2661, 3286, 4029, 4653, 5357, 5997, 6533, 7237, 7782, 8293, 9269, 9829, 10492, 11293, 12006, 13221]}, u'edge': {u'target': [], u'time': []}}, u'mouseout': {u'state': {u'target': [], u'time': []}, u'edge': {u'target': [], u'time': []}}}","[0, -1, -1, 8, 39]","[17274, 353, 279, 384, 1395]",27.0,"[None, None, None, None, None]","[u'', 0, -1, -1, 8, 39, -38, -15, -6, 39, -2, 46, 0, 0, -5, 10, -12, -48, -19, -18, -1, 4, 9, 1, -1, 3, 2, -6, -66, 30, -4, 1, -41, 9]",517557,15.0,23966.0,-3.87051221313e+18,mouselab-mdp,0
"[63658, 64249, 64921, 65537, 66185]","[u'up', u'up', u'up', u'right', u'right']",test,"[u'0', u'1', u'2', u'3', u'4', u'6']","{u'mouseover': {u'state': {u'target': [], u'time': []}, u'edge': {u'target': [], u'time': []}}, u'click': {u'state': {u'target': [u'27', u'32', u'31', u'33', u'9', u'11', u'10', u'5', u'6', u'7', u'16', u'18', u'17', u'20', u'21', u'22', u'28', u'29'], u'time': [50967, 51704, 52303, 53005, 54271, 54808, 55256, 55983, 56687, 57367, 58104, 58687, 59231, 59719, 60382, 60919, 61895, 62350]}, u'edge': {u'target': [], u'time': []}}, u'mouseout': {u'state': {u'target': [], u'time': []}, u'edge': {u'target': [], u'time': []}}}","[0, 2, -6, -8, 48]","[63648, 82, 170, 104, 134]",18.0,"[None, None, None, None, None]","[u'', 0, 2, -6, -8, 17, 48, 1, 2, -26, -1, -23, 0, 1, -8, 2, -26, -21, 36, 2, 30, -56, -13, 0, -1, 2, 7, -35, -31, -40, 9, -16, -3, -11]",586220,16.0,67481.0,5.46654630961e+18,mouselab-mdp,0
"[3425, 4289, 5088, 5928, 6759]","[u'up', u'up', u'up', u'left', u'left']",test,"[u'0', u'1', u'2', u'3', u'8', u'11']","{u'mouseover': {u'state': {u'target': [], u'time': []}, u'edge': {u'target': [], u'time': []}}, u'click': {u'state': {u'target': [u'9', u'11', u'10'], u'time': [973, 1701, 2413]}, u'edge': {u'target': [], u'time': []}}, u'mouseout': {u'state': {u'target': [], u'time': []}, u'edge': {u'target': [], u'time': []}}}","[0, -2, -6, 8, 65]","[3420, 357, 290, 328, 327]",62.0,"[None, None, None, None, None]","[u'', 0, -2, -6, -4, -2, 53, -45, 8, 7, 26, 65, 0, 0, -7, -5, 50, 65, 5, 0, 15, 10, 72, -1, -3, -3, -11, 4, 2, -48, 0, -9, 8, -21]",597335,17.0,9875.0,-5.12551101719e+18,mouselab-mdp,0
"[14539, 15259, 15939, 16691, 17443]","[u'up', u'up', u'up', u'left', u'left']",test,"[u'0', u'1', u'2', u'3', u'8', u'11']","{u'mouseover': {u'state': {u'target': [], u'time': []}, u'edge': {u'target': [], u'time': []}}, u'click': {u'state': {u'target': [u'11', u'6', u'16', u'21', u'32', u'27', u'9', u'10', u'29', u'33', u'31', u'28', u'17', u'18', u'22', u'20', u'5', u'7'], u'time': [1089, 1866, 2417, 3129, 4071, 4809, 5672, 6280, 7009, 7513, 8184, 8769, 9529, 10153, 10648, 11354, 12009, 12881]}, u'edge': {u'target': [], u'time': []}}, u'mouseout': {u'state': {u'target': [], u'time': []}, u'edge': {u'target': [], u'time': []}}}","[0, 2, -7, -10, 47]","[14534, 75, 179, 247, 249]",14.0,"[None, None, None, None, None]","[u'', 0, 2, -7, 2, -4, 0, -28, -10, -15, -8, 47, 0, 0, 3, -13, 23, 29, 29, -3, -40, -32, 8, 1, 3, 6, 7, 1, 8, -8, 8, 19, 7, -40]",617542,18.0,18939.0,7.63808305668e+17,mouselab-mdp,0
"[17525, 18238, 19022, 19774, 20566]","[u'left', u'left', u'left', u'down', u'down']",test,"[u'0', u'23', u'24', u'25', u'30', u'32']","{u'mouseover': {u'state': {u'target': [], u'time': []}, u'edge': {u'target': [], u'time': []}}, u'click': {u'state': {u'target': [u'21', u'32', u'27', u'16', u'6', u'11', u'28', u'29', u'33', u'31', u'22', u'20', u'17', u'18', u'7', u'10', u'9', u'5'], u'time': [3772, 4563, 5507, 6387, 7035, 7627, 8597, 9115, 9627, 10300, 11253, 12252, 13052, 13732, 14302, 14900, 15451, 16011]}, u'edge': {u'target': [], u'time': []}}, u'mouseout': {u'state': {u'target': [], u'time': []}, u'edge': {u'target': [], u'time': []}}}","[1, 1, 4, 2, 36]","[17518, 194, 276, 245, 287]",26.0,"[None, None, None, None, None]","[u'', 1, -2, -1, 5, 11, -3, -31, 1, 23, -23, 2, 2, 1, 2, -8, -18, -10, -27, -10, -50, -7, 27, 1, 1, 4, -7, -22, -8, -29, 2, -21, 36, -28]",640349,19.0,21614.0,8.08344173605e+18,mouselab-mdp,0
"[19013, 19725, 20509, 21421, 22653]","[u'right', u'right', u'right', u'down', u'left']",test,"[u'0', u'12', u'13', u'14', u'19', u'22']","{u'mouseover': {u'state': {u'target': [], u'time': []}, u'edge': {u'target': [], u'time': []}}, u'click': {u'state': {u'target': [u'16', u'21', u'17', u'18', u'11', u'6', u'5', u'9', u'10', u'7', u'20', u'22', u'32', u'33', u'31', u'28', u'29', u'27'], u'time': [2667, 3497, 4368, 5544, 6344, 7128, 7968, 8488, 8960, 9424, 10968, 11695, 13553, 14176, 14671, 15330, 15819, 16290]}, u'edge': {u'target': [], u'time': []}}, u'mouseout': {u'state': {u'target': [], u'time': []}, u'edge': {u'target': [], u'time': []}}}","[0, -1, 1, 1, 57]","[19005, 198, 284, 413, 692]",40.0,"[None, None, None, None, None]","[u'', -1, -4, -1, -2, -3, 42, 4, 17, 12, -35, 36, 0, -1, 1, 1, -50, -27, 37, 1, 20, 33, 57, -1, -1, -4, -5, -29, 0, -3, 5, -38, -21, 12]",665182,20.0,23597.0,3.0362372842e+18,mouselab-mdp,0
"[21748, 22372, 23029, 23853, 24844]","[u'up', u'up', u'up', u'right', u'down']",test,"[u'0', u'1', u'2', u'3', u'4', u'7']","{u'mouseover': {u'state': {u'target': [], u'time': []}, u'edge': {u'target': [], u'time': []}}, u'click': {u'state': {u'target': [u'5', u'9', u'10', u'7', u'6', u'11', u'16', u'21', u'22', u'20', u'17', u'18', u'27', u'29', u'33', u'32', u'31', u'28'], u'time': [9020, 9705, 10304, 10786, 11386, 12114, 12978, 13850, 14378, 14978, 15690, 16186, 17042, 17562, 18114, 18682, 19841, 20330]}, u'edge': {u'target': [], u'time': []}}, u'mouseout': {u'state': {u'target': [], u'time': []}, u'edge': {u'target': [], u'time': []}}}","[2, -1, -2, -9, 56]","[21744, 114, 140, 282, 479]",28.0,"[None, None, None, None, None]","[u'', 2, -1, -2, -9, 28, -74, 56, -6, 10, -8, 47, -2, -1, -2, 9, -35, -6, -28, 0, 19, -35, 37, 1, 1, 4, -5, -4, -30, -9, 4, -22, -13, -22]",693012,21.0,26556.0,3.65628160379e+18,mouselab-mdp,0
"[16368, 17064, 17848, 18568, 19384]","[u'left', u'left', u'left', u'down', u'down']",test,"[u'0', u'23', u'24', u'25', u'30', u'32']","{u'mouseover': {u'state': {u'target': [], u'time': []}, u'edge': {u'target': [], u'time': []}}, u'click': {u'state': {u'target': [u'11', u'32', u'33', u'27', u'28', u'31', u'29', u'21', u'22', u'20', u'17', u'18', u'16', u'6', u'5', u'9', u'10', u'7'], u'time': [1655, 2470, 3246, 3933, 4485, 4958, 5582, 6421, 6934, 7438, 7934, 8414, 8990, 9742, 10334, 11150, 11663, 12141]}, u'edge': {u'target': [], u'time': []}}, u'mouseout': {u'state': {u'target': [], u'time': []}, u'edge': {u'target': [], u'time': []}}}","[-1, 1, -2, 8, 28]","[16362, 193, 276, 212, 312]",16.0,"[None, None, None, None, None]","[u'', 0, -2, -2, -8, -65, 26, -5, -7, -42, -18, -40, 1, -4, -4, -7, 15, 8, -5, -1, 13, -25, 15, -1, 1, -2, 9, -39, -15, -26, 8, -45, 28, 15]",714827,22.0,20568.0,-3.54350647552e+18,mouselab-mdp,0
"[2873, 3465, 4177, 4873, 5777]","[u'left', u'left', u'left', u'down', u'left']",test,"[u'0', u'23', u'24', u'25', u'30', u'33']","{u'mouseover': {u'state': {u'target': [], u'time': []}, u'edge': {u'target': [], u'time': []}}, u'click': {u'state': {u'target': [u'33'], u'time': [1502]}, u'edge': {u'target': [], u'time': []}}, u'mouseout': {u'state': {u'target': [], u'time': []}, u'edge': {u'target': [], u'time': []}}}","[1, -3, -1, 7, 65]","[2867, 82, 212, 191, 393]",68.0,"[None, None, None, None, None]","[u'', -1, -2, 3, -3, -6, -5, 35, 13, 14, -8, 45, 0, -1, 4, 2, -46, 20, 10, -15, -69, 4, 22, 1, -3, -1, 5, -49, 3, 7, 7, -79, 5, 65]",726349,23.0,10344.0,-8.33669581469e+18,mouselab-mdp,0
"[6959, 7591, 8231, 8983, 9631]","[u'left', u'left', u'left', u'up', u'left']",test,"[u'0', u'23', u'24', u'25', u'26', u'29']","{u'mouseover': {u'state': {u'target': [], u'time': []}, u'edge': {u'target': [], u'time': []}}, u'click': {u'state': {u'target': [u'17', u'5', u'10', u'29'], u'time': [1428, 3206, 4507, 5492]}, u'edge': {u'target': [], u'time': []}}, u'mouseout': {u'state': {u'target': [], u'time': []}, u'edge': {u'target': [], u'time': []}}}","[1, -2, -2, 2, 64]","[6927, 130, 114, 235, 131]",59.0,"[None, None, None, None, None]","[u'', -3, 1, 3, -12, 3, 9, 11, -4, 3, 19, -57, 1, -1, 3, -6, -55, 38, 53, -15, -41, 3, -34, 1, -2, -2, 2, -70, -10, 64, 5, -32, 33, 66]",738980,24.0,11414.0,-7.40831087289e+18,mouselab-mdp,0
"[5161, 5792, 6472, 7192, 7952]","[u'up', u'up', u'up', u'right', u'up']",test,"[u'0', u'1', u'2', u'3', u'4', u'5']","{u'mouseover': {u'state': {u'target': [], u'time': []}, u'edge': {u'target': [], u'time': []}}, u'click': {u'state': {u'target': [u'32', u'5'], u'time': [1758, 2829]}, u'edge': {u'target': [], u'time': []}}, u'mouseout': {u'state': {u'target': [], u'time': []}, u'edge': {u'target': [], u'time': []}}}","[0, 0, -2, -4, 64]","[5156, 136, 165, 204, 244]",56.0,"[None, None, None, None, None]","[u'', 0, 0, -2, -4, 64, 0, 55, -8, 24, 0, 54, 0, 4, -2, 0, -37, -1, -7, -9, -59, 29, 16, -1, 0, -3, -1, 8, 11, -16, -2, 17, -21, -18]",749868,25.0,9672.0,-2.3421757787e+18,mouselab-mdp,0
"[8233, 8858, 9537, 10225, 11009]","[u'left', u'left', u'left', u'up', u'left']",test,"[u'0', u'23', u'24', u'25', u'26', u'29']","{u'mouseover': {u'state': {u'target': [], u'time': []}, u'edge': {u'target': [], u'time': []}}, u'click': {u'state': {u'target': [u'21', u'9', u'29', u'33', u'17', u'18', u'6', u'11'], u'time': [1143, 2294, 3039, 3910, 5039, 5710, 6239, 7248]}, u'edge': {u'target': [], u'time': []}}, u'mouseout': {u'state': {u'target': [], u'time': []}, u'edge': {u'target': [], u'time': []}}}","[1, 0, 4, 12, 56]","[8227, 110, 167, 175, 275]",65.0,"[None, None, None, None, None]","[u'', -1, 1, -9, -9, -1, -55, 2, -6, -9, -8, 6, -1, 0, -2, 4, 54, 6, 5, -9, 22, -24, -26, 1, 0, 4, 12, -17, 4, 56, 8, 23, 42, -19]",763219,26.0,12089.0,5.55140159652e+18,mouselab-mdp,0
"[13831, 14374, 14966, 15566, 16279]","[u'left', u'left', u'left', u'down', u'down']",test,"[u'0', u'23', u'24', u'25', u'30', u'32']","{u'mouseover': {u'state': {u'target': [], u'time': []}, u'edge': {u'target': [], u'time': []}}, u'click': {u'state': {u'target': [u'11', u'6', u'16', u'33', u'32', u'27', u'29', u'9', u'5', u'21', u'20', u'22', u'17', u'31', u'28'], u'time': [1313, 2041, 2529, 3513, 4208, 5072, 5665, 6561, 7801, 8552, 9089, 9704, 10352, 11305, 11970]}, u'edge': {u'target': [], u'time': []}}, u'mouseout': {u'state': {u'target': [], u'time': []}, u'edge': {u'target': [], u'time': []}}}","[0, 1, -1, -6, 38]","[13821, 34, 79, 95, 208]",17.0,"[None, None, None, None, None]","[u'', 1, -1, -3, -3, -34, 1, -32, -7, 10, -18, -7, 2, 1, 5, 4, 19, -43, -18, -2, -14, -6, 5, 0, 1, -1, 9, 0, -19, -40, -6, -8, 38, -41]",781637,27.0,17214.0,5.01968822029e+18,mouselab-mdp,0
"[13855, 14911, 15734, 16558, 17294]","[u'up', u'up', u'up', u'right', u'up']",test,"[u'0', u'1', u'2', u'3', u'4', u'5']","{u'mouseover': {u'state': {u'target': [], u'time': []}, u'edge': {u'target': [], u'time': []}}, u'click': {u'state': {u'target': [u'9', u'21', u'16', u'29', u'33', u'31', u'32', u'28', u'27', u'11', u'6', u'5', u'17', u'20', u'22', u'18'], u'time': [1173, 2100, 3020, 3668, 4276, 4836, 5420, 6019, 7204, 7764, 8701, 9636, 10836, 11347, 11980, 12532]}, u'edge': {u'target': [], u'time': []}}, u'mouseout': {u'state': {u'target': [], u'time': []}, u'edge': {u'target': [], u'time': []}}}","[0, 2, -4, -1, 46]","[13845, 549, 305, 312, 214]",27.0,"[None, None, None, None, None]","[u'', 0, 2, -4, -1, 46, -20, -65, -16, -80, -68, -13, 1, -1, 1, -1, 0, -5, -6, 4, -38, 32, 29, 0, 2, -3, -4, 5, -6, -14, -5, -18, 30, -62]",801316,28.0,18350.0,-3.13580120687e+18,mouselab-mdp,0
"[16237, 16796, 17468, 18084, 18764]","[u'up', u'up', u'up', u'left', u'down']",test,"[u'0', u'1', u'2', u'3', u'8', u'10']","{u'mouseover': {u'state': {u'target': [], u'time': []}, u'edge': {u'target': [], u'time': []}}, u'click': {u'state': {u'target': [u'9', u'6', u'21', u'32', u'27', u'29', u'33', u'28', u'31', u'16', u'11', u'10', u'17', u'18', u'22', u'20'], u'time': [1570, 2250, 3154, 3953, 4682, 5513, 6178, 7034, 7756, 8625, 10354, 10906, 12065, 12850, 13393, 13929]}, u'edge': {u'target': [], u'time': []}}, u'mouseout': {u'state': {u'target': [], u'time': []}, u'edge': {u'target': [], u'time': []}}}","[-1, 0, -2, 0, 55]","[16230, 54, 160, 93, 170]",36.0,"[None, None, None, None, None]","[u'', -1, 0, -2, 1, 18, 17, 42, 0, 31, 55, -39, 1, -2, -6, 13, 36, 17, -15, 12, -44, 2, 16, 1, -3, -12, 1, 10, 6, -28, 0, -49, 13, 29]",822299,29.0,19700.0,-5.25678087456e+18,mouselab-mdp,0
"[14280, 15199, 15873, 16455, 17119]","[u'up', u'up', u'up', u'left', u'left']",test,"[u'0', u'1', u'2', u'3', u'8', u'11']","{u'mouseover': {u'state': {u'target': [], u'time': []}, u'edge': {u'target': [], u'time': []}}, u'click': {u'state': {u'target': [u'9', u'32', u'6', u'11', u'17', u'18', u'16', u'20', u'21', u'22', u'31', u'33', u'29', u'28', u'27', u'5', u'7'], u'time': [1058, 2282, 3041, 3753, 4698, 5409, 5945, 6497, 6987, 7474, 8330, 9178, 9882, 10666, 11338, 12209, 12874]}, u'edge': {u'target': [], u'time': []}}, u'mouseout': {u'state': {u'target': [], u'time': []}, u'edge': {u'target': [], u'time': []}}}","[-1, -1, 0, -2, 54]","[14271, 420, 156, 57, 156]",33.0,"[None, None, None, None, None]","[u'', -1, -1, 0, -9, 8, 53, 24, -2, -28, -24, 54, 0, -1, 1, 17, 4, 20, 10, -3, -37, -11, -7, 1, 2, 4, 2, 28, -24, 40, 4, -10, 16, -2]",842140,30.0,18598.0,-8.14198867507e+18,mouselab-mdp,0
"[16329, 17152, 18227, 18912, 19734]","[u'left', u'left', u'left', u'up', u'right']",pre_test,"[u'0', u'23', u'24', u'25', u'26', u'28']","{u'mouseover': {u'state': {u'target': [], u'time': []}, u'edge': {u'target': [], u'time': []}}, u'click': {u'state': {u'target': [u'12', u'1', u'23', u'24', u'25', u'26', u'28', u'27', u'29', u'31', u'30', u'32', u'33', u'13', u'14', u'15'], u'time': [1274, 1893, 2421, 2937, 3345, 3703, 4380, 5101, 5650, 6505, 9069, 9869, 10469, 13785, 14500, 15146]}, u'edge': {u'target': [], u'time': []}}, u'mouseout': {u'state': {u'target': [], u'time': []}, u'edge': {u'target': [], u'time': []}}}","[-1, -1, -5, 1, 22]","[16320, 305, 569, 163, 317]",0.0,"[None, None, None, None, None]","[u'', -1, 2, 3, 8, 8, -25, -39, -16, -2, 61, 15, 0, -3, -3, 0, -7, 29, -5, 6, -4, -6, 40, -1, -1, -5, 1, 34, 22, 23, 8, 20, 24, 13]",61975,0.0,29756.0,-4.35323372058e+18,mouselab-mdp,1
"[18070, 19130, 19768]","[u'up', u'up', u'right']",training,"[u'0', u'1', u'2', u'3']","{u'mouseover': {u'state': {u'target': [], u'time': []}, u'edge': {u'target': [], u'time': []}}, u'click': {u'state': {u'target': [u'5', u'7', u'8', u'3', u'4', u'11', u'12', u'2', u'10'], u'time': [7372, 7618, 8980, 10121, 11008, 11709, 15225, 15626, 16476]}, u'edge': {u'target': [], u'time': []}}, u'mouseout': {u'state': {u'target': [], u'time': []}, u'edge': {u'target': [], u'time': []}}}","[-4, 8, 48]","[18065, 535, 121]",43.0,"[None, None, None]","[u'', -4, 8, 48, 24, 2, -8, -48, -24, -4, -4, 48, -24]",92685,1.0,21805.0,3.41976950562e+18,mouselab-mdp,1
"[9473, 10115, 10849]","[u'right', u'right', u'up']",training,"[u'0', u'5', u'6', u'7']","{u'mouseover': {u'state': {u'target': [], u'time': []}, u'edge': {u'target': [], u'time': []}}, u'click': {u'state': {u'target': [u'3', u'4', u'11', u'12', u'8', u'7'], u'time': [2544, 3701, 4496, 5187, 5910, 7618]}, u'edge': {u'target': [], u'time': []}}, u'mouseout': {u'state': {u'target': [], u'time': []}, u'edge': {u'target': [], u'time': []}}}","[4, 8, 48]","[9470, 136, 225]",54.0,"[None, None, None]","[u'', -2, -8, -24, -24, 4, 8, 48, 24, -2, 8, -24, -48]",114327,2.0,20582.0,4.07975241014e+18,mouselab-mdp,1
"[14160, 14734, 15589]","[u'left', u'left', u'up']",training,"[u'0', u'9', u'10', u'11']","{u'mouseover': {u'state': {u'target': [], u'time': []}, u'edge': {u'target': [], u'time': []}}, u'click': {u'state': {u'target': [u'3', u'4', u'7', u'8', u'12', u'11', u'10', u'2', u'6'], u'time': [7789, 8528, 9105, 9754, 10580, 11070, 11849, 12371, 13117]}, u'edge': {u'target': [], u'time': []}}, u'mouseout': {u'state': {u'target': [], u'time': []}, u'edge': {u'target': [], u'time': []}}}","[2, 4, 24]","[14157, 58, 345]",21.0,"[None, None, None]","[u'', 2, -4, 24, -48, -2, -8, 24, -48, 2, 4, 24, -48]",133026,3.0,17643.0,2.65301876191e+18,mouselab-mdp,1
"[7355, 8164, 9068]","[u'right', u'right', u'down']",training,"[u'0', u'5', u'6', u'8']","{u'mouseover': {u'state': {u'target': [], u'time': []}, u'edge': {u'target': [], u'time': []}}, u'click': {u'state': {u'target': [u'4', u'3', u'7', u'8', u'12', u'11', u'10', u'6', u'2'], u'time': [1013, 1572, 2186, 2758, 3771, 4262, 4699, 5492, 6355]}, u'edge': {u'target': [], u'time': []}}, u'mouseout': {u'state': {u'target': [], u'time': []}, u'edge': {u'target': [], u'time': []}}}","[4, 8, 24]","[7353, 294, 399]",27.0,"[None, None, None]","[u'', 2, 4, 24, -24, 4, 8, -48, 24, 4, -8, -24, 24]",144990,4.0,10918.0,8.9509461883e+18,mouselab-mdp,1
"[4769, 5375, 5950]","[u'up', u'up', u'right']",training,"[u'0', u'1', u'2', u'3']","{u'mouseover': {u'state': {u'target': [], u'time': []}, u'edge': {u'target': [], u'time': []}}, u'click': {u'state': {u'target': [u'3', u'4', u'11', u'12', u'7', u'8'], u'time': [707, 1350, 1807, 2267, 2804, 3271]}, u'edge': {u'target': [], u'time': []}}, u'mouseout': {u'state': {u'target': [], u'time': []}, u'edge': {u'target': [], u'time': []}}}","[2, -4, 24]","[4767, 95, 69]",16.0,"[None, None, None]","[u'', 2, -4, 24, 24, -4, 4, -24, -24, -2, 4, -24, -48]",155601,5.0,9560.0,7.86254308938e+18,mouselab-mdp,1
"[11129, 11754, 12437]","[u'right', u'right', u'down']",training,"[u'0', u'5', u'6', u'8']","{u'mouseover': {u'state': {u'target': [], u'time': []}, u'edge': {u'target': [], u'time': []}}, u'click': {u'state': {u'target': [u'4', u'3', u'7', u'8', u'12', u'2', u'6'], u'time': [1151, 1596, 2141, 3618, 8769, 9289, 10233]}, u'edge': {u'target': [], u'time': []}}, u'mouseout': {u'state': {u'target': [], u'time': []}, u'edge': {u'target': [], u'time': []}}}","[-4, 8, 48]","[11125, 105, 170]",45.0,"[None, None, None]","[u'', 2, 4, -24, 48, -4, 8, -48, 48, 2, -4, 24, -24]",170723,6.0,14055.0,-8.3276713645e+18,mouselab-mdp,1
"[6374, 7012, 7581]","[u'up', u'up', u'right']",training,"[u'0', u'1', u'2', u'3']","{u'mouseover': {u'state': {u'target': [], u'time': []}, u'edge': {u'target': [], u'time': []}}, u'click': {u'state': {u'target': [u'3', u'4', u'7', u'8', u'2'], u'time': [1039, 1619, 2326, 3040, 5444]}, u'edge': {u'target': [], u'time': []}}, u'mouseout': {u'state': {u'target': [], u'time': []}, u'edge': {u'target': [], u'time': []}}}","[2, 8, 48]","[6372, 125, 59]",53.0,"[None, None, None]","[u'', 2, 8, 48, 24, -2, 4, 24, 24, -2, -4, -48, -24]",180635,7.0,8874.0,-8.92386760362e+18,mouselab-mdp,1
"[5278, 5871, 6462]","[u'right', u'right', u'down']",training,"[u'0', u'5', u'6', u'8']","{u'mouseover': {u'state': {u'target': [], u'time': []}, u'edge': {u'target': [], u'time': []}}, u'click': {u'state': {u'target': [u'4', u'3', u'7', u'8', u'12', u'11'], u'time': [1139, 1831, 2319, 2874, 3399, 3878]}, u'edge': {u'target': [], u'time': []}}, u'mouseout': {u'state': {u'target': [], u'time': []}, u'edge': {u'target': [], u'time': []}}}","[-2, -8, 48]","[5274, 77, 84]",32.0,"[None, None, None]","[u'', -4, -4, -48, -48, -2, -8, 24, 48, 2, 4, -24, -48]",190403,8.0,8717.0,-1.84824368346e+18,mouselab-mdp,1
"[16180, 16896, 17564]","[u'right', u'right', u'down']",training,"[u'0', u'5', u'6', u'8']","{u'mouseover': {u'state': {u'target': [], u'time': []}, u'edge': {u'target': [], u'time': []}}, u'click': {u'state': {u'target': [u'4', u'3', u'7', u'8', u'12', u'6', u'2', u'5', u'11'], u'time': [974, 1497, 2046, 2595, 6489, 7105, 7963, 13145, 13669]}, u'edge': {u'target': [], u'time': []}}, u'mouseout': {u'state': {u'target': [], u'time': []}, u'edge': {u'target': [], u'time': []}}}","[4, -8, 48]","[16177, 200, 156]",35.0,"[None, None, None]","[u'', 4, -8, 24, 48, 4, -8, -24, 48, -2, -8, 24, -24]",210493,9.0,19044.0,6.60860815513e+18,mouselab-mdp,1
"[5793, 6338, 7133]","[u'left', u'left', u'up']",training,"[u'0', u'9', u'10', u'11']","{u'mouseover': {u'state': {u'target': [], u'time': []}, u'edge': {u'target': [], u'time': []}}, u'click': {u'state': {u'target': [u'4', u'3', u'7', u'8', u'12', u'11'], u'time': [1089, 1578, 2123, 2872, 3840, 4396]}, u'edge': {u'target': [], u'time': []}}, u'mouseout': {u'state': {u'target': [], u'time': []}, u'edge': {u'target': [], u'time': []}}}","[-2, -8, 48]","[5791, 26, 281]",32.0,"[None, None, None]","[u'', -2, 8, 24, -48, 2, 4, -24, 24, -2, -8, 48, -24]",220078,10.0,8518.0,6.28255860945e+18,mouselab-mdp,1
"[10729, 11366, 12018, 12704, 13560]","[u'left', u'left', u'left', u'down', u'left']",test,"[u'0', u'23', u'24', u'25', u'30', u'33']","{u'mouseover': {u'state': {u'target': [], u'time': []}, u'edge': {u'target': [], u'time': []}}, u'click': {u'state': {u'target': [u'27', u'28', u'29', u'33'], u'time': [4332, 5124, 5874, 6561]}, u'edge': {u'target': [], u'time': []}}, u'mouseout': {u'state': {u'target': [], u'time': []}, u'edge': {u'target': [], u'time': []}}}","[1, 0, 1, -5, 58]","[10722, 142, 130, 167, 339]",51.0,"[None, None, None, None, None]","[u'', 0, 1, 0, 7, -3, 60, -35, 7, 32, 41, -4, 0, 3, 2, -5, 27, 51, 21, -6, 31, -49, 25, 1, 0, 1, 1, -17, -27, -9, -5, 48, -43, 58]",250369,11.0,15473.0,2.45129555479e+18,mouselab-mdp,1
"[18721, 19701, 20743, 21771, 22579]","[u'left', u'left', u'left', u'down', u'down']",test,"[u'0', u'23', u'24', u'25', u'30', u'32']","{u'mouseover': {u'state': {u'target': [], u'time': []}, u'edge': {u'target': [], u'time': []}}, u'click': {u'state': {u'target': [u'27', u'29', u'33', u'32', u'31', u'28', u'9', u'10', u'11', u'7', u'5', u'6', u'17', u'16', u'18', u'20', u'21', u'22'], u'time': [5554, 6202, 7385, 7858, 8443, 8995, 10069, 11069, 11733, 12312, 13200, 13612, 14693, 15241, 15734, 16395, 16871, 17333]}, u'edge': {u'target': [], u'time': []}}, u'mouseout': {u'state': {u'target': [], u'time': []}, u'edge': {u'target': [], u'time': []}}}","[-1, 1, -2, 8, 28]","[18717, 459, 534, 512, 285]",16.0,"[None, None, None, None, None]","[u'', 0, -2, -2, -8, -65, 26, -5, -7, -42, -18, -40, 1, -4, -4, -7, 15, 8, -5, -1, 13, -25, 15, -1, 1, -2, 9, -39, -15, -26, 8, -45, 28, 15]",276948,12.0,25195.0,-3.54350647552e+18,mouselab-mdp,1
"[4761, 5306, 6054, 6771, 7642]","[u'left', u'left', u'left', u'up', u'left']",test,"[u'0', u'23', u'24', u'25', u'26', u'29']","{u'mouseover': {u'state': {u'target': [], u'time': []}, u'edge': {u'target': [], u'time': []}}, u'click': {u'state': {u'target': [u'29'], u'time': [2598]}, u'edge': {u'target': [], u'time': []}}, u'mouseout': {u'state': {u'target': [], u'time': []}, u'edge': {u'target': [], u'time': []}}}","[0, 0, -1, -7, 57]","[4755, 24, 239, 203, 357]",48.0,"[None, None, None, None, None]","[u'', 0, 0, 3, 4, -89, 19, 10, 0, -15, 27, -13, 2, 1, 9, -6, -56, 23, 27, 0, -49, -14, 20, 0, 0, -1, -7, -17, -46, 57, -4, 15, -33, 25]",288617,13.0,10456.0,-3.34502625076e+18,mouselab-mdp,1
"[4507, 5115, 5785, 6561, 7246]","[u'left', u'left', u'left', u'down', u'right']",test,"[u'0', u'23', u'24', u'25', u'30', u'31']","{u'mouseover': {u'state': {u'target': [], u'time': []}, u'edge': {u'target': [], u'time': []}}, u'click': {u'state': {u'target': [u'29', u'27', u'28', u'31'], u'time': [1499, 2012, 2502, 3106]}, u'edge': {u'target': [], u'time': []}}, u'mouseout': {u'state': {u'target': [], u'time': []}, u'edge': {u'target': [], u'time': []}}}","[0, 6, -3, 11, 54]","[4502, 100, 162, 254, 169]",64.0,"[None, None, None, None, None]","[u'', 1, -3, 4, 7, 45, -19, 6, 7, 10, -14, 10, 0, 2, -3, 3, 9, 24, -2, 1, -2, 1, 0, 0, 6, -3, -9, -25, -23, 0, 11, 54, 8, -80]",300926,14.0,11011.0,-8.90147560604e+18,mouselab-mdp,1
"[5580, 6157, 6763, 7404, 8242]","[u'right', u'right', u'right', u'down', u'right']",test,"[u'0', u'12', u'13', u'14', u'19', u'20']","{u'mouseover': {u'state': {u'target': [], u'time': []}, u'edge': {u'target': [], u'time': []}}, u'click': {u'state': {u'target': [u'33', u'32', u'31', u'21', u'20'], u'time': [1609, 2152, 2674, 3689, 4246]}, u'edge': {u'target': [], u'time': []}}, u'mouseout': {u'state': {u'target': [], u'time': []}, u'edge': {u'target': [], u'time': []}}}","[0, -2, 9, -7, 52]","[5573, 67, 92, 130, 319]",47.0,"[None, None, None, None, None]","[u'', 1, 3, -5, -4, -25, -34, 8, 4, -23, -16, 8, 0, -2, 9, -2, 3, -20, -8, -7, 52, -59, -6, 1, -3, 2, 11, 9, 0, -1, -2, 19, -28, 10]",317079,15.0,14949.0,-7.29297814771e+18,mouselab-mdp,1
"[8239, 8858, 9497, 10243, 11021]","[u'left', u'left', u'left', u'down', u'left']",test,"[u'0', u'23', u'24', u'25', u'30', u'33']","{u'mouseover': {u'state': {u'target': [], u'time': []}, u'edge': {u'target': [], u'time': []}}, u'click': {u'state': {u'target': [u'20', u'21', u'22', u'17', u'16', u'18', u'31', u'32', u'33'], u'time': [1452, 2283, 2746, 3226, 3931, 5252, 6246, 6714, 7197]}, u'edge': {u'target': [], u'time': []}}, u'mouseout': {u'state': {u'target': [], u'time': []}, u'edge': {u'target': [], u'time': []}}}","[0, 2, 0, -5, 55]","[8234, 99, 120, 227, 262]",43.0,"[None, None, None, None, None]","[u'', 0, 3, 2, -13, 127, 21, 3, -11, 3, -15, 21, 0, 4, 1, 4, 12, -5, -6, 9, 25, -20, -36, 0, 2, 0, 14, -25, 5, -81, -5, -10, 16, 55]",339160,16.0,20903.0,-7.72010987048e+18,mouselab-mdp,1
"[4261, 4914, 5615, 6361, 7108]","[u'left', u'left', u'left', u'up', u'right']",test,"[u'0', u'23', u'24', u'25', u'26', u'28']","{u'mouseover': {u'state': {u'target': [], u'time': []}, u'edge': {u'target': [], u'time': []}}, u'click': {u'state': {u'target': [u'29', u'27', u'28'], u'time': [1220, 2051, 2614]}, u'edge': {u'target': [], u'time': []}}, u'mouseout': {u'state': {u'target': [], u'time': []}, u'edge': {u'target': [], u'time': []}}}","[0, 1, 0, 9, 61]","[4256, 131, 181, 229, 225]",68.0,"[None, None, None, None, None]","[u'', 0, 2, 1, 18, -61, -21, 29, 20, -8, 1, -7, 1, -1, 3, -3, -41, 10, 16, 10, -4, -20, 18, 0, 1, 0, 9, 12, 61, 36, 5, -52, 19, 13]",353300,17.0,12989.0,6.77571634251e+18,mouselab-mdp,1
"[9023, 9630, 10256, 10936, 11744]","[u'up', u'up', u'up', u'right', u'up']",test,"[u'0', u'1', u'2', u'3', u'4', u'5']","{u'mouseover': {u'state': {u'target': [], u'time': []}, u'edge': {u'target': [], u'time': []}}, u'click': {u'state': {u'target': [u'29', u'27', u'28', u'31', u'32', u'33', u'9', u'11', u'5', u'6'], u'time': [1278, 1806, 2344, 2996, 3456, 4841, 5764, 6309, 7456, 8018]}, u'edge': {u'target': [], u'time': []}}, u'mouseout': {u'state': {u'target': [], u'time': []}, u'edge': {u'target': [], u'time': []}}}","[0, 2, -4, -1, 46]","[9020, 92, 117, 164, 290]",33.0,"[None, None, None, None, None]","[u'', 0, 2, -4, -1, 46, -20, -65, -16, -80, -68, -13, 1, -1, 1, -1, 0, -5, -6, 4, -38, 32, 29, 0, 2, -3, -4, 5, -6, -14, -5, -18, 30, -62]",369155,18.0,14453.0,-3.13580120687e+18,mouselab-mdp,1
"[5750, 6356, 6964, 7663, 8489]","[u'up', u'up', u'up', u'right', u'up']",test,"[u'0', u'1', u'2', u'3', u'4', u'5']","{u'mouseover': {u'state': {u'target': [], u'time': []}, u'edge': {u'target': [], u'time': []}}, u'click': {u'state': {u'target': [u'5'], u'time': [4683]}, u'edge': {u'target': [], u'time': []}}, u'mouseout': {u'state': {u'target': [], u'time': []}, u'edge': {u'target': [], u'time': []}}}","[0, 1, 6, 0, 65]","[5746, 97, 85, 197, 313]",71.0,"[None, None, None, None, None]","[u'', 0, 1, 6, 0, 65, -20, -17, 3, -11, 38, -21, 1, 0, 10, -4, -6, 5, -70, 5, 15, 3, -49, -2, 1, 5, 13, -29, -33, -9, -16, -19, 27, 52]",382551,19.0,12191.0,-1.64462434052e+18,mouselab-mdp,1
"[5129, 5751, 6389, 7166, 7929]","[u'up', u'up', u'up', u'left', u'up']",test,"[u'0', u'1', u'2', u'3', u'8', u'9']","{u'mouseover': {u'state': {u'target': [], u'time': []}, u'edge': {u'target': [], u'time': []}}, u'click': {u'state': {u'target': [u'5', u'6', u'7', u'10', u'11', u'9'], u'time': [1086, 1676, 2205, 2732, 3175, 3676]}, u'edge': {u'target': [], u'time': []}}, u'mouseout': {u'state': {u'target': [], u'time': []}, u'edge': {u'target': [], u'time': []}}}","[-1, 4, 3, -8, 46]","[5106, 100, 119, 265, 245]",38.0,"[None, None, None, None, None]","[u'', -1, 4, 3, -5, 1, 10, -3, -8, 46, -38, 28, 0, -2, -1, -15, 9, 23, -17, 2, -80, -17, -43, 1, 0, 0, -2, -8, 25, -33, 7, 22, 33, -11]",394034,20.0,10201.0,4.29183515435e+18,mouselab-mdp,1
"[12615, 13362, 14050, 14810, 15540]","[u'left', u'left', u'left', u'up', u'up']",test,"[u'0', u'23', u'24', u'25', u'26', u'27']","{u'mouseover': {u'state': {u'target': [], u'time': []}, u'edge': {u'target': [], u'time': []}}, u'click': {u'state': {u'target': [u'27', u'29', u'28', u'31', u'32', u'33', u'21', u'22', u'20', u'17', u'16', u'18', u'6', u'5', u'7', u'10', u'11', u'9'], u'time': [979, 1574, 2147, 2714, 3183, 4226, 4852, 5420, 5877, 6657, 7166, 7691, 8394, 8828, 9322, 9946, 10411, 10797]}, u'edge': {u'target': [], u'time': []}}, u'mouseout': {u'state': {u'target': [], u'time': []}, u'edge': {u'target': [], u'time': []}}}","[0, 1, 2, 9, 28]","[12606, 225, 175, 240, 220]",22.0,"[None, None, None, None, None]","[u'', -2, -3, 2, -4, -10, -1, -63, 1, 0, -1, 11, -2, 4, -1, -11, 4, -41, 2, 4, -42, 27, 4, 0, 1, 2, 9, 28, 16, -24, 2, -18, -46, -1]",413544,21.0,18186.0,9.42220564742e+17,mouselab-mdp,1
"[12335, 13020, 13830, 14607, 15448]","[u'right', u'right', u'right', u'up', u'left']",test,"[u'0', u'12', u'13', u'14', u'15', u'18']","{u'mouseover': {u'state': {u'target': [], u'time': []}, u'edge': {u'target': [], u'time': []}}, u'click': {u'state': {u'target': [u'9', u'11', u'10', u'7', u'6', u'5', u'27', u'29', u'28', u'31', u'32', u'33', u'21', u'22', u'20', u'17', u'16', u'18'], u'time': [989, 1533, 1954, 2500, 2848, 3206, 4344, 4873, 5318, 5906, 6297, 6908, 7716, 8294, 8969, 9565, 10934, 11424]}, u'edge': {u'target': [], u'time': []}}, u'mouseout': {u'state': {u'target': [], u'time': []}, u'edge': {u'target': [], u'time': []}}}","[0, -3, -3, 5, 58]","[12323, 166, 292, 271, 327]",39.0,"[None, None, None, None, None]","[u'', 0, 1, 7, -1, -39, -38, -21, -13, 26, -16, -10, 0, -3, -3, 5, 20, -14, 58, -10, -11, -7, -89, 2, 1, -4, 16, 19, 14, -19, 1, -49, 25, -12]",438173,22.0,23336.0,-2.39631317689e+18,mouselab-mdp,1
"[3173, 3760, 4352, 5083, 5877]","[u'up', u'up', u'up', u'left', u'left']",test,"[u'0', u'1', u'2', u'3', u'8', u'11']","{u'mouseover': {u'state': {u'target': [], u'time': []}, u'edge': {u'target': [], u'time': []}}, u'click': {u'state': {u'target': [u'9', u'11'], u'time': [1334, 2028]}, u'edge': {u'target': [], u'time': []}}, u'mouseout': {u'state': {u'target': [], u'time': []}, u'edge': {u'target': [], u'time': []}}}","[0, 2, 4, 4, 57]","[3168, 79, 73, 218, 280]",65.0,"[None, None, None, None, None]","[u'', 0, 2, 4, 7, -3, 37, -2, 4, 33, 26, 57, 0, -3, -5, 11, -11, 12, -27, 8, -12, 47, -17, 1, 1, -3, 9, -29, -26, 23, -5, -19, -11, -32]",448833,23.0,9441.0,4.99459683527e+18,mouselab-mdp,1
"[10909, 11515, 12167, 12757, 13580]","[u'right', u'right', u'right', u'down', u'down']",test,"[u'0', u'12', u'13', u'14', u'19', u'21']","{u'mouseover': {u'state': {u'target': [], u'time': []}, u'edge': {u'target': [], u'time': []}}, u'click': {u'state': {u'target': [u'9', u'11', u'10', u'7', u'6', u'5', u'27', u'29', u'28', u'31', u'32', u'33', u'22', u'21', u'20'], u'time': [1093, 1698, 2117, 2719, 3112, 3499, 4530, 5051, 5655, 6252, 7042, 7736, 8881, 9357, 9889]}, u'edge': {u'target': [], u'time': []}}, u'mouseout': {u'state': {u'target': [], u'time': []}, u'edge': {u'target': [], u'time': []}}}","[-1, 1, 6, 3, 52]","[10903, 98, 134, 73, 314]",46.0,"[None, None, None, None, None]","[u'', -2, -3, 6, 5, 20, 37, -65, 12, -37, -31, 33, -1, 1, 6, -5, -19, 22, 29, 3, -51, 52, 20, -2, -2, -4, -6, 8, -23, 39, 9, 2, -34, 0]",464737,24.0,14704.0,-2.21831823842e+18,mouselab-mdp,1
"[2545, 3182, 3864, 4595, 5373]","[u'up', u'up', u'up', u'left', u'left']",test,"[u'0', u'1', u'2', u'3', u'8', u'11']","{u'mouseover': {u'state': {u'target': [], u'time': []}, u'edge': {u'target': [], u'time': []}}, u'click': {u'state': {u'target': [u'9', u'11'], u'time': [828, 1431]}, u'edge': {u'target': [], u'time': []}}, u'mouseout': {u'state': {u'target': [], u'time': []}, u'edge': {u'target': [], u'time': []}}}","[-1, -1, 0, -2, 54]","[2541, 129, 160, 210, 271]",48.0,"[None, None, None, None, None]","[u'', -1, -1, 0, -9, 8, 53, 24, -2, -28, -24, 54, 0, -1, 1, 17, 4, 20, 10, -3, -37, -11, -7, 1, 2, 4, 2, 28, -24, 40, 4, -10, 16, -2]",476266,25.0,10354.0,-8.14198867507e+18,mouselab-mdp,1
"[2927, 3534, 4156, 4795, 5588]","[u'up', u'up', u'up', u'left', u'left']",test,"[u'0', u'1', u'2', u'3', u'8', u'11']","{u'mouseover': {u'state': {u'target': [], u'time': []}, u'edge': {u'target': [], u'time': []}}, u'click': {u'state': {u'target': [u'9', u'11'], u'time': [1177, 1880]}, u'edge': {u'target': [], u'time': []}}, u'mouseout': {u'state': {u'target': [], u'time': []}, u'edge': {u'target': [], u'time': []}}}","[0, 0, 4, 1, 53]","[2921, 85, 118, 125, 274]",56.0,"[None, None, None, None, None]","[u'', 0, 0, 4, 4, -39, 45, 32, 1, 5, 43, 53, 1, -2, 0, 7, -27, -39, 0, 1, 12, 39, -70, 0, 0, 0, 1, 33, 18, -1, 1, 3, -4, 42]",489167,26.0,11737.0,-6.00893554297e+18,mouselab-mdp,1
"[7524, 8131, 8768, 9500, 10278]","[u'left', u'left', u'left', u'down', u'right']",test,"[u'0', u'23', u'24', u'25', u'30', u'31']","{u'mouseover': {u'state': {u'target': [], u'time': []}, u'edge': {u'target': [], u'time': []}}, u'click': {u'state': {u'target': [u'9', u'11', u'10', u'7', u'6', u'5', u'27', u'29', u'28', u'31'], u'time': [1268, 2034, 2574, 3311, 3680, 4106, 4761, 5233, 5698, 6205]}, u'edge': {u'target': [], u'time': []}}, u'mouseout': {u'state': {u'target': [], u'time': []}, u'edge': {u'target': [], u'time': []}}}","[1, 1, -1, -3, 58]","[7517, 93, 115, 212, 269]",46.0,"[None, None, None, None, None]","[u'', -2, 3, 1, 5, 6, -6, -11, 1, 5, 37, 11, 0, 4, -5, -11, 11, -7, -57, -2, -23, 36, -20, 1, 1, -1, 0, 14, -74, 10, -3, 58, -22, 37]",502110,27.0,11789.0,3.27542502628e+18,mouselab-mdp,1
"[6053, 6705, 7342, 8184, 8900]","[u'right', u'right', u'right', u'down', u'left']",test,"[u'0', u'12', u'13', u'14', u'19', u'22']","{u'mouseover': {u'state': {u'target': [], u'time': []}, u'edge': {u'target': [], u'time': []}}, u'click': {u'state': {u'target': [u'27', u'29', u'28', u'31', u'32', u'33', u'22'], u'time': [1274, 1777, 2448, 3038, 3534, 4204, 5046]}, u'edge': {u'target': [], u'time': []}}, u'mouseout': {u'state': {u'target': [], u'time': []}, u'edge': {u'target': [], u'time': []}}}","[-1, 2, -9, 4, 50]","[6049, 140, 129, 321, 203]",39.0,"[None, None, None, None, None]","[u'', -2, 1, 1, -6, 26, 13, 9, -3, 15, 34, -21, -1, 2, -9, -21, -58, 6, 5, 4, 2, 49, 50, 1, -2, 1, -7, -16, -33, 0, 4, 3, -38, -49]",514073,28.0,10782.0,-3.69733404644e+18,mouselab-mdp,1
"[3748, 4416, 5115, 5941, 6827]","[u'up', u'up', u'up', u'right', u'down']",test,"[u'0', u'1', u'2', u'3', u'4', u'7']","{u'mouseover': {u'state': {u'target': [], u'time': []}, u'edge': {u'target': [], u'time': []}}, u'click': {u'state': {u'target': [u'9', u'11', u'10', u'7'], u'time': [1024, 1653, 2181, 2680]}, u'edge': {u'target': [], u'time': []}}, u'mouseout': {u'state': {u'target': [], u'time': []}, u'edge': {u'target': [], u'time': []}}}","[0, 0, -1, 8, 106]","[3745, 152, 188, 312, 369]",109.0,"[None, None, None, None, None]","[u'', 0, 0, -1, 8, 31, 23, 106, -5, -12, -32, 14, -1, -5, -5, 1, 32, -50, -20, -1, -23, 17, 0, 0, -1, 6, 0, 41, -14, 19, -5, -30, -23, -1]",525887,29.0,10627.0,-7.6395338963e+18,mouselab-mdp,1
"[5181, 5850, 6477, 7132, 7982]","[u'up', u'up', u'up', u'left', u'up']",test,"[u'0', u'1', u'2', u'3', u'8', u'9']","{u'mouseover': {u'state': {u'target': [], u'time': []}, u'edge': {u'target': [], u'time': []}}, u'click': {u'state': {u'target': [u'9', u'11', u'10', u'7', u'6', u'5'], u'time': [1354, 2192, 2802, 3165, 3513, 4400]}, u'edge': {u'target': [], u'time': []}}, u'mouseout': {u'state': {u'target': [], u'time': []}, u'edge': {u'target': [], u'time': []}}}","[-1, -2, -6, 5, 45]","[5177, 150, 110, 133, 333]",35.0,"[None, None, None, None, None]","[u'', -1, -2, -6, 7, -14, 35, -26, 5, 45, -3, -36, 0, 3, 3, -3, -56, 23, 52, 13, 14, -6, -25, -1, -3, 9, 0, 76, -2, -52, 15, -28, -14, 53]",542304,30.0,15222.0,-6.29884450587e+18,mouselab-mdp,1
"[15173, 17283, 23999, 29480, 30711]","[u'right', u'right', u'right', u'up', u'left']",pre_test,"[u'0', u'12', u'13', u'14', u'15', u'18']","{u'mouseover': {u'state': {u'target': [], u'time': []}, u'edge': {u'target': [], u'time': []}}, u'click': {u'state': {u'target': [u'23', u'1', u'12'], u'time': [10047, 12065, 13594]}, u'edge': {u'target': [], u'time': []}}, u'mouseout': {u'state': {u'target': [], u'time': []}, u'edge': {u'target': [], u'time': []}}}","[1, -1, 1, -1, -6]","[15165, 1601, 6213, 4963, 731]",-9.0,"[None, None, None, None, None]","[u'', 0, 2, -4, -1, 46, -20, -65, -16, -80, -68, -13, 1, -1, 1, -1, 0, -5, -6, 4, -38, 32, 29, 0, 2, -3, -4, 5, -6, -14, -5, -18, 30, -62]",115424,0.0,34067.0,-3.13580120687e+18,mouselab-mdp,2
"[49758, 50679, 51522]","[u'left', u'left', u'up']",training,"[u'0', u'9', u'10', u'11']","{u'mouseover': {u'state': {u'target': [], u'time': []}, u'edge': {u'target': [], u'time': []}}, u'click': {u'state': {u'target': [u'5', u'1', u'9', u'10', u'6', u'2', u'4', u'3', u'7', u'8', u'11', u'12'], u'time': [6899, 8626, 9715, 13802, 16821, 18059, 23113, 34377, 37172, 44685, 45843, 47915]}, u'edge': {u'target': [], u'time': []}}, u'mouseout': {u'state': {u'target': [], u'time': []}, u'edge': {u'target': [], u'time': []}}}","[4, -8, 48]","[49751, 421, 349]",32.0,"[None, None, None]","[u'', -4, 4, -24, -24, -4, -8, 24, -24, 4, -8, 48, -48]",197980,1.0,54252.0,4.60924718032e+17,mouselab-mdp,2
"[20920, 21574, 22274]","[u'right', u'right', u'down']",training,"[u'0', u'5', u'6', u'8']","{u'mouseover': {u'state': {u'target': [], u'time': []}, u'edge': {u'target': [], u'time': []}}, u'click': {u'state': {u'target': [u'5', u'6', u'7', u'8', u'1', u'2', u'4', u'3', u'9', u'10', u'11', u'12'], u'time': [3042, 3735, 4785, 6452, 10096, 10545, 11129, 12323, 13808, 14252, 14661, 15404]}, u'edge': {u'target': [], u'time': []}}, u'mouseout': {u'state': {u'target': [], u'time': []}, u'edge': {u'target': [], u'time': []}}}","[4, -8, 48]","[20915, 152, 194]",32.0,"[None, None, None]","[u'', 4, -8, 24, 48, 4, -8, -24, 48, -2, -8, 24, -24]",223244,2.0,24195.0,6.60860815513e+18,mouselab-mdp,2
"[11835, 12389, 12889]","[u'left', u'left', u'down']",training,"[u'0', u'9', u'10', u'12']","{u'mouseover': {u'state': {u'target': [], u'time': []}, u'edge': {u'target': [], u'time': []}}, u'click': {u'state': {u'target': [u'9', u'10', u'11', u'12', u'1', u'2', u'4', u'3', u'5', u'7', u'6', u'8'], u'time': [1665, 2310, 2832, 3595, 5962, 6439, 6855, 7461, 8291, 9046, 9435, 9887]}, u'edge': {u'target': [], u'time': []}}, u'mouseout': {u'state': {u'target': [], u'time': []}, u'edge': {u'target': [], u'time': []}}}","[4, 4, 48]","[11831, 55, 4]",44.0,"[None, None, None]","[u'', 2, 4, 24, -24, 4, 8, 24, -24, 4, 4, 24, 48]",238428,3.0,14127.0,5.95911582726e+18,mouselab-mdp,2
"[15244, 15828, 16512]","[u'left', u'left', u'up']",training,"[u'0', u'9', u'10', u'11']","{u'mouseover': {u'state': {u'target': [], u'time': []}, u'edge': {u'target': [], u'time': []}}, u'click': {u'state': {u'target': [u'9', u'10', u'11', u'12', u'1', u'2', u'4', u'3', u'5', u'6', u'7', u'8'], u'time': [1026, 1418, 1815, 2384, 3005, 3449, 3825, 4600, 5239, 5674, 6247, 7031]}, u'edge': {u'target': [], u'time': []}}, u'mouseout': {u'state': {u'target': [], u'time': []}, u'edge': {u'target': [], u'time': []}}}","[-2, -8, 48]","[15240, 72, 174]",26.0,"[None, None, None]","[u'', -2, 8, 24, -48, 2, 4, -24, 24, -2, -8, 48, -24]",257703,4.0,18207.0,6.28255860945e+18,mouselab-mdp,2
"[9303, 10361, 11049]","[u'up', u'up', u'right']",training,"[u'0', u'1', u'2', u'3']","{u'mouseover': {u'state': {u'target': [], u'time': []}, u'edge': {u'target': [], u'time': []}}, u'click': {u'state': {u'target': [u'11', u'10', u'12', u'9', u'1', u'2', u'4', u'3', u'5', u'6', u'7', u'8'], u'time': [967, 1365, 1751, 2158, 3488, 3907, 4302, 4842, 5498, 5993, 6362, 6918]}, u'edge': {u'target': [], u'time': []}}, u'mouseout': {u'state': {u'target': [], u'time': []}, u'edge': {u'target': [], u'time': []}}}","[2, 8, 48]","[9300, 550, 194]",46.0,"[None, None, None]","[u'', 2, 8, 48, -24, -4, -4, -48, 24, -4, -8, -48, -24]",271676,5.0,12908.0,2.37271076103e+18,mouselab-mdp,2
"[9244, 9814, 10401]","[u'right', u'right', u'down']",training,"[u'0', u'5', u'6', u'8']","{u'mouseover': {u'state': {u'target': [], u'time': []}, u'edge': {u'target': [], u'time': []}}, u'click': {u'state': {u'target': [u'9', u'10', u'12', u'11', u'1', u'2', u'4', u'3', u'5', u'7', u'6', u'8'], u'time': [1019, 1478, 1888, 2445, 2917, 3246, 3589, 4059, 4662, 5038, 5485, 5925]}, u'edge': {u'target': [], u'time': []}}, u'mouseout': {u'state': {u'target': [], u'time': []}, u'edge': {u'target': [], u'time': []}}}","[4, 8, 24]","[9241, 67, 91]",24.0,"[None, None, None]","[u'', 2, 4, 24, -24, 4, 8, -48, 24, 4, -8, -24, 24]",284282,6.0,11558.0,8.9509461883e+18,mouselab-mdp,2
"[13666, 15380, 15968]","[u'right', u'right', u'down']",training,"[u'0', u'5', u'6', u'8']","{u'mouseover': {u'state': {u'target': [], u'time': []}, u'edge': {u'target': [], u'time': []}}, u'click': {u'state': {u'target': [u'1', u'2', u'4', u'3', u'5', u'6', u'7', u'8', u'9', u'10', u'11', u'12'], u'time': [1023, 1339, 1745, 2324, 3156, 4184, 4580, 6015, 9068, 9558, 9970, 10547]}, u'edge': {u'target': [], u'time': []}}, u'mouseout': {u'state': {u'target': [], u'time': []}, u'edge': {u'target': [], u'time': []}}}","[2, 4, 48]","[13664, 1210, 82]",42.0,"[None, None, None]","[u'', -2, -4, 48, 24, 2, 4, -48, 48, -4, 4, 48, 24]",302995,7.0,17664.0,7.94655219151e+18,mouselab-mdp,2
"[12419, 13410, 14013]","[u'left', u'left', u'down']",training,"[u'0', u'9', u'10', u'12']","{u'mouseover': {u'state': {u'target': [], u'time': []}, u'edge': {u'target': [], u'time': []}}, u'click': {u'state': {u'target': [u'1', u'2', u'4', u'3', u'5', u'6', u'7', u'8', u'9', u'10', u'11', u'12'], u'time': [1007, 1440, 2022, 3158, 4953, 5405, 6028, 6895, 9307, 9664, 10084, 10678]}, u'edge': {u'target': [], u'time': []}}, u'mouseout': {u'state': {u'target': [], u'time': []}, u'edge': {u'target': [], u'time': []}}}","[-4, 4, 48]","[12414, 494, 45]",36.0,"[None, None, None]","[u'', -4, 4, 24, 24, 2, 8, -24, 24, -4, 4, -24, 48]",319169,8.0,15086.0,5.34744023932e+18,mouselab-mdp,2
"[11057, 11611, 12198]","[u'left', u'left', u'down']",training,"[u'0', u'9', u'10', u'12']","{u'mouseover': {u'state': {u'target': [], u'time': []}, u'edge': {u'target': [], u'time': []}}, u'click': {u'state': {u'target': [u'1', u'2', u'4', u'3', u'5', u'6', u'7', u'8', u'9', u'10', u'11', u'12'], u'time': [916, 1363, 1884, 2464, 3599, 4194, 4810, 5515, 6534, 7044, 7618, 8396]}, u'edge': {u'target': [], u'time': []}}, u'mouseout': {u'state': {u'target': [], u'time': []}, u'edge': {u'target': [], u'time': []}}}","[2, 4, 24]","[11046, 54, 93]",18.0,"[None, None, None]","[u'', -2, -4, -48, -48, 2, -8, -24, -24, 2, 4, 24, 24]",333832,9.0,13597.0,-7.65696612779e+18,mouselab-mdp,2
"[12748, 13273, 13842]","[u'up', u'up', u'left']",training,"[u'0', u'1', u'2', u'4']","{u'mouseover': {u'state': {u'target': [], u'time': []}, u'edge': {u'target': [], u'time': []}}, u'click': {u'state': {u'target': [u'1', u'2', u'4', u'3', u'5', u'6', u'7', u'8', u'9', u'10', u'11', u'12'], u'time': [1162, 1538, 2833, 3492, 4455, 4881, 5344, 6008, 7041, 7401, 7821, 8413]}, u'edge': {u'target': [], u'time': []}}, u'mouseout': {u'state': {u'target': [], u'time': []}, u'edge': {u'target': [], u'time': []}}}","[-2, 4, 24]","[12746, 26, 66]",14.0,"[None, None, None]","[u'', -2, 4, -24, 24, -2, -4, -48, -48, 4, -8, 24, 24]",350171,10.0,15277.0,2.82020194745e+17,mouselab-mdp,2
"[35180, 35711, 36295, 36896, 37626]","[u'right', u'right', u'right', u'down', u'right']",test,"[u'0', u'12', u'13', u'14', u'19', u'20']","{u'mouseover': {u'state': {u'target': [], u'time': []}, u'edge': {u'target': [], u'time': []}}, u'click': {u'state': {u'target': [u'23', u'24', u'25', u'26', u'28', u'29', u'27', u'30', u'32', u'33', u'31', u'1', u'2', u'10', u'8', u'11', u'9', u'3', u'4', u'5', u'7', u'6', u'12', u'13', u'18', u'15', u'16', u'17', u'14', u'22', u'19', u'20', u'21'], u'time': [5091, 5563, 6204, 7058, 7513, 8169, 8654, 9610, 10182, 10686, 11397, 12730, 13082, 13474, 14113, 14609, 15166, 15668, 16179, 17396, 18105, 18892, 19970, 20483, 20962, 21389, 21758, 22377, 22952, 23463, 23918, 24295, 24870]}, u'edge': {u'target': [], u'time': []}}, u'mouseout': {u'state': {u'target': [], u'time': []}, u'edge': {u'target': [], u'time': []}}}","[0, -2, 9, -7, 52]","[35174, 34, 84, 97, 230]",19.0,"[None, None, None, None, None]","[u'', 1, 3, -5, -4, -25, -34, 8, 4, -23, -16, 8, 0, -2, 9, -2, 3, -20, -8, -7, 52, -59, -6, 1, -3, 2, 11, 9, 0, -1, -2, 19, -28, 10]",417415,11.0,39733.0,-7.29297814771e+18,mouselab-mdp,2
"[26514, 27135, 28189, 28818, 29831]","[u'up', u'up', u'up', u'left', u'left']",test,"[u'0', u'1', u'2', u'3', u'8', u'11']","{u'mouseover': {u'state': {u'target': [], u'time': []}, u'edge': {u'target': [], u'time': []}}, u'click': {u'state': {u'target': [u'23', u'24', u'25', u'26', u'28', u'27', u'29', u'30', u'31', u'33', u'32', u'1', u'2', u'10', u'7', u'4', u'6', u'5', u'3', u'8', u'9', u'11', u'12', u'13', u'18', u'16', u'15', u'17', u'14', u'22', u'19', u'20', u'21'], u'time': [1626, 2159, 2681, 3122, 3504, 4000, 4614, 5382, 6141, 6974, 7557, 10533, 10956, 11379, 12122, 12623, 13147, 13599, 14278, 14713, 15084, 15573, 17188, 17582, 18150, 18774, 19158, 20052, 20559, 21145, 21496, 22061, 22556]}, u'edge': {u'target': [], u'time': []}}, u'mouseout': {u'state': {u'target': [], u'time': []}, u'edge': {u'target': [], u'time': []}}}","[-3, 2, 1, -1, 72]","[26509, 110, 555, 132, 511]",38.0,"[None, None, None, None, None]","[u'', -3, 2, 1, -2, -4, -8, 14, -1, -57, -6, 72, 0, 1, -2, 1, 6, -8, 28, -7, -4, 16, -9, -1, 1, -4, -4, -27, -4, -14, -4, 22, 56, -11]",452915,12.0,34262.0,-4.46091857561e+18,mouselab-mdp,2
"[47680, 48295, 49033, 49698, 50742]","[u'left', u'left', u'left', u'up', u'left']",test,"[u'0', u'23', u'24', u'25', u'26', u'29']","{u'mouseover': {u'state': {u'target': [], u'time': []}, u'edge': {u'target': [], u'time': []}}, u'click': {u'state': {u'target': [u'23', u'24', u'25', u'28', u'26', u'29', u'27', u'30', u'33', u'31', u'32', u'1', u'2', u'10', u'7', u'4', u'6', u'5', u'3', u'8', u'9', u'11', u'12', u'13', u'14', u'18', u'15', u'17', u'16', u'19', u'22', u'20', u'21'], u'time': [1780, 2661, 3242, 4169, 4605, 5061, 18090, 19095, 19571, 20038, 20745, 23025, 23388, 23781, 24216, 24585, 24994, 25482, 26004, 26440, 26868, 27305, 28414, 28938, 29612, 30082, 30694, 31084, 31617, 34006, 34505, 35148, 35687]}, u'edge': {u'target': [], u'time': []}}, u'mouseout': {u'state': {u'target': [], u'time': []}, u'edge': {u'target': [], u'time': []}}}","[0, -4, -1, 13, 66]","[47674, 109, 217, 160, 536]",41.0,"[None, None, None, None, None]","[u'', -2, 2, 0, 17, -42, 2, 12, 10, -14, 3, -69, -1, 1, 4, -2, 66, 56, -2, -19, -57, -25, 36, 0, -4, -1, 13, -12, -24, 66, 0, -15, 11, 1]",507491,13.0,53363.0,-3.66851144697e+18,mouselab-mdp,2
"[41482, 42023, 42644, 43344, 43959]","[u'left', u'left', u'left', u'up', u'up']",test,"[u'0', u'23', u'24', u'25', u'26', u'27']","{u'mouseover': {u'state': {u'target': [], u'time': []}, u'edge': {u'target': [], u'time': []}}, u'click': {u'state': {u'target': [u'23', u'24', u'25', u'26', u'28', u'27', u'29', u'30', u'33', u'32', u'31', u'2', u'1', u'10', u'7', u'4', u'6', u'5', u'3', u'8', u'9', u'11', u'12', u'13', u'14', u'15', u'18', u'16', u'17', u'19', u'20', u'21', u'22'], u'time': [1072, 1843, 2245, 2740, 3157, 3614, 4196, 10581, 10965, 11578, 12070, 15543, 16370, 16943, 17448, 17844, 18858, 19374, 20097, 20524, 20992, 21608, 22617, 23104, 23631, 23993, 24598, 25091, 25667, 26355, 26861, 27435, 28014]}, u'edge': {u'target': [], u'time': []}}, u'mouseout': {u'state': {u'target': [], u'time': []}, u'edge': {u'target': [], u'time': []}}}","[0, 3, 4, 13, 39]","[41476, 42, 109, 185, 100]",26.0,"[None, None, None, None, None]","[u'', 0, 1, -6, -9, 23, -1, -7, -1, 16, -19, 16, -1, -1, 4, 9, -35, 27, -33, 6, -61, -36, -16, 0, 3, 4, 13, 39, -9, -9, 9, 1, -5, -43]",554486,14.0,45781.0,6.02334654885e+18,mouselab-mdp,2
"[35807, 36371, 36985, 38254, 38861]","[u'up', u'up', u'up', u'left', u'down']",test,"[u'0', u'1', u'2', u'3', u'8', u'10']","{u'mouseover': {u'state': {u'target': [], u'time': []}, u'edge': {u'target': [], u'time': []}}, u'click': {u'state': {u'target': [u'23', u'24', u'25', u'26', u'28', u'27', u'29', u'30', u'31', u'32', u'33', u'1', u'2', u'10', u'8', u'11', u'9', u'3', u'4', u'5', u'6', u'7', u'12', u'13', u'14', u'15', u'18', u'16', u'17', u'19', u'20', u'21', u'22'], u'time': [3018, 3420, 4021, 4525, 5010, 5534, 6072, 6809, 7190, 7682, 8157, 9239, 9587, 10067, 10476, 10853, 11226, 11761, 12125, 12536, 12948, 13392, 14177, 14526, 15004, 15355, 15711, 16067, 16577, 17189, 17603, 18099, 18667]}, u'edge': {u'target': [], u'time': []}}, u'mouseout': {u'state': {u'target': [], u'time': []}, u'edge': {u'target': [], u'time': []}}}","[-1, 2, 3, -16, 61]","[35800, 50, 110, 759, 98]",16.0,"[None, None, None, None, None]","[u'', -1, 2, 3, 8, 8, -25, -39, -16, -2, 61, 15, 0, -3, -3, 0, -7, 29, -5, 6, -4, -6, 40, -1, -1, -5, 1, 34, 22, 23, 8, 20, 24, 13]",598243,15.0,42516.0,-4.35323372058e+18,mouselab-mdp,2
"[35724, 36466, 37234, 38258, 39018]","[u'right', u'right', u'right', u'down', u'down']",test,"[u'0', u'12', u'13', u'14', u'19', u'21']","{u'mouseover': {u'state': {u'target': [], u'time': []}, u'edge': {u'target': [], u'time': []}}, u'click': {u'state': {u'target': [u'9', u'11', u'10', u'7', u'6', u'5', u'16', u'18', u'17', u'20', u'21', u'22', u'31', u'32', u'33', u'29', u'27', u'28', u'19', u'15', u'30', u'26', u'8', u'4'], u'time': [2088, 2724, 3369, 4930, 5431, 6265, 7165, 7672, 8223, 9261, 9757, 10439, 11156, 11655, 12230, 13217, 13806, 14772, 20842, 21660, 26120, 27407, 28731, 29368]}, u'edge': {u'target': [], u'time': []}}, u'mouseout': {u'state': {u'target': [], u'time': []}, u'edge': {u'target': [], u'time': []}}}","[0, -1, -3, -2, 42]","[35716, 237, 273, 447, 252]",12.0,"[None, None, None, None, None]","[u'', 1, 3, 6, -6, -8, 12, -9, -3, 22, -11, -57, 0, -1, -3, -13, 32, -71, -54, -2, 39, 42, -37, 0, -3, 4, -12, -5, 33, -7, 12, -28, 12, 27]",640146,16.0,40670.0,1.95568020665e+18,mouselab-mdp,2
"[14737, 15420, 16061, 16858, 18851]","[u'right', u'right', u'right', u'down', u'down']",test,"[u'0', u'12', u'13', u'14', u'19', u'21']","{u'mouseover': {u'state': {u'target': [], u'time': []}, u'edge': {u'target': [], u'time': []}}, u'click': {u'state': {u'target': [u'28', u'27', u'29', u'33', u'32', u'31', u'10', u'11', u'9', u'5', u'6', u'7', u'18', u'16', u'17', u'20', u'21', u'22'], u'time': [1532, 2051, 2986, 3773, 4301, 4914, 6166, 6624, 7122, 7639, 8146, 8790, 9868, 10317, 10829, 11639, 12481, 13091]}, u'edge': {u'target': [], u'time': []}}, u'mouseout': {u'state': {u'target': [], u'time': []}, u'edge': {u'target': [], u'time': []}}}","[-1, -3, 2, 7, 74]","[14730, 173, 141, 286, 1487]",61.0,"[None, None, None, None, None]","[u'', 1, 1, -1, 6, -26, 7, 57, 12, -10, 31, -12, -1, -3, 2, 2, 32, 26, -10, 7, 60, 74, 25, 0, 1, 0, -5, 50, 24, 5, 12, 27, -40, 40]",662455,17.0,21071.0,4.93020834377e+18,mouselab-mdp,2
"[17840, 18514, 19167, 19928, 21160]","[u'right', u'right', u'right', u'down', u'right']",test,"[u'0', u'12', u'13', u'14', u'19', u'20']","{u'mouseover': {u'state': {u'target': [], u'time': []}, u'edge': {u'target': [], u'time': []}}, u'click': {u'state': {u'target': [u'10', u'11', u'9', u'5', u'6', u'7', u'18', u'16', u'17', u'20', u'21', u'22', u'31', u'32', u'33', u'29', u'27', u'28'], u'time': [1621, 2071, 2588, 3092, 3545, 4024, 4812, 5287, 5872, 6660, 7183, 7688, 8845, 9335, 9866, 10463, 11048, 11628]}, u'edge': {u'target': [], u'time': []}}, u'mouseout': {u'state': {u'target': [], u'time': []}, u'edge': {u'target': [], u'time': []}}}","[-1, 1, -3, 3, 44]","[17834, 165, 147, 240, 726]",26.0,"[None, None, None, None, None]","[u'', 1, -3, 4, 10, -9, 11, -18, 2, 5, -12, -1, -1, 1, -3, 3, 9, -25, -13, 3, 44, -20, -4, 0, -4, -1, 6, 25, -15, 17, -2, 11, 30, -21]",686396,18.0,22697.0,3.06682852711e+17,mouselab-mdp,2
"[13170, 13825, 14503, 15322, 16498]","[u'right', u'right', u'right', u'up', u'up']",test,"[u'0', u'12', u'13', u'14', u'15', u'16']","{u'mouseover': {u'state': {u'target': [], u'time': []}, u'edge': {u'target': [], u'time': []}}, u'click': {u'state': {u'target': [u'28', u'27', u'29', u'33', u'32', u'31', u'10', u'11', u'9', u'5', u'6', u'7', u'18', u'16', u'17', u'20', u'21', u'22'], u'time': [1374, 1864, 2394, 2873, 3406, 3902, 5043, 5474, 5945, 6412, 6890, 7431, 8159, 8717, 9237, 9947, 10507, 11084]}, u'edge': {u'target': [], u'time': []}}, u'mouseout': {u'state': {u'target': [], u'time': []}, u'edge': {u'target': [], u'time': []}}}","[0, 2, -7, 13, 45]","[13163, 153, 162, 323, 670]",35.0,"[None, None, None, None, None]","[u'', 1, -1, -4, 1, 16, -45, -17, -3, 9, -8, 14, 0, 2, -7, 13, 45, 2, 21, 5, -24, 5, 25, 0, 2, 0, 1, -25, -12, -15, 14, 8, -32, 13]",705818,19.0,18177.0,1.0491821684e+18,mouselab-mdp,2
"[16854, 17535, 18365, 19104, 20053]","[u'up', u'up', u'up', u'right', u'right']",test,"[u'0', u'1', u'2', u'3', u'4', u'6']","{u'mouseover': {u'state': {u'target': [], u'time': []}, u'edge': {u'target': [], u'time': []}}, u'click': {u'state': {u'target': [u'31', u'32', u'33', u'29', u'27', u'28', u'10', u'11', u'9', u'5', u'6', u'7', u'18', u'16', u'17', u'20', u'21', u'22'], u'time': [1191, 1968, 2555, 3203, 3726, 4167, 4905, 5420, 6003, 6567, 7291, 8026, 9148, 9614, 10125, 10710, 11205, 11763]}, u'edge': {u'target': [], u'time': []}}, u'mouseout': {u'state': {u'target': [], u'time': []}, u'edge': {u'target': [], u'time': []}}}","[0, 2, -6, -8, 48]","[16848, 166, 328, 241, 424]",18.0,"[None, None, None, None, None]","[u'', 0, 2, -6, -8, 17, 48, 1, 2, -26, -1, -23, 0, 1, -8, 2, -26, -21, 36, 2, 30, -56, -13, 0, -1, 2, 7, -35, -31, -40, 9, -16, -3, -11]",735465,20.0,28419.0,5.46654630961e+18,mouselab-mdp,2
"[13549, 14187, 14917, 15717, 16727]","[u'right', u'right', u'right', u'down', u'left']",test,"[u'0', u'12', u'13', u'14', u'19', u'22']","{u'mouseover': {u'state': {u'target': [], u'time': []}, u'edge': {u'target': [], u'time': []}}, u'click': {u'state': {u'target': [u'28', u'27', u'29', u'33', u'32', u'31', u'10', u'11', u'9', u'5', u'6', u'7', u'18', u'16', u'17', u'20', u'21', u'22'], u'time': [1206, 1659, 2139, 2926, 3745, 4421, 5486, 5945, 6428, 6925, 7398, 7972, 9618, 10033, 10553, 11195, 11719, 12175]}, u'edge': {u'target': [], u'time': []}}, u'mouseout': {u'state': {u'target': [], u'time': []}, u'edge': {u'target': [], u'time': []}}}","[0, 2, 0, 0, 52]","[13542, 134, 233, 299, 504]",36.0,"[None, None, None, None, None]","[u'', 0, -3, -2, -9, 14, -20, 25, 4, -8, 3, 29, 0, 2, 0, 2, 26, 43, 17, 0, 23, -49, 52, -1, 2, -2, 4, -4, 10, -26, -17, 13, -19, -21]",757041,21.0,20344.0,-2.59993630193e+18,mouselab-mdp,2
"[22284, 22809, 23406, 24129, 26258]","[u'left', u'left', u'left', u'down', u'left']",test,"[u'0', u'23', u'24', u'25', u'30', u'33']","{u'mouseover': {u'state': {u'target': [], u'time': []}, u'edge': {u'target': [], u'time': []}}, u'click': {u'state': {u'target': [u'28', u'27', u'29', u'33', u'32', u'31', u'10', u'11', u'9', u'5', u'6', u'7', u'18', u'16', u'17', u'20', u'21', u'22'], u'time': [2315, 2785, 3320, 4052, 4566, 5016, 5648, 6067, 6652, 7267, 7727, 8502, 9021, 9612, 10054, 10757, 11394, 12005]}, u'edge': {u'target': [], u'time': []}}, u'mouseout': {u'state': {u'target': [], u'time': []}, u'edge': {u'target': [], u'time': []}}}","[0, -1, -8, -6, 48]","[22276, 12, 75, 213, 1629]",15.0,"[None, None, None, None, None]","[u'', 0, 4, 5, 13, -13, -29, -34, -1, -40, -20, -14, 1, -1, -6, -4, 6, 18, -29, 5, 44, 16, 8, 0, -1, -8, 5, -11, 5, 16, -6, 33, 4, 48]",788057,22.0,29760.0,-2.02927868974e+18,mouselab-mdp,2
"[18157, 18759, 19352, 19965, 21221]","[u'up', u'up', u'up', u'left', u'left']",test,"[u'0', u'1', u'2', u'3', u'8', u'11']","{u'mouseover': {u'state': {u'target': [], u'time': []}, u'edge': {u'target': [], u'time': []}}, u'click': {u'state': {u'target': [u'31', u'32', u'33', u'29', u'27', u'28', u'11', u'9', u'10', u'5', u'6', u'7', u'18', u'16', u'17', u'20', u'21', u'22'], u'time': [1233, 1841, 2330, 3295, 3858, 4472, 5641, 6139, 6814, 9065, 9522, 10083, 10896, 11321, 11812, 12495, 13121, 13736]}, u'edge': {u'target': [], u'time': []}}, u'mouseout': {u'state': {u'target': [], u'time': []}, u'edge': {u'target': [], u'time': []}}}","[0, 0, 4, 1, 53]","[18150, 95, 99, 103, 748]",40.0,"[None, None, None, None, None]","[u'', 0, 0, 4, 4, -39, 45, 32, 1, 5, 43, 53, 1, -2, 0, 7, -27, -39, 0, 1, 12, 39, -70, 0, 0, 0, 1, 33, 18, -1, 1, 3, -4, 42]",813620,23.0,24316.0,-6.00893554297e+18,mouselab-mdp,2
"[17913, 18920, 19538, 20156, 20910]","[u'left', u'left', u'left', u'down', u'down']",test,"[u'0', u'23', u'24', u'25', u'30', u'32']","{u'mouseover': {u'state': {u'target': [], u'time': []}, u'edge': {u'target': [], u'time': []}}, u'click': {u'state': {u'target': [u'28', u'27', u'29', u'33', u'32', u'31', u'10', u'11', u'9', u'5', u'6', u'7', u'18', u'16', u'17', u'20', u'21', u'22'], u'time': [4297, 5204, 5829, 6699, 7278, 8649, 9633, 10075, 10602, 11227, 11746, 12272, 13072, 13583, 14124, 14719, 15275, 15779]}, u'edge': {u'target': [], u'time': []}}, u'mouseout': {u'state': {u'target': [], u'time': []}, u'edge': {u'target': [], u'time': []}}}","[1, 1, 4, 2, 36]","[17908, 497, 122, 122, 254]",26.0,"[None, None, None, None, None]","[u'', 1, -2, -1, 5, 11, -3, -31, 1, 23, -23, 2, 2, 1, 2, -8, -18, -10, -27, -10, -50, -7, 27, 1, 1, 4, -7, -22, -8, -29, 2, -21, 36, -28]",836968,24.0,22106.0,8.08344173605e+18,mouselab-mdp,2
"[15610, 16234, 16834, 17491, 18149]","[u'left', u'left', u'left', u'down', u'left']",test,"[u'0', u'23', u'24', u'25', u'30', u'33']","{u'mouseover': {u'state': {u'target': [], u'time': []}, u'edge': {u'target': [], u'time': []}}, u'click': {u'state': {u'target': [u'28', u'27', u'29', u'33', u'32', u'31', u'10', u'11', u'9', u'5', u'6', u'7', u'18', u'16', u'17', u'20', u'21', u'22'], u'time': [3116, 3622, 4153, 4731, 5301, 5816, 6806, 7293, 7815, 8556, 9021, 9748, 10461, 11020, 11586, 12185, 12759, 13282]}, u'edge': {u'target': [], u'time': []}}, u'mouseout': {u'state': {u'target': [], u'time': []}, u'edge': {u'target': [], u'time': []}}}","[0, 1, 2, 6, 38]","[15601, 119, 91, 145, 144]",29.0,"[None, None, None, None, None]","[u'', 0, -3, 4, -12, -2, -6, 28, 14, -6, 0, -34, 1, 2, 5, -8, -28, 29, 30, -16, -26, -70, -6, 0, 1, 2, 5, -3, -48, 7, 6, -45, -31, 38]",857958,25.0,19794.0,-1.19874718799e+17,mouselab-mdp,2
"[15641, 16258, 16872, 17506, 18341]","[u'right', u'right', u'right', u'up', u'left']",test,"[u'0', u'12', u'13', u'14', u'15', u'18']","{u'mouseover': {u'state': {u'target': [], u'time': []}, u'edge': {u'target': [], u'time': []}}, u'click': {u'state': {u'target': [u'31', u'32', u'33', u'29', u'27', u'28', u'10', u'11', u'9', u'5', u'6', u'7', u'18', u'16', u'17', u'20', u'21', u'22'], u'time': [866, 1631, 2340, 3164, 3800, 4555, 5593, 6064, 6625, 7234, 7698, 8355, 9357, 12429, 12931, 13648, 14056, 14551]}, u'edge': {u'target': [], u'time': []}}, u'mouseout': {u'state': {u'target': [], u'time': []}, u'edge': {u'target': [], u'time': []}}}","[0, 0, 3, 4, 100]","[15627, 105, 113, 128, 328]",89.0,"[None, None, None, None, None]","[u'', 0, -1, -5, 5, -19, 34, -1, 0, -35, -32, 18, 0, 0, 3, 4, -11, 93, 100, 4, -46, -29, 19, -1, 0, -8, 3, 39, -39, -11, -3, -80, -15, -18]",880581,26.0,21396.0,-8.0788333978e+18,mouselab-mdp,2
"[12753, 13394, 17877, 18469, 19430]","[u'up', u'up', u'up', u'left', u'left']",test,"[u'0', u'1', u'2', u'3', u'8', u'11']","{u'mouseover': {u'state': {u'target': [], u'time': []}, u'edge': {u'target': [], u'time': []}}, u'click': {u'state': {u'target': [u'28', u'27', u'29', u'33', u'32', u'31', u'10', u'11', u'9', u'5', u'6', u'7', u'18', u'16', u'17', u'20', u'21', u'22'], u'time': [1224, 1737, 2366, 3232, 3732, 4181, 5231, 5698, 6885, 7481, 7909, 8492, 9088, 9511, 9984, 10484, 11058, 11519]}, u'edge': {u'target': [], u'time': []}}, u'mouseout': {u'state': {u'target': [], u'time': []}, u'edge': {u'target': [], u'time': []}}}","[-1, -1, 0, -2, 54]","[12747, 134, 3974, 87, 458]",32.0,"[None, None, None, None, None]","[u'', -1, -1, 0, -9, 8, 53, 24, -2, -28, -24, 54, 0, -1, 1, 17, 4, 20, 10, -3, -37, -11, -7, 1, 2, 4, 2, 28, -24, 40, 4, -10, 16, -2]",903000,27.0,21232.0,-8.14198867507e+18,mouselab-mdp,2
"[13970, 14567, 15236, 15873, 16560]","[u'right', u'right', u'right', u'down', u'left']",test,"[u'0', u'12', u'13', u'14', u'19', u'22']","{u'mouseover': {u'state': {u'target': [], u'time': []}, u'edge': {u'target': [], u'time': []}}, u'click': {u'state': {u'target': [u'31', u'32', u'33', u'29', u'27', u'28', u'10', u'11', u'9', u'5', u'6', u'7', u'18', u'16', u'17', u'20', u'21', u'22'], u'time': [1808, 2355, 2873, 3407, 4007, 4459, 5152, 5628, 6244, 7097, 7680, 8254, 10065, 10606, 11043, 11603, 12048, 12540]}, u'edge': {u'target': [], u'time': []}}, u'mouseout': {u'state': {u'target': [], u'time': []}, u'edge': {u'target': [], u'time': []}}}","[-1, -1, 3, 18, 62]","[13951, 92, 159, 133, 183]",63.0,"[None, None, None, None, None]","[u'', 0, -2, -3, 15, 0, -23, 44, -1, -21, -46, 25, -1, -1, 3, 1, -3, -7, 37, 18, -18, 18, 62, 1, -1, -2, -5, -29, -20, 8, -5, 28, 4, -13]",922597,28.0,18384.0,4.92294493091e+18,mouselab-mdp,2
"[13196, 14001, 14622, 15536, 17119]","[u'left', u'left', u'left', u'down', u'down']",test,"[u'0', u'23', u'24', u'25', u'30', u'32']","{u'mouseover': {u'state': {u'target': [], u'time': []}, u'edge': {u'target': [], u'time': []}}, u'click': {u'state': {u'target': [u'31', u'32', u'33', u'29', u'27', u'28', u'10', u'11', u'9', u'5', u'6', u'7', u'18', u'16', u'17', u'20', u'21', u'22'], u'time': [1319, 1871, 2710, 3915, 4419, 4975, 5654, 6112, 6561, 7241, 7802, 8363, 9179, 9726, 10248, 10853, 11363, 11917]}, u'edge': {u'target': [], u'time': []}}, u'mouseout': {u'state': {u'target': [], u'time': []}, u'edge': {u'target': [], u'time': []}}}","[0, 0, 2, -12, 59]","[13185, 311, 110, 402, 1068]",31.0,"[None, None, None, None, None]","[u'', 1, -2, -6, 10, 10, -20, -34, -6, 39, -1, -45, 1, 1, -1, 5, -26, 31, -46, -7, -44, -13, -24, 0, 0, 2, 1, 8, 51, -9, -12, 30, 59, 6]",942385,29.0,18596.0,-7.446303972e+18,mouselab-mdp,2
"[31583, 32135, 32692, 33318, 34214]","[u'left', u'left', u'left', u'up', u'left']",test,"[u'0', u'23', u'24', u'25', u'26', u'29']","{u'mouseover': {u'state': {u'target': [], u'time': []}, u'edge': {u'target': [], u'time': []}}, u'click': {u'state': {u'target': [u'31', u'32', u'33', u'29', u'27', u'28', u'10', u'11', u'9', u'5', u'6', u'7', u'18', u'16', u'17', u'20', u'21', u'22', u'4', u'26', u'3', u'25'], u'time': [875, 1328, 1822, 2839, 3287, 3791, 5815, 6786, 7387, 8016, 8536, 9098, 10056, 10523, 10991, 11567, 12035, 12615, 20144, 21383, 29391, 30205]}, u'edge': {u'target': [], u'time': []}}, u'mouseout': {u'state': {u'target': [], u'time': []}, u'edge': {u'target': [], u'time': []}}}","[-1, 5, 8, -11, 24]","[31574, 51, 61, 109, 397]",3.0,"[None, None, None, None, None]","[u'', 0, -6, -2, -8, 22, -15, -11, 11, -34, 10, -61, 0, 1, 3, -7, 10, 10, -1, 1, 15, 13, -32, -1, 5, 8, -11, 14, 20, 24, 1, -30, -6, -16]",983346,30.0,39768.0,-4.98814993479e+18,mouselab-mdp,2
"[18256, 20984, 23040, 28535, 30135]","[u'left', u'left', u'left', u'up', u'up']",pre_test,"[u'0', u'23', u'24', u'25', u'26', u'27']","{u'mouseover': {u'state': {u'target': [], u'time': []}, u'edge': {u'target': [], u'time': []}}, u'click': {u'state': {u'target': [], u'time': []}, u'edge': {u'target': [], u'time': []}}, u'mouseout': {u'state': {u'target': [], u'time': []}, u'edge': {u'target': [], u'time': []}}}","[-1, 5, 8, -11, 14]","[18245, 2215, 1543, 4990, 1094]",15.0,"[None, None, None, None, None]","[u'', 0, -6, -2, -8, 22, -15, -11, 11, -34, 10, -61, 0, 1, 3, -7, 10, 10, -1, 1, 15, 13, -32, -1, 5, 8, -11, 14, 20, 24, 1, -30, -6, -16]",118329,0.0,34199.0,-4.98814993479e+18,mouselab-mdp,3
"[8075, 10051, 12025]","[u'left', u'left', u'up']",training,"[u'0', u'9', u'10', u'11']","{u'mouseover': {u'state': {u'target': [], u'time': []}, u'edge': {u'target': [], u'time': []}}, u'click': {u'state': {u'target': [u'5', u'9'], u'time': [4550, 5834]}, u'edge': {u'target': [], u'time': []}}, u'mouseout': {u'state': {u'target': [], u'time': []}, u'edge': {u'target': [], u'time': []}}}","[4, 4, -48]","[8066, 1476, 1478]",-42.0,"[None, None, None]","[u'', 2, -4, 24, -48, -4, 4, 48, 48, 4, 4, -48, -24]",154536,1.0,16305.0,1.70803683189e+18,mouselab-mdp,3
"[13762, 14928, 16456]","[u'left', u'left', u'down']",training,"[u'0', u'9', u'10', u'12']","{u'mouseover': {u'state': {u'target': [], u'time': []}, u'edge': {u'target': [], u'time': []}}, u'click': {u'state': {u'target': [u'5', u'2', u'11', u'12'], u'time': [3550, 6923, 9610, 11348]}, u'edge': {u'target': [], u'time': []}}, u'mouseout': {u'state': {u'target': [], u'time': []}, u'edge': {u'target': [], u'time': []}}}","[4, 8, 48]","[13758, 664, 1023]",56.0,"[None, None, None]","[u'', 2, -8, -24, 48, -2, -4, -24, -24, 4, 8, 24, 48]",175128,2.0,19535.0,6.51676073779e+18,mouselab-mdp,3
"[14292, 15404, 17092]","[u'left', u'left', u'down']",training,"[u'0', u'9', u'10', u'12']","{u'mouseover': {u'state': {u'target': [], u'time': []}, u'edge': {u'target': [], u'time': []}}, u'click': {u'state': {u'target': [u'3', u'7', u'8', u'11', u'12'], u'time': [4119, 7669, 9051, 10665, 12006]}, u'edge': {u'target': [], u'time': []}}, u'mouseout': {u'state': {u'target': [], u'time': []}, u'edge': {u'target': [], u'time': []}}}","[-4, 4, 48]","[14288, 605, 1184]",43.0,"[None, None, None]","[u'', -4, 4, 24, 24, 2, 8, -24, 24, -4, 4, -24, 48]",197744,3.0,21508.0,5.34744023932e+18,mouselab-mdp,3
"[14375, 15491, 16731]","[u'left', u'left', u'down']",training,"[u'0', u'9', u'10', u'12']","{u'mouseover': {u'state': {u'target': [], u'time': []}, u'edge': {u'target': [], u'time': []}}, u'click': {u'state': {u'target': [u'8', u'7', u'4', u'3', u'12', u'11'], u'time': [3384, 4756, 5979, 7003, 8343, 9685]}, u'edge': {u'target': [], u'time': []}}, u'mouseout': {u'state': {u'target': [], u'time': []}, u'edge': {u'target': [], u'time': []}}}","[4, -8, 24]","[14370, 616, 741]",14.0,"[None, None, None]","[u'', 2, 4, 24, -24, 4, 8, -48, 24, 4, -8, -24, 24]",218376,4.0,19564.0,8.9509461883e+18,mouselab-mdp,3
"[15992, 17462, 18446]","[u'right', u'right', u'up']",training,"[u'0', u'5', u'6', u'7']","{u'mouseover': {u'state': {u'target': [], u'time': []}, u'edge': {u'target': [], u'time': []}}, u'click': {u'state': {u'target': [u'2', u'3', u'4', u'8', u'7', u'11', u'12'], u'time': [3739, 4860, 7937, 9175, 10231, 11478, 12710]}, u'edge': {u'target': [], u'time': []}}, u'mouseout': {u'state': {u'target': [], u'time': []}, u'edge': {u'target': [], u'time': []}}}","[-2, -8, 24]","[15983, 968, 486]",7.0,"[None, None, None]","[u'', 2, -4, 24, -48, -2, -8, 24, -48, 2, 4, 24, -48]",240120,5.0,20647.0,2.65301876191e+18,mouselab-mdp,3
"[11099, 12195, 13282]","[u'up', u'up', u'left']",training,"[u'0', u'1', u'2', u'4']","{u'mouseover': {u'state': {u'target': [], u'time': []}, u'edge': {u'target': [], u'time': []}}, u'click': {u'state': {u'target': [u'7', u'8', u'12', u'11', u'4', u'3'], u'time': [2253, 4531, 5703, 7012, 8375, 9451]}, u'edge': {u'target': [], u'time': []}}, u'mouseout': {u'state': {u'target': [], u'time': []}, u'edge': {u'target': [], u'time': []}}}","[4, 4, 48]","[11097, 600, 577]",50.0,"[None, None, None]","[u'', 4, 4, -48, 48, -2, 4, -48, -24, -2, -4, -48, 24]",257010,6.0,15805.0,-5.00680981918e+18,mouselab-mdp,3
"[25474, 26402, 27330]","[u'left', u'left', u'up']",training,"[u'0', u'9', u'10', u'11']","{u'mouseover': {u'state': {u'target': [], u'time': []}, u'edge': {u'target': [], u'time': []}}, u'click': {u'state': {u'target': [u'4', u'3', u'7', u'8', u'11', u'12'], u'time': [1856, 2914, 3977, 5242, 19783, 20774]}, u'edge': {u'target': [], u'time': []}}, u'mouseout': {u'state': {u'target': [], u'time': []}, u'edge': {u'target': [], u'time': []}}}","[-2, 4, 48]","[25468, 436, 429]",44.0,"[None, None, None]","[u'', 4, -4, 48, -48, -2, -8, 24, 24, -2, 4, 48, -48]",287791,7.0,29722.0,8.0458297312e+18,mouselab-mdp,3
"[9575, 10607, 11574]","[u'right', u'right', u'up']",training,"[u'0', u'5', u'6', u'7']","{u'mouseover': {u'state': {u'target': [], u'time': []}, u'edge': {u'target': [], u'time': []}}, u'click': {u'state': {u'target': [u'4', u'3', u'7', u'8', u'12', u'11'], u'time': [1581, 2567, 3499, 4760, 5889, 6983]}, u'edge': {u'target': [], u'time': []}}, u'mouseout': {u'state': {u'target': [], u'time': []}, u'edge': {u'target': [], u'time': []}}}","[-2, -4, 48]","[9571, 527, 456]",36.0,"[None, None, None]","[u'', -4, 4, 24, 24, -2, -4, 48, -24, -4, 8, -48, 48]",302384,8.0,13511.0,-4.8746661358e+18,mouselab-mdp,3
"[11914, 12834, 13770]","[u'left', u'left', u'up']",training,"[u'0', u'9', u'10', u'11']","{u'mouseover': {u'state': {u'target': [], u'time': []}, u'edge': {u'target': [], u'time': []}}, u'click': {u'state': {u'target': [u'7', u'11'], u'time': [2736, 5226]}, u'edge': {u'target': [], u'time': []}}, u'mouseout': {u'state': {u'target': [], u'time': []}, u'edge': {u'target': [], u'time': []}}}","[-2, 8, 48]","[11907, 425, 441]",52.0,"[None, None, None]","[u'', 2, 4, -48, -24, -4, -8, 24, -48, -2, 8, 48, -24]",319192,9.0,15730.0,-8.80678964296e+18,mouselab-mdp,3
"[11892, 12796, 13660]","[u'left', u'left', u'up']",training,"[u'0', u'9', u'10', u'11']","{u'mouseover': {u'state': {u'target': [], u'time': []}, u'edge': {u'target': [], u'time': []}}, u'click': {u'state': {u'target': [u'11', u'7', u'3', u'4', u'8', u'12'], u'time': [1355, 3755, 4995, 6154, 7662, 8743]}, u'edge': {u'target': [], u'time': []}}, u'mouseout': {u'state': {u'target': [], u'time': []}, u'edge': {u'target': [], u'time': []}}}","[4, -4, 24]","[11884, 395, 362]",18.0,"[None, None, None]","[u'', 2, 8, -48, -24, 2, 8, -24, -48, 4, -4, 24, -48]",335695,10.0,15435.0,4.95354184513e+17,mouselab-mdp,3
"[29666, 30690, 31674, 32642, 33499]","[u'left', u'left', u'left', u'up', u'left']",test,"[u'0', u'23', u'24', u'25', u'26', u'29']","{u'mouseover': {u'state': {u'target': [], u'time': []}, u'edge': {u'target': [], u'time': []}}, u'click': {u'state': {u'target': [u'16', u'21', u'17', u'18', u'27', u'32', u'29', u'28', u'9'], u'time': [6145, 7549, 9891, 11371, 15099, 17021, 18215, 20258, 23354]}, u'edge': {u'target': [], u'time': []}}, u'mouseout': {u'state': {u'target': [], u'time': []}, u'edge': {u'target': [], u'time': []}}}","[1, -2, -2, 2, 64]","[29656, 524, 490, 471, 360]",54.0,"[None, None, None, None, None]","[u'', -3, 1, 3, -12, 3, 9, 11, -4, 3, 19, -57, 1, -1, 3, -6, -55, 38, 53, -15, -41, 3, -34, 1, -2, -2, 2, -70, -10, 64, 5, -32, 33, 66]",391335,11.0,36362.0,-7.40831087289e+18,mouselab-mdp,3
"[21700, 22587, 23483, 24516, 25404]","[u'up', u'up', u'up', u'left', u'up']",test,"[u'0', u'1', u'2', u'3', u'8', u'9']","{u'mouseover': {u'state': {u'target': [], u'time': []}, u'edge': {u'target': [], u'time': []}}, u'click': {u'state': {u'target': [u'16', u'21', u'27', u'32', u'11', u'6', u'5', u'10', u'7', u'9'], u'time': [5162, 6528, 8745, 9848, 12631, 13820, 15497, 17292, 18588, 19655]}, u'edge': {u'target': [], u'time': []}}, u'mouseout': {u'state': {u'target': [], u'time': []}, u'edge': {u'target': [], u'time': []}}}","[-1, 4, 3, -8, 46]","[21692, 380, 388, 540, 390]",34.0,"[None, None, None, None, None]","[u'', -1, 4, 3, -5, 1, 10, -3, -8, 46, -38, 28, 0, -2, -1, -15, 9, 23, -17, 2, -80, -17, -43, 1, 0, 0, -2, -8, 25, -33, 7, 22, 33, -11]",420616,12.0,28052.0,4.29183515435e+18,mouselab-mdp,3
"[19974, 20796, 21725, 22684, 23669]","[u'left', u'left', u'left', u'up', u'up']",test,"[u'0', u'23', u'24', u'25', u'26', u'27']","{u'mouseover': {u'state': {u'target': [], u'time': []}, u'edge': {u'target': [], u'time': []}}, u'click': {u'state': {u'target': [u'27', u'32', u'21', u'16', u'6', u'11', u'9', u'10', u'17', u'18'], u'time': [2680, 4230, 6013, 7362, 8794, 9862, 11216, 12397, 15582, 16566]}, u'edge': {u'target': [], u'time': []}}, u'mouseout': {u'state': {u'target': [], u'time': []}, u'edge': {u'target': [], u'time': []}}}","[0, 3, 4, 13, 39]","[19959, 323, 432, 457, 488]",49.0,"[None, None, None, None, None]","[u'', 0, 1, -6, -9, 23, -1, -7, -1, 16, -19, 16, -1, -1, 4, 9, -35, 27, -33, 6, -61, -36, -16, 0, 3, 4, 13, 39, -9, -9, 9, 1, -5, -43]",447848,13.0,26093.0,6.02334654885e+18,mouselab-mdp,3
"[20237, 21158, 22077, 23253, 24245]","[u'right', u'right', u'right', u'down', u'down']",test,"[u'0', u'12', u'13', u'14', u'19', u'21']","{u'mouseover': {u'state': {u'target': [], u'time': []}, u'edge': {u'target': [], u'time': []}}, u'click': {u'state': {u'target': [u'16', u'21', u'9', u'5', u'10', u'32', u'27'], u'time': [3877, 5414, 9446, 11830, 13545, 16575, 18053]}, u'edge': {u'target': [], u'time': []}}, u'mouseout': {u'state': {u'target': [], u'time': []}, u'edge': {u'target': [], u'time': []}}}","[0, -1, -3, -2, 42]","[20228, 426, 427, 662, 485]",29.0,"[None, None, None, None, None]","[u'', 1, 3, 6, -6, -8, 12, -9, -3, 22, -11, -57, 0, -1, -3, -13, 32, -71, -54, -2, 39, 42, -37, 0, -3, 4, -12, -5, 33, -7, 12, -28, 12, 27]",475191,14.0,26117.0,1.95568020665e+18,mouselab-mdp,3
"[12265, 13176, 14105, 15145, 16216]","[u'right', u'right', u'right', u'down', u'down']",test,"[u'0', u'12', u'13', u'14', u'19', u'21']","{u'mouseover': {u'state': {u'target': [], u'time': []}, u'edge': {u'target': [], u'time': []}}, u'click': {u'state': {u'target': [u'5', u'9', u'10', u'7', u'16', u'21'], u'time': [2759, 4063, 5020, 6240, 7495, 8853]}, u'edge': {u'target': [], u'time': []}}, u'mouseout': {u'state': {u'target': [], u'time': []}, u'edge': {u'target': [], u'time': []}}}","[-1, 1, 6, 3, 52]","[12257, 413, 425, 542, 563]",55.0,"[None, None, None, None, None]","[u'', -2, -3, 6, 5, 20, 37, -65, 12, -37, -31, 33, -1, 1, 6, -5, -19, 22, 29, 3, -51, 52, 20, -2, -2, -4, -6, 8, -23, 39, 9, 2, -34, 0]",494487,15.0,18152.0,-2.21831823842e+18,mouselab-mdp,3
"[11559, 12437, 13366, 14375, 15438]","[u'up', u'up', u'up', u'left', u'down']",test,"[u'0', u'1', u'2', u'3', u'8', u'10']","{u'mouseover': {u'state': {u'target': [], u'time': []}, u'edge': {u'target': [], u'time': []}}, u'click': {u'state': {u'target': [u'21', u'16', u'27', u'32', u'9', u'10'], u'time': [1984, 2991, 4258, 5569, 7892, 9297]}, u'edge': {u'target': [], u'time': []}}, u'mouseout': {u'state': {u'target': [], u'time': []}, u'edge': {u'target': [], u'time': []}}}","[2, -1, -5, -15, 62]","[11546, 382, 427, 516, 560]",37.0,"[None, None, None, None, None]","[u'', 2, -1, -5, -5, -27, -15, 26, -15, -65, 62, -26, 1, -4, 3, -11, -32, -45, 17, -8, -32, 22, 50, 0, 1, 3, 13, -8, -31, 59, 11, -39, 26, 13]",514391,16.0,18742.0,2.31359358032e+18,mouselab-mdp,3
"[42030, 42933, 43869, 45486, 46557]","[u'right', u'right', u'right', u'up', u'left']",test,"[u'0', u'12', u'13', u'14', u'15', u'18']","{u'mouseover': {u'state': {u'target': [], u'time': []}, u'edge': {u'target': [], u'time': []}}, u'click': {u'state': {u'target': [u'9', u'5', u'7', u'10', u'27', u'32', u'21', u'16', u'29', u'33', u'20', u'17', u'6', u'11', u'22', u'18', u'28', u'31'], u'time': [3896, 4875, 6019, 7149, 8879, 10108, 11476, 12614, 14662, 15833, 17516, 18586, 27202, 28340, 32529, 34601, 38915, 39831]}, u'edge': {u'target': [], u'time': []}}, u'mouseout': {u'state': {u'target': [], u'time': []}, u'edge': {u'target': [], u'time': []}}}","[-2, -2, -3, 11, 34]","[42013, 407, 441, 1121, 573]",20.0,"[None, None, None, None, None]","[u'', -1, -1, 4, -6, 37, 17, -50, 1, -47, 30, -54, -2, -2, -3, 11, -1, 9, 34, -6, -19, -27, 25, 2, 1, -2, -4, -36, 23, -34, -2, -37, -61, -81]",564679,17.0,49110.0,6.03787457509e+18,mouselab-mdp,3
"[7776, 8632, 9520, 10512, 11528]","[u'left', u'left', u'left', u'up', u'up']",test,"[u'0', u'23', u'24', u'25', u'26', u'27']","{u'mouseover': {u'state': {u'target': [], u'time': []}, u'edge': {u'target': [], u'time': []}}, u'click': {u'state': {u'target': [u'32', u'27'], u'time': [3270, 5933]}, u'edge': {u'target': [], u'time': []}}, u'mouseout': {u'state': {u'target': [], u'time': []}, u'edge': {u'target': [], u'time': []}}}","[0, 1, -1, 9, 56]","[7754, 350, 384, 491, 523]",63.0,"[None, None, None, None, None]","[u'', -1, 2, 0, 0, 25, -13, -8, 9, -44, -28, -4, 1, 0, -5, -7, 54, 10, -20, -4, 120, 43, -52, 0, 1, -1, 9, 56, 0, 9, -1, 28, 48, 30]",580015,18.0,14152.0,6.33441295976e+18,mouselab-mdp,3
"[15775, 16631, 17543, 18463, 19415]","[u'up', u'up', u'up', u'left', u'left']",test,"[u'0', u'1', u'2', u'3', u'8', u'11']","{u'mouseover': {u'state': {u'target': [], u'time': []}, u'edge': {u'target': [], u'time': []}}, u'click': {u'state': {u'target': [u'7', u'10', u'11', u'6', u'9', u'5'], u'time': [7169, 8571, 9987, 11311, 12503, 13680]}, u'edge': {u'target': [], u'time': []}}, u'mouseout': {u'state': {u'target': [], u'time': []}, u'edge': {u'target': [], u'time': []}}}","[0, 0, 4, 1, 53]","[15761, 359, 419, 421, 453]",52.0,"[None, None, None, None, None]","[u'', 0, 0, 4, 4, -39, 45, 32, 1, 5, 43, 53, 1, -2, 0, 7, -27, -39, 0, 1, 12, 39, -70, 0, 0, 0, 1, 33, 18, -1, 1, 3, -4, 42]",602734,19.0,21559.0,-6.00893554297e+18,mouselab-mdp,3
"[44097, 44958, 45902, 46902, 47974]","[u'right', u'right', u'right', u'down', u'right']",test,"[u'0', u'12', u'13', u'14', u'19', u'20']","{u'mouseover': {u'state': {u'target': [], u'time': []}, u'edge': {u'target': [], u'time': []}}, u'click': {u'state': {u'target': [u'32', u'27', u'16', u'21', u'29', u'28', u'11', u'9', u'10', u'7', u'5', u'6', u'33', u'31', u'22', u'20', u'17', u'18'], u'time': [6678, 7708, 9203, 10235, 12451, 13843, 15084, 16282, 17350, 18324, 19475, 20675, 22271, 23270, 24802, 26022, 27440, 28305]}, u'edge': {u'target': [], u'time': []}}, u'mouseout': {u'state': {u'target': [], u'time': []}, u'edge': {u'target': [], u'time': []}}}","[-1, 2, 1, -1, 19]","[44083, 356, 438, 496, 570]",2.0,"[None, None, None, None, None]","[u'', 0, 1, -2, 6, -2, -22, 3, -12, -59, 11, -57, -1, 2, 1, -7, 0, -46, -36, -1, 19, -1, -3, -1, 0, 3, 9, 11, 4, 11, 4, -15, -12, -21]",653735,20.0,49806.0,1.58242239691e+18,mouselab-mdp,3
"[15133, 15970, 16859, 19043, 20035]","[u'up', u'up', u'up', u'right', u'up']",test,"[u'0', u'1', u'2', u'3', u'4', u'5']","{u'mouseover': {u'state': {u'target': [], u'time': []}, u'edge': {u'target': [], u'time': []}}, u'click': {u'state': {u'target': [u'27', u'32', u'21', u'16', u'9', u'10', u'7', u'5'], u'time': [4297, 5447, 6847, 8058, 9537, 10395, 11223, 12170]}, u'edge': {u'target': [], u'time': []}}, u'mouseout': {u'state': {u'target': [], u'time': []}, u'edge': {u'target': [], u'time': []}}}","[0, 3, -5, -9, 54]","[15125, 335, 385, 1691, 490]",35.0,"[None, None, None, None, None]","[u'', 0, 3, -5, -9, 54, 19, -60, 4, 8, -69, -12, 0, 1, 4, 1, 33, -5, -27, -7, 17, -63, 22, -1, -1, 2, 10, -62, -26, 2, -5, 28, -67, 12]",676942,21.0,22003.0,-6.44000697273e+18,mouselab-mdp,3
"[17245, 18172, 19092, 20411, 21499]","[u'right', u'right', u'right', u'up', u'right']",test,"[u'0', u'12', u'13', u'14', u'15', u'17']","{u'mouseover': {u'state': {u'target': [], u'time': []}, u'edge': {u'target': [], u'time': []}}, u'click': {u'state': {u'target': [u'16', u'17', u'20', u'21', u'18'], u'time': [5589, 7041, 12370, 13672, 15775]}, u'edge': {u'target': [], u'time': []}}, u'mouseout': {u'state': {u'target': [], u'time': []}, u'edge': {u'target': [], u'time': []}}}","[0, 3, 2, -5, 51]","[17237, 429, 417, 821, 583]",46.0,"[None, None, None, None, None]","[u'', 0, 1, 0, 7, -3, 60, -35, 7, 32, 41, -4, 0, 3, 2, -5, 27, 51, 21, -6, 31, -49, 25, 1, 0, 1, 1, -17, -27, -9, -5, 48, -43, 58]",701942,22.0,23803.0,2.45129555479e+18,mouselab-mdp,3
"[14543, 15436, 18845, 19900, 20908]","[u'up', u'up', u'up', u'right', u'down']",test,"[u'0', u'1', u'2', u'3', u'4', u'7']","{u'mouseover': {u'state': {u'target': [], u'time': []}, u'edge': {u'target': [], u'time': []}}, u'click': {u'state': {u'target': [u'21', u'16', u'27', u'32', u'9', u'5', u'7'], u'time': [4350, 5534, 6760, 7758, 10595, 11429, 12223]}, u'edge': {u'target': [], u'time': []}}, u'mouseout': {u'state': {u'target': [], u'time': []}, u'edge': {u'target': [], u'time': []}}}","[0, 0, -1, 8, 106]","[14534, 392, 2912, 545, 497]",106.0,"[None, None, None, None, None]","[u'', 0, 0, -1, 8, 31, 23, 106, -5, -12, -32, 14, -1, -5, -5, 1, 32, -50, -20, -1, -23, 17, 0, 0, -1, 6, 0, 41, -14, 19, -5, -30, -23, -1]",727407,23.0,24261.0,-7.6395338963e+18,mouselab-mdp,3
"[30490, 31408, 32329, 33234, 34160]","[u'left', u'left', u'left', u'down', u'down']",test,"[u'0', u'23', u'24', u'25', u'30', u'32']","{u'mouseover': {u'state': {u'target': [], u'time': []}, u'edge': {u'target': [], u'time': []}}, u'click': {u'state': {u'target': [u'21', u'20', u'17', u'16', u'18', u'22', u'32', u'33', u'29', u'27', u'28', u'31', u'9', u'11', u'10', u'7', u'6', u'5'], u'time': [8246, 9310, 10429, 11504, 12553, 13635, 14641, 15623, 16582, 17367, 18163, 18899, 20634, 21705, 24089, 25145, 25909, 26737]}, u'edge': {u'target': [], u'time': []}}, u'mouseout': {u'state': {u'target': [], u'time': []}, u'edge': {u'target': [], u'time': []}}}","[1, 1, 4, 2, 36]","[30478, 421, 426, 410, 416]",26.0,"[None, None, None, None, None]","[u'', 1, -2, -1, 5, 11, -3, -31, 1, 23, -23, 2, 2, 1, 2, -8, -18, -10, -27, -10, -50, -7, 27, 1, 1, 4, -7, -22, -8, -29, 2, -21, 36, -28]",764766,24.0,36136.0,8.08344173605e+18,mouselab-mdp,3
"[32973, 33764, 34772, 35763, 36764]","[u'right', u'right', u'right', u'down', u'right']",test,"[u'0', u'12', u'13', u'14', u'19', u'20']","{u'mouseover': {u'state': {u'target': [], u'time': []}, u'edge': {u'target': [], u'time': []}}, u'click': {u'state': {u'target': [u'9', u'10', u'11', u'6', u'16', u'21', u'17', u'27', u'32', u'5', u'7', u'29', u'33', u'31', u'28', u'18', u'22', u'20'], u'time': [7577, 8679, 9659, 11076, 11908, 12937, 15871, 17589, 18723, 22310, 23105, 24235, 25198, 26511, 27492, 28991, 29755, 30611]}, u'edge': {u'target': [], u'time': []}}, u'mouseout': {u'state': {u'target': [], u'time': []}, u'edge': {u'target': [], u'time': []}}}","[0, -2, 9, -7, 52]","[32965, 291, 498, 489, 504]",34.0,"[None, None, None, None, None]","[u'', 1, 3, -5, -4, -25, -34, 8, 4, -23, -16, 8, 0, -2, 9, -2, 3, -20, -8, -7, 52, -59, -6, 1, -3, 2, 11, 9, 0, -1, -2, 19, -28, 10]",804918,25.0,38972.0,-7.29297814771e+18,mouselab-mdp,3
"[11201, 12056, 12960, 13912, 14832]","[u'right', u'right', u'right', u'up', u'up']",test,"[u'0', u'12', u'13', u'14', u'15', u'16']","{u'mouseover': {u'state': {u'target': [], u'time': []}, u'edge': {u'target': [], u'time': []}}, u'click': {u'state': {u'target': [u'32', u'27', u'16', u'21'], u'time': [5374, 6499, 7796, 9256]}, u'edge': {u'target': [], u'time': []}}, u'mouseout': {u'state': {u'target': [], u'time': []}, u'edge': {u'target': [], u'time': []}}}","[1, 0, 3, 17, 64]","[11194, 360, 412, 444, 412]",81.0,"[None, None, None, None, None]","[u'', 1, -1, 1, 5, 12, -17, 52, 1, 30, 13, 28, 1, 0, 3, 17, 64, 24, 54, -10, 47, 2, -57, 0, 2, -3, 15, 43, -41, 32, 1, -18, -10, -14]",824143,26.0,18017.0,-8.09611612733e+18,mouselab-mdp,3
"[13459, 14331, 15250, 16219, 17186]","[u'right', u'right', u'right', u'up', u'up']",test,"[u'0', u'12', u'13', u'14', u'15', u'16']","{u'mouseover': {u'state': {u'target': [], u'time': []}, u'edge': {u'target': [], u'time': []}}, u'click': {u'state': {u'target': [u'27', u'32', u'9', u'7', u'21', u'16'], u'time': [3708, 4814, 5980, 7054, 8419, 9372]}, u'edge': {u'target': [], u'time': []}}, u'mouseout': {u'state': {u'target': [], u'time': []}, u'edge': {u'target': [], u'time': []}}}","[-1, 1, 4, -2, 66]","[13433, 369, 419, 469, 464]",62.0,"[None, None, None, None, None]","[u'', -2, 2, 0, 17, -42, 2, 12, 10, -14, 3, -69, -1, 1, 4, -2, 66, 56, -2, -19, -57, -25, 36, 0, -4, -1, 13, -12, -24, 66, 0, -15, 11, 1]",844886,27.0,19563.0,-3.66851144697e+18,mouselab-mdp,3
"[8659, 9476, 10347, 11635, 12547]","[u'up', u'up', u'up', u'right', u'up']",test,"[u'0', u'1', u'2', u'3', u'4', u'5']","{u'mouseover': {u'state': {u'target': [], u'time': []}, u'edge': {u'target': [], u'time': []}}, u'click': {u'state': {u'target': [u'5'], u'time': [6323]}, u'edge': {u'target': [], u'time': []}}, u'mouseout': {u'state': {u'target': [], u'time': []}, u'edge': {u'target': [], u'time': []}}}","[0, -1, 2, -1, 76]","[8646, 310, 360, 784, 410]",75.0,"[None, None, None, None, None]","[u'', 0, -1, 2, -1, 76, 6, -15, -4, -7, 51, 17, 1, -3, -2, 1, -6, 22, 34, -3, -92, -30, -38, 1, 4, 1, 15, 11, 36, 10, 6, -30, -10, 48]",861598,28.0,15459.0,-5.96010147556e+18,mouselab-mdp,3
"[17954, 18841, 19745, 20641, 21720]","[u'left', u'left', u'left', u'down', u'right']",test,"[u'0', u'23', u'24', u'25', u'30', u'31']","{u'mouseover': {u'state': {u'target': [], u'time': []}, u'edge': {u'target': [], u'time': []}}, u'click': {u'state': {u'target': [u'9', u'10', u'7', u'5', u'27', u'32', u'21', u'16', u'29', u'33', u'31'], u'time': [4807, 6724, 7766, 8703, 9594, 10622, 11704, 12704, 14269, 15193, 16121]}, u'edge': {u'target': [], u'time': []}}, u'mouseout': {u'state': {u'target': [], u'time': []}, u'edge': {u'target': [], u'time': []}}}","[1, 1, -1, -3, 58]","[17947, 383, 408, 395, 574]",45.0,"[None, None, None, None, None]","[u'', -2, 3, 1, 5, 6, -6, -11, 1, 5, 37, 11, 0, 4, -5, -11, 11, -7, -57, -2, -23, 36, -20, 1, 1, -1, 0, 14, -74, 10, -3, 58, -22, 37]",886253,29.0,23512.0,3.27542502628e+18,mouselab-mdp,3
"[34984, 35844, 36716, 38051, 39028]","[u'up', u'up', u'up', u'left', u'up']",test,"[u'0', u'1', u'2', u'3', u'8', u'9']","{u'mouseover': {u'state': {u'target': [], u'time': []}, u'edge': {u'target': [], u'time': []}}, u'click': {u'state': {u'target': [u'5', u'10', u'11', u'6', u'16', u'21', u'20', u'18', u'17', u'22', u'32', u'33', u'29', u'27', u'28', u'31', u'9', u'7'], u'time': [8502, 9468, 10593, 12175, 13860, 14838, 15862, 16963, 17870, 18626, 19705, 20721, 21606, 22445, 23429, 24188, 26579, 27577]}, u'edge': {u'target': [], u'time': []}}, u'mouseout': {u'state': {u'target': [], u'time': []}, u'edge': {u'target': [], u'time': []}}}","[-1, -2, 6, 0, 31]","[34974, 349, 372, 839, 481]",16.0,"[None, None, None, None, None]","[u'', -1, -2, 6, 13, -11, 17, 0, 0, 31, 14, 11, 0, 2, -1, 0, 7, -38, -10, -3, 3, -36, -38, 2, 2, 4, 15, 13, -3, 15, -15, -35, 24, 1]",929046,30.0,41620.0,6.4481754097e+18,mouselab-mdp,3
"[34762, 36642, 37954, 39044, 43452]","[u'left', u'left', u'left', u'down', u'down']",pre_test,"[u'0', u'23', u'24', u'25', u'30', u'32']","{u'mouseover': {u'state': {u'target': [], u'time': []}, u'edge': {u'target': [], u'time': []}}, u'click': {u'state': {u'target': [u'1', u'12', u'23', u'24', u'28', u'18', u'13', u'14', u'19', u'2', u'3', u'4', u'8', u'25', u'26', u'30'], u'time': [2315, 3844, 5321, 6641, 7514, 8592, 9412, 13398, 15266, 17185, 18017, 18815, 19671, 23610, 24705, 25455]}, u'edge': {u'target': [], u'time': []}}, u'mouseout': {u'state': {u'target': [], u'time': []}, u'edge': {u'target': [], u'time': []}}}","[0, 6, -3, 11, 8]","[34745, 1382, 798, 566, 3877]",6.0,"[None, None, None, None, None]","[u'', 1, -3, 4, 7, 45, -19, 6, 7, 10, -14, 10, 0, 2, -3, 3, 9, 24, -2, 1, -2, 1, 0, 0, 6, -3, -9, -25, -23, 0, 11, 54, 8, -80]",116413,0.0,69843.0,-8.90147560604e+18,mouselab-mdp,4
"[25985, 33344, 33915]","[u'up', u'up', u'right']",training,"[u'0', u'1', u'2', u'3']","{u'mouseover': {u'state': {u'target': [], u'time': []}, u'edge': {u'target': [], u'time': []}}, u'click': {u'state': {u'target': [u'5', u'4', u'3', u'1', u'12', u'11', u'7', u'8'], u'time': [8987, 11659, 13996, 18761, 19012, 20479, 21582, 22642]}, u'edge': {u'target': [], u'time': []}}, u'mouseout': {u'state': {u'target': [], u'time': []}, u'edge': {u'target': [], u'time': []}}}","[-2, -4, 24]","[25975, 3821, 58]",10.0,"[None, None, None]","[u'', -2, -4, 24, -48, -4, 8, -24, -24, 4, -4, -48, 24]",171153,1.0,36343.0,1.39930365593e+18,mouselab-mdp,4
"[19516, 20269, 21046]","[u'right', u'right', u'up']",training,"[u'0', u'5', u'6', u'7']","{u'mouseover': {u'state': {u'target': [], u'time': []}, u'edge': {u'target': [], u'time': []}}, u'click': {u'state': {u'target': [u'4', u'3', u'7', u'8', u'12', u'11', u'6', u'10', u'2', u'5', u'9', u'1'], u'time': [3780, 4997, 6097, 7265, 8344, 9346, 12124, 14002, 14939, 15717, 16763, 17363]}, u'edge': {u'target': [], u'time': []}}, u'mouseout': {u'state': {u'target': [], u'time': []}, u'edge': {u'target': [], u'time': []}}}","[4, 8, 48]","[19512, 231, 261]",48.0,"[None, None, None]","[u'', -2, -8, -24, -24, 4, 8, 48, 24, -2, 8, -24, -48]",195233,2.0,22980.0,4.07975241014e+18,mouselab-mdp,4
