action_times,actions,block,path,queries,rewards,rt,score,simulation_mode,state_rewards,time_elapsed,trial_index,trial_time,trial_id,trial_type,pid
"[23098, 24292, 25002, 25570, 26249]","[u'up', u'up', u'up', u'right', u'down']",pre_test,"[u'0', u'1', u'2', u'3', u'4', u'7']","{u'mouseover': {u'state': {u'target': [], u'time': []}, u'edge': {u'target': [], u'time': []}}, u'click': {u'state': {u'target': [u'1', u'12', u'23', u'2', u'3', u'4', u'6', u'5', u'9', u'7', u'8', u'10', u'11', u'28', u'24', u'31', u'30', u'32', u'25', u'26', u'27', u'13', u'14', u'15', u'16', u'18', u'19', u'21', u'22', u'20'], u'time': [2694, 3389, 4295, 5038, 5437, 5950, 6572, 7053, 7693, 8429, 9173, 9524, 9980, 10445, 10812, 11309, 11772, 12364, 13108, 13525, 13860, 14908, 15572, 16253, 16780, 17325, 18356, 18693, 19164, 19677]}, u'edge': {u'target': [], u'time': []}}, u'mouseout': {u'state': {u'target': [], u'time': []}, u'edge': {u'target': [], u'time': []}}}","[1, 2, 2, 9, 43]","[23093, 698, 208, 75, 187]",27.0,"[None, None, None, None, None]","[u'', 1, 2, 2, 9, -14, -2, 43, 16, -53, 30, -40, 0, -1, 1, -2, 13, 21, -11, 5, -9, 22, 38, 0, 0, -7, -6, -20, -5, -45, -10, -2, 7, 32]",91731,0.0,28426.0,-6.28758616178e+18,mouselab-mdp,0
"[17454, 18101, 18661]","[u'up', u'up', u'left']",training,"[u'0', u'1', u'2', u'4']","{u'mouseover': {u'state': {u'target': [], u'time': []}, u'edge': {u'target': [], u'time': []}}, u'click': {u'state': {u'target': [u'1', u'4', u'7', u'8', u'3', u'2', u'11', u'10', u'12', u'5', u'6', u'9'], u'time': [9030, 9160, 11087, 11718, 12359, 12791, 13415, 13775, 14142, 14631, 15167, 16927]}, u'edge': {u'target': [], u'time': []}}, u'mouseout': {u'state': {u'target': [], u'time': []}, u'edge': {u'target': [], u'time': []}}}","[4, 4, 48]","[17451, 129, 54]",44.0,"[None, None, None]","[u'', 4, 4, -48, 48, -2, 4, -48, -24, -2, -4, -48, 24]",133756,1.0,19910.0,-5.00680981918e+18,mouselab-mdp,0
"[7800, 8663, 9320]","[u'up', u'up', u'right']",training,"[u'0', u'1', u'2', u'3']","{u'mouseover': {u'state': {u'target': [], u'time': []}, u'edge': {u'target': [], u'time': []}}, u'click': {u'state': {u'target': [u'4', u'3', u'7', u'8', u'6', u'5', u'2', u'1', u'9', u'10', u'11', u'12'], u'time': [1009, 1689, 2161, 2768, 3129, 4097, 4633, 5016, 5648, 6065, 6353, 7001]}, u'edge': {u'target': [], u'time': []}}, u'mouseout': {u'state': {u'target': [], u'time': []}, u'edge': {u'target': [], u'time': []}}}","[2, 8, 48]","[7796, 373, 163]",46.0,"[None, None, None]","[u'', 2, 8, 48, 24, -2, 4, 24, 24, -2, -4, -48, -24]",145587,2.0,10799.0,-8.92386760362e+18,mouselab-mdp,0
"[13637, 14309, 14917]","[u'right', u'right', u'down']",training,"[u'0', u'5', u'6', u'8']","{u'mouseover': {u'state': {u'target': [], u'time': []}, u'edge': {u'target': [], u'time': []}}, u'click': {u'state': {u'target': [u'3', u'4', u'2', u'8', u'12', u'11', u'7', u'6', u'5', u'1', u'9', u'10'], u'time': [1390, 2039, 5371, 6623, 7702, 8430, 9166, 9703, 10246, 10902, 11766, 12390]}, u'edge': {u'target': [], u'time': []}}, u'mouseout': {u'state': {u'target': [], u'time': []}, u'edge': {u'target': [], u'time': []}}}","[2, 4, 48]","[13635, 183, 106]",42.0,"[None, None, None]","[u'', 4, -8, 24, 24, 2, 4, 24, 48, -2, 4, 24, -48]",167940,3.0,21325.0,6.72269827856e+18,mouselab-mdp,0
"[10474, 11122, 11769]","[u'up', u'up', u'right']",training,"[u'0', u'1', u'2', u'3']","{u'mouseover': {u'state': {u'target': [], u'time': []}, u'edge': {u'target': [], u'time': []}}, u'click': {u'state': {u'target': [u'7', u'3', u'4'], u'time': [6484, 8035, 9139]}, u'edge': {u'target': [], u'time': []}}, u'mouseout': {u'state': {u'target': [], u'time': []}, u'edge': {u'target': [], u'time': []}}}","[-4, 4, 48]","[10469, 152, 147]",45.0,"[None, None, None]","[u'', -4, 4, 48, -48, -4, 4, -24, 24, -4, -8, 24, 24]",183187,4.0,14217.0,-5.99530113684e+18,mouselab-mdp,0
"[12637, 13309, 13980]","[u'right', u'right', u'up']",training,"[u'0', u'5', u'6', u'7']","{u'mouseover': {u'state': {u'target': [], u'time': []}, u'edge': {u'target': [], u'time': []}}, u'click': {u'state': {u'target': [u'11', u'12', u'3', u'4', u'7', u'8', u'6', u'2', u'5', u'1'], u'time': [2358, 3046, 3654, 4605, 5325, 8849, 9166, 10086, 11454, 11982]}, u'edge': {u'target': [], u'time': []}}, u'mouseout': {u'state': {u'target': [], u'time': []}, u'edge': {u'target': [], u'time': []}}}","[2, -4, 48]","[12634, 169, 173]",36.0,"[None, None, None]","[u'', -2, -4, 48, -24, 2, -4, 48, 24, -2, -8, -24, -24]",199779,5.0,15564.0,2.59386444745e+18,mouselab-mdp,0
"[8534, 9134, 9758]","[u'left', u'left', u'down']",training,"[u'0', u'9', u'10', u'12']","{u'mouseover': {u'state': {u'target': [], u'time': []}, u'edge': {u'target': [], u'time': []}}, u'click': {u'state': {u'target': [u'3', u'4', u'7', u'8', u'11', u'12', u'10', u'9'], u'time': [952, 2168, 3240, 4128, 4880, 5488, 7375, 7808]}, u'edge': {u'target': [], u'time': []}}, u'mouseout': {u'state': {u'target': [], u'time': []}, u'edge': {u'target': [], u'time': []}}}","[4, 4, 48]","[8531, 107, 130]",48.0,"[None, None, None]","[u'', 2, 4, 24, -24, 4, 8, 24, -24, 4, 4, 24, 48]",212387,6.0,11566.0,5.95911582726e+18,mouselab-mdp,0
"[3276, 3980, 4588]","[u'up', u'up', u'right']",training,"[u'0', u'1', u'2', u'3']","{u'mouseover': {u'state': {u'target': [], u'time': []}, u'edge': {u'target': [], u'time': []}}, u'click': {u'state': {u'target': [u'3'], u'time': [917]}, u'edge': {u'target': [], u'time': []}}, u'mouseout': {u'state': {u'target': [], u'time': []}, u'edge': {u'target': [], u'time': []}}}","[-4, 8, 48]","[3274, 207, 115]",51.0,"[None, None, None]","[u'', -4, 8, 48, 24, 2, -8, -48, -24, -4, -4, 48, -24]",223235,7.0,9820.0,3.41976950562e+18,mouselab-mdp,0
"[9765, 10397, 11012]","[u'right', u'right', u'down']",training,"[u'0', u'5', u'6', u'8']","{u'mouseover': {u'state': {u'target': [], u'time': []}, u'edge': {u'target': [], u'time': []}}, u'click': {u'state': {u'target': [u'7', u'4', u'3', u'11', u'12', u'8', u'10', u'6', u'5', u'9'], u'time': [750, 2109, 2702, 3549, 4470, 5110, 6558, 7158, 7758, 8614]}, u'edge': {u'target': [], u'time': []}}, u'mouseout': {u'state': {u'target': [], u'time': []}, u'edge': {u'target': [], u'time': []}}}","[-4, 8, 48]","[9763, 139, 122]",42.0,"[None, None, None]","[u'', -4, 8, -24, -48, -4, 8, -48, 48, 4, -8, -24, 48]",236388,8.0,12124.0,-1.41484517897e+18,mouselab-mdp,0
"[5773, 6388, 7013]","[u'right', u'right', u'up']",training,"[u'0', u'5', u'6', u'7']","{u'mouseover': {u'state': {u'target': [], u'time': []}, u'edge': {u'target': [], u'time': []}}, u'click': {u'state': {u'target': [u'8', u'7'], u'time': [3199, 3766]}, u'edge': {u'target': [], u'time': []}}, u'mouseout': {u'state': {u'target': [], u'time': []}, u'edge': {u'target': [], u'time': []}}}","[4, 8, 48]","[5770, 110, 134]",58.0,"[None, None, None]","[u'', -2, -8, -24, -24, 4, 8, 48, 24, -2, 8, -24, -48]",246061,9.0,8645.0,4.07975241014e+18,mouselab-mdp,0
"[9899, 10523, 11149]","[u'right', u'right', u'down']",training,"[u'0', u'5', u'6', u'8']","{u'mouseover': {u'state': {u'target': [], u'time': []}, u'edge': {u'target': [], u'time': []}}, u'click': {u'state': {u'target': [u'7', u'8', u'3', u'4', u'11', u'12', u'10', u'6', u'2', u'5', u'1'], u'time': [1012, 1685, 2445, 3037, 3542, 4141, 5877, 6877, 7477, 8965, 9372]}, u'edge': {u'target': [], u'time': []}}, u'mouseout': {u'state': {u'target': [], u'time': []}, u'edge': {u'target': [], u'time': []}}}","[4, 8, 24]","[9896, 123, 131]",25.0,"[None, None, None]","[u'', 2, 4, 24, -24, 4, 8, -48, 24, 4, -8, -24, 24]",260180,10.0,13091.0,8.9509461883e+18,mouselab-mdp,0
"[16558, 17214, 17870, 18470, 19142]","[u'left', u'left', u'left', u'down', u'right']",test,"[u'0', u'23', u'24', u'25', u'30', u'31']","{u'mouseover': {u'state': {u'target': [], u'time': []}, u'edge': {u'target': [], u'time': []}}, u'click': {u'state': {u'target': [u'5', u'7', u'10', u'11', u'9', u'27', u'28', u'29', u'33', u'32', u'31', u'22', u'30', u'25', u'24', u'23'], u'time': [4593, 5304, 6161, 6887, 7416, 8112, 8665, 9282, 9904, 10416, 10824, 11656, 13560, 13976, 14368, 15056]}, u'edge': {u'target': [], u'time': []}}, u'mouseout': {u'state': {u'target': [], u'time': []}, u'edge': {u'target': [], u'time': []}}}","[1, 0, 6, 11, 87]","[16552, 157, 162, 95, 167]",89.0,"[None, None, None, None, None]","[u'', 1, -1, 2, 14, -22, 8, -8, -9, -26, 17, -1, -2, 1, -1, 7, -21, 74, -30, 6, -34, 6, -37, 1, 0, 6, -1, -52, -27, -13, 11, 87, -4, 10]",305149,11.0,20494.0,2.57494434791e+18,mouselab-mdp,0
"[20703, 21567, 22207, 22855, 23567]","[u'left', u'left', u'left', u'down', u'down']",test,"[u'0', u'23', u'24', u'25', u'30', u'32']","{u'mouseover': {u'state': {u'target': [], u'time': []}, u'edge': {u'target': [], u'time': []}}, u'click': {u'state': {u'target': [u'16', u'18', u'7', u'6', u'5', u'9', u'11', u'10', u'28', u'31', u'33', u'32', u'21', u'20', u'22', u'17', u'29', u'27', u'30', u'25', u'24', u'23'], u'time': [1274, 2026, 3017, 3521, 4345, 5009, 5593, 6025, 6617, 7265, 7913, 8409, 9242, 9834, 10274, 10826, 11762, 12323, 16562, 16906, 17441, 17906]}, u'edge': {u'target': [], u'time': []}}, u'mouseout': {u'state': {u'target': [], u'time': []}, u'edge': {u'target': [], u'time': []}}}","[0, 1, -1, -6, 38]","[20700, 370, 143, 156, 217]",10.0,"[None, None, None, None, None]","[u'', 1, -1, -3, -3, -34, 1, -32, -7, 10, -18, -7, 2, 1, 5, 4, 19, -43, -18, -2, -14, -6, 5, 0, 1, -1, 9, 0, -19, -40, -6, -8, 38, -41]",331357,12.0,25071.0,5.01968822029e+18,mouselab-mdp,0
"[6689, 7338, 7994, 8721, 9369]","[u'left', u'left', u'left', u'down', u'down']",test,"[u'0', u'23', u'24', u'25', u'30', u'32']","{u'mouseover': {u'state': {u'target': [], u'time': []}, u'edge': {u'target': [], u'time': []}}, u'click': {u'state': {u'target': [u'32', u'30', u'25', u'24', u'23'], u'time': [1779, 4836, 5147, 5611, 6259]}, u'edge': {u'target': [], u'time': []}}, u'mouseout': {u'state': {u'target': [], u'time': []}, u'edge': {u'target': [], u'time': []}}}","[-1, 4, 3, -8, 48]","[6684, 145, 151, 228, 158]",41.0,"[None, None, None, None, None]","[u'', 1, 1, 1, 8, 18, -3, 30, 2, 93, 35, 37, 1, 0, 5, 0, -27, -18, 17, -12, 7, -23, 23, -1, 4, 3, -10, 56, -7, -23, -8, 18, 48, -19]",343741,13.0,11257.0,8.26021657389e+18,mouselab-mdp,0
"[20758, 21430, 22086, 22694, 23487]","[u'left', u'left', u'left', u'down', u'left']",test,"[u'0', u'23', u'24', u'25', u'30', u'33']","{u'mouseover': {u'state': {u'target': [], u'time': []}, u'edge': {u'target': [], u'time': []}}, u'click': {u'state': {u'target': [u'21', u'16', u'17', u'6', u'5', u'7', u'9', u'10', u'11', u'15', u'14', u'13', u'12', u'1', u'2', u'3', u'8', u'32', u'31', u'33', u'29', u'30', u'25', u'24', u'23'], u'time': [1032, 2081, 2680, 5696, 6280, 6728, 7362, 8160, 8520, 10689, 11113, 11497, 11960, 12521, 12809, 13185, 13712, 15747, 16456, 17152, 17937, 19081, 19408, 19873, 20233]}, u'edge': {u'target': [], u'time': []}}, u'mouseout': {u'state': {u'target': [], u'time': []}, u'edge': {u'target': [], u'time': []}}}","[-1, -5, 1, -6, 71]","[20753, 150, 159, 116, 292]",35.0,"[None, None, None, None, None]","[u'', 0, -1, 1, -14, 2, -15, 20, -14, -14, 53, -38, 1, 3, 0, 8, 33, 50, -12, -1, 26, -24, 2, -1, -5, 1, 14, -12, 3, -14, -6, 4, 34, 71]",369949,14.0,25094.0,-4.53999299154e+18,mouselab-mdp,0
"[16265, 16872, 17551, 18280, 18912]","[u'left', u'left', u'left', u'down', u'down']",test,"[u'0', u'23', u'24', u'25', u'30', u'32']","{u'mouseover': {u'state': {u'target': [], u'time': []}, u'edge': {u'target': [], u'time': []}}, u'click': {u'state': {u'target': [u'28', u'29', u'33', u'32', u'31', u'22', u'21', u'20', u'17', u'16', u'18', u'7', u'6', u'5', u'9', u'11', u'10', u'30'], u'time': [2227, 2946, 3683, 4218, 4714, 5451, 5795, 6171, 6874, 7251, 7837, 9122, 9459, 10459, 11139, 11778, 12843, 15219]}, u'edge': {u'target': [], u'time': []}}, u'mouseout': {u'state': {u'target': [], u'time': []}, u'edge': {u'target': [], u'time': []}}}","[1, 1, 4, 2, 36]","[16260, 91, 187, 232, 130]",26.0,"[None, None, None, None, None]","[u'', 1, -2, -1, 5, 11, -3, -31, 1, 23, -23, 2, 2, 1, 2, -8, -18, -10, -27, -10, -50, -7, 27, 1, 1, 4, -7, -22, -8, -29, 2, -21, 36, -28]",391318,15.0,20265.0,8.08344173605e+18,mouselab-mdp,0
"[26721, 27313, 27913, 28473, 29104]","[u'left', u'left', u'left', u'down', u'down']",test,"[u'0', u'23', u'24', u'25', u'30', u'32']","{u'mouseover': {u'state': {u'target': [], u'time': []}, u'edge': {u'target': [], u'time': []}}, u'click': {u'state': {u'target': [u'32', u'33', u'31', u'28', u'27', u'29', u'22', u'21', u'17', u'18', u'16', u'7', u'6', u'20', u'5', u'9', u'11', u'10', u'8', u'3', u'2', u'1', u'23', u'24', u'25', u'30'], u'time': [1386, 2250, 3587, 4467, 4906, 5402, 6499, 6987, 8163, 8747, 9124, 9803, 10187, 10923, 11731, 12650, 13291, 13899, 14691, 15115, 15539, 16547, 16963, 17309, 17580, 18139]}, u'edge': {u'target': [], u'time': []}}, u'mouseout': {u'state': {u'target': [], u'time': []}, u'edge': {u'target': [], u'time': []}}}","[1, 0, 0, 7, 33]","[26717, 89, 107, 66, 131]",15.0,"[None, None, None, None, None]","[u'', -1, 4, 3, -5, 1, 10, -3, -8, 46, -38, 28, 0, -2, -1, -15, 9, 23, -17, 2, -80, -17, -43, 1, 0, 0, -2, -8, 25, -33, 7, 22, 33, -11]",422798,16.0,30393.0,4.29183515435e+18,mouselab-mdp,0
"[7203, 7835, 8539, 9147, 9786]","[u'left', u'left', u'left', u'up', u'right']",test,"[u'0', u'23', u'24', u'25', u'26', u'28']","{u'mouseover': {u'state': {u'target': [], u'time': []}, u'edge': {u'target': [], u'time': []}}, u'click': {u'state': {u'target': [u'32', u'31', u'33', u'27', u'28', u'25'], u'time': [1300, 1773, 2461, 3165, 4021, 5508]}, u'edge': {u'target': [], u'time': []}}, u'mouseout': {u'state': {u'target': [], u'time': []}, u'edge': {u'target': [], u'time': []}}}","[-1, 3, 8, -15, 52]","[7198, 137, 191, 114, 137]",41.0,"[None, None, None, None, None]","[u'', 1, -1, 5, 3, 19, -35, 5, 6, -31, -9, 1, -1, 1, 3, -7, 11, -42, -1, -13, 36, 13, -1, -1, 3, 8, -15, 40, 52, 11, -10, 28, -6, -19]",435413,17.0,11474.0,-8.48289182564e+18,mouselab-mdp,0
"[9921, 10472, 11169, 11736, 12433]","[u'up', u'up', u'up', u'right', u'right']",test,"[u'0', u'1', u'2', u'3', u'4', u'6']","{u'mouseover': {u'state': {u'target': [], u'time': []}, u'edge': {u'target': [], u'time': []}}, u'click': {u'state': {u'target': [u'5', u'6', u'11', u'10', u'27', u'29', u'28', u'31', u'32', u'33'], u'time': [1563, 2283, 4172, 4851, 5819, 6244, 6667, 7411, 8162, 8707]}, u'edge': {u'target': [], u'time': []}}, u'mouseout': {u'state': {u'target': [], u'time': []}, u'edge': {u'target': [], u'time': []}}}","[-1, -4, -1, -2, 42]","[9916, 58, 187, 70, 200]",24.0,"[None, None, None, None, None]","[u'', -1, -4, -1, -2, -3, 42, 4, 17, 12, -35, 36, 0, -1, 1, 1, -50, -27, 37, 1, 20, 33, 57, -1, -1, -4, -5, -29, 0, -3, 5, -38, -21, 12]",452150,18.0,15649.0,3.0362372842e+18,mouselab-mdp,0
"[11752, 12414, 12999, 13504, 14112]","[u'right', u'right', u'right', u'up', u'up']",test,"[u'0', u'12', u'13', u'14', u'15', u'16']","{u'mouseover': {u'state': {u'target': [], u'time': []}, u'edge': {u'target': [], u'time': []}}, u'click': {u'state': {u'target': [u'16', u'5', u'11', u'28', u'31', u'14', u'13', u'18', u'17'], u'time': [1945, 3928, 4713, 5784, 6465, 8120, 8513, 9329, 10017]}, u'edge': {u'target': [], u'time': []}}, u'mouseout': {u'state': {u'target': [], u'time': []}, u'edge': {u'target': [], u'time': []}}}","[1, 0, 3, 17, 64]","[11749, 146, 65, 2, 92]",76.0,"[None, None, None, None, None]","[u'', 1, -1, 1, 5, 12, -17, 52, 1, 30, 13, 28, 1, 0, 3, 17, 64, 24, 54, -10, 47, 2, -57, 0, 2, -3, 15, 43, -41, 32, 1, -18, -10, -14]",469005,19.0,15774.0,-8.09611612733e+18,mouselab-mdp,0
"[12260, 12845, 13404, 13947, 14732]","[u'up', u'up', u'up', u'left', u'left']",test,"[u'0', u'1', u'2', u'3', u'8', u'11']","{u'mouseover': {u'state': {u'target': [], u'time': []}, u'edge': {u'target': [], u'time': []}}, u'click': {u'state': {u'target': [u'20', u'22', u'17', u'18', u'16', u'21', u'5', u'6', u'7', u'10', u'11', u'9', u'27', u'28', u'29', u'33', u'31', u'32'], u'time': [1054, 1670, 2405, 3079, 3437, 4231, 4966, 5357, 5998, 6630, 7142, 7518, 8326, 8742, 9638, 10166, 10718, 11325]}, u'edge': {u'target': [], u'time': []}}, u'mouseout': {u'state': {u'target': [], u'time': []}, u'edge': {u'target': [], u'time': []}}}","[-1, 1, 2, -1, 61]","[12254, 88, 48, 39, 290]",44.0,"[None, None, None, None, None]","[u'', -1, 1, 2, 3, -24, 1, 39, -1, 14, 53, 61, 2, 0, 0, -1, -16, -5, -45, 5, -9, 36, 34, 1, -2, -1, -6, -50, -21, -25, 9, -88, 16, -8]",486599,20.0,16493.0,-3.56832491871e+18,mouselab-mdp,0
"[15089, 15600, 16464, 17145, 18152]","[u'right', u'right', u'right', u'up', u'up']",test,"[u'0', u'12', u'13', u'14', u'15', u'16']","{u'mouseover': {u'state': {u'target': [], u'time': []}, u'edge': {u'target': [], u'time': []}}, u'click': {u'state': {u'target': [u'11', u'6', u'5', u'7', u'16', u'18', u'17', u'20', u'21', u'22', u'31', u'32', u'33', u'29', u'27', u'28', u'9', u'10'], u'time': [1002, 2379, 3466, 3898, 4556, 5090, 5547, 6923, 7483, 7858, 8619, 9235, 9675, 10203, 10764, 11283, 13947, 14523]}, u'edge': {u'target': [], u'time': []}}, u'mouseout': {u'state': {u'target': [], u'time': []}, u'edge': {u'target': [], u'time': []}}}","[-1, 1, 0, -11, 47]","[15086, 4, 352, 182, 506]",18.0,"[None, None, None, None, None]","[u'', 0, 3, 3, 8, -15, 44, -34, 4, -30, -17, -47, -1, 1, 0, -11, 47, 11, 32, 6, -21, -62, -29, 1, -2, 3, -5, 13, -58, 37, 0, 28, 6, 26]",507205,21.0,19520.0,-5.90859572675e+17,mouselab-mdp,0
"[9861, 10444, 11085, 11740, 12460]","[u'right', u'right', u'right', u'down', u'left']",test,"[u'0', u'12', u'13', u'14', u'19', u'22']","{u'mouseover': {u'state': {u'target': [], u'time': []}, u'edge': {u'target': [], u'time': []}}, u'click': {u'state': {u'target': [u'16', u'18', u'20', u'21', u'17', u'22', u'31'], u'time': [2119, 2766, 4246, 4751, 5903, 6686, 8270]}, u'edge': {u'target': [], u'time': []}}, u'mouseout': {u'state': {u'target': [], u'time': []}, u'edge': {u'target': [], u'time': []}}}","[0, 0, -7, 0, 72]","[9856, 82, 139, 161, 213]",58.0,"[None, None, None, None, None]","[u'', 0, -2, -6, -4, -2, 53, -45, 8, 7, 26, 65, 0, 0, -7, -5, 50, 65, 5, 0, 15, 10, 72, -1, -3, -3, -11, 4, 2, -48, 0, -9, 8, -21]",522981,22.0,14684.0,-5.12551101719e+18,mouselab-mdp,0
"[9687, 10366, 10933, 11958, 12525]","[u'up', u'up', u'up', u'right', u'up']",test,"[u'0', u'1', u'2', u'3', u'4', u'5']","{u'mouseover': {u'state': {u'target': [], u'time': []}, u'edge': {u'target': [], u'time': []}}, u'click': {u'state': {u'target': [u'31', u'32', u'27', u'29', u'9', u'11', u'5', u'6', u'7', u'16', u'17'], u'time': [1888, 2688, 3375, 3703, 5040, 5768, 6592, 7048, 7624, 8368, 8984]}, u'edge': {u'target': [], u'time': []}}, u'mouseout': {u'state': {u'target': [], u'time': []}, u'edge': {u'target': [], u'time': []}}}","[0, 3, -5, -9, 54]","[9683, 183, 65, 524, 74]",32.0,"[None, None, None, None, None]","[u'', 0, 3, -5, -9, 54, 19, -60, 4, 8, -69, -12, 0, 1, 4, 1, 33, -5, -27, -7, 17, -63, 22, -1, -1, 2, 10, -62, -26, 2, -5, 28, -67, 12]",537399,23.0,13326.0,-6.44000697273e+18,mouselab-mdp,0
"[13761, 14329, 14881, 15504, 16129]","[u'left', u'left', u'left', u'down', u'left']",test,"[u'0', u'23', u'24', u'25', u'30', u'33']","{u'mouseover': {u'state': {u'target': [], u'time': []}, u'edge': {u'target': [], u'time': []}}, u'click': {u'state': {u'target': [u'16', u'18', u'21', u'22', u'20', u'31', u'32', u'33', u'29', u'27', u'28', u'10', u'11', u'9', u'7', u'6', u'5'], u'time': [1211, 1634, 2395, 2739, 3315, 4083, 4571, 5083, 5603, 6021, 6475, 7019, 7389, 7844, 8587, 9083, 9499]}, u'edge': {u'target': [], u'time': []}}, u'mouseout': {u'state': {u'target': [], u'time': []}, u'edge': {u'target': [], u'time': []}}}","[0, 1, 2, 6, 38]","[13757, 76, 62, 118, 125]",30.0,"[None, None, None, None, None]","[u'', 0, -3, 4, -12, -2, -6, 28, 14, -6, 0, -34, 1, 2, 5, -8, -28, 29, 30, -16, -26, -70, -6, 0, 1, 2, 5, -3, -48, 7, 6, -45, -31, 38]",555735,24.0,17249.0,-1.19874718799e+17,mouselab-mdp,0
"[12840, 13431, 14158, 19695, 20222]","[u'right', u'right', u'right', u'up', u'up']",test,"[u'0', u'12', u'13', u'14', u'15', u'16']","{u'mouseover': {u'state': {u'target': [], u'time': []}, u'edge': {u'target': [], u'time': []}}, u'click': {u'state': {u'target': [u'9', u'10', u'28', u'27', u'29', u'33', u'31', u'32', u'21', u'22', u'20', u'17', u'16', u'18', u'6', u'7', u'5', u'11'], u'time': [1016, 1488, 2080, 2464, 2880, 3512, 4943, 5552, 6280, 6770, 7440, 8592, 9033, 9720, 10736, 11129, 11577, 12298]}, u'edge': {u'target': [], u'time': []}}, u'mouseout': {u'state': {u'target': [], u'time': []}, u'edge': {u'target': [], u'time': []}}}","[-1, -3, 5, -2, 45]","[12836, 87, 212, 5031, 39]",26.0,"[None, None, None, None, None]","[u'', 0, 2, 1, 2, 9, -23, 27, 12, 24, 28, -28, -1, -3, 5, -2, 45, -25, -14, 1, 29, 2, 7, 0, 0, -4, 1, -6, -2, 16, -5, -3, -10, 13]",577679,25.0,20854.0,-7.36145656423e+18,mouselab-mdp,0
"[8492, 21252, 21813, 22732, 23324]","[u'up', u'up', u'up', u'left', u'left']",test,"[u'0', u'1', u'2', u'3', u'8', u'11']","{u'mouseover': {u'state': {u'target': [], u'time': []}, u'edge': {u'target': [], u'time': []}}, u'click': {u'state': {u'target': [], u'time': []}, u'edge': {u'target': [], u'time': []}}, u'mouseout': {u'state': {u'target': [], u'time': []}, u'edge': {u'target': [], u'time': []}}}","[-2, 1, 1, -3, -21]","[8488, 12264, 47, 400, 90]",-24.0,"[None, None, None, None, None]","[u'', -2, 1, 1, -6, 26, 13, 9, -3, 15, 34, -21, -1, 2, -9, -21, -58, 6, 5, 4, 2, 49, 50, 1, -2, 1, -7, -16, -33, 0, 4, 3, -38, -49]",603791,26.0,25028.0,-3.69733404644e+18,mouselab-mdp,0
"[4666, 5169, 5714, 6265, 6825]","[u'up', u'up', u'up', u'right', u'right']",test,"[u'0', u'1', u'2', u'3', u'4', u'6']","{u'mouseover': {u'state': {u'target': [], u'time': []}, u'edge': {u'target': [], u'time': []}}, u'click': {u'state': {u'target': [u'6', u'7', u'5', u'16', u'18', u'17'], u'time': [963, 1573, 2035, 2811, 3307, 3787]}, u'edge': {u'target': [], u'time': []}}, u'mouseout': {u'state': {u'target': [], u'time': []}, u'edge': {u'target': [], u'time': []}}}","[-1, 4, -2, 3, 49]","[4663, 3, 29, 48, 57]",47.0,"[None, None, None, None, None]","[u'', -1, 4, -2, 3, -37, 49, -18, -21, 87, -35, 42, 1, 1, -1, 2, 39, -10, 8, 7, 3, -14, 46, 0, 0, -3, -8, 29, 30, -69, -5, 31, 78, 69]",615454,27.0,10568.0,-1.55008755606e+18,mouselab-mdp,0
"[13261, 13810, 14434, 15066, 15882]","[u'right', u'right', u'right', u'up', u'left']",test,"[u'0', u'12', u'13', u'14', u'15', u'18']","{u'mouseover': {u'state': {u'target': [], u'time': []}, u'edge': {u'target': [], u'time': []}}, u'click': {u'state': {u'target': [u'16', u'22', u'21', u'31', u'32', u'33', u'29', u'27', u'28', u'10', u'11', u'9', u'7', u'5', u'6', u'17', u'18'], u'time': [852, 2124, 2635, 3868, 4309, 5204, 5996, 6317, 6804, 7564, 7973, 8462, 9445, 10348, 10796, 11676, 12558]}, u'edge': {u'target': [], u'time': []}}, u'mouseout': {u'state': {u'target': [], u'time': []}, u'edge': {u'target': [], u'time': []}}}","[0, 0, 3, 4, 100]","[13256, 47, 122, 119, 318]",90.0,"[None, None, None, None, None]","[u'', 0, -1, -5, 5, -19, 34, -1, 0, -35, -32, 18, 0, 0, 3, 4, -11, 93, 100, 4, -46, -29, 19, -1, 0, -8, 3, 39, -39, -11, -3, -80, -15, -18]",633671,28.0,17130.0,-8.0788333978e+18,mouselab-mdp,0
"[23798, 24350, 24950, 25575, 26190]","[u'left', u'left', u'left', u'up', u'up']",test,"[u'0', u'23', u'24', u'25', u'26', u'27']","{u'mouseover': {u'state': {u'target': [], u'time': []}, u'edge': {u'target': [], u'time': []}}, u'click': {u'state': {u'target': [u'17', u'16', u'18', u'7', u'6', u'5', u'9', u'11', u'10', u'27', u'28', u'29', u'33', u'32', u'31', u'21', u'22', u'20', u'26', u'25', u'24', u'23', u'15', u'14', u'13', u'12'], u'time': [960, 1424, 1880, 2495, 2839, 3280, 3784, 4386, 4783, 5896, 7231, 7999, 8936, 9304, 9751, 10463, 10904, 11568, 15016, 15345, 15761, 16288, 17192, 17552, 17896, 18289]}, u'edge': {u'target': [], u'time': []}}, u'mouseout': {u'state': {u'target': [], u'time': []}, u'edge': {u'target': [], u'time': []}}}","[-1, -3, -2, 5, 56]","[23795, 59, 109, 132, 115]",29.0,"[None, None, None, None, None]","[u'', -1, 1, 2, 8, -7, -10, -19, 12, 32, -1, 21, -1, 4, -2, -3, -12, 54, 5, 9, -4, -39, 25, -1, -3, -2, 5, 56, -44, -70, 7, 10, -18, 13]",661823,29.0,27069.0,-1.13114512597e+18,mouselab-mdp,0
"[11018, 11602, 12195, 12779, 13338]","[u'up', u'up', u'up', u'left', u'left']",test,"[u'0', u'1', u'2', u'3', u'8', u'11']","{u'mouseover': {u'state': {u'target': [], u'time': []}, u'edge': {u'target': [], u'time': []}}, u'click': {u'state': {u'target': [u'6', u'7', u'5', u'9', u'11', u'10', u'27', u'28', u'29', u'33', u'32', u'31', u'22', u'21', u'20', u'17', u'16', u'18'], u'time': [940, 1613, 2092, 2644, 3045, 3743, 4573, 5157, 5893, 6533, 7093, 7613, 8309, 8709, 9237, 9719, 10109, 10525]}, u'edge': {u'target': [], u'time': []}}, u'mouseout': {u'state': {u'target': [], u'time': []}, u'edge': {u'target': [], u'time': []}}}","[-1, 2, -2, 0, 51]","[11014, 87, 80, 81, 55]",32.0,"[None, None, None, None, None]","[u'', -1, 2, -2, 14, 15, 34, -1, 0, 14, -1, 51, -1, 1, -2, 7, -58, 41, -10, -10, 23, -6, 9, 1, -2, -3, 1, 18, -23, -25, 6, 31, 45, -9]",677728,30.0,14819.0,5.77090221347e+18,mouselab-mdp,0
"[7975, 12430, 15959, 17550, 19630]","[u'up', u'up', u'up', u'left', u'left']",pre_test,"[u'0', u'1', u'2', u'3', u'8', u'11']","{u'mouseover': {u'state': {u'target': [], u'time': []}, u'edge': {u'target': [], u'time': []}}, u'click': {u'state': {u'target': [], u'time': []}, u'edge': {u'target': [], u'time': []}}, u'mouseout': {u'state': {u'target': [], u'time': []}, u'edge': {u'target': [], u'time': []}}}","[1, -1, 0, -5, -43]","[7967, 3954, 3030, 1085, 1582]",-48.0,"[None, None, None, None, None]","[u'', 1, -1, 0, 9, 2, -26, -23, -5, 0, 27, -43, -1, -2, -7, 11, -1, 61, -46, 10, -22, -13, -32, -1, -3, 1, -11, -8, 0, 21, 1, 10, 16, -1]",81290,0.0,22342.0,3.45966285876e+18,mouselab-mdp,1
"[6429, 54403, 56251]","[u'right', u'right', u'up']",training,"[u'0', u'5', u'6', u'7']","{u'mouseover': {u'state': {u'target': [], u'time': []}, u'edge': {u'target': [], u'time': []}}, u'click': {u'state': {u'target': [], u'time': []}, u'edge': {u'target': [], u'time': []}}, u'mouseout': {u'state': {u'target': [], u'time': []}, u'edge': {u'target': [], u'time': []}}}","[2, -8, -24]","[6427, 5442, 1353]",-30.0,"[None, None, None]","[u'', 2, 8, 24, -24, 2, -8, -24, -24, 4, -8, 48, 48]",159201,1.0,58883.0,-3.20049588135e+18,mouselab-mdp,1
"[7994, 49596, 50731]","[u'left', u'left', u'up']",training,"[u'0', u'9', u'10', u'11']","{u'mouseover': {u'state': {u'target': [], u'time': []}, u'edge': {u'target': [], u'time': []}}, u'click': {u'state': {u'target': [u'9'], u'time': [6189]}, u'edge': {u'target': [], u'time': []}}, u'mouseout': {u'state': {u'target': [], u'time': []}, u'edge': {u'target': [], u'time': []}}}","[4, -4, 48]","[7990, 1087, 639]",47.0,"[None, None, None]","[u'', 2, -4, 24, -24, -2, 8, 24, 48, 4, -4, 48, 48]",214576,2.0,54331.0,5.2467434854e+18,mouselab-mdp,1
"[10296, 25505, 26546]","[u'up', u'up', u'right']",training,"[u'0', u'1', u'2', u'3']","{u'mouseover': {u'state': {u'target': [], u'time': []}, u'edge': {u'target': [], u'time': []}}, u'click': {u'state': {u'target': [u'11', u'7', u'3'], u'time': [5260, 7556, 9012]}, u'edge': {u'target': [], u'time': []}}, u'mouseout': {u'state': {u'target': [], u'time': []}, u'edge': {u'target': [], u'time': []}}}","[-2, -4, 24]","[10291, 685, 541]",15.0,"[None, None, None]","[u'', -2, -4, 24, -48, -4, 8, -24, -24, 4, -4, -48, 24]",244322,3.0,28698.0,1.39930365593e+18,mouselab-mdp,1
"[10781, 12402, 13396]","[u'right', u'right', u'down']",training,"[u'0', u'5', u'6', u'8']","{u'mouseover': {u'state': {u'target': [], u'time': []}, u'edge': {u'target': [], u'time': []}}, u'click': {u'state': {u'target': [u'4', u'3', u'7', u'8', u'12', u'11'], u'time': [3137, 4779, 6057, 7169, 7992, 8639]}, u'edge': {u'target': [], u'time': []}}, u'mouseout': {u'state': {u'target': [], u'time': []}, u'edge': {u'target': [], u'time': []}}}","[-2, 8, 48]","[10779, 1127, 504]",48.0,"[None, None, None]","[u'', -4, -8, 24, -24, -2, 8, 24, 48, 4, -4, 24, -48]",261825,4.0,16461.0,-1.10044903072e+18,mouselab-mdp,1
"[16945, 18072, 19408]","[u'right', u'right', u'down']",training,"[u'0', u'5', u'6', u'8']","{u'mouseover': {u'state': {u'target': [], u'time': []}, u'edge': {u'target': [], u'time': []}}, u'click': {u'state': {u'target': [u'8', u'7', u'4', u'12', u'11', u'6', u'10'], u'time': [2461, 4540, 5921, 7212, 13184, 14013, 15588]}, u'edge': {u'target': [], u'time': []}}, u'mouseout': {u'state': {u'target': [], u'time': []}, u'edge': {u'target': [], u'time': []}}}","[-4, 8, 48]","[16929, 629, 832]",45.0,"[None, None, None]","[u'', -4, 8, -24, -48, -4, 8, -48, 48, 4, -8, -24, 48]",284471,5.0,21592.0,-1.41484517897e+18,mouselab-mdp,1
"[12787, 13962, 15378]","[u'left', u'left', u'up']",training,"[u'0', u'9', u'10', u'11']","{u'mouseover': {u'state': {u'target': [], u'time': []}, u'edge': {u'target': [], u'time': []}}, u'click': {u'state': {u'target': [u'7', u'8', u'12', u'11', u'4', u'3'], u'time': [2587, 3788, 4939, 6123, 7116, 7947]}, u'edge': {u'target': [], u'time': []}}, u'mouseout': {u'state': {u'target': [], u'time': []}, u'edge': {u'target': [], u'time': []}}}","[2, 4, 24]","[12783, 687, 902]",24.0,"[None, None, None]","[u'', -2, -4, -48, -48, 2, -8, -24, -24, 2, 4, 24, 24]",302881,6.0,17370.0,-7.65696612779e+18,mouselab-mdp,1
"[11668, 12716, 13604]","[u'right', u'right', u'down']",training,"[u'0', u'5', u'6', u'8']","{u'mouseover': {u'state': {u'target': [], u'time': []}, u'edge': {u'target': [], u'time': []}}, u'click': {u'state': {u'target': [u'7', u'4', u'12', u'11', u'8'], u'time': [4592, 6216, 7337, 8216, 9297]}, u'edge': {u'target': [], u'time': []}}, u'mouseout': {u'state': {u'target': [], u'time': []}, u'edge': {u'target': [], u'time': []}}}","[2, 4, 48]","[11667, 551, 389]",49.0,"[None, None, None]","[u'', 4, -8, 24, 24, 2, 4, 24, 48, -2, 4, 24, -48]",319008,7.0,15092.0,6.72269827856e+18,mouselab-mdp,1
"[9108, 9924, 10598]","[u'left', u'left', u'up']",training,"[u'0', u'9', u'10', u'11']","{u'mouseover': {u'state': {u'target': [], u'time': []}, u'edge': {u'target': [], u'time': []}}, u'click': {u'state': {u'target': [u'7', u'8', u'12', u'11', u'4', u'3'], u'time': [2577, 3580, 4377, 5160, 5825, 6616]}, u'edge': {u'target': [], u'time': []}}, u'mouseout': {u'state': {u'target': [], u'time': []}, u'edge': {u'target': [], u'time': []}}}","[4, -4, 24]","[9106, 327, 183]",18.0,"[None, None, None]","[u'', 2, 8, -48, -24, 2, 8, -24, -48, 4, -4, 24, -48]",333047,8.0,13004.0,4.95354184513e+17,mouselab-mdp,1
"[7827, 8707, 9451]","[u'right', u'right', u'down']",training,"[u'0', u'5', u'6', u'8']","{u'mouseover': {u'state': {u'target': [], u'time': []}, u'edge': {u'target': [], u'time': []}}, u'click': {u'state': {u'target': [u'7', u'8', u'12', u'11', u'4', u'3'], u'time': [1943, 3319, 4902, 5511, 6047, 6614]}, u'edge': {u'target': [], u'time': []}}, u'mouseout': {u'state': {u'target': [], u'time': []}, u'edge': {u'target': [], u'time': []}}}","[-2, -8, 48]","[7824, 384, 244]",32.0,"[None, None, None]","[u'', -4, -4, -48, -48, -2, -8, 24, 48, 2, 4, -24, -48]",345622,9.0,11514.0,-1.84824368346e+18,mouselab-mdp,1
"[6772, 7516, 8308]","[u'left', u'left', u'up']",training,"[u'0', u'9', u'10', u'11']","{u'mouseover': {u'state': {u'target': [], u'time': []}, u'edge': {u'target': [], u'time': []}}, u'click': {u'state': {u'target': [u'7', u'8', u'12', u'11', u'4', u'3'], u'time': [2176, 2856, 3721, 4448, 5072, 5600]}, u'edge': {u'target': [], u'time': []}}, u'mouseout': {u'state': {u'target': [], u'time': []}, u'edge': {u'target': [], u'time': []}}}","[-2, 8, 24]","[6770, 251, 292]",24.0,"[None, None, None]","[u'', 2, 4, -24, -48, -2, -4, -24, -24, -2, 8, 24, -24]",356712,10.0,10054.0,1.18238643611e+16,mouselab-mdp,1
"[30162, 31075, 32322, 33235, 34602]","[u'up', u'up', u'up', u'left', u'down']",test,"[u'0', u'1', u'2', u'3', u'8', u'10']","{u'mouseover': {u'state': {u'target': [], u'time': []}, u'edge': {u'target': [], u'time': []}}, u'click': {u'state': {u'target': [u'5', u'9', u'11', u'6', u'16', u'17', u'20', u'18', u'29', u'33', u'31', u'28', u'10', u'7', u'22', u'21', u'27', u'32'], u'time': [3033, 4946, 6770, 7609, 8338, 9689, 10561, 13953, 15001, 16362, 18402, 19466, 20634, 22049, 23329, 24585, 25626, 26458]}, u'edge': {u'target': [], u'time': []}}, u'mouseout': {u'state': {u'target': [], u'time': []}, u'edge': {u'target': [], u'time': []}}}","[-1, 2, 3, -16, 61]","[30153, 416, 746, 407, 874]",31.0,"[None, None, None, None, None]","[u'', -1, 2, 3, 8, 8, -25, -39, -16, -2, 61, 15, 0, -3, -3, 0, -7, 29, -5, 6, -4, -6, 40, -1, -1, -5, 1, 34, 22, 23, 8, 20, 24, 13]",410406,11.0,37419.0,-4.35323372058e+18,mouselab-mdp,1
"[20798, 22150, 22997, 23885, 25366]","[u'right', u'right', u'right', u'down', u'left']",test,"[u'0', u'12', u'13', u'14', u'19', u'22']","{u'mouseover': {u'state': {u'target': [], u'time': []}, u'edge': {u'target': [], u'time': []}}, u'click': {u'state': {u'target': [u'11', u'10', u'9', u'5', u'6', u'7', u'16', u'17', u'18', u'22', u'20', u'21', u'31', u'32', u'33', u'29', u'27', u'28'], u'time': [1992, 2801, 3632, 4225, 4987, 6556, 9236, 9804, 10419, 11000, 11612, 12531, 14075, 14699, 15291, 15899, 16443, 16995]}, u'edge': {u'target': [], u'time': []}}, u'mouseout': {u'state': {u'target': [], u'time': []}, u'edge': {u'target': [], u'time': []}}}","[1, 1, 1, -2, 70]","[20794, 847, 344, 382, 980]",53.0,"[None, None, None, None, None]","[u'', -1, 1, 3, -5, 17, -37, 26, 0, -6, -3, 28, 1, 1, 1, 1, 20, 7, 22, -2, -78, 33, 70, 0, 0, -1, -1, 1, -36, -17, -8, 8, -9, 16]",438783,12.0,27149.0,2.56897496286e+18,mouselab-mdp,1
"[18957, 19885, 20741, 21764, 22669]","[u'left', u'left', u'left', u'down', u'down']",test,"[u'0', u'23', u'24', u'25', u'30', u'32']","{u'mouseover': {u'state': {u'target': [], u'time': []}, u'edge': {u'target': [], u'time': []}}, u'click': {u'state': {u'target': [u'32', u'27', u'33', u'29', u'31', u'28', u'11', u'6', u'5', u'9', u'10', u'7', u'16', u'17', u'20', u'21', u'22', u'18'], u'time': [1827, 3666, 4379, 5267, 6018, 7043, 8403, 9357, 10226, 11026, 11899, 12947, 13682, 14322, 14866, 15515, 16210, 16882]}, u'edge': {u'target': [], u'time': []}}, u'mouseout': {u'state': {u'target': [], u'time': []}, u'edge': {u'target': [], u'time': []}}}","[0, 0, 2, -12, 59]","[18951, 423, 361, 518, 406]",31.0,"[None, None, None, None, None]","[u'', 1, -2, -6, 10, 10, -20, -34, -6, 39, -1, -45, 1, 1, -1, 5, -26, 31, -46, -7, -44, -13, -24, 0, 0, 2, 1, 8, 51, -9, -12, 30, 59, 6]",464150,13.0,24125.0,-7.446303972e+18,mouselab-mdp,1
"[18792, 19592, 20344, 21263, 25816]","[u'right', u'right', u'right', u'up', u'right']",test,"[u'0', u'12', u'13', u'14', u'15', u'17']","{u'mouseover': {u'state': {u'target': [], u'time': []}, u'edge': {u'target': [], u'time': []}}, u'click': {u'state': {u'target': [u'5', u'9', u'32', u'21', u'20', u'22', u'17', u'18', u'6', u'7', u'10', u'11', u'27', u'28', u'29', u'33', u'31'], u'time': [2570, 3842, 4882, 5946, 6698, 7315, 7995, 8818, 9658, 10314, 10970, 12086, 12798, 13590, 14166, 14725, 15486]}, u'edge': {u'target': [], u'time': []}}, u'mouseout': {u'state': {u'target': [], u'time': []}, u'edge': {u'target': [], u'time': []}}}","[-1, -2, 3, -2, 51]","[18787, 298, 232, 402, 4054]",32.0,"[None, None, None, None, None]","[u'', 1, -5, -2, -2, -65, 14, 39, -16, -50, 30, 36, -1, -2, 3, -2, -17, 51, 10, -15, 8, -45, 24, 1, 1, 4, 16, 23, -12, -35, 2, -33, -46, -15]",492377,14.0,27049.0,-5.05047603298e+18,mouselab-mdp,1
"[17279, 18135, 18911, 19799, 21711]","[u'up', u'up', u'up', u'right', u'up']",test,"[u'0', u'1', u'2', u'3', u'4', u'5']","{u'mouseover': {u'state': {u'target': [], u'time': []}, u'edge': {u'target': [], u'time': []}}, u'click': {u'state': {u'target': [u'5', u'9', u'10', u'11', u'7', u'6', u'16', u'18', u'17', u'20', u'21', u'22', u'31', u'32', u'33', u'29', u'27', u'28'], u'time': [1430, 1989, 2661, 3286, 4029, 4653, 5357, 5997, 6533, 7237, 7782, 8293, 9269, 9829, 10492, 11293, 12006, 13221]}, u'edge': {u'target': [], u'time': []}}, u'mouseout': {u'state': {u'target': [], u'time': []}, u'edge': {u'target': [], u'time': []}}}","[0, -1, -1, 8, 39]","[17274, 353, 279, 384, 1395]",27.0,"[None, None, None, None, None]","[u'', 0, -1, -1, 8, 39, -38, -15, -6, 39, -2, 46, 0, 0, -5, 10, -12, -48, -19, -18, -1, 4, 9, 1, -1, 3, 2, -6, -66, 30, -4, 1, -41, 9]",517557,15.0,23966.0,-3.87051221313e+18,mouselab-mdp,1
"[63658, 64249, 64921, 65537, 66185]","[u'up', u'up', u'up', u'right', u'right']",test,"[u'0', u'1', u'2', u'3', u'4', u'6']","{u'mouseover': {u'state': {u'target': [], u'time': []}, u'edge': {u'target': [], u'time': []}}, u'click': {u'state': {u'target': [u'27', u'32', u'31', u'33', u'9', u'11', u'10', u'5', u'6', u'7', u'16', u'18', u'17', u'20', u'21', u'22', u'28', u'29'], u'time': [50967, 51704, 52303, 53005, 54271, 54808, 55256, 55983, 56687, 57367, 58104, 58687, 59231, 59719, 60382, 60919, 61895, 62350]}, u'edge': {u'target': [], u'time': []}}, u'mouseout': {u'state': {u'target': [], u'time': []}, u'edge': {u'target': [], u'time': []}}}","[0, 2, -6, -8, 48]","[63648, 82, 170, 104, 134]",18.0,"[None, None, None, None, None]","[u'', 0, 2, -6, -8, 17, 48, 1, 2, -26, -1, -23, 0, 1, -8, 2, -26, -21, 36, 2, 30, -56, -13, 0, -1, 2, 7, -35, -31, -40, 9, -16, -3, -11]",586220,16.0,67481.0,5.46654630961e+18,mouselab-mdp,1
"[3425, 4289, 5088, 5928, 6759]","[u'up', u'up', u'up', u'left', u'left']",test,"[u'0', u'1', u'2', u'3', u'8', u'11']","{u'mouseover': {u'state': {u'target': [], u'time': []}, u'edge': {u'target': [], u'time': []}}, u'click': {u'state': {u'target': [u'9', u'11', u'10'], u'time': [973, 1701, 2413]}, u'edge': {u'target': [], u'time': []}}, u'mouseout': {u'state': {u'target': [], u'time': []}, u'edge': {u'target': [], u'time': []}}}","[0, -2, -6, 8, 65]","[3420, 357, 290, 328, 327]",62.0,"[None, None, None, None, None]","[u'', 0, -2, -6, -4, -2, 53, -45, 8, 7, 26, 65, 0, 0, -7, -5, 50, 65, 5, 0, 15, 10, 72, -1, -3, -3, -11, 4, 2, -48, 0, -9, 8, -21]",597335,17.0,9875.0,-5.12551101719e+18,mouselab-mdp,1
"[14539, 15259, 15939, 16691, 17443]","[u'up', u'up', u'up', u'left', u'left']",test,"[u'0', u'1', u'2', u'3', u'8', u'11']","{u'mouseover': {u'state': {u'target': [], u'time': []}, u'edge': {u'target': [], u'time': []}}, u'click': {u'state': {u'target': [u'11', u'6', u'16', u'21', u'32', u'27', u'9', u'10', u'29', u'33', u'31', u'28', u'17', u'18', u'22', u'20', u'5', u'7'], u'time': [1089, 1866, 2417, 3129, 4071, 4809, 5672, 6280, 7009, 7513, 8184, 8769, 9529, 10153, 10648, 11354, 12009, 12881]}, u'edge': {u'target': [], u'time': []}}, u'mouseout': {u'state': {u'target': [], u'time': []}, u'edge': {u'target': [], u'time': []}}}","[0, 2, -7, -10, 47]","[14534, 75, 179, 247, 249]",14.0,"[None, None, None, None, None]","[u'', 0, 2, -7, 2, -4, 0, -28, -10, -15, -8, 47, 0, 0, 3, -13, 23, 29, 29, -3, -40, -32, 8, 1, 3, 6, 7, 1, 8, -8, 8, 19, 7, -40]",617542,18.0,18939.0,7.63808305668e+17,mouselab-mdp,1
"[17525, 18238, 19022, 19774, 20566]","[u'left', u'left', u'left', u'down', u'down']",test,"[u'0', u'23', u'24', u'25', u'30', u'32']","{u'mouseover': {u'state': {u'target': [], u'time': []}, u'edge': {u'target': [], u'time': []}}, u'click': {u'state': {u'target': [u'21', u'32', u'27', u'16', u'6', u'11', u'28', u'29', u'33', u'31', u'22', u'20', u'17', u'18', u'7', u'10', u'9', u'5'], u'time': [3772, 4563, 5507, 6387, 7035, 7627, 8597, 9115, 9627, 10300, 11253, 12252, 13052, 13732, 14302, 14900, 15451, 16011]}, u'edge': {u'target': [], u'time': []}}, u'mouseout': {u'state': {u'target': [], u'time': []}, u'edge': {u'target': [], u'time': []}}}","[1, 1, 4, 2, 36]","[17518, 194, 276, 245, 287]",26.0,"[None, None, None, None, None]","[u'', 1, -2, -1, 5, 11, -3, -31, 1, 23, -23, 2, 2, 1, 2, -8, -18, -10, -27, -10, -50, -7, 27, 1, 1, 4, -7, -22, -8, -29, 2, -21, 36, -28]",640349,19.0,21614.0,8.08344173605e+18,mouselab-mdp,1
"[19013, 19725, 20509, 21421, 22653]","[u'right', u'right', u'right', u'down', u'left']",test,"[u'0', u'12', u'13', u'14', u'19', u'22']","{u'mouseover': {u'state': {u'target': [], u'time': []}, u'edge': {u'target': [], u'time': []}}, u'click': {u'state': {u'target': [u'16', u'21', u'17', u'18', u'11', u'6', u'5', u'9', u'10', u'7', u'20', u'22', u'32', u'33', u'31', u'28', u'29', u'27'], u'time': [2667, 3497, 4368, 5544, 6344, 7128, 7968, 8488, 8960, 9424, 10968, 11695, 13553, 14176, 14671, 15330, 15819, 16290]}, u'edge': {u'target': [], u'time': []}}, u'mouseout': {u'state': {u'target': [], u'time': []}, u'edge': {u'target': [], u'time': []}}}","[0, -1, 1, 1, 57]","[19005, 198, 284, 413, 692]",40.0,"[None, None, None, None, None]","[u'', -1, -4, -1, -2, -3, 42, 4, 17, 12, -35, 36, 0, -1, 1, 1, -50, -27, 37, 1, 20, 33, 57, -1, -1, -4, -5, -29, 0, -3, 5, -38, -21, 12]",665182,20.0,23597.0,3.0362372842e+18,mouselab-mdp,1
"[21748, 22372, 23029, 23853, 24844]","[u'up', u'up', u'up', u'right', u'down']",test,"[u'0', u'1', u'2', u'3', u'4', u'7']","{u'mouseover': {u'state': {u'target': [], u'time': []}, u'edge': {u'target': [], u'time': []}}, u'click': {u'state': {u'target': [u'5', u'9', u'10', u'7', u'6', u'11', u'16', u'21', u'22', u'20', u'17', u'18', u'27', u'29', u'33', u'32', u'31', u'28'], u'time': [9020, 9705, 10304, 10786, 11386, 12114, 12978, 13850, 14378, 14978, 15690, 16186, 17042, 17562, 18114, 18682, 19841, 20330]}, u'edge': {u'target': [], u'time': []}}, u'mouseout': {u'state': {u'target': [], u'time': []}, u'edge': {u'target': [], u'time': []}}}","[2, -1, -2, -9, 56]","[21744, 114, 140, 282, 479]",28.0,"[None, None, None, None, None]","[u'', 2, -1, -2, -9, 28, -74, 56, -6, 10, -8, 47, -2, -1, -2, 9, -35, -6, -28, 0, 19, -35, 37, 1, 1, 4, -5, -4, -30, -9, 4, -22, -13, -22]",693012,21.0,26556.0,3.65628160379e+18,mouselab-mdp,1
"[16368, 17064, 17848, 18568, 19384]","[u'left', u'left', u'left', u'down', u'down']",test,"[u'0', u'23', u'24', u'25', u'30', u'32']","{u'mouseover': {u'state': {u'target': [], u'time': []}, u'edge': {u'target': [], u'time': []}}, u'click': {u'state': {u'target': [u'11', u'32', u'33', u'27', u'28', u'31', u'29', u'21', u'22', u'20', u'17', u'18', u'16', u'6', u'5', u'9', u'10', u'7'], u'time': [1655, 2470, 3246, 3933, 4485, 4958, 5582, 6421, 6934, 7438, 7934, 8414, 8990, 9742, 10334, 11150, 11663, 12141]}, u'edge': {u'target': [], u'time': []}}, u'mouseout': {u'state': {u'target': [], u'time': []}, u'edge': {u'target': [], u'time': []}}}","[-1, 1, -2, 8, 28]","[16362, 193, 276, 212, 312]",16.0,"[None, None, None, None, None]","[u'', 0, -2, -2, -8, -65, 26, -5, -7, -42, -18, -40, 1, -4, -4, -7, 15, 8, -5, -1, 13, -25, 15, -1, 1, -2, 9, -39, -15, -26, 8, -45, 28, 15]",714827,22.0,20568.0,-3.54350647552e+18,mouselab-mdp,1
"[2873, 3465, 4177, 4873, 5777]","[u'left', u'left', u'left', u'down', u'left']",test,"[u'0', u'23', u'24', u'25', u'30', u'33']","{u'mouseover': {u'state': {u'target': [], u'time': []}, u'edge': {u'target': [], u'time': []}}, u'click': {u'state': {u'target': [u'33'], u'time': [1502]}, u'edge': {u'target': [], u'time': []}}, u'mouseout': {u'state': {u'target': [], u'time': []}, u'edge': {u'target': [], u'time': []}}}","[1, -3, -1, 7, 65]","[2867, 82, 212, 191, 393]",68.0,"[None, None, None, None, None]","[u'', -1, -2, 3, -3, -6, -5, 35, 13, 14, -8, 45, 0, -1, 4, 2, -46, 20, 10, -15, -69, 4, 22, 1, -3, -1, 5, -49, 3, 7, 7, -79, 5, 65]",726349,23.0,10344.0,-8.33669581469e+18,mouselab-mdp,1
"[6959, 7591, 8231, 8983, 9631]","[u'left', u'left', u'left', u'up', u'left']",test,"[u'0', u'23', u'24', u'25', u'26', u'29']","{u'mouseover': {u'state': {u'target': [], u'time': []}, u'edge': {u'target': [], u'time': []}}, u'click': {u'state': {u'target': [u'17', u'5', u'10', u'29'], u'time': [1428, 3206, 4507, 5492]}, u'edge': {u'target': [], u'time': []}}, u'mouseout': {u'state': {u'target': [], u'time': []}, u'edge': {u'target': [], u'time': []}}}","[1, -2, -2, 2, 64]","[6927, 130, 114, 235, 131]",59.0,"[None, None, None, None, None]","[u'', -3, 1, 3, -12, 3, 9, 11, -4, 3, 19, -57, 1, -1, 3, -6, -55, 38, 53, -15, -41, 3, -34, 1, -2, -2, 2, -70, -10, 64, 5, -32, 33, 66]",738980,24.0,11414.0,-7.40831087289e+18,mouselab-mdp,1
"[5161, 5792, 6472, 7192, 7952]","[u'up', u'up', u'up', u'right', u'up']",test,"[u'0', u'1', u'2', u'3', u'4', u'5']","{u'mouseover': {u'state': {u'target': [], u'time': []}, u'edge': {u'target': [], u'time': []}}, u'click': {u'state': {u'target': [u'32', u'5'], u'time': [1758, 2829]}, u'edge': {u'target': [], u'time': []}}, u'mouseout': {u'state': {u'target': [], u'time': []}, u'edge': {u'target': [], u'time': []}}}","[0, 0, -2, -4, 64]","[5156, 136, 165, 204, 244]",56.0,"[None, None, None, None, None]","[u'', 0, 0, -2, -4, 64, 0, 55, -8, 24, 0, 54, 0, 4, -2, 0, -37, -1, -7, -9, -59, 29, 16, -1, 0, -3, -1, 8, 11, -16, -2, 17, -21, -18]",749868,25.0,9672.0,-2.3421757787e+18,mouselab-mdp,1
"[8233, 8858, 9537, 10225, 11009]","[u'left', u'left', u'left', u'up', u'left']",test,"[u'0', u'23', u'24', u'25', u'26', u'29']","{u'mouseover': {u'state': {u'target': [], u'time': []}, u'edge': {u'target': [], u'time': []}}, u'click': {u'state': {u'target': [u'21', u'9', u'29', u'33', u'17', u'18', u'6', u'11'], u'time': [1143, 2294, 3039, 3910, 5039, 5710, 6239, 7248]}, u'edge': {u'target': [], u'time': []}}, u'mouseout': {u'state': {u'target': [], u'time': []}, u'edge': {u'target': [], u'time': []}}}","[1, 0, 4, 12, 56]","[8227, 110, 167, 175, 275]",65.0,"[None, None, None, None, None]","[u'', -1, 1, -9, -9, -1, -55, 2, -6, -9, -8, 6, -1, 0, -2, 4, 54, 6, 5, -9, 22, -24, -26, 1, 0, 4, 12, -17, 4, 56, 8, 23, 42, -19]",763219,26.0,12089.0,5.55140159652e+18,mouselab-mdp,1
"[13831, 14374, 14966, 15566, 16279]","[u'left', u'left', u'left', u'down', u'down']",test,"[u'0', u'23', u'24', u'25', u'30', u'32']","{u'mouseover': {u'state': {u'target': [], u'time': []}, u'edge': {u'target': [], u'time': []}}, u'click': {u'state': {u'target': [u'11', u'6', u'16', u'33', u'32', u'27', u'29', u'9', u'5', u'21', u'20', u'22', u'17', u'31', u'28'], u'time': [1313, 2041, 2529, 3513, 4208, 5072, 5665, 6561, 7801, 8552, 9089, 9704, 10352, 11305, 11970]}, u'edge': {u'target': [], u'time': []}}, u'mouseout': {u'state': {u'target': [], u'time': []}, u'edge': {u'target': [], u'time': []}}}","[0, 1, -1, -6, 38]","[13821, 34, 79, 95, 208]",17.0,"[None, None, None, None, None]","[u'', 1, -1, -3, -3, -34, 1, -32, -7, 10, -18, -7, 2, 1, 5, 4, 19, -43, -18, -2, -14, -6, 5, 0, 1, -1, 9, 0, -19, -40, -6, -8, 38, -41]",781637,27.0,17214.0,5.01968822029e+18,mouselab-mdp,1
"[13855, 14911, 15734, 16558, 17294]","[u'up', u'up', u'up', u'right', u'up']",test,"[u'0', u'1', u'2', u'3', u'4', u'5']","{u'mouseover': {u'state': {u'target': [], u'time': []}, u'edge': {u'target': [], u'time': []}}, u'click': {u'state': {u'target': [u'9', u'21', u'16', u'29', u'33', u'31', u'32', u'28', u'27', u'11', u'6', u'5', u'17', u'20', u'22', u'18'], u'time': [1173, 2100, 3020, 3668, 4276, 4836, 5420, 6019, 7204, 7764, 8701, 9636, 10836, 11347, 11980, 12532]}, u'edge': {u'target': [], u'time': []}}, u'mouseout': {u'state': {u'target': [], u'time': []}, u'edge': {u'target': [], u'time': []}}}","[0, 2, -4, -1, 46]","[13845, 549, 305, 312, 214]",27.0,"[None, None, None, None, None]","[u'', 0, 2, -4, -1, 46, -20, -65, -16, -80, -68, -13, 1, -1, 1, -1, 0, -5, -6, 4, -38, 32, 29, 0, 2, -3, -4, 5, -6, -14, -5, -18, 30, -62]",801316,28.0,18350.0,-3.13580120687e+18,mouselab-mdp,1
"[16237, 16796, 17468, 18084, 18764]","[u'up', u'up', u'up', u'left', u'down']",test,"[u'0', u'1', u'2', u'3', u'8', u'10']","{u'mouseover': {u'state': {u'target': [], u'time': []}, u'edge': {u'target': [], u'time': []}}, u'click': {u'state': {u'target': [u'9', u'6', u'21', u'32', u'27', u'29', u'33', u'28', u'31', u'16', u'11', u'10', u'17', u'18', u'22', u'20'], u'time': [1570, 2250, 3154, 3953, 4682, 5513, 6178, 7034, 7756, 8625, 10354, 10906, 12065, 12850, 13393, 13929]}, u'edge': {u'target': [], u'time': []}}, u'mouseout': {u'state': {u'target': [], u'time': []}, u'edge': {u'target': [], u'time': []}}}","[-1, 0, -2, 0, 55]","[16230, 54, 160, 93, 170]",36.0,"[None, None, None, None, None]","[u'', -1, 0, -2, 1, 18, 17, 42, 0, 31, 55, -39, 1, -2, -6, 13, 36, 17, -15, 12, -44, 2, 16, 1, -3, -12, 1, 10, 6, -28, 0, -49, 13, 29]",822299,29.0,19700.0,-5.25678087456e+18,mouselab-mdp,1
"[14280, 15199, 15873, 16455, 17119]","[u'up', u'up', u'up', u'left', u'left']",test,"[u'0', u'1', u'2', u'3', u'8', u'11']","{u'mouseover': {u'state': {u'target': [], u'time': []}, u'edge': {u'target': [], u'time': []}}, u'click': {u'state': {u'target': [u'9', u'32', u'6', u'11', u'17', u'18', u'16', u'20', u'21', u'22', u'31', u'33', u'29', u'28', u'27', u'5', u'7'], u'time': [1058, 2282, 3041, 3753, 4698, 5409, 5945, 6497, 6987, 7474, 8330, 9178, 9882, 10666, 11338, 12209, 12874]}, u'edge': {u'target': [], u'time': []}}, u'mouseout': {u'state': {u'target': [], u'time': []}, u'edge': {u'target': [], u'time': []}}}","[-1, -1, 0, -2, 54]","[14271, 420, 156, 57, 156]",33.0,"[None, None, None, None, None]","[u'', -1, -1, 0, -9, 8, 53, 24, -2, -28, -24, 54, 0, -1, 1, 17, 4, 20, 10, -3, -37, -11, -7, 1, 2, 4, 2, 28, -24, 40, 4, -10, 16, -2]",842140,30.0,18598.0,-8.14198867507e+18,mouselab-mdp,1
"[15728, 19817, 21297, 23434, 24642]","[u'right', u'right', u'right', u'up', u'up']",pre_test,"[u'0', u'12', u'13', u'14', u'15', u'16']","{u'mouseover': {u'state': {u'target': [], u'time': []}, u'edge': {u'target': [], u'time': []}}, u'click': {u'state': {u'target': [u'30'], u'time': [12113]}, u'edge': {u'target': [], u'time': []}}, u'mouseout': {u'state': {u'target': [], u'time': []}, u'edge': {u'target': [], u'time': []}}}","[1, 0, 5, 0, -27]","[15710, 3584, 978, 1624, 706]",-22.0,"[None, None, None, None, None]","[u'', 1, 1, 1, 8, 18, -3, 30, 2, 93, 35, 37, 1, 0, 5, 0, -27, -18, 17, -12, 7, -23, 23, -1, 4, 3, -10, 56, -7, -23, -8, 18, 48, -19]",71240,0.0,27593.0,8.26021657389e+18,mouselab-mdp,2
"[5651, 6562, 7475]","[u'right', u'right', u'down']",training,"[u'0', u'5', u'6', u'8']","{u'mouseover': {u'state': {u'target': [], u'time': []}, u'edge': {u'target': [], u'time': []}}, u'click': {u'state': {u'target': [u'8'], u'time': [4624]}, u'edge': {u'target': [], u'time': []}}, u'mouseout': {u'state': {u'target': [], u'time': []}, u'edge': {u'target': [], u'time': []}}}","[2, 4, 24]","[5646, 412, 419]",29.0,"[None, None, None]","[u'', -2, 4, -48, -24, 2, 4, 24, 24, -2, -4, 48, -24]",99605,1.0,11005.0,7.45732429498e+18,mouselab-mdp,2
"[2688, 3502, 4429]","[u'left', u'left', u'up']",training,"[u'0', u'9', u'10', u'11']","{u'mouseover': {u'state': {u'target': [], u'time': []}, u'edge': {u'target': [], u'time': []}}, u'click': {u'state': {u'target': [u'11'], u'time': [1541]}, u'edge': {u'target': [], u'time': []}}, u'mouseout': {u'state': {u'target': [], u'time': []}, u'edge': {u'target': [], u'time': []}}}","[-2, 8, 48]","[2682, 313, 418]",53.0,"[None, None, None]","[u'', 4, -4, -48, -48, 4, 8, 24, -24, -2, 8, 48, -48]",111155,2.0,10463.0,-6.97855305918e+18,mouselab-mdp,2
"[2676, 3337, 4188]","[u'up', u'up', u'left']",training,"[u'0', u'1', u'2', u'4']","{u'mouseover': {u'state': {u'target': [], u'time': []}, u'edge': {u'target': [], u'time': []}}, u'click': {u'state': {u'target': [u'3'], u'time': [1019]}, u'edge': {u'target': [], u'time': []}}, u'mouseout': {u'state': {u'target': [], u'time': []}, u'edge': {u'target': [], u'time': []}}}","[2, 4, -48]","[2669, 155, 352]",-43.0,"[None, None, None]","[u'', 2, 4, -24, -48, -2, -4, -24, -24, -2, 8, 24, -24]",120675,3.0,8451.0,1.18238643611e+16,mouselab-mdp,2
"[1751, 2392, 3146]","[u'left', u'left', u'down']",training,"[u'0', u'9', u'10', u'12']","{u'mouseover': {u'state': {u'target': [], u'time': []}, u'edge': {u'target': [], u'time': []}}, u'click': {u'state': {u'target': [u'8'], u'time': [628]}, u'edge': {u'target': [], u'time': []}}, u'mouseout': {u'state': {u'target': [], u'time': []}, u'edge': {u'target': [], u'time': []}}}","[4, -8, 24]","[1745, 137, 255]",19.0,"[None, None, None]","[u'', -2, 4, -24, 24, -2, -4, -48, -48, 4, -8, 24, 24]",131020,4.0,9274.0,2.82020194745e+17,mouselab-mdp,2
"[3215, 3781, 5119]","[u'right', u'right', u'up']",training,"[u'0', u'5', u'6', u'7']","{u'mouseover': {u'state': {u'target': [], u'time': []}, u'edge': {u'target': [], u'time': []}}, u'click': {u'state': {u'target': [u'4'], u'time': [2027]}, u'edge': {u'target': [], u'time': []}}, u'mouseout': {u'state': {u'target': [], u'time': []}, u'edge': {u'target': [], u'time': []}}}","[-4, 8, -24]","[3210, 66, 840]",-21.0,"[None, None, None]","[u'', -2, -4, 24, -48, -4, 8, -24, -24, 4, -4, -48, 24]",141107,5.0,9007.0,1.39930365593e+18,mouselab-mdp,2
"[3000, 3982, 4591]","[u'up', u'up', u'right']",training,"[u'0', u'1', u'2', u'3']","{u'mouseover': {u'state': {u'target': [], u'time': []}, u'edge': {u'target': [], u'time': []}}, u'click': {u'state': {u'target': [u'12'], u'time': [1591]}, u'edge': {u'target': [], u'time': []}}, u'mouseout': {u'state': {u'target': [], u'time': []}, u'edge': {u'target': [], u'time': []}}}","[4, 4, 48]","[2993, 449, 104]",55.0,"[None, None, None]","[u'', 4, 4, 48, -48, -2, -8, 48, -24, -4, -8, 24, -48]",151420,6.0,9241.0,-4.67008033733e+18,mouselab-mdp,2
"[2478, 3085, 3694]","[u'left', u'left', u'up']",training,"[u'0', u'9', u'10', u'11']","{u'mouseover': {u'state': {u'target': [], u'time': []}, u'edge': {u'target': [], u'time': []}}, u'click': {u'state': {u'target': [u'11'], u'time': [1749]}, u'edge': {u'target': [], u'time': []}}, u'mouseout': {u'state': {u'target': [], u'time': []}, u'edge': {u'target': [], u'time': []}}}","[2, -4, 24]","[2474, 108, 115]",21.0,"[None, None, None]","[u'', 2, 4, -48, 48, -4, 4, -48, -48, 2, -4, 24, 48]",160787,7.0,8287.0,-5.8494341666e+18,mouselab-mdp,2
"[2574, 3127, 3701]","[u'up', u'up', u'left']",training,"[u'0', u'1', u'2', u'4']","{u'mouseover': {u'state': {u'target': [], u'time': []}, u'edge': {u'target': [], u'time': []}}, u'click': {u'state': {u'target': [u'8'], u'time': [1560]}, u'edge': {u'target': [], u'time': []}}, u'mouseout': {u'state': {u'target': [], u'time': []}, u'edge': {u'target': [], u'time': []}}}","[2, 4, 24]","[2567, 49, 72]",29.0,"[None, None, None]","[u'', 2, 4, -24, 24, 4, 8, -48, -48, -4, -4, -48, -24]",171210,8.0,9311.0,-7.78403282575e+18,mouselab-mdp,2
"[1540, 2065, 2633]","[u'left', u'left', u'down']",training,"[u'0', u'9', u'10', u'12']","{u'mouseover': {u'state': {u'target': [], u'time': []}, u'edge': {u'target': [], u'time': []}}, u'click': {u'state': {u'target': [u'7'], u'time': [595]}, u'edge': {u'target': [], u'time': []}}, u'mouseout': {u'state': {u'target': [], u'time': []}, u'edge': {u'target': [], u'time': []}}}","[4, -8, 48]","[1533, 20, 68]",43.0,"[None, None, None]","[u'', 2, 8, 24, -24, 2, -8, -24, -24, 4, -8, 48, 48]",495198,9.0,322903.0,-3.20049588135e+18,mouselab-mdp,2
"[2651, 3176, 3793]","[u'up', u'up', u'left']",training,"[u'0', u'1', u'2', u'4']","{u'mouseover': {u'state': {u'target': [], u'time': []}, u'edge': {u'target': [], u'time': []}}, u'click': {u'state': {u'target': [u'4'], u'time': [1484]}, u'edge': {u'target': [], u'time': []}}, u'mouseout': {u'state': {u'target': [], u'time': []}, u'edge': {u'target': [], u'time': []}}}","[4, -8, 48]","[2642, 17, 114]",43.0,"[None, None, None]","[u'', 4, -8, 24, 48, 4, -8, -24, 48, -2, -8, 24, -24]",506037,10.0,9762.0,6.60860815513e+18,mouselab-mdp,2
"[4542, 5439, 5998, 6855, 7445]","[u'up', u'up', u'up', u'left', u'up']",test,"[u'0', u'1', u'2', u'3', u'8', u'9']","{u'mouseover': {u'state': {u'target': [], u'time': []}, u'edge': {u'target': [], u'time': []}}, u'click': {u'state': {u'target': [u'9'], u'time': [2967]}, u'edge': {u'target': [], u'time': []}}, u'mouseout': {u'state': {u'target': [], u'time': []}, u'edge': {u'target': [], u'time': []}}}","[-1, -2, -6, 5, 45]","[4528, 379, 55, 341, 77]",40.0,"[None, None, None, None, None]","[u'', -1, -2, -6, 7, -14, 35, -26, 5, 45, -3, -36, 0, 3, 3, -3, -56, 23, 52, 13, 14, -6, -25, -1, -3, 9, 0, 76, -2, -52, 15, -28, -14, 53]",529983,11.0,9969.0,-6.29884450587e+18,mouselab-mdp,2
"[12104, 12999, 13585, 14144, 14663]","[u'left', u'left', u'left', u'down', u'left']",test,"[u'0', u'23', u'24', u'25', u'30', u'33']","{u'mouseover': {u'state': {u'target': [], u'time': []}, u'edge': {u'target': [], u'time': []}}, u'click': {u'state': {u'target': [u'21', u'5', u'32', u'33'], u'time': [1440, 4861, 9606, 10841]}, u'edge': {u'target': [], u'time': []}}, u'mouseout': {u'state': {u'target': [], u'time': []}, u'edge': {u'target': [], u'time': []}}}","[1, 0, 1, -5, 58]","[12069, 396, 77, 51, 15]",51.0,"[None, None, None, None, None]","[u'', 0, 1, 0, 7, -3, 60, -35, 7, 32, 41, -4, 0, 3, 2, -5, 27, 51, 21, -6, 31, -49, 25, 1, 0, 1, 1, -17, -27, -9, -5, 48, -43, 58]",548214,12.0,16818.0,2.45129555479e+18,mouselab-mdp,2
"[5353, 5881, 6439, 7265, 7815]","[u'right', u'right', u'right', u'up', u'right']",test,"[u'0', u'12', u'13', u'14', u'15', u'17']","{u'mouseover': {u'state': {u'target': [], u'time': []}, u'edge': {u'target': [], u'time': []}}, u'click': {u'state': {u'target': [u'29', u'5', u'6', u'17'], u'time': [1435, 2547, 3068, 3853]}, u'edge': {u'target': [], u'time': []}}, u'mouseout': {u'state': {u'target': [], u'time': []}, u'edge': {u'target': [], u'time': []}}}","[-1, 4, -2, -3, 54]","[5344, 25, 51, 323, 50]",48.0,"[None, None, None, None, None]","[u'', -1, 1, 2, 8, -7, -10, -19, 12, 32, -1, 21, -1, 4, -2, -3, -12, 54, 5, 9, -4, -39, 25, -1, -3, -2, 5, 56, -44, -70, 7, 10, -18, 13]",559180,13.0,9609.0,-1.13114512597e+18,mouselab-mdp,2
"[10770, 11608, 12194, 13088, 13649]","[u'up', u'up', u'up', u'right', u'up']",test,"[u'0', u'1', u'2', u'3', u'4', u'5']","{u'mouseover': {u'state': {u'target': [], u'time': []}, u'edge': {u'target': [], u'time': []}}, u'click': {u'state': {u'target': [u'21', u'32', u'9', u'6', u'17', u'18', u'29', u'27', u'28', u'5'], u'time': [1476, 2461, 3527, 4266, 5095, 5687, 6423, 7839, 8353, 9863]}, u'edge': {u'target': [], u'time': []}}, u'mouseout': {u'state': {u'target': [], u'time': []}, u'edge': {u'target': [], u'time': []}}}","[0, 3, -5, -9, 54]","[10757, 332, 80, 388, 62]",33.0,"[None, None, None, None, None]","[u'', 0, 3, -5, -9, 54, 19, -60, 4, 8, -69, -12, 0, 1, 4, 1, 33, -5, -27, -7, 17, -63, 22, -1, -1, 2, 10, -62, -26, 2, -5, 28, -67, 12]",577803,14.0,17321.0,-6.44000697273e+18,mouselab-mdp,2
"[3763, 4268, 4785, 5323, 6188]","[u'up', u'up', u'up', u'right', u'up']",test,"[u'0', u'1', u'2', u'3', u'4', u'5']","{u'mouseover': {u'state': {u'target': [], u'time': []}, u'edge': {u'target': [], u'time': []}}, u'click': {u'state': {u'target': [u'5'], u'time': [2467]}, u'edge': {u'target': [], u'time': []}}, u'mouseout': {u'state': {u'target': [], u'time': []}, u'edge': {u'target': [], u'time': []}}}","[0, 2, -4, -1, 46]","[3746, 8, 2, 7, 353]",42.0,"[None, None, None, None, None]","[u'', 0, 2, -4, -1, 46, -20, -65, -16, -80, -68, -13, 1, -1, 1, -1, 0, -5, -6, 4, -38, 32, 29, 0, 2, -3, -4, 5, -6, -14, -5, -18, 30, -62]",589697,15.0,10642.0,-3.13580120687e+18,mouselab-mdp,2
"[2113, 2743, 3375, 3919, 4480]","[u'right', u'right', u'right', u'down', u'right']",test,"[u'0', u'12', u'13', u'14', u'19', u'20']","{u'mouseover': {u'state': {u'target': [], u'time': []}, u'edge': {u'target': [], u'time': []}}, u'click': {u'state': {u'target': [u'20'], u'time': [1226]}, u'edge': {u'target': [], u'time': []}}, u'mouseout': {u'state': {u'target': [], u'time': []}, u'edge': {u'target': [], u'time': []}}}","[-2, 2, 4, 7, 58]","[2101, 131, 125, 33, 56]",68.0,"[None, None, None, None, None]","[u'', -1, 0, -1, -7, 16, -15, 52, 7, -28, -1, -7, -2, 2, 4, 7, -15, 34, -7, 7, 58, 4, -45, 0, 1, 5, -9, -6, 7, 14, 7, -30, -14, 32]",604280,16.0,13342.0,-8.01578187763e+18,mouselab-mdp,2
"[5402, 5976, 6575, 7183, 7864]","[u'left', u'left', u'left', u'down', u'left']",test,"[u'0', u'23', u'24', u'25', u'30', u'33']","{u'mouseover': {u'state': {u'target': [], u'time': []}, u'edge': {u'target': [], u'time': []}}, u'click': {u'state': {u'target': [u'11', u'20', u'33'], u'time': [1886, 3519, 4641]}, u'edge': {u'target': [], u'time': []}}, u'mouseout': {u'state': {u'target': [], u'time': []}, u'edge': {u'target': [], u'time': []}}}","[0, 2, 0, -5, 55]","[5389, 68, 98, 103, 181]",49.0,"[None, None, None, None, None]","[u'', 0, 3, 2, -13, 127, 21, 3, -11, 3, -15, 21, 0, 4, 1, 4, 12, -5, -6, 9, 25, -20, -36, 0, 2, 0, 14, -25, 5, -81, -5, -10, 16, 55]",619542,17.0,14024.0,-7.72010987048e+18,mouselab-mdp,2
"[2963, 3506, 4355, 4946, 5579]","[u'right', u'right', u'right', u'up', u'right']",test,"[u'0', u'12', u'13', u'14', u'15', u'17']","{u'mouseover': {u'state': {u'target': [], u'time': []}, u'edge': {u'target': [], u'time': []}}, u'click': {u'state': {u'target': [u'29', u'17'], u'time': [1065, 2097]}, u'edge': {u'target': [], u'time': []}}, u'mouseout': {u'state': {u'target': [], u'time': []}, u'edge': {u'target': [], u'time': []}}}","[0, 2, 0, 2, 43]","[2946, 34, 346, 83, 129]",45.0,"[None, None, None, None, None]","[u'', 0, -3, -2, -9, 14, -20, 25, 4, -8, 3, 29, 0, 2, 0, 2, 26, 43, 17, 0, 23, -49, 52, -1, 2, -2, 4, -4, 10, -26, -17, 13, -19, -21]",633439,18.0,12621.0,-2.59993630193e+18,mouselab-mdp,2
"[10979, 11626, 12474, 13036, 13617]","[u'left', u'left', u'left', u'down', u'left']",test,"[u'0', u'23', u'24', u'25', u'30', u'33']","{u'mouseover': {u'state': {u'target': [], u'time': []}, u'edge': {u'target': [], u'time': []}}, u'click': {u'state': {u'target': [u'29', u'21', u'6', u'9', u'11', u'17', u'18', u'33', u'31', u'32'], u'time': [1717, 2957, 4015, 5783, 6280, 7552, 8102, 9074, 10032, 10425]}, u'edge': {u'target': [], u'time': []}}, u'mouseout': {u'state': {u'target': [], u'time': []}, u'edge': {u'target': [], u'time': []}}}","[-2, 1, 5, -16, 52]","[10969, 140, 333, 58, 70]",30.0,"[None, None, None, None, None]","[u'', 0, 1, 6, 0, 65, -20, -17, 3, -11, 38, -21, 1, 0, 10, -4, -6, 5, -70, 5, 15, 3, -49, -2, 1, 5, 13, -29, -33, -9, -16, -19, 27, 52]",650237,19.0,15555.0,-1.64462434052e+18,mouselab-mdp,2
"[4802, 5328, 5976, 6584, 7145]","[u'right', u'right', u'right', u'down', u'right']",test,"[u'0', u'12', u'13', u'14', u'19', u'20']","{u'mouseover': {u'state': {u'target': [], u'time': []}, u'edge': {u'target': [], u'time': []}}, u'click': {u'state': {u'target': [u'29', u'17', u'5', u'20'], u'time': [1003, 2021, 2668, 3450]}, u'edge': {u'target': [], u'time': []}}, u'mouseout': {u'state': {u'target': [], u'time': []}, u'edge': {u'target': [], u'time': []}}}","[-1, 1, -3, 3, 44]","[4792, 12, 140, 31, 53]",40.0,"[None, None, None, None, None]","[u'', 1, -3, 4, 10, -9, 11, -18, 2, 5, -12, -1, -1, 1, -3, 3, 9, -25, -13, 3, 44, -20, -4, 0, -4, -1, 6, 25, -15, 17, -2, 11, 30, -21]",661917,20.0,10410.0,3.06682852711e+17,mouselab-mdp,2
"[17279, 17829, 18477, 19013, 19662]","[u'left', u'left', u'left', u'up', u'left']",test,"[u'0', u'23', u'24', u'25', u'26', u'29']","{u'mouseover': {u'state': {u'target': [], u'time': []}, u'edge': {u'target': [], u'time': []}}, u'click': {u'state': {u'target': [u'29', u'33', u'9', u'17', u'20', u'21', u'22', u'6', u'11', u'32', u'31', u'28', u'27', u'5', u'7', u'16', u'18'], u'time': [2614, 3221, 3983, 4679, 5264, 5846, 6478, 7624, 8464, 9618, 10165, 10970, 11432, 12209, 13458, 14058, 14584]}, u'edge': {u'target': [], u'time': []}}, u'mouseout': {u'state': {u'target': [], u'time': []}, u'edge': {u'target': [], u'time': []}}}","[-1, 0, 3, 9, 11]","[17266, 33, 146, 30, 132]",5.0,"[None, None, None, None, None]","[u'', 0, 1, -2, 6, -2, -22, 3, -12, -59, 11, -57, -1, 2, 1, -7, 0, -46, -36, -1, 19, -1, -3, -1, 0, 3, 9, 11, 4, 11, 4, -15, -12, -21]",685460,21.0,22191.0,1.58242239691e+18,mouselab-mdp,2
"[5567, 6104, 6773, 7309, 7876]","[u'right', u'right', u'right', u'down', u'down']",test,"[u'0', u'12', u'13', u'14', u'19', u'21']","{u'mouseover': {u'state': {u'target': [], u'time': []}, u'edge': {u'target': [], u'time': []}}, u'click': {u'state': {u'target': [u'17', u'33', u'9', u'21'], u'time': [1955, 2997, 3810, 4564]}, u'edge': {u'target': [], u'time': []}}, u'mouseout': {u'state': {u'target': [], u'time': []}, u'edge': {u'target': [], u'time': []}}}","[0, 0, 2, -12, 73]","[5549, 17, 157, 17, 56]",59.0,"[None, None, None, None, None]","[u'', 0, 1, 2, 0, -19, 5, 18, 0, 4, -5, 29, 0, 0, 2, 6, 48, 22, 19, -12, 19, 73, -27, -1, 0, 4, 4, -15, -1, 33, 5, 78, 32, 11]",697173,22.0,10480.0,-3.59807723996e+18,mouselab-mdp,2
"[2815, 3333, 3860, 4369, 5278]","[u'left', u'left', u'left', u'up', u'left']",test,"[u'0', u'23', u'24', u'25', u'26', u'29']","{u'mouseover': {u'state': {u'target': [], u'time': []}, u'edge': {u'target': [], u'time': []}}, u'click': {u'state': {u'target': [u'29'], u'time': [1593]}, u'edge': {u'target': [], u'time': []}}, u'mouseout': {u'state': {u'target': [], u'time': []}, u'edge': {u'target': [], u'time': []}}}","[1, -2, -2, 2, 64]","[2799, 3, 12, 2, 393]",62.0,"[None, None, None, None, None]","[u'', -3, 1, 3, -12, 3, 9, 11, -4, 3, 19, -57, 1, -1, 3, -6, -55, 38, 53, -15, -41, 3, -34, 1, -2, -2, 2, -70, -10, 64, 5, -32, 33, 66]",708588,23.0,10199.0,-7.40831087289e+18,mouselab-mdp,2
"[15999, 16541, 17478, 18029, 18565]","[u'left', u'left', u'left', u'up', u'left']",test,"[u'0', u'23', u'24', u'25', u'26', u'29']","{u'mouseover': {u'state': {u'target': [], u'time': []}, u'edge': {u'target': [], u'time': []}}, u'click': {u'state': {u'target': [u'29', u'20', u'21', u'5', u'11', u'6', u'17', u'16', u'18', u'33', u'32', u'31', u'27', u'7'], u'time': [975, 2725, 3348, 4128, 4752, 5461, 6092, 6944, 7393, 8354, 9137, 9902, 12497, 14921]}, u'edge': {u'target': [], u'time': []}}, u'mouseout': {u'state': {u'target': [], u'time': []}, u'edge': {u'target': [], u'time': []}}}","[0, 2, 5, 1, 14]","[15984, 41, 427, 39, 24]",8.0,"[None, None, None, None, None]","[u'', 1, 3, 9, -11, -46, -16, 5, 7, 10, -65, -10, 1, 0, 3, -2, -6, 6, 13, 2, 4, -21, 12, 0, 2, 5, 1, -12, -20, 14, 1, -11, 1, -20]",729857,24.0,20045.0,-6.93444865984e+18,mouselab-mdp,2
"[4111, 4619, 5137, 5661, 6566]","[u'up', u'up', u'up', u'left', u'up']",test,"[u'0', u'1', u'2', u'3', u'8', u'9']","{u'mouseover': {u'state': {u'target': [], u'time': []}, u'edge': {u'target': [], u'time': []}}, u'click': {u'state': {u'target': [u'20', u'32', u'9', u'16'], u'time': [1310, 2128, 2992, 3623]}, u'edge': {u'target': [], u'time': []}}, u'mouseout': {u'state': {u'target': [], u'time': []}, u'edge': {u'target': [], u'time': []}}}","[-1, 0, -1, 2, 66]","[4099, 2, 2, 2, 375]",62.0,"[None, None, None, None, None]","[u'', -1, 0, -1, -2, -34, -30, -34, 2, 66, -4, -44, 1, -2, 2, -4, 3, 110, -24, -5, 12, -1, -13, -1, 1, 4, -8, -36, 59, -46, 6, 14, -35, 24]",741946,25.0,10855.0,8.1969743017e+18,mouselab-mdp,2
"[6363, 6890, 7425, 7932, 8777]","[u'up', u'up', u'up', u'left', u'up']",test,"[u'0', u'1', u'2', u'3', u'8', u'9']","{u'mouseover': {u'state': {u'target': [], u'time': []}, u'edge': {u'target': [], u'time': []}}, u'click': {u'state': {u'target': [u'29', u'20', u'5', u'32', u'9', u'11'], u'time': [1265, 2329, 3276, 4400, 5259, 5772]}, u'edge': {u'target': [], u'time': []}}, u'mouseout': {u'state': {u'target': [], u'time': []}, u'edge': {u'target': [], u'time': []}}}","[-1, 4, 3, -8, 46]","[6353, 17, 34, 2, 326]",38.0,"[None, None, None, None, None]","[u'', -1, 4, 3, -5, 1, 10, -3, -8, 46, -38, 28, 0, -2, -1, -15, 9, 23, -17, 2, -80, -17, -43, 1, 0, 0, -2, -8, 25, -33, 7, 22, 33, -11]",753890,26.0,10683.0,4.29183515435e+18,mouselab-mdp,2
"[6472, 7469, 8069, 8660, 9251]","[u'right', u'right', u'right', u'up', u'up']",test,"[u'0', u'12', u'13', u'14', u'15', u'16']","{u'mouseover': {u'state': {u'target': [], u'time': []}, u'edge': {u'target': [], u'time': []}}, u'click': {u'state': {u'target': [u'21', u'32', u'9', u'6', u'29', u'17', u'16', u'18'], u'time': [791, 1992, 2697, 3354, 4105, 4904, 5279, 6076]}, u'edge': {u'target': [], u'time': []}}, u'mouseout': {u'state': {u'target': [], u'time': []}, u'edge': {u'target': [], u'time': []}}}","[0, -2, -1, 2, 47]","[6455, 497, 93, 79, 85]",38.0,"[None, None, None, None, None]","[u'', -1, 1, 4, -7, 8, 35, -12, -11, 2, 51, -29, 0, -2, -1, 2, 47, -23, -23, -7, -35, -49, -27, 0, 0, 5, -7, -25, -24, 6, -1, 25, -25, 29]",767185,27.0,11949.0,-6.34024467263e+18,mouselab-mdp,2
"[6080, 7007, 7607, 8177, 8736]","[u'left', u'left', u'left', u'down', u'down']",test,"[u'0', u'23', u'24', u'25', u'30', u'32']","{u'mouseover': {u'state': {u'target': [], u'time': []}, u'edge': {u'target': [], u'time': []}}, u'click': {u'state': {u'target': [u'9', u'29', u'21', u'17', u'16', u'33', u'31', u'32'], u'time': [758, 1885, 2590, 3400, 3908, 4598, 5005, 5335]}, u'edge': {u'target': [], u'time': []}}, u'mouseout': {u'state': {u'target': [], u'time': []}, u'edge': {u'target': [], u'time': []}}}","[-1, 1, -4, -4, 56]","[6069, 412, 90, 58, 47]",40.0,"[None, None, None, None, None]","[u'', -3, 2, 1, -2, -4, -8, 14, -1, -57, -6, 72, 0, 1, -2, 1, 6, -8, 28, -7, -4, 16, -9, -1, 1, -4, -4, -27, -4, -14, -4, 22, 56, -11]",779361,28.0,10881.0,-4.46091857561e+18,mouselab-mdp,2
"[5541, 6064, 6666, 7241, 7762]","[u'left', u'left', u'left', u'up', u'right']",test,"[u'0', u'23', u'24', u'25', u'26', u'28']","{u'mouseover': {u'state': {u'target': [], u'time': []}, u'edge': {u'target': [], u'time': []}}, u'click': {u'state': {u'target': [u'9', u'17', u'20', u'32', u'33', u'29', u'28'], u'time': [722, 1843, 2293, 3004, 3364, 4035, 4435]}, u'edge': {u'target': [], u'time': []}}, u'mouseout': {u'state': {u'target': [], u'time': []}, u'edge': {u'target': [], u'time': []}}}","[0, 1, 0, 9, 61]","[5518, 11, 95, 59, 17]",64.0,"[None, None, None, None, None]","[u'', 0, 2, 1, 18, -61, -21, 29, 20, -8, 1, -7, 1, -1, 3, -3, -41, 10, 16, 10, -4, -20, 18, 0, 1, 0, 9, 12, 61, 36, 5, -52, 19, 13]",791016,29.0,10419.0,6.77571634251e+18,mouselab-mdp,2
"[5537, 6087, 6683, 7239, 7791]","[u'left', u'left', u'left', u'down', u'left']",test,"[u'0', u'23', u'24', u'25', u'30', u'33']","{u'mouseover': {u'state': {u'target': [], u'time': []}, u'edge': {u'target': [], u'time': []}}, u'click': {u'state': {u'target': [u'29', u'33', u'21', u'17', u'5', u'11'], u'time': [856, 1823, 2545, 3270, 4458, 5166]}, u'edge': {u'target': [], u'time': []}}, u'mouseout': {u'state': {u'target': [], u'time': []}, u'edge': {u'target': [], u'time': []}}}","[1, -3, -1, 7, 65]","[5520, 51, 91, 46, 45]",63.0,"[None, None, None, None, None]","[u'', -1, -2, 3, -3, -6, -5, 35, 13, 14, -8, 45, 0, -1, 4, 2, -46, 20, 10, -15, -69, 4, 22, 1, -3, -1, 5, -49, 3, 7, 7, -79, 5, 65]",802959,30.0,10704.0,-8.33669581469e+18,mouselab-mdp,2
"[2931, 4001, 4873, 6305, 8513]","[u'up', u'up', u'up', u'left', u'up']",pre_test,"[u'0', u'1', u'2', u'3', u'8', u'9']","{u'mouseover': {u'state': {u'target': [], u'time': []}, u'edge': {u'target': [], u'time': []}}, u'click': {u'state': {u'target': [u'9'], u'time': [1902]}, u'edge': {u'target': [], u'time': []}}, u'mouseout': {u'state': {u'target': [], u'time': []}, u'edge': {u'target': [], u'time': []}}}","[-1, 4, 3, -8, 46]","[2914, 554, 345, 913, 1694]",43.0,"[None, None, None, None, None]","[u'', -1, 4, 3, -5, 1, 10, -3, -8, 46, -38, 28, 0, -2, -1, -15, 9, 23, -17, 2, -80, -17, -43, 1, 0, 0, -2, -8, 25, -33, 7, 22, 33, -11]",19940,0.0,11821.0,4.29183515435e+18,mouselab-mdp,3
"[2560, 3504, 4279]","[u'up', u'up', u'right']",training,"[u'0', u'1', u'2', u'3']","{u'mouseover': {u'state': {u'target': [], u'time': []}, u'edge': {u'target': [], u'time': []}}, u'click': {u'state': {u'target': [u'3'], u'time': [1789]}, u'edge': {u'target': [], u'time': []}}, u'mouseout': {u'state': {u'target': [], u'time': []}, u'edge': {u'target': [], u'time': []}}}","[2, -4, 48]","[2555, 420, 249]",45.0,"[None, None, None]","[u'', 2, -4, 48, 24, -2, -4, 24, 24, 2, -8, -24, 24]",32920,1.0,8015.0,5.56601214792e+17,mouselab-mdp,3
"[4167, 4895, 6774]","[u'left', u'left', u'up']",training,"[u'0', u'9', u'10', u'11']","{u'mouseover': {u'state': {u'target': [], u'time': []}, u'edge': {u'target': [], u'time': []}}, u'click': {u'state': {u'target': [u'8'], u'time': [2466]}, u'edge': {u'target': [], u'time': []}}, u'mouseout': {u'state': {u'target': [], u'time': []}, u'edge': {u'target': [], u'time': []}}}","[-2, -4, -48]","[4161, 216, 1366]",-55.0,"[None, None, None]","[u'', 4, 4, -48, 48, -2, 4, -48, -24, -2, -4, -48, 24]",43480,2.0,9446.0,-5.00680981918e+18,mouselab-mdp,3
"[1779, 2514, 3289]","[u'right', u'right', u'up']",training,"[u'0', u'5', u'6', u'7']","{u'mouseover': {u'state': {u'target': [], u'time': []}, u'edge': {u'target': [], u'time': []}}, u'click': {u'state': {u'target': [u'7'], u'time': [851]}, u'edge': {u'target': [], u'time': []}}, u'mouseout': {u'state': {u'target': [], u'time': []}, u'edge': {u'target': [], u'time': []}}}","[-4, 4, 24]","[1774, 221, 264]",23.0,"[None, None, None]","[u'', 4, -8, -48, -48, -4, 4, 24, 24, -2, -8, -24, 48]",53923,3.0,9357.0,-4.56949664606e+18,mouselab-mdp,3
"[2103, 2821, 3645]","[u'up', u'up', u'right']",training,"[u'0', u'1', u'2', u'3']","{u'mouseover': {u'state': {u'target': [], u'time': []}, u'edge': {u'target': [], u'time': []}}, u'click': {u'state': {u'target': [u'3'], u'time': [1167]}, u'edge': {u'target': [], u'time': []}}, u'mouseout': {u'state': {u'target': [], u'time': []}, u'edge': {u'target': [], u'time': []}}}","[4, 4, 48]","[2095, 209, 300]",55.0,"[None, None, None]","[u'', 4, 4, 48, -48, -2, -8, 48, -24, -4, -8, 24, -48]",64510,4.0,9473.0,-4.67008033733e+18,mouselab-mdp,3
"[1943, 2662, 3366]","[u'left', u'left', u'up']",training,"[u'0', u'9', u'10', u'11']","{u'mouseover': {u'state': {u'target': [], u'time': []}, u'edge': {u'target': [], u'time': []}}, u'click': {u'state': {u'target': [u'11'], u'time': [1113]}, u'edge': {u'target': [], u'time': []}}, u'mouseout': {u'state': {u'target': [], u'time': []}, u'edge': {u'target': [], u'time': []}}}","[4, -4, 24]","[1936, 205, 193]",23.0,"[None, None, None]","[u'', -4, -8, 24, -24, -2, 8, 24, 48, 4, -4, 24, -48]",74861,5.0,9276.0,-1.10044903072e+18,mouselab-mdp,3
"[2285, 2973, 3638]","[u'up', u'up', u'right']",training,"[u'0', u'1', u'2', u'3']","{u'mouseover': {u'state': {u'target': [], u'time': []}, u'edge': {u'target': [], u'time': []}}, u'click': {u'state': {u'target': [u'4'], u'time': [703]}, u'edge': {u'target': [], u'time': []}}, u'mouseout': {u'state': {u'target': [], u'time': []}, u'edge': {u'target': [], u'time': []}}}","[4, -4, 48]","[2280, 164, 148]",47.0,"[None, None, None]","[u'', 4, -4, 48, -48, -2, -8, 24, 24, -2, 4, 48, -48]",85484,6.0,9509.0,8.0458297312e+18,mouselab-mdp,3
"[2390, 3183, 3917]","[u'right', u'right', u'down']",training,"[u'0', u'5', u'6', u'8']","{u'mouseover': {u'state': {u'target': [], u'time': []}, u'edge': {u'target': [], u'time': []}}, u'click': {u'state': {u'target': [u'8'], u'time': [1901]}, u'edge': {u'target': [], u'time': []}}, u'mouseout': {u'state': {u'target': [], u'time': []}, u'edge': {u'target': [], u'time': []}}}","[2, 4, 48]","[2386, 272, 228]",53.0,"[None, None, None]","[u'', 4, -8, 24, 24, 2, 4, 24, 48, -2, 4, 24, -48]",95444,7.0,8878.0,6.72269827856e+18,mouselab-mdp,3
"[3096, 3856, 5136]","[u'right', u'right', u'up']",training,"[u'0', u'5', u'6', u'7']","{u'mouseover': {u'state': {u'target': [], u'time': []}, u'edge': {u'target': [], u'time': []}}, u'click': {u'state': {u'target': [u'7'], u'time': [2116]}, u'edge': {u'target': [], u'time': []}}, u'mouseout': {u'state': {u'target': [], u'time': []}, u'edge': {u'target': [], u'time': []}}}","[2, -4, 48]","[3089, 239, 769]",45.0,"[None, None, None]","[u'', -2, -4, 48, -24, 2, -4, 48, 24, -2, -8, -24, -24]",105235,8.0,8687.0,2.59386444745e+18,mouselab-mdp,3
"[3450, 4186, 4801]","[u'up', u'up', u'right']",training,"[u'0', u'1', u'2', u'3']","{u'mouseover': {u'state': {u'target': [], u'time': []}, u'edge': {u'target': [], u'time': []}}, u'click': {u'state': {u'target': [u'2', u'4'], u'time': [701, 1615]}, u'edge': {u'target': [], u'time': []}}, u'mouseout': {u'state': {u'target': [], u'time': []}, u'edge': {u'target': [], u'time': []}}}","[2, 4, -24]","[3445, 218, 101]",-20.0,"[None, None, None]","[u'', 2, 4, -24, -48, -2, -4, -24, -24, -2, 8, 24, -24]",114899,9.0,8593.0,1.18238643611e+16,mouselab-mdp,3
"[1606, 2389, 3109]","[u'left', u'left', u'down']",training,"[u'0', u'9', u'10', u'12']","{u'mouseover': {u'state': {u'target': [], u'time': []}, u'edge': {u'target': [], u'time': []}}, u'click': {u'state': {u'target': [u'12'], u'time': [845]}, u'edge': {u'target': [], u'time': []}}, u'mouseout': {u'state': {u'target': [], u'time': []}, u'edge': {u'target': [], u'time': []}}}","[-4, 4, 24]","[1600, 265, 204]",23.0,"[None, None, None]","[u'', -2, -4, 48, 24, 2, 4, -48, 48, -4, 4, 48, 24]",124531,10.0,8532.0,7.94655219151e+18,mouselab-mdp,3
"[6159, 7093, 7958, 9775, 10702]","[u'right', u'right', u'right', u'up', u'up']",test,"[u'0', u'12', u'13', u'14', u'15', u'16']","{u'mouseover': {u'state': {u'target': [], u'time': []}, u'edge': {u'target': [], u'time': []}}, u'click': {u'state': {u'target': [u'5'], u'time': [3969]}, u'edge': {u'target': [], u'time': []}}, u'mouseout': {u'state': {u'target': [], u'time': []}, u'edge': {u'target': [], u'time': []}}}","[0, -3, -3, 5, 20]","[6145, 416, 350, 1303, 399]",18.0,"[None, None, None, None, None]","[u'', 0, 1, 7, -1, -39, -38, -21, -13, 26, -16, -10, 0, -3, -3, 5, 20, -14, 58, -10, -11, -7, -89, 2, 1, -4, 16, 19, 14, -19, 1, -49, 25, -12]",142993,11.0,12405.0,-2.39631317689e+18,mouselab-mdp,3
"[12006, 12852, 13669, 14741, 15692]","[u'right', u'right', u'right', u'down', u'down']",test,"[u'0', u'12', u'13', u'14', u'19', u'21']","{u'mouseover': {u'state': {u'target': [], u'time': []}, u'edge': {u'target': [], u'time': []}}, u'click': {u'state': {u'target': [u'16'], u'time': [8493]}, u'edge': {u'target': [], u'time': []}}, u'mouseout': {u'state': {u'target': [], u'time': []}, u'edge': {u'target': [], u'time': []}}}","[0, -3, -5, 8, 47]","[11994, 319, 290, 548, 437]",46.0,"[None, None, None, None, None]","[u'', 0, 2, 4, 7, -3, 37, -2, 4, 33, 26, 57, 0, -3, -5, 11, -11, 12, -27, 8, -12, 47, -17, 1, 1, -3, 9, -29, -26, 23, -5, -19, -11, -32]",161616,12.0,17212.0,4.99459683527e+18,mouselab-mdp,3
"[2472, 3375, 4288, 5488, 6335]","[u'left', u'left', u'left', u'down', u'down']",test,"[u'0', u'23', u'24', u'25', u'30', u'32']","{u'mouseover': {u'state': {u'target': [], u'time': []}, u'edge': {u'target': [], u'time': []}}, u'click': {u'state': {u'target': [u'9'], u'time': [1201]}, u'edge': {u'target': [], u'time': []}}, u'mouseout': {u'state': {u'target': [], u'time': []}, u'edge': {u'target': [], u'time': []}}}","[0, -1, 2, 9, -3]","[2462, 382, 399, 681, 333]",6.0,"[None, None, None, None, None]","[u'', 0, 2, -6, -8, 17, 48, 1, 2, -26, -1, -23, 0, 1, -8, 2, -26, -21, 36, 2, 30, -56, -13, 0, -1, 2, 7, -35, -31, -40, 9, -16, -3, -11]",172345,13.0,9408.0,5.46654630961e+18,mouselab-mdp,3
"[2640, 3471, 4711, 5311, 6127]","[u'up', u'up', u'up', u'right', u'up']",test,"[u'0', u'1', u'2', u'3', u'4', u'5']","{u'mouseover': {u'state': {u'target': [], u'time': []}, u'edge': {u'target': [], u'time': []}}, u'click': {u'state': {u'target': [u'5'], u'time': [1471]}, u'edge': {u'target': [], u'time': []}}, u'mouseout': {u'state': {u'target': [], u'time': []}, u'edge': {u'target': [], u'time': []}}}","[0, 0, 0, 11, 45]","[2630, 304, 714, 84, 301]",55.0,"[None, None, None, None, None]","[u'', 0, 0, 0, 11, 45, -48, 4, -10, -43, 19, -27, -3, 1, 5, 16, -13, 46, -84, -8, 17, 15, 42, 1, 0, 6, 5, 55, -26, 10, -3, 26, -7, -8]",184009,14.0,10336.0,-7.95910090686e+18,mouselab-mdp,3
"[4946, 5824, 7104, 8313, 9313]","[u'right', u'right', u'right', u'up', u'up']",test,"[u'0', u'12', u'13', u'14', u'15', u'16']","{u'mouseover': {u'state': {u'target': [], u'time': []}, u'edge': {u'target': [], u'time': []}}, u'click': {u'state': {u'target': [u'17'], u'time': [3878]}, u'edge': {u'target': [], u'time': []}}, u'mouseout': {u'state': {u'target': [], u'time': []}, u'edge': {u'target': [], u'time': []}}}","[-1, -5, -5, 1, 32]","[4936, 367, 766, 692, 477]",21.0,"[None, None, None, None, None]","[u'', 0, 0, -1, 8, 31, 23, 106, -5, -12, -32, 14, -1, -5, -5, 1, 32, -50, -20, -1, -23, 17, 0, 0, -1, 6, 0, 41, -14, 19, -5, -30, -23, -1]",197224,15.0,11912.0,-7.6395338963e+18,mouselab-mdp,3
"[9821, 10684, 11605, 12900, 13844]","[u'left', u'left', u'left', u'up', u'up']",test,"[u'0', u'23', u'24', u'25', u'26', u'27']","{u'mouseover': {u'state': {u'target': [], u'time': []}, u'edge': {u'target': [], u'time': []}}, u'click': {u'state': {u'target': [u'11', u'29', u'32', u'5'], u'time': [1597, 4513, 5667, 7168]}, u'edge': {u'target': [], u'time': []}}, u'mouseout': {u'state': {u'target': [], u'time': []}, u'edge': {u'target': [], u'time': []}}}","[-1, 0, 5, -1, 18]","[9808, 350, 405, 771, 415]",17.0,"[None, None, None, None, None]","[u'', -1, 1, 4, 8, -97, -52, 64, -2, -5, 37, 6, -1, 0, 8, -11, 42, -10, -9, 15, -21, 27, -12, -1, 0, 5, -1, 18, 6, 1, -3, 4, -65, -14]",214095,16.0,15635.0,6.45819709428e+18,mouselab-mdp,3
"[3884, 4852, 5875, 7251, 9659]","[u'left', u'left', u'left', u'down', u'left']",test,"[u'0', u'23', u'24', u'25', u'30', u'33']","{u'mouseover': {u'state': {u'target': [], u'time': []}, u'edge': {u'target': [], u'time': []}}, u'click': {u'state': {u'target': [u'20'], u'time': [2231]}, u'edge': {u'target': [], u'time': []}}, u'mouseout': {u'state': {u'target': [], u'time': []}, u'edge': {u'target': [], u'time': []}}}","[1, 0, 9, -17, -17]","[3875, 438, 497, 860, 1887]",-25.0,"[None, None, None, None, None]","[u'', 0, 2, 1, 5, 2, 47, -64, 3, -10, -31, -26, -1, 1, -4, -1, 9, -37, 36, 19, -22, 29, -10, 1, 0, 9, -3, 25, 19, -35, -17, 19, 27, -17]",227416,17.0,12027.0,7.71696205605e+18,mouselab-mdp,3
"[2320, 3175, 3984, 4863, 6552]","[u'up', u'up', u'up', u'left', u'up']",test,"[u'0', u'1', u'2', u'3', u'8', u'9']","{u'mouseover': {u'state': {u'target': [], u'time': []}, u'edge': {u'target': [], u'time': []}}, u'click': {u'state': {u'target': [u'9'], u'time': [855]}, u'edge': {u'target': [], u'time': []}}, u'mouseout': {u'state': {u'target': [], u'time': []}, u'edge': {u'target': [], u'time': []}}}","[-1, 1, 2, 12, 32]","[2307, 342, 283, 349, 1171]",45.0,"[None, None, None, None, None]","[u'', -1, 1, 2, 8, -7, -10, -19, 12, 32, -1, 21, -1, 4, -2, -3, -12, 54, 5, 9, -4, -39, 25, -1, -3, -2, 5, 56, -44, -70, 7, 10, -18, 13]",237959,18.0,9303.0,-1.13114512597e+18,mouselab-mdp,3
"[2577, 3447, 4289, 5111, 5920]","[u'right', u'right', u'right', u'up', u'right']",test,"[u'0', u'12', u'13', u'14', u'15', u'17']","{u'mouseover': {u'state': {u'target': [], u'time': []}, u'edge': {u'target': [], u'time': []}}, u'click': {u'state': {u'target': [u'17'], u'time': [1284]}, u'edge': {u'target': [], u'time': []}}, u'mouseout': {u'state': {u'target': [], u'time': []}, u'edge': {u'target': [], u'time': []}}}","[0, 0, -7, -5, 65]","[2565, 345, 326, 299, 266]",52.0,"[None, None, None, None, None]","[u'', 0, -2, -6, -4, -2, 53, -45, 8, 7, 26, 65, 0, 0, -7, -5, 50, 65, 5, 0, 15, 10, 72, -1, -3, -3, -11, 4, 2, -48, 0, -9, 8, -21]",248471,19.0,9256.0,-5.12551101719e+18,mouselab-mdp,3
"[3337, 4232, 5008, 5824, 7280]","[u'up', u'up', u'up', u'right', u'up']",test,"[u'0', u'1', u'2', u'3', u'4', u'5']","{u'mouseover': {u'state': {u'target': [], u'time': []}, u'edge': {u'target': [], u'time': []}}, u'click': {u'state': {u'target': [u'5'], u'time': [1719]}, u'edge': {u'target': [], u'time': []}}, u'mouseout': {u'state': {u'target': [], u'time': []}, u'edge': {u'target': [], u'time': []}}}","[0, 0, 4, -10, 35]","[3323, 371, 248, 302, 942]",28.0,"[None, None, None, None, None]","[u'', 0, 0, 4, -10, 35, -22, 23, -3, 26, 25, -47, 0, 0, -1, -6, 59, 7, 50, -5, -34, 4, -18, 2, 0, 5, -2, -10, -1, 11, 7, -4, -22, -34]",260183,20.0,10456.0,-5.49423358378e+18,mouselab-mdp,3
"[2391, 3237, 4036, 4924, 6141]","[u'left', u'left', u'left', u'up', u'left']",test,"[u'0', u'23', u'24', u'25', u'26', u'29']","{u'mouseover': {u'state': {u'target': [], u'time': []}, u'edge': {u'target': [], u'time': []}}, u'click': {u'state': {u'target': [u'29'], u'time': [672]}, u'edge': {u'target': [], u'time': []}}, u'mouseout': {u'state': {u'target': [], u'time': []}, u'edge': {u'target': [], u'time': []}}}","[1, 0, 4, 12, 56]","[2380, 334, 284, 373, 695]",72.0,"[None, None, None, None, None]","[u'', -1, 1, -9, -9, -1, -55, 2, -6, -9, -8, 6, -1, 0, -2, 4, 54, 6, 5, -9, 22, -24, -26, 1, 0, 4, 12, -17, 4, 56, 8, 23, 42, -19]",269823,21.0,8365.0,5.55140159652e+18,mouselab-mdp,3
"[8397, 9172, 10029, 10788, 11749]","[u'right', u'right', u'right', u'down', u'right']",test,"[u'0', u'12', u'13', u'14', u'19', u'20']","{u'mouseover': {u'state': {u'target': [], u'time': []}, u'edge': {u'target': [], u'time': []}}, u'click': {u'state': {u'target': [u'32', u'9', u'5', u'17', u'20'], u'time': [1152, 2214, 4183, 5260, 6974]}, u'edge': {u'target': [], u'time': []}}, u'mouseout': {u'state': {u'target': [], u'time': []}, u'edge': {u'target': [], u'time': []}}}","[1, 0, 3, -10, 47]","[8388, 255, 330, 242, 435]",36.0,"[None, None, None, None, None]","[u'', 1, -1, 1, 5, 12, -17, 52, 1, 30, 13, 28, 1, 0, 3, 17, 64, 24, 54, -10, 47, 2, -57, 0, 2, -3, 15, 43, -41, 32, 1, -18, -10, -14]",284382,22.0,13308.0,-8.09611612733e+18,mouselab-mdp,3
"[10131, 10891, 11730, 12842, 14906]","[u'up', u'up', u'up', u'left', u'up']",test,"[u'0', u'1', u'2', u'3', u'8', u'9']","{u'mouseover': {u'state': {u'target': [], u'time': []}, u'edge': {u'target': [], u'time': []}}, u'click': {u'state': {u'target': [u'29', u'5', u'21', u'32', u'9'], u'time': [888, 2769, 4373, 5790, 7824]}, u'edge': {u'target': [], u'time': []}}, u'mouseout': {u'state': {u'target': [], u'time': []}, u'edge': {u'target': [], u'time': []}}}","[-1, -2, 6, 0, 31]","[10122, 247, 322, 584, 1552]",29.0,"[None, None, None, None, None]","[u'', -1, -2, 6, 13, -11, 17, 0, 0, 31, 14, 11, 0, 2, -1, 0, 7, -38, -10, -3, 3, -36, -38, 2, 2, 4, 15, 13, -3, 15, -15, -35, 24, 1]",302038,23.0,16362.0,6.4481754097e+18,mouselab-mdp,3
"[11005, 11851, 12755, 13963, 14802]","[u'left', u'left', u'left', u'down', u'down']",test,"[u'0', u'23', u'24', u'25', u'30', u'32']","{u'mouseover': {u'state': {u'target': [], u'time': []}, u'edge': {u'target': [], u'time': []}}, u'click': {u'state': {u'target': [u'33', u'29', u'17', u'5', u'9', u'20', u'21', u'32'], u'time': [1166, 2358, 3862, 4992, 5962, 7338, 8450, 9388]}, u'edge': {u'target': [], u'time': []}}, u'mouseout': {u'state': {u'target': [], u'time': []}, u'edge': {u'target': [], u'time': []}}}","[0, 1, -1, -6, 38]","[10993, 330, 384, 695, 322]",24.0,"[None, None, None, None, None]","[u'', 1, -1, -3, -3, -34, 1, -32, -7, 10, -18, -7, 2, 1, 5, 4, 19, -43, -18, -2, -14, -6, 5, 0, 1, -1, 9, 0, -19, -40, -6, -8, 38, -41]",319624,24.0,16253.0,5.01968822029e+18,mouselab-mdp,3
"[10644, 11387, 12163, 12987, 13987]","[u'left', u'left', u'left', u'down', u'left']",test,"[u'0', u'23', u'24', u'25', u'30', u'33']","{u'mouseover': {u'state': {u'target': [], u'time': []}, u'edge': {u'target': [], u'time': []}}, u'click': {u'state': {u'target': [u'6', u'9', u'17', u'20', u'27', u'32', u'33'], u'time': [2188, 3291, 4616, 5502, 7141, 8364, 9397]}, u'edge': {u'target': [], u'time': []}}, u'mouseout': {u'state': {u'target': [], u'time': []}, u'edge': {u'target': [], u'time': []}}}","[1, 1, -1, -3, 37]","[10634, 221, 247, 306, 477]",28.0,"[None, None, None, None, None]","[u'', -2, 3, 1, 5, 6, -6, -11, 1, 5, 37, 11, 0, 4, -5, -11, 11, -7, -57, -2, -23, 36, -20, 1, 1, -1, 0, 14, -74, 10, -3, 58, -22, 37]",335773,25.0,14955.0,3.27542502628e+18,mouselab-mdp,3
"[9138, 9857, 10657, 11569, 14162]","[u'left', u'left', u'left', u'up', u'left']",test,"[u'0', u'23', u'24', u'25', u'26', u'29']","{u'mouseover': {u'state': {u'target': [], u'time': []}, u'edge': {u'target': [], u'time': []}}, u'click': {u'state': {u'target': [u'9', u'5', u'21', u'17', u'20', u'32', u'33', u'29'], u'time': [906, 1939, 3147, 4146, 4914, 5842, 6712, 7561]}, u'edge': {u'target': [], u'time': []}}, u'mouseout': {u'state': {u'target': [], u'time': []}, u'edge': {u'target': [], u'time': []}}}","[0, 1, 0, 9, 36]","[9125, 204, 289, 384, 2081]",38.0,"[None, None, None, None, None]","[u'', 0, 2, 1, 18, -61, -21, 29, 20, -8, 1, -7, 1, -1, 3, -3, -41, 10, 16, 10, -4, -20, 18, 0, 1, 0, 9, 12, 61, 36, 5, -52, 19, 13]",352589,26.0,15593.0,6.77571634251e+18,mouselab-mdp,3
"[12029, 12845, 13621, 14284, 15013]","[u'left', u'left', u'left', u'up', u'left']",test,"[u'0', u'23', u'24', u'25', u'26', u'29']","{u'mouseover': {u'state': {u'target': [], u'time': []}, u'edge': {u'target': [], u'time': []}}, u'click': {u'state': {u'target': [u'21', u'17', u'20', u'5', u'29', u'27', u'33', u'32', u'31'], u'time': [1072, 2463, 3767, 4904, 6286, 6944, 7928, 9112, 11062]}, u'edge': {u'target': [], u'time': []}}, u'mouseout': {u'state': {u'target': [], u'time': []}, u'edge': {u'target': [], u'time': []}}}","[1, 2, 4, 2, 40]","[12016, 302, 261, 142, 206]",40.0,"[None, None, None, None, None]","[u'', -1, -1, 0, -9, 8, 53, 24, -2, -28, -24, 54, 0, -1, 1, 17, 4, 20, 10, -3, -37, -11, -7, 1, 2, 4, 2, 28, -24, 40, 4, -10, 16, -2]",369716,27.0,15924.0,-8.14198867507e+18,mouselab-mdp,3
"[2419, 3146, 3970, 4546, 5258]","[u'right', u'right', u'right', u'down', u'down']",test,"[u'0', u'12', u'13', u'14', u'19', u'21']","{u'mouseover': {u'state': {u'target': [], u'time': []}, u'edge': {u'target': [], u'time': []}}, u'click': {u'state': {u'target': [u'21'], u'time': [1490]}, u'edge': {u'target': [], u'time': []}}, u'mouseout': {u'state': {u'target': [], u'time': []}, u'edge': {u'target': [], u'time': []}}}","[2, -1, -5, 5, 45]","[2407, 206, 301, 62, 192]",45.0,"[None, None, None, None, None]","[u'', 1, 2, -2, 7, -18, 63, -43, -14, -53, -28, -36, 2, -1, -5, 9, -19, -40, 28, 5, -14, 45, 4, 2, 1, 6, 1, -39, 78, -17, -2, -22, -7, 8]",380300,28.0,9370.0,6.04957788595e+18,mouselab-mdp,3
"[8698, 9449, 10321, 11137, 11921]","[u'up', u'up', u'up', u'left', u'left']",test,"[u'0', u'1', u'2', u'3', u'8', u'11']","{u'mouseover': {u'state': {u'target': [], u'time': []}, u'edge': {u'target': [], u'time': []}}, u'click': {u'state': {u'target': [u'5', u'17', u'16', u'6', u'11'], u'time': [2382, 3451, 4602, 5418, 6472]}, u'edge': {u'target': [], u'time': []}}, u'mouseout': {u'state': {u'target': [], u'time': []}, u'edge': {u'target': [], u'time': []}}}","[-3, 2, 1, -1, 72]","[8684, 226, 350, 302, 272]",66.0,"[None, None, None, None, None]","[u'', -3, 2, 1, -2, -4, -8, 14, -1, -57, -6, 72, 0, 1, -2, 1, 6, -8, 28, -7, -4, 16, -9, -1, 1, -4, -4, -27, -4, -14, -4, 22, 56, -11]",395196,29.0,13673.0,-4.46091857561e+18,mouselab-mdp,3
"[9012, 9780, 10588, 11324, 12027]","[u'left', u'left', u'left', u'up', u'up']",test,"[u'0', u'23', u'24', u'25', u'26', u'27']","{u'mouseover': {u'state': {u'target': [], u'time': []}, u'edge': {u'target': [], u'time': []}}, u'click': {u'state': {u'target': [u'33', u'32', u'29', u'31', u'28', u'27', u'11', u'9', u'5'], u'time': [965, 1659, 2519, 3546, 4511, 5278, 6274, 7072, 8106]}, u'edge': {u'target': [], u'time': []}}, u'mouseout': {u'state': {u'target': [], u'time': []}, u'edge': {u'target': [], u'time': []}}}","[0, -2, 2, 3, 61]","[9003, 248, 290, 209, 183]",55.0,"[None, None, None, None, None]","[u'', 0, 2, -2, 1, -32, -15, 37, 13, -11, -8, -24, -2, 1, 2, 5, 1, 17, 5, 10, 12, 46, 34, 0, -2, 2, 3, 61, 24, -36, -6, 31, -6, -38]",409524,30.0,13132.0,-1.11961650931e+18,mouselab-mdp,3
"[16329, 17152, 18227, 18912, 19734]","[u'left', u'left', u'left', u'up', u'right']",pre_test,"[u'0', u'23', u'24', u'25', u'26', u'28']","{u'mouseover': {u'state': {u'target': [], u'time': []}, u'edge': {u'target': [], u'time': []}}, u'click': {u'state': {u'target': [u'12', u'1', u'23', u'24', u'25', u'26', u'28', u'27', u'29', u'31', u'30', u'32', u'33', u'13', u'14', u'15'], u'time': [1274, 1893, 2421, 2937, 3345, 3703, 4380, 5101, 5650, 6505, 9069, 9869, 10469, 13785, 14500, 15146]}, u'edge': {u'target': [], u'time': []}}, u'mouseout': {u'state': {u'target': [], u'time': []}, u'edge': {u'target': [], u'time': []}}}","[-1, -1, -5, 1, 22]","[16320, 305, 569, 163, 317]",0.0,"[None, None, None, None, None]","[u'', -1, 2, 3, 8, 8, -25, -39, -16, -2, 61, 15, 0, -3, -3, 0, -7, 29, -5, 6, -4, -6, 40, -1, -1, -5, 1, 34, 22, 23, 8, 20, 24, 13]",61975,0.0,29756.0,-4.35323372058e+18,mouselab-mdp,4
"[18070, 19130, 19768]","[u'up', u'up', u'right']",training,"[u'0', u'1', u'2', u'3']","{u'mouseover': {u'state': {u'target': [], u'time': []}, u'edge': {u'target': [], u'time': []}}, u'click': {u'state': {u'target': [u'5', u'7', u'8', u'3', u'4', u'11', u'12', u'2', u'10'], u'time': [7372, 7618, 8980, 10121, 11008, 11709, 15225, 15626, 16476]}, u'edge': {u'target': [], u'time': []}}, u'mouseout': {u'state': {u'target': [], u'time': []}, u'edge': {u'target': [], u'time': []}}}","[-4, 8, 48]","[18065, 535, 121]",43.0,"[None, None, None]","[u'', -4, 8, 48, 24, 2, -8, -48, -24, -4, -4, 48, -24]",92685,1.0,21805.0,3.41976950562e+18,mouselab-mdp,4
"[9473, 10115, 10849]","[u'right', u'right', u'up']",training,"[u'0', u'5', u'6', u'7']","{u'mouseover': {u'state': {u'target': [], u'time': []}, u'edge': {u'target': [], u'time': []}}, u'click': {u'state': {u'target': [u'3', u'4', u'11', u'12', u'8', u'7'], u'time': [2544, 3701, 4496, 5187, 5910, 7618]}, u'edge': {u'target': [], u'time': []}}, u'mouseout': {u'state': {u'target': [], u'time': []}, u'edge': {u'target': [], u'time': []}}}","[4, 8, 48]","[9470, 136, 225]",54.0,"[None, None, None]","[u'', -2, -8, -24, -24, 4, 8, 48, 24, -2, 8, -24, -48]",114327,2.0,20582.0,4.07975241014e+18,mouselab-mdp,4
"[14160, 14734, 15589]","[u'left', u'left', u'up']",training,"[u'0', u'9', u'10', u'11']","{u'mouseover': {u'state': {u'target': [], u'time': []}, u'edge': {u'target': [], u'time': []}}, u'click': {u'state': {u'target': [u'3', u'4', u'7', u'8', u'12', u'11', u'10', u'2', u'6'], u'time': [7789, 8528, 9105, 9754, 10580, 11070, 11849, 12371, 13117]}, u'edge': {u'target': [], u'time': []}}, u'mouseout': {u'state': {u'target': [], u'time': []}, u'edge': {u'target': [], u'time': []}}}","[2, 4, 24]","[14157, 58, 345]",21.0,"[None, None, None]","[u'', 2, -4, 24, -48, -2, -8, 24, -48, 2, 4, 24, -48]",133026,3.0,17643.0,2.65301876191e+18,mouselab-mdp,4
"[7355, 8164, 9068]","[u'right', u'right', u'down']",training,"[u'0', u'5', u'6', u'8']","{u'mouseover': {u'state': {u'target': [], u'time': []}, u'edge': {u'target': [], u'time': []}}, u'click': {u'state': {u'target': [u'4', u'3', u'7', u'8', u'12', u'11', u'10', u'6', u'2'], u'time': [1013, 1572, 2186, 2758, 3771, 4262, 4699, 5492, 6355]}, u'edge': {u'target': [], u'time': []}}, u'mouseout': {u'state': {u'target': [], u'time': []}, u'edge': {u'target': [], u'time': []}}}","[4, 8, 24]","[7353, 294, 399]",27.0,"[None, None, None]","[u'', 2, 4, 24, -24, 4, 8, -48, 24, 4, -8, -24, 24]",144990,4.0,10918.0,8.9509461883e+18,mouselab-mdp,4
"[4769, 5375, 5950]","[u'up', u'up', u'right']",training,"[u'0', u'1', u'2', u'3']","{u'mouseover': {u'state': {u'target': [], u'time': []}, u'edge': {u'target': [], u'time': []}}, u'click': {u'state': {u'target': [u'3', u'4', u'11', u'12', u'7', u'8'], u'time': [707, 1350, 1807, 2267, 2804, 3271]}, u'edge': {u'target': [], u'time': []}}, u'mouseout': {u'state': {u'target': [], u'time': []}, u'edge': {u'target': [], u'time': []}}}","[2, -4, 24]","[4767, 95, 69]",16.0,"[None, None, None]","[u'', 2, -4, 24, 24, -4, 4, -24, -24, -2, 4, -24, -48]",155601,5.0,9560.0,7.86254308938e+18,mouselab-mdp,4
"[11129, 11754, 12437]","[u'right', u'right', u'down']",training,"[u'0', u'5', u'6', u'8']","{u'mouseover': {u'state': {u'target': [], u'time': []}, u'edge': {u'target': [], u'time': []}}, u'click': {u'state': {u'target': [u'4', u'3', u'7', u'8', u'12', u'2', u'6'], u'time': [1151, 1596, 2141, 3618, 8769, 9289, 10233]}, u'edge': {u'target': [], u'time': []}}, u'mouseout': {u'state': {u'target': [], u'time': []}, u'edge': {u'target': [], u'time': []}}}","[-4, 8, 48]","[11125, 105, 170]",45.0,"[None, None, None]","[u'', 2, 4, -24, 48, -4, 8, -48, 48, 2, -4, 24, -24]",170723,6.0,14055.0,-8.3276713645e+18,mouselab-mdp,4
"[6374, 7012, 7581]","[u'up', u'up', u'right']",training,"[u'0', u'1', u'2', u'3']","{u'mouseover': {u'state': {u'target': [], u'time': []}, u'edge': {u'target': [], u'time': []}}, u'click': {u'state': {u'target': [u'3', u'4', u'7', u'8', u'2'], u'time': [1039, 1619, 2326, 3040, 5444]}, u'edge': {u'target': [], u'time': []}}, u'mouseout': {u'state': {u'target': [], u'time': []}, u'edge': {u'target': [], u'time': []}}}","[2, 8, 48]","[6372, 125, 59]",53.0,"[None, None, None]","[u'', 2, 8, 48, 24, -2, 4, 24, 24, -2, -4, -48, -24]",180635,7.0,8874.0,-8.92386760362e+18,mouselab-mdp,4
"[5278, 5871, 6462]","[u'right', u'right', u'down']",training,"[u'0', u'5', u'6', u'8']","{u'mouseover': {u'state': {u'target': [], u'time': []}, u'edge': {u'target': [], u'time': []}}, u'click': {u'state': {u'target': [u'4', u'3', u'7', u'8', u'12', u'11'], u'time': [1139, 1831, 2319, 2874, 3399, 3878]}, u'edge': {u'target': [], u'time': []}}, u'mouseout': {u'state': {u'target': [], u'time': []}, u'edge': {u'target': [], u'time': []}}}","[-2, -8, 48]","[5274, 77, 84]",32.0,"[None, None, None]","[u'', -4, -4, -48, -48, -2, -8, 24, 48, 2, 4, -24, -48]",190403,8.0,8717.0,-1.84824368346e+18,mouselab-mdp,4
"[16180, 16896, 17564]","[u'right', u'right', u'down']",training,"[u'0', u'5', u'6', u'8']","{u'mouseover': {u'state': {u'target': [], u'time': []}, u'edge': {u'target': [], u'time': []}}, u'click': {u'state': {u'target': [u'4', u'3', u'7', u'8', u'12', u'6', u'2', u'5', u'11'], u'time': [974, 1497, 2046, 2595, 6489, 7105, 7963, 13145, 13669]}, u'edge': {u'target': [], u'time': []}}, u'mouseout': {u'state': {u'target': [], u'time': []}, u'edge': {u'target': [], u'time': []}}}","[4, -8, 48]","[16177, 200, 156]",35.0,"[None, None, None]","[u'', 4, -8, 24, 48, 4, -8, -24, 48, -2, -8, 24, -24]",210493,9.0,19044.0,6.60860815513e+18,mouselab-mdp,4
"[5793, 6338, 7133]","[u'left', u'left', u'up']",training,"[u'0', u'9', u'10', u'11']","{u'mouseover': {u'state': {u'target': [], u'time': []}, u'edge': {u'target': [], u'time': []}}, u'click': {u'state': {u'target': [u'4', u'3', u'7', u'8', u'12', u'11'], u'time': [1089, 1578, 2123, 2872, 3840, 4396]}, u'edge': {u'target': [], u'time': []}}, u'mouseout': {u'state': {u'target': [], u'time': []}, u'edge': {u'target': [], u'time': []}}}","[-2, -8, 48]","[5791, 26, 281]",32.0,"[None, None, None]","[u'', -2, 8, 24, -48, 2, 4, -24, 24, -2, -8, 48, -24]",220078,10.0,8518.0,6.28255860945e+18,mouselab-mdp,4
"[10729, 11366, 12018, 12704, 13560]","[u'left', u'left', u'left', u'down', u'left']",test,"[u'0', u'23', u'24', u'25', u'30', u'33']","{u'mouseover': {u'state': {u'target': [], u'time': []}, u'edge': {u'target': [], u'time': []}}, u'click': {u'state': {u'target': [u'27', u'28', u'29', u'33'], u'time': [4332, 5124, 5874, 6561]}, u'edge': {u'target': [], u'time': []}}, u'mouseout': {u'state': {u'target': [], u'time': []}, u'edge': {u'target': [], u'time': []}}}","[1, 0, 1, -5, 58]","[10722, 142, 130, 167, 339]",51.0,"[None, None, None, None, None]","[u'', 0, 1, 0, 7, -3, 60, -35, 7, 32, 41, -4, 0, 3, 2, -5, 27, 51, 21, -6, 31, -49, 25, 1, 0, 1, 1, -17, -27, -9, -5, 48, -43, 58]",250369,11.0,15473.0,2.45129555479e+18,mouselab-mdp,4
