action_times,actions,correct,delays,path,queries,questions,responses,rt,score,time_elapsed,trial_index,trial_i,trial_type,view_history,pid
,,,,,,,,181390,,181392,,,instructions,"[{""page_index"":0,""viewing_time"":24986},{""page_index"":1,""viewing_time"":32385},{""page_index"":2,""viewing_time"":86295},{""page_index"":3,""viewing_time"":37723}]",0
,,,,,,,,50686,,50688,,,instructions,"[{""page_index"":0,""viewing_time"":40445},{""page_index"":1,""viewing_time"":4260},{""page_index"":2,""viewing_time"":4589},{""page_index"":3,""viewing_time"":1390}]",1
,,,,,,,,14545,,80198,,,instructions,"[{""page_index"":0,""viewing_time"":2247},{""page_index"":1,""viewing_time"":738},{""page_index"":2,""viewing_time"":4733},{""page_index"":3,""viewing_time"":6825}]",1
,,,,,,,,13561,,119016,,,instructions,"[{""page_index"":0,""viewing_time"":4975},{""page_index"":1,""viewing_time"":5921},{""page_index"":2,""viewing_time"":1651},{""page_index"":3,""viewing_time"":1013}]",1
,,,,,,,,21220,,21223,,,instructions,"[{""page_index"":0,""viewing_time"":6270},{""page_index"":1,""viewing_time"":5159},{""page_index"":2,""viewing_time"":2690},{""page_index"":3,""viewing_time"":7097}]",2
,,,,,,,,118735,,118736,,,instructions,"[{""page_index"":0,""viewing_time"":47891},{""page_index"":1,""viewing_time"":18338},{""page_index"":2,""viewing_time"":30933},{""page_index"":3,""viewing_time"":21573}]",3
,,,,,,,,32883,,246387,,,instructions,"[{""page_index"":0,""viewing_time"":6225},{""page_index"":1,""viewing_time"":7378},{""page_index"":2,""viewing_time"":10168},{""page_index"":1,""viewing_time"":1087},{""page_index"":0,""viewing_time"":1331},{""page_index"":1,""viewing_time"":895},{""page_index"":2,""viewing_time"":909},{""page_index"":3,""viewing_time"":4888}]",3
,,,,,,,,78432,,78433,,,instructions,"[{""page_index"":0,""viewing_time"":31192},{""page_index"":1,""viewing_time"":21021},{""page_index"":2,""viewing_time"":15535},{""page_index"":3,""viewing_time"":10683}]",4
,,,,,,,,24623,,131468,,,instructions,"[{""page_index"":0,""viewing_time"":6213},{""page_index"":1,""viewing_time"":2786},{""page_index"":2,""viewing_time"":10275},{""page_index"":3,""viewing_time"":5348}]",4
,,,,,,,,43006,,195943,,,instructions,"[{""page_index"":0,""viewing_time"":17948},{""page_index"":1,""viewing_time"":6073},{""page_index"":2,""viewing_time"":14084},{""page_index"":3,""viewing_time"":4901}]",4
,,,,,,,,18118,,236801,,,instructions,"[{""page_index"":0,""viewing_time"":3180},{""page_index"":1,""viewing_time"":1282},{""page_index"":0,""viewing_time"":495},{""page_index"":1,""viewing_time"":1171},{""page_index"":0,""viewing_time"":2673},{""page_index"":1,""viewing_time"":1595},{""page_index"":0,""viewing_time"":3149},{""page_index"":1,""viewing_time"":1307},{""page_index"":2,""viewing_time"":1495},{""page_index"":3,""viewing_time"":1771}]",4
,,,,,,,,155501,,155501,,,instructions,"[{""page_index"":0,""viewing_time"":78161},{""page_index"":1,""viewing_time"":32971},{""page_index"":2,""viewing_time"":31496},{""page_index"":3,""viewing_time"":12872}]",5
,,,,,,,,90961,,297458,,,instructions,"[{""page_index"":0,""viewing_time"":13344},{""page_index"":1,""viewing_time"":35876},{""page_index"":2,""viewing_time"":14720},{""page_index"":3,""viewing_time"":27021}]",5
,,,,,,,,192969,,192970,,,instructions,"[{""page_index"":0,""viewing_time"":73483},{""page_index"":1,""viewing_time"":48820},{""page_index"":2,""viewing_time"":43958},{""page_index"":3,""viewing_time"":26708}]",6
,,,,,,,,86895,,352438,,,instructions,"[{""page_index"":0,""viewing_time"":2948},{""page_index"":1,""viewing_time"":21903},{""page_index"":2,""viewing_time"":11492},{""page_index"":1,""viewing_time"":205},{""page_index"":0,""viewing_time"":17186},{""page_index"":1,""viewing_time"":3410},{""page_index"":2,""viewing_time"":17987},{""page_index"":3,""viewing_time"":11764}]",6
,,,,,,,,142950,,142953,,,instructions,"[{""page_index"":0,""viewing_time"":39672},{""page_index"":1,""viewing_time"":31723},{""page_index"":2,""viewing_time"":46779},{""page_index"":3,""viewing_time"":24774}]",7
,,,,,,,,33341,,33344,,,instructions,"[{""page_index"":0,""viewing_time"":10582},{""page_index"":1,""viewing_time"":10619},{""page_index"":2,""viewing_time"":7996},{""page_index"":3,""viewing_time"":4142}]",8
,,,,,,,,75706,,137467,,,instructions,"[{""page_index"":0,""viewing_time"":23417},{""page_index"":1,""viewing_time"":18813},{""page_index"":2,""viewing_time"":18684},{""page_index"":3,""viewing_time"":14790}]",8
,,,,,,,,592058,,592061,,,instructions,"[{""page_index"":0,""viewing_time"":488978},{""page_index"":1,""viewing_time"":30750},{""page_index"":0,""viewing_time"":9375},{""page_index"":1,""viewing_time"":7160},{""page_index"":2,""viewing_time"":31568},{""page_index"":3,""viewing_time"":24225}]",9
,,,,,,,,29124,,659984,,,instructions,"[{""page_index"":0,""viewing_time"":11901},{""page_index"":1,""viewing_time"":4440},{""page_index"":2,""viewing_time"":10938},{""page_index"":3,""viewing_time"":1843}]",9
,,,,,,,,78071,,78074,,,instructions,"[{""page_index"":0,""viewing_time"":25399},{""page_index"":1,""viewing_time"":21060},{""page_index"":2,""viewing_time"":22288},{""page_index"":3,""viewing_time"":9322}]",10
,,,,,,,,452654,,452656,,,instructions,"[{""page_index"":0,""viewing_time"":126744},{""page_index"":1,""viewing_time"":2589},{""page_index"":2,""viewing_time"":318238},{""page_index"":3,""viewing_time"":5081}]",11
,,,,,,,,7078,,485726,,,instructions,"[{""page_index"":0,""viewing_time"":2541},{""page_index"":1,""viewing_time"":702},{""page_index"":2,""viewing_time"":2939},{""page_index"":3,""viewing_time"":895}]",11
,,,,,,,,46092,,588724,,,instructions,"[{""page_index"":0,""viewing_time"":14119},{""page_index"":1,""viewing_time"":9551},{""page_index"":2,""viewing_time"":10144},{""page_index"":3,""viewing_time"":12276}]",11
,,,,,,,,139282,,139284,,,instructions,"[{""page_index"":0,""viewing_time"":61890},{""page_index"":1,""viewing_time"":14797},{""page_index"":2,""viewing_time"":44054},{""page_index"":3,""viewing_time"":18540}]",12
,,,,,,,,37478,,211253,,,instructions,"[{""page_index"":0,""viewing_time"":9684},{""page_index"":1,""viewing_time"":8722},{""page_index"":2,""viewing_time"":9922},{""page_index"":3,""viewing_time"":9150}]",12
,,,,,,,,86441,,323710,,,instructions,"[{""page_index"":0,""viewing_time"":19541},{""page_index"":1,""viewing_time"":26146},{""page_index"":2,""viewing_time"":35176},{""page_index"":3,""viewing_time"":5577}]",12
,,,,,,,,1133,,354452,,,instructions,"[{""page_index"":0,""viewing_time"":480},{""page_index"":1,""viewing_time"":280},{""page_index"":2,""viewing_time"":185},{""page_index"":3,""viewing_time"":187}]",12
,,,,,,,,220120,,220122,,,instructions,"[{""page_index"":0,""viewing_time"":68506},{""page_index"":1,""viewing_time"":60337},{""page_index"":2,""viewing_time"":56147},{""page_index"":3,""viewing_time"":35127}]",13
,,,,,,,,89329,,353707,,,instructions,"[{""page_index"":0,""viewing_time"":11476},{""page_index"":1,""viewing_time"":8516},{""page_index"":2,""viewing_time"":67526},{""page_index"":3,""viewing_time"":1810}]",13
,,,,,,,,142221,,142223,,,instructions,"[{""page_index"":0,""viewing_time"":73771},{""page_index"":1,""viewing_time"":29080},{""page_index"":2,""viewing_time"":24898},{""page_index"":3,""viewing_time"":14472}]",14
,,,,,,,,9725,,178319,,,instructions,"[{""page_index"":0,""viewing_time"":5101},{""page_index"":1,""viewing_time"":2495},{""page_index"":2,""viewing_time"":1209},{""page_index"":3,""viewing_time"":919}]",14
,,,,,,,,21645,,219592,,,instructions,"[{""page_index"":0,""viewing_time"":5444},{""page_index"":1,""viewing_time"":14208},{""page_index"":2,""viewing_time"":1129},{""page_index"":3,""viewing_time"":863}]",14
,,,,,,,,190628,,190628,,,instructions,"[{""page_index"":0,""viewing_time"":44226},{""page_index"":1,""viewing_time"":34877},{""page_index"":2,""viewing_time"":67119},{""page_index"":3,""viewing_time"":44405}]",15
