action_times,actions,correct,delays,path,queries,questions,responses,rt,score,time_elapsed,trial_index,trial_i,trial_type,view_history,pid
"[11887, 25236, 48932]","[u'right', u'right', u'down']",,"[1, 3, 0]","[1, 2, 6, 11]","{u'mouseover': {u'state': {u'target': [], u'time': []}, u'edge': {u'target': [], u'time': []}}, u'click': {u'state': {u'target': [u'2', u'6', u'10', u'11'], u'time': [6038, 20438, 31366, 32889]}, u'edge': {u'target': [], u'time': []}}, u'mouseout': {u'state': {u'target': [], u'time': []}, u'edge': {u'target': [], u'time': []}}}",,,"[11886, 11075, 19882]",-0.4,280083,1.0,5.0,mouselab-mdp,,0
"[32378, 37522, 40140]","[u'down', u'down', u'right']",,"[2, 0, 0]","[1, 5, 9, 17]","{u'mouseover': {u'state': {u'target': [], u'time': []}, u'edge': {u'target': [], u'time': []}}, u'click': {u'state': {u'target': [u'2', u'11', u'3', u'13', u'4', u'15', u'5', u'17', u'9'], u'time': [12366, 14308, 17426, 18634, 21652, 22828, 25639, 26922, 31191]}, u'edge': {u'target': [], u'time': []}}, u'mouseout': {u'state': {u'target': [], u'time': []}, u'edge': {u'target': [], u'time': []}}}",,,"[32378, 1241, 1952]",19.6,336411,2.0,7.0,mouselab-mdp,,0
"[29324, 33651, 36526]","[u'left', u'left', u'down']",,"[2, 0, 0]","[1, 4, 8, 15]","{u'mouseover': {u'state': {u'target': [], u'time': []}, u'edge': {u'target': [], u'time': []}}, u'click': {u'state': {u'target': [u'13', u'11', u'17', u'15', u'4', u'8'], u'time': [4043, 6518, 9133, 11015, 13873, 25410]}, u'edge': {u'target': [], u'time': []}}, u'mouseout': {u'state': {u'target': [], u'time': []}, u'edge': {u'target': [], u'time': []}}}",,,"[29323, 650, 2218]",4.4,390717,3.0,1.0,mouselab-mdp,,0
"[37357, 40132, 41956]","[u'right', u'right', u'up']",,"[0, 0, 0]","[1, 2, 6, 10]","{u'mouseover': {u'state': {u'target': [], u'time': []}, u'edge': {u'target': [], u'time': []}}, u'click': {u'state': {u'target': [u'11', u'17', u'15', u'13', u'5', u'2', u'4', u'10'], u'time': [2941, 5221, 7559, 10316, 14467, 16281, 18646, 36155]}, u'edge': {u'target': [], u'time': []}}, u'mouseout': {u'state': {u'target': [], u'time': []}, u'edge': {u'target': [], u'time': []}}}",,,"[37356, 891, 1191]",9.2,440150,4.0,10.0,mouselab-mdp,,0
"[14388, 21204, 23100]","[u'right', u'right', u'up']",,"[4, 0, 0]","[1, 2, 6, 10]","{u'mouseover': {u'state': {u'target': [], u'time': []}, u'edge': {u'target': [], u'time': []}}, u'click': {u'state': {u'target': [u'10', u'2', u'6'], u'time': [3317, 6140, 8094]}, u'edge': {u'target': [], u'time': []}}, u'mouseout': {u'state': {u'target': [], u'time': []}, u'edge': {u'target': [], u'time': []}}}",,,"[14388, 1331, 1220]",29.2,491767,5.0,2.0,mouselab-mdp,,0
"[25832, 30633, 32361]","[u'up', u'up', u'right']",,"[1, 0, 3]","[1, 3, 7, 13]","{u'mouseover': {u'state': {u'target': [], u'time': []}, u'edge': {u'target': [], u'time': []}}, u'click': {u'state': {u'target': [u'10', u'14', u'4', u'8', u'17', u'13', u'3'], u'time': [1739, 4152, 6864, 12320, 15864, 18451, 24659]}, u'edge': {u'target': [], u'time': []}}, u'mouseout': {u'state': {u'target': [], u'time': []}, u'edge': {u'target': [], u'time': []}}}",,,"[25831, 1968, 1072]",-2.2,543841,6.0,6.0,mouselab-mdp,,0
"[15584, 17436, 18940]","[u'left', u'left', u'down']",,"[0, 0, 0]","[1, 4, 8, 15]","{u'mouseover': {u'state': {u'target': [], u'time': []}, u'edge': {u'target': [], u'time': []}}, u'click': {u'state': {u'target': [u'11', u'17', u'15', u'4', u'8'], u'time': [3643, 7261, 9616, 12447, 14344]}, u'edge': {u'target': [], u'time': []}}, u'mouseout': {u'state': {u'target': [], u'time': []}, u'edge': {u'target': [], u'time': []}}}",,,"[15584, 167, 846]",32.0,592249,7.0,0.0,mouselab-mdp,,0
"[17103, 19624, 21128]","[u'up', u'up', u'left']",,"[0, 0, 0]","[1, 3, 7, 12]","{u'mouseover': {u'state': {u'target': [], u'time': []}, u'edge': {u'target': [], u'time': []}}, u'click': {u'state': {u'target': [u'10', u'2', u'17', u'15', u'12', u'3'], u'time': [3719, 5712, 8278, 10672, 12909, 15206]}, u'edge': {u'target': [], u'time': []}}, u'mouseout': {u'state': {u'target': [], u'time': []}, u'edge': {u'target': [], u'time': []}}}",,,"[17102, 723, 814]",27.4,640931,8.0,9.0,mouselab-mdp,,0
"[17388, 19740, 21597]","[u'down', u'down', u'right']",,"[0, 0, 0]","[1, 5, 9, 17]","{u'mouseover': {u'state': {u'target': [], u'time': []}, u'edge': {u'target': [], u'time': []}}, u'click': {u'state': {u'target': [u'10', u'17', u'15', u'5'], u'time': [4856, 11355, 14098, 15893]}, u'edge': {u'target': [], u'time': []}}, u'mouseout': {u'state': {u'target': [], u'time': []}, u'edge': {u'target': [], u'time': []}}}",,,"[17387, 817, 1196]",11.6,692757,9.0,11.0,mouselab-mdp,,0
"[15789, 20861, 22381]","[u'right', u'right', u'up']",,"[3, 0, 0]","[1, 2, 6, 10]","{u'mouseover': {u'state': {u'target': [], u'time': []}, u'edge': {u'target': [], u'time': []}}, u'click': {u'state': {u'target': [u'10', u'17', u'2', u'15', u'4'], u'time': [1770, 3470, 5879, 8421, 10410]}, u'edge': {u'target': [], u'time': []}}, u'mouseout': {u'state': {u'target': [], u'time': []}, u'edge': {u'target': [], u'time': []}}}",,,"[15788, 390, 841]",26.0,753165,10.0,3.0,mouselab-mdp,,0
"[14231, 33463, 35848]","[u'down', u'down', u'left']",,"[15, 0, 0]","[1, 5, 9, 16]","{u'mouseover': {u'state': {u'target': [], u'time': []}, u'edge': {u'target': [], u'time': []}}, u'click': {u'state': {u'target': [u'13', u'3', u'10', u'2', u'17'], u'time': [1225, 4679, 6833, 8535, 11803]}, u'edge': {u'target': [], u'time': []}}, u'mouseout': {u'state': {u'target': [], u'time': []}, u'edge': {u'target': [], u'time': []}}}",,,"[14231, 2605, 1705]",4.0,821552,11.0,8.0,mouselab-mdp,,0
"[12933, 15303, 17245]","[u'down', u'down', u'right']",,"[0, 0, 0]","[1, 5, 9, 17]","{u'mouseover': {u'state': {u'target': [], u'time': []}, u'edge': {u'target': [], u'time': []}}, u'click': {u'state': {u'target': [u'13', u'10', u'17', u'2', u'5'], u'time': [969, 6789, 8608, 10342, 11757]}, u'edge': {u'target': [], u'time': []}}, u'mouseout': {u'state': {u'target': [], u'time': []}, u'edge': {u'target': [], u'time': []}}}",,,"[12933, 752, 1255]",34.0,869449,12.0,4.0,mouselab-mdp,,0
"[27092, 53051, 67431]","[u'up', u'up', u'left']",,"[20, 0, 0]","[1, 3, 7, 12]","{u'mouseover': {u'state': {u'target': [], u'time': []}, u'edge': {u'target': [], u'time': []}}, u'click': {u'state': {u'target': [u'2', u'6', u'11', u'10', u'5', u'9', u'17', u'16', u'4', u'8', u'15', u'14', u'3', u'7', u'13', u'12'], u'time': [2301, 2750, 3238, 3874, 4871, 5516, 6091, 7268, 8010, 8662, 9010, 9873, 10522, 10861, 11187, 11722]}, u'edge': {u'target': [], u'time': []}}, u'mouseout': {u'state': {u'target': [], u'time': []}, u'edge': {u'target': [], u'time': []}}}",,,"[27091, 608, 13865]",15.4,202726,1.0,8.0,mouselab-mdp,,1
"[30275, 44842, 50396]","[u'right', u'right', u'down']",,"[9, 0, 0]","[1, 2, 6, 11]","{u'mouseover': {u'state': {u'target': [], u'time': []}, u'edge': {u'target': [], u'time': []}}, u'click': {u'state': {u'target': [u'5', u'9', u'17', u'16', u'2', u'6', u'11', u'10'], u'time': [4783, 5719, 6406, 7256, 18227, 19075, 19673, 21593]}, u'edge': {u'target': [], u'time': []}}, u'mouseout': {u'state': {u'target': [], u'time': []}, u'edge': {u'target': [], u'time': []}}}",,,"[30274, 975, 4719]",25.2,262969,2.0,11.0,mouselab-mdp,,1
"[35880, 49230, 87533]","[u'left', u'left', u'up']",,"[8, 0, 15]","[1, 4, 8, 14]","{u'mouseover': {u'state': {u'target': [], u'time': []}, u'edge': {u'target': [], u'time': []}}, u'click': {u'state': {u'target': [u'4', u'8', u'15', u'14'], u'time': [1568, 2658, 3578, 4496]}, u'edge': {u'target': [], u'time': []}}, u'mouseout': {u'state': {u'target': [], u'time': []}, u'edge': {u'target': [], u'time': []}}}",,,"[35880, 1488, 37347]",1.6,370659,3.0,9.0,mouselab-mdp,,1
"[13647, 35552, 40056]","[u'left', u'left', u'up']",,"[16, 0, 0]","[1, 4, 8, 14]","{u'mouseover': {u'state': {u'target': [], u'time': []}, u'edge': {u'target': [], u'time': []}}, u'click': {u'state': {u'target': [u'2', u'6', u'11', u'10', u'5', u'9', u'17', u'16', u'3', u'7', u'12', u'13', u'4', u'8', u'15', u'14'], u'time': [2118, 2814, 3376, 4100, 5180, 5641, 6160, 6987, 7834, 8100, 8650, 9175, 9964, 10420, 11078, 11692]}, u'edge': {u'target': [], u'time': []}}, u'mouseout': {u'state': {u'target': [], u'time': []}, u'edge': {u'target': [], u'time': []}}}",,,"[13647, 608, 3995]",8.4,441592,4.0,5.0,mouselab-mdp,,1
"[35324, 41871, 46521]","[u'down', u'down', u'left']",,"[2, 0, 0]","[1, 5, 9, 16]","{u'mouseover': {u'state': {u'target': [], u'time': []}, u'edge': {u'target': [], u'time': []}}, u'click': {u'state': {u'target': [u'5', u'9', u'16'], u'time': [4001, 6388, 7876]}, u'edge': {u'target': [], u'time': []}}, u'mouseout': {u'state': {u'target': [], u'time': []}, u'edge': {u'target': [], u'time': []}}}",,,"[35324, 646, 3565]",29.2,510864,5.0,7.0,mouselab-mdp,,1
"[8229, 25250, 31534]","[u'left', u'left', u'down']",,"[3, 0, 0]","[1, 4, 8, 15]","{u'mouseover': {u'state': {u'target': [], u'time': []}, u'edge': {u'target': [], u'time': []}}, u'click': {u'state': {u'target': [u'4', u'8', u'15'], u'time': [1466, 2413, 4050]}, u'edge': {u'target': [], u'time': []}}, u'mouseout': {u'state': {u'target': [], u'time': []}, u'edge': {u'target': [], u'time': []}}}",,,"[8229, 10203, 5209]",35.2,565040,6.0,0.0,mouselab-mdp,,1
"[11251, 19030, 21204]","[u'down', u'down', u'right']",,"[1, 0, 0]","[1, 5, 9, 17]","{u'mouseover': {u'state': {u'target': [], u'time': []}, u'edge': {u'target': [], u'time': []}}, u'click': {u'state': {u'target': [u'3', u'2', u'5', u'9', u'16', u'17'], u'time': [2460, 5958, 7243, 8037, 8871, 9751]}, u'edge': {u'target': [], u'time': []}}, u'mouseout': {u'state': {u'target': [], u'time': []}, u'edge': {u'target': [], u'time': []}}}",,,"[11251, 2322, 1208]",32.4,616954,7.0,4.0,mouselab-mdp,,1
"[16153, 29850, 34712]","[u'right', u'right', u'up']",,"[8, 0, 0]","[1, 2, 6, 10]","{u'mouseover': {u'state': {u'target': [], u'time': []}, u'edge': {u'target': [], u'time': []}}, u'click': {u'state': {u'target': [u'4', u'8', u'15', u'14', u'2', u'6', u'11', u'10'], u'time': [2163, 3550, 4470, 5328, 6781, 7439, 7949, 9044]}, u'edge': {u'target': [], u'time': []}}, u'mouseout': {u'state': {u'target': [], u'time': []}, u'edge': {u'target': [], u'time': []}}}",,,"[16152, 1086, 4057]",21.2,679386,8.0,2.0,mouselab-mdp,,1
"[14636, 22814, 30173]","[u'right', u'right', u'down']",,"[2, 0, 0]","[1, 2, 6, 11]","{u'mouseover': {u'state': {u'target': [], u'time': []}, u'edge': {u'target': [], u'time': []}}, u'click': {u'state': {u'target': [u'3', u'7', u'13', u'12', u'2', u'6', u'11'], u'time': [5544, 6735, 7465, 8413, 9311, 9952, 10475]}, u'edge': {u'target': [], u'time': []}}, u'mouseout': {u'state': {u'target': [], u'time': []}, u'edge': {u'target': [], u'time': []}}}",,,"[14636, 1630, 6428]",26.8,804583,9.0,6.0,mouselab-mdp,,1
"[21997, 30114, 37043]","[u'down', u'down', u'left']",,"[0, 0, 0]","[1, 5, 9, 16]","{u'mouseover': {u'state': {u'target': [], u'time': []}, u'edge': {u'target': [], u'time': []}}, u'click': {u'state': {u'target': [u'3', u'7', u'12', u'13', u'2', u'6', u'5', u'9', u'17', u'16'], u'time': [3439, 4289, 5102, 5980, 7021, 7458, 8426, 8913, 9531, 10154]}, u'edge': {u'target': [], u'time': []}}, u'mouseout': {u'state': {u'target': [], u'time': []}, u'edge': {u'target': [], u'time': []}}}",,,"[21997, 2641, 6109]",30.0,857435,10.0,1.0,mouselab-mdp,,1
"[49700, 65327, 70288]","[u'right', u'right', u'up']",,"[9, 0, 0]","[1, 2, 6, 10]","{u'mouseover': {u'state': {u'target': [], u'time': []}, u'edge': {u'target': [], u'time': []}}, u'click': {u'state': {u'target': [u'4', u'8', u'2', u'6', u'11', u'10', u'5', u'9', u'3', u'7', u'13', u'12', u'17', u'16', u'15', u'14'], u'time': [12431, 13425, 14330, 14872, 15746, 16354, 17359, 17861, 18724, 19135, 19581, 20206, 28119, 28886, 29957, 31147]}, u'edge': {u'target': [], u'time': []}}, u'mouseout': {u'state': {u'target': [], u'time': []}, u'edge': {u'target': [], u'time': []}}}",,,"[49700, 958, 4445]",-3.6,931754,11.0,10.0,mouselab-mdp,,1
"[10997, 22693, 24437]","[u'right', u'right', u'up']",,"[4, 0, 0]","[1, 2, 6, 10]","{u'mouseover': {u'state': {u'target': [], u'time': []}, u'edge': {u'target': [], u'time': []}}, u'click': {u'state': {u'target': [u'2', u'6', u'11', u'10'], u'time': [4675, 5283, 5944, 6733]}, u'edge': {u'target': [], u'time': []}}, u'mouseout': {u'state': {u'target': [], u'time': []}, u'edge': {u'target': [], u'time': []}}}",,,"[10997, 3909, 796]",27.6,999226,12.0,3.0,mouselab-mdp,,1
"[2043, 9226, 18227]","[u'right', u'right', u'up']",,"[0, 3, 0]","[1, 2, 6, 10]","{u'mouseover': {u'state': {u'target': [], u'time': []}, u'edge': {u'target': [], u'time': []}}, u'click': {u'state': {u'target': [u'6'], u'time': [9312]}, u'edge': {u'target': [], u'time': []}}, u'mouseout': {u'state': {u'target': [], u'time': []}, u'edge': {u'target': [], u'time': []}}}",,,"[2041, 12, 2504]",19.2,259915,1.0,4.0,mouselab-mdp,,2
"[3786, 13764, 21504]","[u'right', u'right', u'up']",,"[5, 3, 5]","[1, 2, 6, 10]","{u'mouseover': {u'state': {u'target': [], u'time': []}, u'edge': {u'target': [], u'time': []}}, u'click': {u'state': {u'target': [u'6', u'11', u'10'], u'time': [12340, 18934, 20818]}, u'edge': {u'target': [], u'time': []}}, u'mouseout': {u'state': {u'target': [], u'time': []}, u'edge': {u'target': [], u'time': []}}}",,,"[3786, 3028, 3599]",23.2,431217,1.0,8.0,mouselab-mdp,,3
"[8016, 14252, 77611]","[u'left', u'left', u'down']",,"[0, 13, 6]","[1, 4, 8, 15]","{u'mouseover': {u'state': {u'target': [], u'time': []}, u'edge': {u'target': [], u'time': []}}, u'click': {u'state': {u'target': [u'3', u'5', u'2', u'4', u'8', u'15', u'14'], u'time': [1848, 2943, 5522, 6831, 10838, 12896, 13621]}, u'edge': {u'target': [], u'time': []}}, u'mouseout': {u'state': {u'target': [], u'time': []}, u'edge': {u'target': [], u'time': []}}}",,,"[8016, 3419, 48692]",-3.2,523201,2.0,4.0,mouselab-mdp,,3
"[4937, 11995, 17897]","[u'up', u'up', u'left']",,"[1, 3, 0]","[1, 3, 7, 12]","{u'mouseover': {u'state': {u'target': [], u'time': []}, u'edge': {u'target': [], u'time': []}}, u'click': {u'state': {u'target': [u'3', u'5', u'7', u'13', u'12'], u'time': [2268, 3184, 10007, 16784, 17352]}, u'edge': {u'target': [], u'time': []}}, u'mouseout': {u'state': {u'target': [], u'time': []}, u'edge': {u'target': [], u'time': []}}}",,,"[4937, 3350, 1757]",11.0,583118,3.0,7.0,mouselab-mdp,,3
"[5649, 14666, 23188]","[u'right', u'right', u'down']",,"[3, 6, 0]","[1, 2, 6, 11]","{u'mouseover': {u'state': {u'target': [], u'time': []}, u'edge': {u'target': [], u'time': []}}, u'click': {u'state': {u'target': [u'2', u'4', u'5', u'6', u'10', u'11'], u'time': [1667, 2995, 4917, 12311, 14230, 22680]}, u'edge': {u'target': [], u'time': []}}, u'mouseout': {u'state': {u'target': [], u'time': []}, u'edge': {u'target': [], u'time': []}}}",,,"[5649, 3320, 1070]",28.4,649846,4.0,11.0,mouselab-mdp,,3
"[3422, 10042, 15979]","[u'up', u'up', u'right']",,"[2, 0, 0]","[1, 3, 7, 13]","{u'mouseover': {u'state': {u'target': [], u'time': []}, u'edge': {u'target': [], u'time': []}}, u'click': {u'state': {u'target': [u'4', u'3', u'2', u'13', u'12', u'7'], u'time': [1250, 1856, 2820, 12787, 13674, 17868]}, u'edge': {u'target': [], u'time': []}}, u'mouseout': {u'state': {u'target': [], u'time': []}, u'edge': {u'target': [], u'time': []}}}",,,"[3422, 2069, 5051]",-8.6,718461,5.0,5.0,mouselab-mdp,,3
"[3729, 11622, 45346]","[u'down', u'down', u'right']",,"[0, 3, 6]","[1, 5, 9, 17]","{u'mouseover': {u'state': {u'target': [], u'time': []}, u'edge': {u'target': [], u'time': []}}, u'click': {u'state': {u'target': [u'2', u'5', u'9', u'16', u'17'], u'time': [2362, 2793, 10357, 16372, 16915]}, u'edge': {u'target': [], u'time': []}}, u'mouseout': {u'state': {u'target': [], u'time': []}, u'edge': {u'target': [], u'time': []}}}",,,"[3729, 5073, 29442]",2.0,786537,6.0,0.0,mouselab-mdp,,3
"[4882, 11385, 15665]","[u'right', u'right', u'down']",,"[3, 0, 0]","[1, 2, 6, 11]","{u'mouseover': {u'state': {u'target': [], u'time': []}, u'edge': {u'target': [], u'time': []}}, u'click': {u'state': {u'target': [u'2', u'6', u'4', u'8', u'10', u'11'], u'time': [1701, 2182, 2906, 4086, 14485, 15123]}, u'edge': {u'target': [], u'time': []}}, u'mouseout': {u'state': {u'target': [], u'time': []}, u'edge': {u'target': [], u'time': []}}}",,,"[4882, 647, 3365]",28.4,857823,7.0,6.0,mouselab-mdp,,3
"[6559, 15503, 18173]","[u'left', u'left', u'down']",,"[5, 0, 5]","[1, 4, 8, 15]","{u'mouseover': {u'state': {u'target': [], u'time': []}, u'edge': {u'target': [], u'time': []}}, u'click': {u'state': {u'target': [u'3', u'5', u'2', u'4', u'8', u'7', u'15', u'14'], u'time': [1041, 1531, 2426, 3148, 4952, 5538, 16955, 17606]}, u'edge': {u'target': [], u'time': []}}, u'mouseout': {u'state': {u'target': [], u'time': []}, u'edge': {u'target': [], u'time': []}}}",,,"[6559, 712, 1791]",15.2,932541,8.0,9.0,mouselab-mdp,,3
"[4785, 10320, 13837]","[u'down', u'down', u'left']",,"[0, 0, 0]","[1, 5, 9, 16]","{u'mouseover': {u'state': {u'target': [], u'time': []}, u'edge': {u'target': [], u'time': []}}, u'click': {u'state': {u'target': [u'2', u'5', u'4', u'9', u'6', u'17', u'16'], u'time': [1431, 2028, 2775, 3455, 4019, 12126, 12607]}, u'edge': {u'target': [], u'time': []}}, u'mouseout': {u'state': {u'target': [], u'time': []}, u'edge': {u'target': [], u'time': []}}}",,,"[4785, 2546, 2601]",-5.2,1016469,9.0,3.0,mouselab-mdp,,3
"[7798, 10926, 13701]","[u'right', u'right', u'up']",,"[0, 0, 5]","[1, 2, 6, 10]","{u'mouseover': {u'state': {u'target': [], u'time': []}, u'edge': {u'target': [], u'time': []}}, u'click': {u'state': {u'target': [u'2', u'4', u'3', u'5', u'6', u'11', u'10'], u'time': [1470, 2683, 3278, 3834, 5563, 12598, 13119]}, u'edge': {u'target': [], u'time': []}}, u'mouseout': {u'state': {u'target': [], u'time': []}, u'edge': {u'target': [], u'time': []}}}",,,"[7798, 4, 1859]",10.8,1093577,10.0,10.0,mouselab-mdp,,3
"[6684, 9516, 19293]","[u'down', u'down', u'right']",,"[0, 6, 0]","[1, 5, 9, 17]","{u'mouseover': {u'state': {u'target': [], u'time': []}, u'edge': {u'target': [], u'time': []}}, u'click': {u'state': {u'target': [u'4', u'5', u'3', u'2', u'9', u'17', u'16'], u'time': [3595, 4595, 5284, 5793, 9411, 17665, 18453]}, u'edge': {u'target': [], u'time': []}}, u'mouseout': {u'state': {u'target': [], u'time': []}, u'edge': {u'target': [], u'time': []}}}",,,"[6684, 109, 2436]",-7.2,1158640,11.0,2.0,mouselab-mdp,,3
"[2089, 6956, 13487]","[u'up', u'up', u'right']",,"[0, 3, 0]","[1, 3, 7, 13]","{u'mouseover': {u'state': {u'target': [], u'time': []}, u'edge': {u'target': [], u'time': []}}, u'click': {u'state': {u'target': [u'2', u'3', u'7', u'13', u'12'], u'time': [571, 1075, 6468, 11628, 12077]}, u'edge': {u'target': [], u'time': []}}, u'mouseout': {u'state': {u'target': [], u'time': []}, u'edge': {u'target': [], u'time': []}}}",,,"[2089, 2401, 2244]",13.0,1223494,12.0,1.0,mouselab-mdp,,3
"[10494, 16808, 18428]","[u'right', u'right', u'down']",,"[3, 0, 0]","[1, 2, 6, 11]","{u'mouseover': {u'state': {u'target': [], u'time': []}, u'edge': {u'target': [], u'time': []}}, u'click': {u'state': {u'target': [u'2', u'3', u'12', u'7', u'13', u'10', u'6', u'11', u'17', u'9', u'16', u'5', u'1', u'4', u'8', u'15', u'14'], u'time': [3335, 4409, 5317, 6230, 6646, 7296, 7709, 8092, 22623, 23136, 23601, 24422, 24936, 25648, 26138, 26546, 27310]}, u'edge': {u'target': [], u'time': []}}, u'mouseout': {u'state': {u'target': [], u'time': []}, u'edge': {u'target': [], u'time': []}}}",,,"[10493, 565, 970]",37.83,303358,1.0,6.0,mouselab-mdp,,4
"[13200, 15934, 17742]","[u'left', u'left', u'down']",,"[0, 0, 0]","[1, 4, 8, 15]","{u'mouseover': {u'state': {u'target': [], u'time': []}, u'edge': {u'target': [], u'time': []}}, u'click': {u'state': {u'target': [u'12', u'7', u'13', u'14', u'8', u'15', u'4', u'3', u'2', u'10', u'6', u'11', u'17', u'9', u'5', u'16'], u'time': [1630, 2575, 3561, 4335, 4792, 5247, 5793, 6684, 7457, 7999, 8418, 8779, 9380, 10317, 10735, 11698]}, u'edge': {u'target': [], u'time': []}}, u'mouseout': {u'state': {u'target': [], u'time': []}, u'edge': {u'target': [], u'time': []}}}",,,"[13200, 2, 1310]",39.84,374924,2.0,0.0,mouselab-mdp,,4
"[14521, 18209, 19285]","[u'up', u'up', u'left']",,"[0, 0, 0]","[1, 3, 7, 12]","{u'mouseover': {u'state': {u'target': [], u'time': []}, u'edge': {u'target': [], u'time': []}}, u'click': {u'state': {u'target': [u'12', u'7', u'13', u'3', u'14', u'8', u'4', u'15', u'16', u'9', u'5', u'17', u'11', u'6', u'10', u'2'], u'time': [2379, 2860, 3341, 3958, 4632, 5057, 5493, 6095, 7344, 8483, 8964, 9504, 10313, 10850, 11356, 12069]}, u'edge': {u'target': [], u'time': []}}, u'mouseout': {u'state': {u'target': [], u'time': []}, u'edge': {u'target': [], u'time': []}}}",,,"[14521, 9, 588]",40.84,425709,3.0,8.0,mouselab-mdp,,4
"[18678, 22007, 23363]","[u'right', u'right', u'down']",,"[0, 0, 0]","[1, 2, 6, 11]","{u'mouseover': {u'state': {u'target': [], u'time': []}, u'edge': {u'target': [], u'time': []}}, u'click': {u'state': {u'target': [u'12', u'7', u'13', u'3', u'10', u'6', u'11', u'2', u'17', u'5', u'9', u'16', u'4', u'15', u'8', u'14'], u'time': [4580, 5669, 6086, 6647, 7480, 7990, 8723, 9569, 11833, 12666, 13199, 13757, 15703, 16294, 16751, 17296]}, u'edge': {u'target': [], u'time': []}}, u'mouseout': {u'state': {u'target': [], u'time': []}, u'edge': {u'target': [], u'time': []}}}",,,"[18678, 5, 856]",37.84,475115,4.0,11.0,mouselab-mdp,,4
"[27974, 39542, 40957]","[u'right', u'right', u'up']",,"[1, 0, 0]","[1, 2, 6, 10]","{u'mouseover': {u'state': {u'target': [], u'time': []}, u'edge': {u'target': [], u'time': []}}, u'click': {u'state': {u'target': [u'12', u'13', u'10', u'6', u'2', u'11', u'9', u'8', u'14', u'15', u'4', u'5', u'16', u'17', u'3', u'7'], u'time': [912, 5778, 7202, 8215, 8810, 9551, 13430, 14745, 15918, 16776, 17489, 24073, 25513, 26610, 36986, 37673]}, u'edge': {u'target': [], u'time': []}}, u'mouseout': {u'state': {u'target': [], u'time': []}, u'edge': {u'target': [], u'time': []}}}",,,"[27974, 7069, 836]",33.84,527223,5.0,3.0,mouselab-mdp,,4
"[11432, 14588, 15776]","[u'up', u'up', u'left']",,"[0, 0, 0]","[1, 3, 7, 12]","{u'mouseover': {u'state': {u'target': [], u'time': []}, u'edge': {u'target': [], u'time': []}}, u'click': {u'state': {u'target': [u'3', u'7', u'12', u'13', u'2', u'5', u'4', u'8', u'15', u'14'], u'time': [1431, 2520, 3073, 4163, 5302, 6115, 6845, 8220, 8903, 9842]}, u'edge': {u'target': [], u'time': []}}, u'mouseout': {u'state': {u'target': [], u'time': []}, u'edge': {u'target': [], u'time': []}}}",,,"[11431, 2, 516]",36.9,580955,6.0,9.0,mouselab-mdp,,4
"[16975, 21892, 23690]","[u'right', u'right', u'up']",,"[1, 0, 0]","[1, 2, 6, 10]","{u'mouseover': {u'state': {u'target': [], u'time': []}, u'edge': {u'target': [], u'time': []}}, u'click': {u'state': {u'target': [u'3', u'4', u'5', u'2', u'6', u'10', u'11', u'8', u'7', u'12', u'13', u'9'], u'time': [1224, 1856, 2450, 3046, 3956, 5008, 5691, 7399, 8465, 9714, 10391, 11718]}, u'edge': {u'target': [], u'time': []}}, u'mouseout': {u'state': {u'target': [], u'time': []}, u'edge': {u'target': [], u'time': []}}}",,,"[16975, 298, 1120]",21.88,642262,7.0,10.0,mouselab-mdp,,4
"[13810, 17737, 18561]","[u'left', u'left', u'up']",,"[0, 0, 0]","[1, 4, 8, 14]","{u'mouseover': {u'state': {u'target': [], u'time': []}, u'edge': {u'target': [], u'time': []}}, u'click': {u'state': {u'target': [u'4', u'3', u'2', u'5', u'7', u'8', u'6', u'9', u'11', u'10', u'14', u'15'], u'time': [2526, 3295, 3840, 4639, 5824, 6738, 7629, 8405, 9437, 10141, 11182, 12352]}, u'edge': {u'target': [], u'time': []}}, u'mouseout': {u'state': {u'target': [], u'time': []}, u'edge': {u'target': [], u'time': []}}}",,,"[13810, 11, 137]",33.88,695484,8.0,5.0,mouselab-mdp,,4
"[13514, 17869, 18589]","[u'down', u'down', u'left']",,"[0, 0, 0]","[1, 5, 9, 16]","{u'mouseover': {u'state': {u'target': [], u'time': []}, u'edge': {u'target': [], u'time': []}}, u'click': {u'state': {u'target': [u'4', u'3', u'2', u'5', u'9', u'8', u'7', u'6', u'13', u'12', u'16', u'17'], u'time': [1730, 2324, 3016, 3556, 4583, 5440, 6247, 7141, 9491, 10510, 11281, 11999]}, u'edge': {u'target': [], u'time': []}}, u'mouseout': {u'state': {u'target': [], u'time': []}, u'edge': {u'target': [], u'time': []}}}",,,"[13514, 12, 38]",45.88,744220,9.0,1.0,mouselab-mdp,,4
"[15355, 19003, 19675]","[u'down', u'down', u'right']",,"[0, 0, 0]","[1, 5, 9, 17]","{u'mouseover': {u'state': {u'target': [], u'time': []}, u'edge': {u'target': [], u'time': []}}, u'click': {u'state': {u'target': [u'3', u'2', u'5', u'4', u'8', u'15', u'14', u'9', u'16', u'17', u'7', u'6'], u'time': [2402, 3155, 3820, 4673, 5646, 6533, 7647, 8647, 9303, 9960, 13928, 14642]}, u'edge': {u'target': [], u'time': []}}, u'mouseout': {u'state': {u'target': [], u'time': []}, u'edge': {u'target': [], u'time': []}}}",,,"[15354, 4, 2]",41.88,793925,10.0,4.0,mouselab-mdp,,4
"[13904, 17589, 19454]","[u'down', u'down', u'left']",,"[0, 0, 0]","[1, 5, 9, 16]","{u'mouseover': {u'state': {u'target': [], u'time': []}, u'edge': {u'target': [], u'time': []}}, u'click': {u'state': {u'target': [u'3', u'2', u'5', u'4', u'7', u'6', u'9', u'17', u'16', u'10', u'11'], u'time': [1280, 1927, 2737, 3595, 5024, 6045, 7206, 8220, 9262, 10801, 11541]}, u'edge': {u'target': [], u'time': []}}, u'mouseout': {u'state': {u'target': [], u'time': []}, u'edge': {u'target': [], u'time': []}}}",,,"[13903, 7, 1209]",33.89,843399,11.0,7.0,mouselab-mdp,,4
"[12471, 18108, 20128]","[u'right', u'right', u'up']",,"[0, 0, 0]","[1, 2, 6, 10]","{u'mouseover': {u'state': {u'target': [], u'time': []}, u'edge': {u'target': [], u'time': []}}, u'click': {u'state': {u'target': [u'3', u'2', u'5', u'4', u'8', u'14', u'15', u'9', u'6', u'11', u'10'], u'time': [1664, 2930, 3664, 4362, 5163, 6096, 6792, 8059, 9396, 10094, 10838]}, u'edge': {u'target': [], u'time': []}}, u'mouseout': {u'state': {u'target': [], u'time': []}, u'edge': {u'target': [], u'time': []}}}",,,"[12471, 48, 28]",33.89,906987,12.0,2.0,mouselab-mdp,,4
"[74932, 79591, 81839]","[u'right', u'right', u'down']",,"[0, 0, 0]","[1, 2, 6, 11]","{u'mouseover': {u'state': {u'target': [], u'time': []}, u'edge': {u'target': [], u'time': []}}, u'click': {u'state': {u'target': [u'5', u'9', u'17', u'11', u'2', u'6', u'10', u'3', u'7', u'12', u'4', u'14', u'8', u'15', u'16', u'13'], u'time': [6513, 9209, 14852, 17726, 22393, 24716, 26421, 29763, 31680, 32969, 36483, 39487, 40873, 42362, 46910, 48634]}, u'edge': {u'target': [], u'time': []}}, u'mouseout': {u'state': {u'target': [], u'time': []}, u'edge': {u'target': [], u'time': []}}}",,,"[74932, 40, 1726]",-6.8,445675,1.0,6.0,mouselab-mdp,,5
"[5176, 12592, 17386]","[u'down', u'down', u'right']",,"[0, 0, 0]","[1, 5, 9, 17]","{u'mouseover': {u'state': {u'target': [], u'time': []}, u'edge': {u'target': [], u'time': []}}, u'click': {u'state': {u'target': [], u'time': []}, u'edge': {u'target': [], u'time': []}}, u'mouseout': {u'state': {u'target': [], u'time': []}, u'edge': {u'target': [], u'time': []}}}",,,"[5176, 5258, 3848]",42.0,500679,2.0,4.0,mouselab-mdp,,5
"[3234, 6013, 11039]","[u'up', u'up', u'right']",,"[0, 0, 0]","[1, 3, 7, 13]","{u'mouseover': {u'state': {u'target': [], u'time': []}, u'edge': {u'target': [], u'time': []}}, u'click': {u'state': {u'target': [], u'time': []}, u'edge': {u'target': [], u'time': []}}, u'mouseout': {u'state': {u'target': [], u'time': []}, u'edge': {u'target': [], u'time': []}}}",,,"[3234, 711, 4096]",31.0,552474,3.0,9.0,mouselab-mdp,,5
"[2268, 4498, 10586]","[u'left', u'left', u'down']",,"[0, 0, 0]","[1, 4, 8, 15]","{u'mouseover': {u'state': {u'target': [], u'time': []}, u'edge': {u'target': [], u'time': []}}, u'click': {u'state': {u'target': [], u'time': []}, u'edge': {u'target': [], u'time': []}}, u'mouseout': {u'state': {u'target': [], u'time': []}, u'edge': {u'target': [], u'time': []}}}",,,"[2268, 158, 5181]",16.0,622433,4.0,7.0,mouselab-mdp,,5
"[16516, 31235, 38167]","[u'left', u'left', u'down']",,"[9, 0, 0]","[1, 4, 8, 15]","{u'mouseover': {u'state': {u'target': [], u'time': []}, u'edge': {u'target': [], u'time': []}}, u'click': {u'state': {u'target': [u'3', u'5'], u'time': [4188, 11797]}, u'edge': {u'target': [], u'time': []}}, u'mouseout': {u'state': {u'target': [], u'time': []}, u'edge': {u'target': [], u'time': []}}}",,,"[16516, 3122, 6000]",0.4,687092,5.0,10.0,mouselab-mdp,,5
"[2245, 4687, 7804]","[u'right', u'right', u'up']",,"[0, 0, 0]","[1, 2, 6, 10]","{u'mouseover': {u'state': {u'target': [], u'time': []}, u'edge': {u'target': [], u'time': []}}, u'click': {u'state': {u'target': [], u'time': []}, u'edge': {u'target': [], u'time': []}}, u'mouseout': {u'state': {u'target': [], u'time': []}, u'edge': {u'target': [], u'time': []}}}",,,"[2245, 449, 2197]",34.0,737182,6.0,2.0,mouselab-mdp,,5
"[5578, 7721, 14102]","[u'down', u'down', u'right']",,"[0, 0, 0]","[1, 5, 9, 17]","{u'mouseover': {u'state': {u'target': [], u'time': []}, u'edge': {u'target': [], u'time': []}}, u'click': {u'state': {u'target': [], u'time': []}, u'edge': {u'target': [], u'time': []}}, u'mouseout': {u'state': {u'target': [], u'time': []}, u'edge': {u'target': [], u'time': []}}}",,,"[5578, 147, 5482]",18.0,789698,7.0,11.0,mouselab-mdp,,5
"[2688, 4721, 8061]","[u'up', u'up', u'right']",,"[0, 0, 0]","[1, 3, 7, 13]","{u'mouseover': {u'state': {u'target': [], u'time': []}, u'edge': {u'target': [], u'time': []}}, u'click': {u'state': {u'target': [], u'time': []}, u'edge': {u'target': [], u'time': []}}, u'mouseout': {u'state': {u'target': [], u'time': []}, u'edge': {u'target': [], u'time': []}}}",,,"[2688, 29, 2424]",35.0,837762,8.0,8.0,mouselab-mdp,,5
"[4231, 6305, 9022]","[u'left', u'left', u'up']",,"[0, 0, 0]","[1, 4, 8, 14]","{u'mouseover': {u'state': {u'target': [], u'time': []}, u'edge': {u'target': [], u'time': []}}, u'click': {u'state': {u'target': [], u'time': []}, u'edge': {u'target': [], u'time': []}}, u'mouseout': {u'state': {u'target': [], u'time': []}, u'edge': {u'target': [], u'time': []}}}",,,"[4231, 3, 1791]",40.0,891456,9.0,0.0,mouselab-mdp,,5
"[2411, 4494, 10294]","[u'down', u'down', u'right']",,"[0, 0, 0]","[1, 5, 9, 17]","{u'mouseover': {u'state': {u'target': [], u'time': []}, u'edge': {u'target': [], u'time': []}}, u'click': {u'state': {u'target': [], u'time': []}, u'edge': {u'target': [], u'time': []}}, u'mouseout': {u'state': {u'target': [], u'time': []}, u'edge': {u'target': [], u'time': []}}}",,,"[2411, 2, 4878]",14.0,942945,10.0,5.0,mouselab-mdp,,5
"[4148, 6255, 9095]","[u'left', u'left', u'up']",,"[0, 0, 0]","[1, 4, 8, 14]","{u'mouseover': {u'state': {u'target': [], u'time': []}, u'edge': {u'target': [], u'time': []}}, u'click': {u'state': {u'target': [], u'time': []}, u'edge': {u'target': [], u'time': []}}, u'mouseout': {u'state': {u'target': [], u'time': []}, u'edge': {u'target': [], u'time': []}}}",,,"[4148, 3, 1909]",4.0,992465,11.0,3.0,mouselab-mdp,,5
"[3070, 5151, 9140]","[u'up', u'up', u'right']",,"[0, 0, 0]","[1, 3, 7, 13]","{u'mouseover': {u'state': {u'target': [], u'time': []}, u'edge': {u'target': [], u'time': []}}, u'click': {u'state': {u'target': [], u'time': []}, u'edge': {u'target': [], u'time': []}}, u'mouseout': {u'state': {u'target': [], u'time': []}, u'edge': {u'target': [], u'time': []}}}",,,"[3070, 2, 3045]",21.0,1044336,12.0,1.0,mouselab-mdp,,5
"[4498, 10165, 14837]","[u'up', u'up', u'left']",,"[0, 0, 0]","[1, 3, 7, 12]","{u'mouseover': {u'state': {u'target': [], u'time': []}, u'edge': {u'target': [], u'time': []}}, u'click': {u'state': {u'target': [], u'time': []}, u'edge': {u'target': [], u'time': []}}, u'mouseout': {u'state': {u'target': [], u'time': []}, u'edge': {u'target': [], u'time': []}}}",,,"[4497, 2830, 3544]",41.0,456275,1.0,8.0,mouselab-mdp,,6
"[3039, 8612, 10614]","[u'right', u'right', u'up']",,"[0, 0, 0]","[1, 2, 6, 10]","{u'mouseover': {u'state': {u'target': [], u'time': []}, u'edge': {u'target': [], u'time': []}}, u'click': {u'state': {u'target': [], u'time': []}, u'edge': {u'target': [], u'time': []}}, u'mouseout': {u'state': {u'target': [], u'time': []}, u'edge': {u'target': [], u'time': []}}}",,,"[3039, 2721, 869]",12.0,506853,2.0,6.0,mouselab-mdp,,6
"[8982, 12664, 14272]","[u'right', u'right', u'down']",,"[0, 0, 0]","[1, 2, 6, 11]","{u'mouseover': {u'state': {u'target': [], u'time': []}, u'edge': {u'target': [], u'time': []}}, u'click': {u'state': {u'target': [], u'time': []}, u'edge': {u'target': [], u'time': []}}, u'mouseout': {u'state': {u'target': [], u'time': []}, u'edge': {u'target': [], u'time': []}}}",,,"[8982, 831, 473]",2.0,568639,3.0,7.0,mouselab-mdp,,6
"[2442, 8875, 12688]","[u'down', u'down', u'right']",,"[0, 0, 0]","[1, 5, 9, 17]","{u'mouseover': {u'state': {u'target': [], u'time': []}, u'edge': {u'target': [], u'time': []}}, u'click': {u'state': {u'target': [], u'time': []}, u'edge': {u'target': [], u'time': []}}, u'mouseout': {u'state': {u'target': [], u'time': []}, u'edge': {u'target': [], u'time': []}}}",,,"[2441, 3588, 2666]",42.0,628293,4.0,4.0,mouselab-mdp,,6
"[2567, 10818, 12788]","[u'right', u'right', u'up']",,"[0, 0, 0]","[1, 2, 6, 10]","{u'mouseover': {u'state': {u'target': [], u'time': []}, u'edge': {u'target': [], u'time': []}}, u'click': {u'state': {u'target': [], u'time': []}, u'edge': {u'target': [], u'time': []}}, u'mouseout': {u'state': {u'target': [], u'time': []}, u'edge': {u'target': [], u'time': []}}}",,,"[2567, 5391, 837]",16.0,677847,5.0,9.0,mouselab-mdp,,6
"[3300, 6535, 9899]","[u'right', u'right', u'down']",,"[0, 0, 0]","[1, 2, 6, 11]","{u'mouseover': {u'state': {u'target': [], u'time': []}, u'edge': {u'target': [], u'time': []}}, u'click': {u'state': {u'target': [], u'time': []}, u'edge': {u'target': [], u'time': []}}, u'mouseout': {u'state': {u'target': [], u'time': []}, u'edge': {u'target': [], u'time': []}}}",,,"[3300, 404, 2220]",-2.0,729240,6.0,0.0,mouselab-mdp,,6
"[1424, 4240, 6233]","[u'up', u'up', u'left']",,"[0, 0, 0]","[1, 3, 7, 12]","{u'mouseover': {u'state': {u'target': [], u'time': []}, u'edge': {u'target': [], u'time': []}}, u'click': {u'state': {u'target': [], u'time': []}, u'edge': {u'target': [], u'time': []}}, u'mouseout': {u'state': {u'target': [], u'time': []}, u'edge': {u'target': [], u'time': []}}}",,,"[1424, 2, 838]",1.0,795943,7.0,5.0,mouselab-mdp,,6
"[1796, 4758, 6533]","[u'up', u'up', u'left']",,"[0, 0, 0]","[1, 3, 7, 12]","{u'mouseover': {u'state': {u'target': [], u'time': []}, u'edge': {u'target': [], u'time': []}}, u'click': {u'state': {u'target': [], u'time': []}, u'edge': {u'target': [], u'time': []}}, u'mouseout': {u'state': {u'target': [], u'time': []}, u'edge': {u'target': [], u'time': []}}}",,,"[1795, 3, 629]",15.0,848017,8.0,2.0,mouselab-mdp,,6
"[1763, 4980, 7238]","[u'up', u'up', u'right']",,"[0, 0, 0]","[1, 3, 7, 13]","{u'mouseover': {u'state': {u'target': [], u'time': []}, u'edge': {u'target': [], u'time': []}}, u'click': {u'state': {u'target': [], u'time': []}, u'edge': {u'target': [], u'time': []}}, u'mouseout': {u'state': {u'target': [], u'time': []}, u'edge': {u'target': [], u'time': []}}}",,,"[1763, 410, 1116]",25.0,916034,9.0,11.0,mouselab-mdp,,6
"[2540, 5337, 7462]","[u'right', u'right', u'down']",,"[0, 0, 0]","[1, 2, 6, 11]","{u'mouseover': {u'state': {u'target': [], u'time': []}, u'edge': {u'target': [], u'time': []}}, u'click': {u'state': {u'target': [], u'time': []}, u'edge': {u'target': [], u'time': []}}, u'mouseout': {u'state': {u'target': [], u'time': []}, u'edge': {u'target': [], u'time': []}}}",,,"[2539, 3, 989]",0.0,967700,10.0,3.0,mouselab-mdp,,6
"[1406, 4978, 11400]","[u'left', u'left', u'up']",,"[0, 0, 0]","[1, 4, 8, 14]","{u'mouseover': {u'state': {u'target': [], u'time': []}, u'edge': {u'target': [], u'time': []}}, u'click': {u'state': {u'target': [], u'time': []}, u'edge': {u'target': [], u'time': []}}, u'mouseout': {u'state': {u'target': [], u'time': []}, u'edge': {u'target': [], u'time': []}}}",,,"[1406, 800, 5316]",18.0,1019303,11.0,10.0,mouselab-mdp,,6
"[1505, 4425, 6629]","[u'up', u'up', u'right']",,"[0, 0, 0]","[1, 3, 7, 13]","{u'mouseover': {u'state': {u'target': [], u'time': []}, u'edge': {u'target': [], u'time': []}}, u'click': {u'state': {u'target': [], u'time': []}, u'edge': {u'target': [], u'time': []}}, u'mouseout': {u'state': {u'target': [], u'time': []}, u'edge': {u'target': [], u'time': []}}}",,,"[1504, 2, 1013]",21.0,1091585,12.0,1.0,mouselab-mdp,,6
"[50747, 56460, 59307]","[u'right', u'right', u'down']",,"[0, 0, 2]","[1, 2, 6, 11]","{u'mouseover': {u'state': {u'target': [], u'time': []}, u'edge': {u'target': [], u'time': []}}, u'click': {u'state': {u'target': [u'6', u'10', u'13', u'7', u'3', u'12', u'14', u'8', u'4', u'15', u'16', u'9', u'17', u'5', u'2', u'11'], u'time': [5909, 12557, 14669, 16512, 17887, 18938, 20137, 21155, 22276, 23335, 24236, 25123, 25939, 26648, 27286, 31067]}, u'edge': {u'target': [], u'time': []}}, u'mouseout': {u'state': {u'target': [], u'time': []}, u'edge': {u'target': [], u'time': []}}}",,,"[50744, 10, 2320]",31.84,394346,1.0,2.0,mouselab-mdp,,8
"[5455, 54548, 64059]","[u'right', u'right', u'down']",,"[29, 0, 8]","[1, 2, 6, 11]","{u'mouseover': {u'state': {u'target': [], u'time': []}, u'edge': {u'target': [], u'time': []}}, u'click': {u'state': {u'target': [u'1', u'6', u'10', u'13', u'7', u'3', u'12', u'14', u'8', u'4', u'15', u'5', u'9', u'16', u'17', u'11', u'2'], u'time': [38844, 39687, 40152, 40894, 41215, 41594, 42034, 42449, 42766, 44226, 44733, 45215, 45551, 45940, 46475, 47253, 58636]}, u'edge': {u'target': [], u'time': []}}, u'mouseout': {u'state': {u'target': [], u'time': []}, u'edge': {u'target': [], u'time': []}}}",,,"[5454, 17504, 5432]",17.83,485412,2.0,8.0,mouselab-mdp,,8
"[21375, 26357, 28261]","[u'right', u'right', u'down']",,"[0, 0, 0]","[1, 2, 6, 11]","{u'mouseover': {u'state': {u'target': [], u'time': []}, u'edge': {u'target': [], u'time': []}}, u'click': {u'state': {u'target': [u'2', u'6', u'11', u'10', u'13', u'7', u'3', u'12', u'14', u'8', u'4', u'15', u'5', u'9', u'17', u'16'], u'time': [2758, 3494, 4474, 5292, 5930, 6357, 6737, 7224, 7679, 8015, 8374, 8923, 9444, 10261, 11075, 11739]}, u'edge': {u'target': [], u'time': []}}, u'mouseout': {u'state': {u'target': [], u'time': []}, u'edge': {u'target': [], u'time': []}}}",,,"[21374, 3, 1390]",37.84,539737,3.0,6.0,mouselab-mdp,,8
"[38625, 43446, 44712]","[u'right', u'right', u'up']",,"[0, 0, 0]","[1, 2, 6, 10]","{u'mouseover': {u'state': {u'target': [], u'time': []}, u'edge': {u'target': [], u'time': []}}, u'click': {u'state': {u'target': [u'2', u'6', u'11', u'10', u'17', u'9', u'5', u'16', u'15', u'8', u'4', u'14', u'12', u'7', u'13', u'3'], u'time': [2456, 2849, 3327, 3876, 4922, 5660, 6291, 6814, 7722, 8353, 9030, 9792, 10792, 11324, 11822, 12428]}, u'edge': {u'target': [], u'time': []}}, u'mouseout': {u'state': {u'target': [], u'time': []}, u'edge': {u'target': [], u'time': []}}}",,,"[38625, 1, 723]",21.84,590771,4.0,10.0,mouselab-mdp,,8
"[36155, 41222, 43249]","[u'up', u'up', u'left']",,"[0, 0, 0]","[1, 3, 7, 12]","{u'mouseover': {u'state': {u'target': [], u'time': []}, u'edge': {u'target': [], u'time': []}}, u'click': {u'state': {u'target': [u'2', u'6', u'11', u'10', u'13', u'7', u'3', u'12', u'14', u'8', u'15', u'4', u'5', u'9', u'17', u'16'], u'time': [2976, 3349, 3758, 4388, 4942, 5866, 6262, 7149, 8348, 8732, 9786, 10315, 11101, 11550, 11917, 12477]}, u'edge': {u'target': [], u'time': []}}, u'mouseout': {u'state': {u'target': [], u'time': []}, u'edge': {u'target': [], u'time': []}}}",,,"[36155, 18, 1497]",36.84,653306,5.0,9.0,mouselab-mdp,,8
"[35595, 40635, 43322]","[u'right', u'right', u'down']",,"[0, 0, 0]","[1, 2, 6, 11]","{u'mouseover': {u'state': {u'target': [], u'time': []}, u'edge': {u'target': [], u'time': []}}, u'click': {u'state': {u'target': [u'5', u'9', u'17', u'16', u'2', u'6', u'11', u'10', u'3', u'7', u'13', u'12', u'4', u'8', u'15', u'14'], u'time': [3223, 3636, 4046, 4597, 5623, 5968, 6511, 7111, 7835, 8228, 8604, 9297, 9990, 10433, 10744, 11323]}, u'edge': {u'target': [], u'time': []}}, u'mouseout': {u'state': {u'target': [], u'time': []}, u'edge': {u'target': [], u'time': []}}}",,,"[35594, 1, 2139]",37.84,705101,6.0,11.0,mouselab-mdp,,8
"[37197, 44426, 46210]","[u'down', u'down', u'right']",,"[2, 0, 0]","[1, 5, 9, 17]","{u'mouseover': {u'state': {u'target': [], u'time': []}, u'edge': {u'target': [], u'time': []}}, u'click': {u'state': {u'target': [u'2', u'6', u'11', u'10', u'5', u'9', u'17', u'16'], u'time': [2226, 3188, 3739, 4705, 6790, 7396, 7919, 8852]}, u'edge': {u'target': [], u'time': []}}, u'mouseout': {u'state': {u'target': [], u'time': []}, u'edge': {u'target': [], u'time': []}}}",,,"[37197, 683, 980]",41.92,759003,7.0,4.0,mouselab-mdp,,8
"[33115, 39929, 42566]","[u'down', u'down', u'left']",,"[1, 0, 0]","[1, 5, 9, 16]","{u'mouseover': {u'state': {u'target': [], u'time': []}, u'edge': {u'target': [], u'time': []}}, u'click': {u'state': {u'target': [u'3', u'7', u'13', u'12', u'2', u'6', u'11', u'10', u'5', u'9', u'17', u'16'], u'time': [6470, 7279, 7892, 8686, 10543, 10988, 11378, 11959, 14121, 14558, 14985, 15577]}, u'edge': {u'target': [], u'time': []}}, u'mouseout': {u'state': {u'target': [], u'time': []}, u'edge': {u'target': [], u'time': []}}}",,,"[33115, 805, 1949]",45.88,817745,8.0,1.0,mouselab-mdp,,8
"[32965, 37970, 40585]","[u'down', u'down', u'right']",,"[0, 0, 0]","[1, 5, 9, 17]","{u'mouseover': {u'state': {u'target': [], u'time': []}, u'edge': {u'target': [], u'time': []}}, u'click': {u'state': {u'target': [u'4', u'8', u'15', u'14', u'3', u'7', u'13', u'12', u'2', u'6', u'10', u'11', u'5', u'9', u'17', u'16'], u'time': [4645, 5683, 6414, 7035, 8195, 9049, 9533, 10146, 10957, 11376, 11905, 12513, 13336, 13719, 14132, 14842]}, u'edge': {u'target': [], u'time': []}}, u'mouseout': {u'state': {u'target': [], u'time': []}, u'edge': {u'target': [], u'time': []}}}",,,"[32965, 2, 2098]",33.84,870749,9.0,7.0,mouselab-mdp,,8
"[31342, 37620, 39995]","[u'right', u'right', u'up']",,"[0, 0, 0]","[1, 2, 6, 10]","{u'mouseover': {u'state': {u'target': [], u'time': []}, u'edge': {u'target': [], u'time': []}}, u'click': {u'state': {u'target': [u'4', u'2', u'6', u'11', u'10', u'5', u'9', u'17', u'16', u'3', u'7', u'13', u'12', u'14', u'8', u'15'], u'time': [2411, 5064, 6251, 7328, 8217, 10117, 11033, 11898, 12836, 14376, 15154, 15690, 16390, 25853, 26397, 26753]}, u'edge': {u'target': [], u'time': []}}, u'mouseout': {u'state': {u'target': [], u'time': []}, u'edge': {u'target': [], u'time': []}}}",,,"[31342, 763, 1863]",33.84,922842,10.0,3.0,mouselab-mdp,,8
"[18665, 24625, 30440]","[u'left', u'left', u'up']",,"[0, 0, 0]","[1, 4, 8, 14]","{u'mouseover': {u'state': {u'target': [], u'time': []}, u'edge': {u'target': [], u'time': []}}, u'click': {u'state': {u'target': [u'2', u'6', u'11', u'10', u'5', u'9', u'17', u'16', u'3', u'7', u'13', u'12', u'4', u'8', u'15', u'14'], u'time': [2997, 3948, 4646, 5512, 6834, 7457, 8273, 8796, 9604, 9998, 10482, 10949, 11803, 12257, 12721, 14060]}, u'edge': {u'target': [], u'time': []}}, u'mouseout': {u'state': {u'target': [], u'time': []}, u'edge': {u'target': [], u'time': []}}}",,,"[18665, 738, 5289]",33.84,975103,11.0,5.0,mouselab-mdp,,8
"[31805, 41668, 43174]","[u'left', u'left', u'up']",,"[0, 0, 0]","[1, 4, 8, 14]","{u'mouseover': {u'state': {u'target': [], u'time': []}, u'edge': {u'target': [], u'time': []}}, u'click': {u'state': {u'target': [u'2', u'6', u'11', u'10', u'5', u'9', u'17', u'16', u'3', u'7', u'12', u'13', u'4', u'8', u'15', u'14'], u'time': [4205, 4744, 5398, 5952, 6542, 6875, 7328, 7850, 8634, 9035, 9988, 10657, 11301, 11630, 12121, 12672]}, u'edge': {u'target': [], u'time': []}}, u'mouseout': {u'state': {u'target': [], u'time': []}, u'edge': {u'target': [], u'time': []}}}",,,"[31804, 4761, 984]",39.84,1026507,12.0,0.0,mouselab-mdp,,8
"[34084, 44921, 48621]","[u'right', u'right', u'up']",,"[7, 0, 2]","[1, 2, 6, 10]","{u'mouseover': {u'state': {u'target': [], u'time': []}, u'edge': {u'target': [], u'time': []}}, u'click': {u'state': {u'target': [u'3', u'2', u'5', u'4', u'9', u'17', u'6', u'10', u'11'], u'time': [12745, 14634, 17600, 19929, 23113, 27086, 29252, 47497, 53330]}, u'edge': {u'target': [], u'time': []}}, u'mouseout': {u'state': {u'target': [], u'time': []}, u'edge': {u'target': [], u'time': []}}}",,,"[34082, 981, 2878]",33.91,733978,1.0,2.0,mouselab-mdp,,9
"[5712, 23801, 24960]","[u'right', u'right', u'up']",,"[10, 0, 0]","[1, 2, 6, 10]","{u'mouseover': {u'state': {u'target': [], u'time': []}, u'edge': {u'target': [], u'time': []}}, u'click': {u'state': {u'target': [u'2', u'5', u'3', u'4', u'6', u'10', u'11', u'13'], u'time': [2008, 2767, 3691, 4446, 19930, 21018, 22186, 55409]}, u'edge': {u'target': [], u'time': []}}, u'mouseout': {u'state': {u'target': [], u'time': []}, u'edge': {u'target': [], u'time': []}}}",,,"[5712, 5543, 2]",21.92,794769,2.0,10.0,mouselab-mdp,,9
"[15315, 19023, 21452]","[u'down', u'down', u'left']",,"[0, 0, 0]","[1, 5, 9, 16]","{u'mouseover': {u'state': {u'target': [], u'time': []}, u'edge': {u'target': [], u'time': []}}, u'click': {u'state': {u'target': [u'2', u'3', u'4', u'12', u'7', u'13', u'14', u'8', u'15', u'5', u'9', u'17', u'16'], u'time': [3649, 4269, 5107, 6005, 6554, 7217, 7952, 8409, 8977, 9784, 12016, 12842, 13576]}, u'edge': {u'target': [], u'time': []}}, u'mouseout': {u'state': {u'target': [], u'time': []}, u'edge': {u'target': [], u'time': []}}}",,,"[15315, 2, 1808]",45.87,852836,3.0,1.0,mouselab-mdp,,9
"[20054, 23024, 24401]","[u'up', u'up', u'left']",,"[0, 0, 0]","[1, 3, 7, 12]","{u'mouseover': {u'state': {u'target': [], u'time': []}, u'edge': {u'target': [], u'time': []}}, u'click': {u'state': {u'target': [u'3', u'7', u'12', u'13', u'2', u'5', u'4', u'15', u'8', u'14', u'16', u'17', u'9', u'11', u'6', u'10'], u'time': [901, 1429, 2783, 3550, 5062, 5612, 6153, 6940, 7519, 8084, 8851, 10430, 10924, 12170, 12844, 13421]}, u'edge': {u'target': [], u'time': []}}, u'mouseout': {u'state': {u'target': [], u'time': []}, u'edge': {u'target': [], u'time': []}}}",,,"[20054, 2, 861]",40.84,904935,4.0,8.0,mouselab-mdp,,9
"[22584, 25319, 26651]","[u'down', u'down', u'right']",,"[0, 0, 0]","[1, 5, 9, 17]","{u'mouseover': {u'state': {u'target': [], u'time': []}, u'edge': {u'target': [], u'time': []}}, u'click': {u'state': {u'target': [u'2', u'6', u'10', u'11', u'17', u'9', u'16', u'5', u'3', u'7', u'13', u'12', u'4', u'8', u'14', u'15'], u'time': [657, 1225, 2101, 2837, 3676, 4132, 4641, 5272, 7573, 8097, 8615, 9178, 9798, 10216, 10681, 11442]}, u'edge': {u'target': [], u'time': []}}, u'mouseout': {u'state': {u'target': [], u'time': []}, u'edge': {u'target': [], u'time': []}}}",,,"[22584, 1, 810]",33.84,955302,5.0,7.0,mouselab-mdp,,9
"[24387, 27290, 29224]","[u'left', u'left', u'up']",,"[0, 0, 0]","[1, 4, 8, 14]","{u'mouseover': {u'state': {u'target': [], u'time': []}, u'edge': {u'target': [], u'time': []}}, u'click': {u'state': {u'target': [u'3', u'2', u'6', u'10', u'11', u'7', u'13', u'12', u'4', u'8', u'14', u'15', u'5', u'9', u'17', u'16'], u'time': [2549, 3077, 3685, 4273, 5024, 6166, 6616, 7360, 8121, 8628, 10765, 11754, 13561, 14045, 14753, 16090]}, u'edge': {u'target': [], u'time': []}}, u'mouseout': {u'state': {u'target': [], u'time': []}, u'edge': {u'target': [], u'time': []}}}",,,"[24387, 2, 1417]",33.84,1004056,6.0,5.0,mouselab-mdp,,9
"[17280, 19971, 21322]","[u'right', u'right', u'down']",,"[0, 0, 0]","[1, 2, 6, 11]","{u'mouseover': {u'state': {u'target': [], u'time': []}, u'edge': {u'target': [], u'time': []}}, u'click': {u'state': {u'target': [u'12', u'7', u'13', u'3', u'2', u'6', u'10', u'11', u'17', u'9', u'16', u'5', u'15', u'8', u'4', u'14'], u'time': [709, 1206, 1700, 2378, 2957, 3682, 4181, 4834, 5523, 6082, 6591, 7367, 8014, 8529, 9041, 9631]}, u'edge': {u'target': [], u'time': []}}, u'mouseout': {u'state': {u'target': [], u'time': []}, u'edge': {u'target': [], u'time': []}}}",,,"[17280, 1, 828]",37.84,1053212,7.0,11.0,mouselab-mdp,,9
"[14516, 17242, 18775]","[u'up', u'up', u'left']",,"[0, 0, 0]","[1, 3, 7, 12]","{u'mouseover': {u'state': {u'target': [], u'time': []}, u'edge': {u'target': [], u'time': []}}, u'click': {u'state': {u'target': [u'12', u'7', u'13', u'3', u'4', u'8', u'14', u'15', u'16', u'9', u'17', u'5', u'2', u'6', u'10', u'11'], u'time': [1575, 2094, 3292, 3838, 4426, 4871, 5578, 6178, 6927, 8560, 9108, 9689, 10298, 10962, 11496, 12101]}, u'edge': {u'target': [], u'time': []}}, u'mouseout': {u'state': {u'target': [], u'time': []}, u'edge': {u'target': [], u'time': []}}}",,,"[14516, 2, 1016]",36.84,1105924,8.0,9.0,mouselab-mdp,,9
"[15878, 19309, 20485]","[u'down', u'down', u'right']",,"[0, 0, 0]","[1, 5, 9, 17]","{u'mouseover': {u'state': {u'target': [], u'time': []}, u'edge': {u'target': [], u'time': []}}, u'click': {u'state': {u'target': [u'12', u'7', u'13', u'3', u'2', u'6', u'10', u'11', u'17', u'9', u'16', u'5', u'4', u'8', u'14', u'15'], u'time': [1382, 2038, 2502, 3114, 3701, 4227, 4820, 5306, 5967, 6520, 7014, 7874, 9062, 9519, 10063, 10663]}, u'edge': {u'target': [], u'time': []}}, u'mouseout': {u'state': {u'target': [], u'time': []}, u'edge': {u'target': [], u'time': []}}}",,,"[15878, 564, 658]",41.84,1157015,9.0,4.0,mouselab-mdp,,9
"[23261, 26094, 27659]","[u'right', u'right', u'up']",,"[0, 0, 0]","[1, 2, 6, 10]","{u'mouseover': {u'state': {u'target': [], u'time': []}, u'edge': {u'target': [], u'time': []}}, u'click': {u'state': {u'target': [u'12', u'3', u'7', u'13', u'10', u'6', u'11', u'2', u'5', u'9', u'17', u'16', u'4', u'8', u'14', u'15'], u'time': [1580, 2000, 2508, 3868, 4418, 4842, 5481, 5994, 6817, 7359, 7815, 8330, 9077, 9554, 10257, 10821]}, u'edge': {u'target': [], u'time': []}}, u'mouseout': {u'state': {u'target': [], u'time': []}, u'edge': {u'target': [], u'time': []}}}",,,"[23261, 1, 1045]",33.84,1233061,10.0,3.0,mouselab-mdp,,9
"[14254, 17425, 18769]","[u'right', u'right', u'down']",,"[0, 0, 0]","[1, 2, 6, 11]","{u'mouseover': {u'state': {u'target': [], u'time': []}, u'edge': {u'target': [], u'time': []}}, u'click': {u'state': {u'target': [u'12', u'7', u'13', u'3', u'2', u'6', u'10', u'11', u'5', u'9', u'17', u'16', u'4', u'8', u'14', u'15'], u'time': [2968, 3427, 3886, 4360, 5139, 5610, 6562, 7179, 8909, 9395, 9892, 10575, 11314, 11806, 12290, 12978]}, u'edge': {u'target': [], u'time': []}}, u'mouseout': {u'state': {u'target': [], u'time': []}, u'edge': {u'target': [], u'time': []}}}",,,"[14253, 298, 844]",37.84,1282225,11.0,6.0,mouselab-mdp,,9
"[17407, 20115, 21736]","[u'left', u'left', u'up']",,"[0, 0, 0]","[1, 4, 8, 14]","{u'mouseover': {u'state': {u'target': [], u'time': []}, u'edge': {u'target': [], u'time': []}}, u'click': {u'state': {u'target': [u'3', u'7', u'13', u'12', u'4', u'8', u'14', u'15', u'5', u'9', u'17', u'16', u'11', u'6', u'10', u'2'], u'time': [1624, 2163, 2630, 3244, 4477, 5042, 5608, 6222, 11494, 12063, 12613, 13144, 14045, 14506, 15000, 15551]}, u'edge': {u'target': [], u'time': []}}, u'mouseout': {u'state': {u'target': [], u'time': []}, u'edge': {u'target': [], u'time': []}}}",,,"[17406, 1, 1102]",39.84,1345919,12.0,0.0,mouselab-mdp,,9
"[2647, 36484, 39143]","[u'left', u'left', u'up']",,"[29, 0, 19]","[1, 4, 8, 14]","{u'mouseover': {u'state': {u'target': [], u'time': []}, u'edge': {u'target': [], u'time': []}}, u'click': {u'state': {u'target': [], u'time': []}, u'edge': {u'target': [], u'time': []}}, u'mouseout': {u'state': {u'target': [], u'time': []}, u'edge': {u'target': [], u'time': []}}}",,,"[2647, 1754, 1439]",10.0,193162,1.0,8.0,mouselab-mdp,,10
"[11154, 17435, 18107]","[u'left', u'left', u'up']",,"[0, 0, 0]","[1, 4, 8, 14]","{u'mouseover': {u'state': {u'target': [], u'time': []}, u'edge': {u'target': [], u'time': []}}, u'click': {u'state': {u'target': [u'4', u'3', u'2', u'5', u'17', u'9', u'16', u'15', u'8', u'14', u'12', u'7', u'13', u'10', u'6', u'11'], u'time': [825, 1391, 1880, 2456, 3066, 3367, 3655, 4456, 4704, 4971, 5403, 5659, 5911, 6347, 6696, 7011]}, u'edge': {u'target': [], u'time': []}}, u'mouseout': {u'state': {u'target': [], u'time': []}, u'edge': {u'target': [], u'time': []}}}",,,"[11154, 3, 146]",33.84,245760,2.0,5.0,mouselab-mdp,,10
"[8047, 14415, 15153]","[u'right', u'right', u'up']",,"[0, 0, 0]","[1, 2, 6, 10]","{u'mouseover': {u'state': {u'target': [], u'time': []}, u'edge': {u'target': [], u'time': []}}, u'click': {u'state': {u'target': [u'4', u'3', u'2', u'5', u'16', u'9', u'17', u'10', u'6', u'11', u'13', u'7', u'12'], u'time': [524, 922, 1305, 1702, 2913, 3306, 3634, 4844, 5087, 5323, 5842, 6107, 6326]}, u'edge': {u'target': [], u'time': []}}, u'mouseout': {u'state': {u'target': [], u'time': []}, u'edge': {u'target': [], u'time': []}}}",,,"[8047, 4, 27]",33.87,300424,3.0,3.0,mouselab-mdp,,10
"[8162, 14570, 15246]","[u'right', u'right', u'down']",,"[0, 0, 0]","[1, 2, 6, 11]","{u'mouseover': {u'state': {u'target': [], u'time': []}, u'edge': {u'target': [], u'time': []}}, u'click': {u'state': {u'target': [u'4', u'3', u'2', u'5', u'16', u'9', u'17', u'6', u'11', u'10', u'13', u'7', u'12', u'14', u'8', u'15'], u'time': [610, 1021, 1425, 1810, 2570, 2805, 3007, 3759, 3982, 4291, 4670, 4920, 5165, 5642, 5942, 6197]}, u'edge': {u'target': [], u'time': []}}, u'mouseout': {u'state': {u'target': [], u'time': []}, u'edge': {u'target': [], u'time': []}}}",,,"[8161, 4, 148]",37.84,357766,4.0,6.0,mouselab-mdp,,10
"[11754, 18110, 18992]","[u'up', u'up', u'left']",,"[0, 0, 0]","[1, 3, 7, 12]","{u'mouseover': {u'state': {u'target': [], u'time': []}, u'edge': {u'target': [], u'time': []}}, u'click': {u'state': {u'target': [u'3', u'4', u'5', u'2', u'15', u'8', u'14', u'12', u'7', u'13'], u'time': [667, 1103, 1419, 1755, 2699, 2937, 3213, 3750, 3981, 4213]}, u'edge': {u'target': [], u'time': []}}, u'mouseout': {u'state': {u'target': [], u'time': []}, u'edge': {u'target': [], u'time': []}}}",,,"[11753, 4, 3]",36.9,412143,5.0,9.0,mouselab-mdp,,10
"[5763, 12992, 14204]","[u'down', u'down', u'left']",,"[0, 0, 0]","[1, 5, 9, 16]","{u'mouseover': {u'state': {u'target': [], u'time': []}, u'edge': {u'target': [], u'time': []}}, u'click': {u'state': {u'target': [u'4', u'3', u'2', u'5', u'17', u'9', u'16', u'12', u'7', u'13'], u'time': [855, 1311, 1680, 2098, 2713, 2963, 3347, 3973, 4227, 4461]}, u'edge': {u'target': [], u'time': []}}, u'mouseout': {u'state': {u'target': [], u'time': []}, u'edge': {u'target': [], u'time': []}}}",,,"[5763, 567, 292]",45.9,464515,6.0,1.0,mouselab-mdp,,10
"[8803, 15531, 16661]","[u'right', u'right', u'up']",,"[0, 0, 0]","[1, 2, 6, 10]","{u'mouseover': {u'state': {u'target': [], u'time': []}, u'edge': {u'target': [], u'time': []}}, u'click': {u'state': {u'target': [u'4', u'5', u'2', u'3', u'14', u'8', u'15', u'16', u'9', u'17', u'11', u'6', u'10'], u'time': [1388, 1748, 2112, 2431, 3158, 3376, 3642, 4034, 4260, 4472, 4887, 5123, 5366]}, u'edge': {u'target': [], u'time': []}}, u'mouseout': {u'state': {u'target': [], u'time': []}, u'edge': {u'target': [], u'time': []}}}",,,"[8803, 287, 427]",33.87,516679,7.0,2.0,mouselab-mdp,,10
"[8304, 15175, 16297]","[u'down', u'down', u'left']",,"[0, 0, 0]","[1, 5, 9, 16]","{u'mouseover': {u'state': {u'target': [], u'time': []}, u'edge': {u'target': [], u'time': []}}, u'click': {u'state': {u'target': [u'4', u'2', u'5', u'3', u'10', u'6', u'11', u'17', u'9', u'16', u'12', u'7', u'13'], u'time': [943, 1750, 2077, 2696, 3842, 4090, 4315, 4807, 5084, 5331, 5935, 6193, 6388]}, u'edge': {u'target': [], u'time': []}}, u'mouseout': {u'state': {u'target': [], u'time': []}, u'edge': {u'target': [], u'time': []}}}",,,"[8304, 331, 417]",33.87,568624,8.0,7.0,mouselab-mdp,,10
"[12721, 23457, 24722]","[u'right', u'right', u'up']",,"[4, 0, 0]","[1, 2, 6, 10]","{u'mouseover': {u'state': {u'target': [], u'time': []}, u'edge': {u'target': [], u'time': []}}, u'click': {u'state': {u'target': [u'4', u'3', u'2', u'5', u'15', u'8', u'14', u'12', u'7', u'13', u'6', u'11', u'10', u'16', u'9', u'17'], u'time': [391, 775, 1154, 1506, 2429, 2702, 2907, 3315, 3611, 3829, 4551, 4767, 5039, 27411, 27816, 28104]}, u'edge': {u'target': [], u'time': []}}, u'mouseout': {u'state': {u'target': [], u'time': []}, u'edge': {u'target': [], u'time': []}}}",,,"[12721, 360, 576]",21.84,625604,9.0,10.0,mouselab-mdp,,10
"[10216, 17630, 18604]","[u'left', u'left', u'up']",,"[0, 0, 0]","[1, 4, 8, 14]","{u'mouseover': {u'state': {u'target': [], u'time': []}, u'edge': {u'target': [], u'time': []}}, u'click': {u'state': {u'target': [u'4', u'3', u'2', u'5', u'17', u'9', u'16', u'15', u'8', u'14', u'12', u'7', u'13'], u'time': [961, 1325, 2026, 2299, 3083, 3312, 3937, 4384, 4633, 4881, 5415, 6062, 6772]}, u'edge': {u'target': [], u'time': []}}, u'mouseout': {u'state': {u'target': [], u'time': []}, u'edge': {u'target': [], u'time': []}}}",,,"[10216, 317, 269]",39.87,680160,10.0,0.0,mouselab-mdp,,10
"[11104, 18365, 19350]","[u'down', u'down', u'right']",,"[0, 0, 0]","[1, 5, 9, 17]","{u'mouseover': {u'state': {u'target': [], u'time': []}, u'edge': {u'target': [], u'time': []}}, u'click': {u'state': {u'target': [u'4', u'3', u'2', u'5', u'17', u'9', u'16', u'15', u'8', u'14', u'12', u'13', u'7'], u'time': [2046, 2367, 2715, 2992, 3539, 3771, 3978, 4494, 4712, 5602, 5974, 7344, 7618]}, u'edge': {u'target': [], u'time': []}}, u'mouseout': {u'state': {u'target': [], u'time': []}, u'edge': {u'target': [], u'time': []}}}",,,"[11104, 533, 268]",41.87,734006,11.0,4.0,mouselab-mdp,,10
"[12891, 19819, 20742]","[u'right', u'right', u'down']",,"[0, 0, 0]","[1, 2, 6, 11]","{u'mouseover': {u'state': {u'target': [], u'time': []}, u'edge': {u'target': [], u'time': []}}, u'click': {u'state': {u'target': [u'4', u'5', u'2', u'3', u'10', u'6', u'11', u'17', u'9', u'16', u'15', u'8', u'14', u'12', u'7', u'13'], u'time': [673, 1407, 2020, 2303, 3072, 3293, 3560, 4101, 4362, 4619, 5150, 5395, 5649, 6129, 6337, 6606]}, u'edge': {u'target': [], u'time': []}}, u'mouseout': {u'state': {u'target': [], u'time': []}, u'edge': {u'target': [], u'time': []}}}",,,"[12891, 331, 412]",37.84,786273,12.0,11.0,mouselab-mdp,,10
"[8120, 18014, 20366]","[u'right', u'right', u'up']",,"[4, 0, 0]","[1, 2, 6, 10]","{u'mouseover': {u'state': {u'target': [], u'time': []}, u'edge': {u'target': [], u'time': []}}, u'click': {u'state': {u'target': [u'2', u'6', u'10', u'11'], u'time': [2467, 2834, 4411, 5837]}, u'edge': {u'target': [], u'time': []}}, u'mouseout': {u'state': {u'target': [], u'time': []}, u'edge': {u'target': [], u'time': []}}}",,,"[8118, 2212, 1411]",33.96,675814,1.0,2.0,mouselab-mdp,,11
"[42349, 48204, 50051]","[u'down', u'down', u'left']",,"[1, 0, 2]","[1, 5, 9, 16]","{u'mouseover': {u'state': {u'target': [], u'time': []}, u'edge': {u'target': [], u'time': []}}, u'click': {u'state': {u'target': [u'2', u'5', u'9', u'16'], u'time': [5761, 7010, 7827, 8737]}, u'edge': {u'target': [], u'time': []}}, u'mouseout': {u'state': {u'target': [], u'time': []}, u'edge': {u'target': [], u'time': []}}}",,,"[42349, 433, 709]",45.96,734185,2.0,1.0,mouselab-mdp,,11
"[32885, 39100, 41221]","[u'right', u'right', u'up']",,"[0, 0, 0]","[1, 2, 6, 10]","{u'mouseover': {u'state': {u'target': [], u'time': []}, u'edge': {u'target': [], u'time': []}}, u'click': {u'state': {u'target': [u'3', u'7', u'13', u'5', u'9', u'17', u'16', u'4', u'8', u'15', u'14', u'2', u'6', u'11', u'10'], u'time': [1657, 2309, 2838, 3742, 4331, 4923, 5789, 6898, 7360, 7731, 8314, 9303, 9676, 10196, 10749]}, u'edge': {u'target': [], u'time': []}}, u'mouseout': {u'state': {u'target': [], u'time': []}, u'edge': {u'target': [], u'time': []}}}",,,"[32885, 3, 1406]",33.85,804190,3.0,3.0,mouselab-mdp,,11
"[13948, 27532, 30355]","[u'right', u'right', u'down']",,"[3, 0, 0]","[1, 2, 6, 11]","{u'mouseover': {u'state': {u'target': [], u'time': []}, u'edge': {u'target': [], u'time': []}}, u'click': {u'state': {u'target': [u'2', u'6', u'11', u'10'], u'time': [7354, 7885, 8395, 8963]}, u'edge': {u'target': [], u'time': []}}, u'mouseout': {u'state': {u'target': [], u'time': []}, u'edge': {u'target': [], u'time': []}}}",,,"[13948, 6808, 1854]",37.96,866163,4.0,11.0,mouselab-mdp,,11
"[41626, 52298, 53757]","[u'right', u'right', u'up']",,"[4, 0, 0]","[1, 2, 6, 10]","{u'mouseover': {u'state': {u'target': [], u'time': []}, u'edge': {u'target': [], u'time': []}}, u'click': {u'state': {u'target': [u'5', u'2', u'6', u'11', u'3', u'7', u'13', u'4', u'8', u'15', u'14', u'12', u'10'], u'time': [3479, 4383, 4876, 5462, 6855, 7649, 8278, 9764, 10319, 10940, 11804, 12837, 14690]}, u'edge': {u'target': [], u'time': []}}, u'mouseout': {u'state': {u'target': [], u'time': []}, u'edge': {u'target': [], u'time': []}}}",,,"[41626, 479, 783]",21.87,990193,5.0,10.0,mouselab-mdp,,11
"[25290, 30744, 38493]","[u'right', u'right', u'down']",,"[0, 0, 0]","[1, 2, 6, 11]","{u'mouseover': {u'state': {u'target': [], u'time': []}, u'edge': {u'target': [], u'time': []}}, u'click': {u'state': {u'target': [u'2', u'6', u'11', u'10', u'5', u'9', u'17', u'16', u'3', u'7', u'13', u'12', u'4', u'8', u'15', u'14'], u'time': [2636, 4184, 5056, 5903, 8793, 9510, 10208, 11180, 12300, 12733, 13456, 14062, 14730, 15308, 16033, 16381]}, u'edge': {u'target': [], u'time': []}}, u'mouseout': {u'state': {u'target': [], u'time': []}, u'edge': {u'target': [], u'time': []}}}",,,"[25290, 318, 7226]",37.84,1052856,6.0,6.0,mouselab-mdp,,11
"[24250, 32840, 35624]","[u'down', u'down', u'right']",,"[4, 0, 2]","[1, 5, 9, 17]","{u'mouseover': {u'state': {u'target': [], u'time': []}, u'edge': {u'target': [], u'time': []}}, u'click': {u'state': {u'target': [u'5', u'9', u'17'], u'time': [2124, 2774, 3487]}, u'edge': {u'target': [], u'time': []}}, u'mouseout': {u'state': {u'target': [], u'time': []}, u'edge': {u'target': [], u'time': []}}}",,,"[24250, 705, 1695]",33.97,1120285,7.0,7.0,mouselab-mdp,,11
"[31190, 37020, 40053]","[u'up', u'up', u'left']",,"[0, 0, 0]","[1, 3, 7, 12]","{u'mouseover': {u'state': {u'target': [], u'time': []}, u'edge': {u'target': [], u'time': []}}, u'click': {u'state': {u'target': [u'5', u'3', u'7', u'13', u'12', u'2', u'4', u'8', u'14', u'15', u'9', u'17', u'16', u'11', u'6', u'10'], u'time': [1764, 2781, 3507, 4072, 5623, 6951, 8437, 9309, 10897, 11647, 21129, 21700, 22404, 23932, 24298, 24691]}, u'edge': {u'target': [], u'time': []}}, u'mouseout': {u'state': {u'target': [], u'time': []}, u'edge': {u'target': [], u'time': []}}}",,,"[31189, 4, 2496]",36.84,1173001,8.0,9.0,mouselab-mdp,,11
"[15334, 24854, 28938]","[u'left', u'left', u'up']",,"[0, 0, 0]","[1, 4, 8, 14]","{u'mouseover': {u'state': {u'target': [], u'time': []}, u'edge': {u'target': [], u'time': []}}, u'click': {u'state': {u'target': [u'2', u'6', u'11', u'10', u'5', u'9', u'17', u'16', u'3', u'7', u'12', u'13', u'4', u'8', u'15', u'14'], u'time': [2145, 2726, 3339, 3924, 5082, 5793, 6259, 7023, 7671, 8013, 9311, 9981, 10610, 11123, 11593, 12339]}, u'edge': {u'target': [], u'time': []}}, u'mouseout': {u'state': {u'target': [], u'time': []}, u'edge': {u'target': [], u'time': []}}}",,,"[15334, 4306, 3562]",33.84,1228458,9.0,5.0,mouselab-mdp,,11
"[37202, 44217, 46991]","[u'down', u'down', u'right']",,"[2, 0, 0]","[1, 5, 9, 17]","{u'mouseover': {u'state': {u'target': [], u'time': []}, u'edge': {u'target': [], u'time': []}}, u'click': {u'state': {u'target': [u'2', u'5', u'9', u'16', u'17'], u'time': [3102, 4818, 5461, 6935, 7767]}, u'edge': {u'target': [], u'time': []}}, u'mouseout': {u'state': {u'target': [], u'time': []}, u'edge': {u'target': [], u'time': []}}}",,,"[37202, 691, 1800]",41.95,1289405,10.0,4.0,mouselab-mdp,,11
"[20961, 26534, 33450]","[u'left', u'left', u'up']",,"[0, 0, 0]","[1, 4, 8, 14]","{u'mouseover': {u'state': {u'target': [], u'time': []}, u'edge': {u'target': [], u'time': []}}, u'click': {u'state': {u'target': [u'3', u'7', u'13', u'12', u'2', u'5', u'9', u'17', u'16', u'4', u'8', u'14', u'15'], u'time': [916, 1634, 2421, 3251, 4037, 4947, 5501, 5983, 6611, 7483, 8007, 8545, 9293]}, u'edge': {u'target': [], u'time': []}}, u'mouseout': {u'state': {u'target': [], u'time': []}, u'edge': {u'target': [], u'time': []}}}",,,"[20961, 2, 6212]",39.87,1340965,11.0,0.0,mouselab-mdp,,11
"[11165, 18279, 25666]","[u'up', u'up', u'left']",,"[2, 0, 0]","[1, 3, 7, 12]","{u'mouseover': {u'state': {u'target': [], u'time': []}, u'edge': {u'target': [], u'time': []}}, u'click': {u'state': {u'target': [u'3', u'7', u'13', u'12'], u'time': [3160, 3847, 4558, 5599]}, u'edge': {u'target': [], u'time': []}}, u'mouseout': {u'state': {u'target': [], u'time': []}, u'edge': {u'target': [], u'time': []}}}",,,"[11165, 1127, 6410]",40.96,1394597,12.0,8.0,mouselab-mdp,,11
"[1519, 3419, 7785]","[u'up', u'up', u'right']",,"[0, 0, 0]","[1, 3, 7, 13]","{u'mouseover': {u'state': {u'target': [], u'time': []}, u'edge': {u'target': [], u'time': []}}, u'click': {u'state': {u'target': [], u'time': []}, u'edge': {u'target': [], u'time': []}}, u'mouseout': {u'state': {u'target': [], u'time': []}, u'edge': {u'target': [], u'time': []}}}",,,"[1518, 2, 3112]",13.0,424276,1.0,2.0,mouselab-mdp,,12
"[1406, 5319, 7787]","[u'down', u'down', u'left']",,"[0, 0, 0]","[1, 5, 9, 16]","{u'mouseover': {u'state': {u'target': [], u'time': []}, u'edge': {u'target': [], u'time': []}}, u'click': {u'state': {u'target': [], u'time': []}, u'edge': {u'target': [], u'time': []}}, u'mouseout': {u'state': {u'target': [], u'time': []}, u'edge': {u'target': [], u'time': []}}}",,,"[1405, 2113, 1368]",2.0,476406,2.0,9.0,mouselab-mdp,,12
"[3145, 5621, 7682]","[u'right', u'right', u'down']",,"[0, 0, 0]","[1, 2, 6, 11]","{u'mouseover': {u'state': {u'target': [], u'time': []}, u'edge': {u'target': [], u'time': []}}, u'click': {u'state': {u'target': [], u'time': []}, u'edge': {u'target': [], u'time': []}}, u'mouseout': {u'state': {u'target': [], u'time': []}, u'edge': {u'target': [], u'time': []}}}",,,"[3145, 2, 1132]",0.0,525133,3.0,3.0,mouselab-mdp,,12
"[1170, 2991, 4449]","[u'right', u'right', u'up']",,"[0, 0, 0]","[1, 2, 6, 10]","{u'mouseover': {u'state': {u'target': [], u'time': []}, u'edge': {u'target': [], u'time': []}}, u'click': {u'state': {u'target': [], u'time': []}, u'edge': {u'target': [], u'time': []}}, u'mouseout': {u'state': {u'target': [], u'time': []}, u'edge': {u'target': [], u'time': []}}}",,,"[1170, 2, 613]",8.0,583982,4.0,7.0,mouselab-mdp,,12
"[7003, 8797, 10204]","[u'left', u'left', u'up']",,"[0, 0, 0]","[1, 4, 8, 14]","{u'mouseover': {u'state': {u'target': [], u'time': []}, u'edge': {u'target': [], u'time': []}}, u'click': {u'state': {u'target': [], u'time': []}, u'edge': {u'target': [], u'time': []}}, u'mouseout': {u'state': {u'target': [], u'time': []}, u'edge': {u'target': [], u'time': []}}}",,,"[7002, 3, 387]",18.0,631409,5.0,10.0,mouselab-mdp,,12
"[524, 2452, 3992]","[u'left', u'left', u'up']",,"[0, 0, 0]","[1, 4, 8, 14]","{u'mouseover': {u'state': {u'target': [], u'time': []}, u'edge': {u'target': [], u'time': []}}, u'click': {u'state': {u'target': [], u'time': []}, u'edge': {u'target': [], u'time': []}}, u'mouseout': {u'state': {u'target': [], u'time': []}, u'edge': {u'target': [], u'time': []}}}",,,"[524, 2, 683]",34.0,679195,6.0,5.0,mouselab-mdp,,12
"[445, 2888, 4715]","[u'down', u'down', u'right']",,"[0, 0, 0]","[1, 5, 9, 17]","{u'mouseover': {u'state': {u'target': [], u'time': []}, u'edge': {u'target': [], u'time': []}}, u'click': {u'state': {u'target': [], u'time': []}, u'edge': {u'target': [], u'time': []}}, u'mouseout': {u'state': {u'target': [], u'time': []}, u'edge': {u'target': [], u'time': []}}}",,,"[445, 3, 865]",10.0,728774,7.0,1.0,mouselab-mdp,,12
"[458, 2359, 3538]","[u'left', u'left', u'up']",,"[0, 0, 0]","[1, 4, 8, 14]","{u'mouseover': {u'state': {u'target': [], u'time': []}, u'edge': {u'target': [], u'time': []}}, u'click': {u'state': {u'target': [], u'time': []}, u'edge': {u'target': [], u'time': []}}, u'mouseout': {u'state': {u'target': [], u'time': []}, u'edge': {u'target': [], u'time': []}}}",,,"[458, 3, 173]",40.0,777866,8.0,0.0,mouselab-mdp,,12
"[457, 3070, 4935]","[u'left', u'left', u'down']",,"[0, 0, 0]","[1, 4, 8, 15]","{u'mouseover': {u'state': {u'target': [], u'time': []}, u'edge': {u'target': [], u'time': []}}, u'click': {u'state': {u'target': [], u'time': []}, u'edge': {u'target': [], u'time': []}}, u'mouseout': {u'state': {u'target': [], u'time': []}, u'edge': {u'target': [], u'time': []}}}",,,"[456, 630, 925]",6.0,827726,9.0,6.0,mouselab-mdp,,12
"[991, 3535, 5015]","[u'right', u'right', u'down']",,"[0, 0, 0]","[1, 2, 6, 11]","{u'mouseover': {u'state': {u'target': [], u'time': []}, u'edge': {u'target': [], u'time': []}}, u'click': {u'state': {u'target': [], u'time': []}, u'edge': {u'target': [], u'time': []}}, u'mouseout': {u'state': {u'target': [], u'time': []}, u'edge': {u'target': [], u'time': []}}}",,,"[991, 710, 574]",0.0,875113,10.0,4.0,mouselab-mdp,,12
"[777, 3322, 5689]","[u'up', u'up', u'left']",,"[0, 0, 0]","[1, 3, 7, 12]","{u'mouseover': {u'state': {u'target': [], u'time': []}, u'edge': {u'target': [], u'time': []}}, u'click': {u'state': {u'target': [], u'time': []}, u'edge': {u'target': [], u'time': []}}, u'mouseout': {u'state': {u'target': [], u'time': []}, u'edge': {u'target': [], u'time': []}}}",,,"[777, 650, 1255]",15.0,931926,11.0,11.0,mouselab-mdp,,12
"[2452, 4841, 7559]","[u'right', u'right', u'up']",,"[0, 0, 0]","[1, 2, 6, 10]","{u'mouseover': {u'state': {u'target': [], u'time': []}, u'edge': {u'target': [], u'time': []}}, u'click': {u'state': {u'target': [], u'time': []}, u'edge': {u'target': [], u'time': []}}, u'mouseout': {u'state': {u'target': [], u'time': []}, u'edge': {u'target': [], u'time': []}}}",,,"[2452, 386, 1761]",28.0,983245,12.0,8.0,mouselab-mdp,,12
"[3765, 11495, 14449]","[u'right', u'right', u'down']",,"[5, 0, 0]","[1, 2, 6, 11]","{u'mouseover': {u'state': {u'target': [], u'time': []}, u'edge': {u'target': [], u'time': []}}, u'click': {u'state': {u'target': [], u'time': []}, u'edge': {u'target': [], u'time': []}}, u'mouseout': {u'state': {u'target': [], u'time': []}, u'edge': {u'target': [], u'time': []}}}",,,"[3764, 870, 2070]",0.0,423698,1.0,3.0,mouselab-mdp,,13
"[4115, 6637, 8483]","[u'left', u'left', u'up']",,"[0, 0, 0]","[1, 4, 8, 14]","{u'mouseover': {u'state': {u'target': [], u'time': []}, u'edge': {u'target': [], u'time': []}}, u'click': {u'state': {u'target': [u'4', u'14'], u'time': [1061, 3321]}, u'edge': {u'target': [], u'time': []}}, u'mouseout': {u'state': {u'target': [], u'time': []}, u'edge': {u'target': [], u'time': []}}}",,,"[4115, 80, 969]",6.8,474003,2.0,6.0,mouselab-mdp,,13
"[3809, 8615, 10077]","[u'up', u'up', u'right']",,"[2, 0, 0]","[1, 3, 7, 13]","{u'mouseover': {u'state': {u'target': [], u'time': []}, u'edge': {u'target': [], u'time': []}}, u'click': {u'state': {u'target': [u'3', u'13'], u'time': [1693, 2365]}, u'edge': {u'target': [], u'time': []}}, u'mouseout': {u'state': {u'target': [], u'time': []}, u'edge': {u'target': [], u'time': []}}}",,,"[3808, 460, 579]",27.8,524974,3.0,9.0,mouselab-mdp,,13
"[4647, 8624, 10353]","[u'down', u'down', u'left']",,"[1, 0, 0]","[1, 5, 9, 16]","{u'mouseover': {u'state': {u'target': [], u'time': []}, u'edge': {u'target': [], u'time': []}}, u'click': {u'state': {u'target': [u'5', u'16'], u'time': [2398, 3275]}, u'edge': {u'target': [], u'time': []}}, u'mouseout': {u'state': {u'target': [], u'time': []}, u'edge': {u'target': [], u'time': []}}}",,,"[4647, 523, 817]",0.8,573979,4.0,2.0,mouselab-mdp,,13
"[4541, 8115, 9733]","[u'left', u'left', u'up']",,"[1, 0, 0]","[1, 4, 8, 14]","{u'mouseover': {u'state': {u'target': [], u'time': []}, u'edge': {u'target': [], u'time': []}}, u'click': {u'state': {u'target': [u'2', u'4'], u'time': [958, 2421]}, u'edge': {u'target': [], u'time': []}}, u'mouseout': {u'state': {u'target': [], u'time': []}, u'edge': {u'target': [], u'time': []}}}",,,"[4541, 394, 686]",36.8,624753,5.0,0.0,mouselab-mdp,,13
"[4907, 8558, 10084]","[u'down', u'down', u'left']",,"[1, 0, 0]","[1, 5, 9, 16]","{u'mouseover': {u'state': {u'target': [], u'time': []}, u'edge': {u'target': [], u'time': []}}, u'click': {u'state': {u'target': [u'5', u'16'], u'time': [2178, 3854]}, u'edge': {u'target': [], u'time': []}}, u'mouseout': {u'state': {u'target': [], u'time': []}, u'edge': {u'target': [], u'time': []}}}",,,"[4907, 340, 592]",12.8,679360,6.0,5.0,mouselab-mdp,,13
"[3239, 6906, 8302]","[u'right', u'right', u'up']",,"[1, 0, 0]","[1, 2, 6, 10]","{u'mouseover': {u'state': {u'target': [], u'time': []}, u'edge': {u'target': [], u'time': []}}, u'click': {u'state': {u'target': [u'2', u'10'], u'time': [961, 2202]}, u'edge': {u'target': [], u'time': []}}, u'mouseout': {u'state': {u'target': [], u'time': []}, u'edge': {u'target': [], u'time': []}}}",,,"[3237, 429, 549]",18.8,728902,7.0,10.0,mouselab-mdp,,13
"[3329, 9043, 11304]","[u'up', u'up', u'left']",,"[3, 0, 0]","[1, 3, 7, 12]","{u'mouseover': {u'state': {u'target': [], u'time': []}, u'edge': {u'target': [], u'time': []}}, u'click': {u'state': {u'target': [u'3', u'13'], u'time': [1207, 2038]}, u'edge': {u'target': [], u'time': []}}, u'mouseout': {u'state': {u'target': [], u'time': []}, u'edge': {u'target': [], u'time': []}}}",,,"[3329, 404, 1408]",11.8,781022,8.0,11.0,mouselab-mdp,,13
"[3062, 7813, 9207]","[u'left', u'left', u'down']",,"[2, 0, 0]","[1, 4, 8, 15]","{u'mouseover': {u'state': {u'target': [], u'time': []}, u'edge': {u'target': [], u'time': []}}, u'click': {u'state': {u'target': [u'4', u'14'], u'time': [700, 2102]}, u'edge': {u'target': [], u'time': []}}, u'mouseout': {u'state': {u'target': [], u'time': []}, u'edge': {u'target': [], u'time': []}}}",,,"[3062, 408, 530]",4.8,835142,9.0,4.0,mouselab-mdp,,13
"[3634, 9419, 10848]","[u'right', u'right', u'down']",,"[3, 0, 0]","[1, 2, 6, 11]","{u'mouseover': {u'state': {u'target': [], u'time': []}, u'edge': {u'target': [], u'time': []}}, u'click': {u'state': {u'target': [u'2', u'10'], u'time': [1663, 2340]}, u'edge': {u'target': [], u'time': []}}, u'mouseout': {u'state': {u'target': [], u'time': []}, u'edge': {u'target': [], u'time': []}}}",,,"[3634, 406, 558]",-1.2,888279,10.0,7.0,mouselab-mdp,,13
"[4950, 10724, 12084]","[u'down', u'down', u'left']",,"[3, 0, 0]","[1, 5, 9, 16]","{u'mouseover': {u'state': {u'target': [], u'time': []}, u'edge': {u'target': [], u'time': []}}, u'click': {u'state': {u'target': [u'5', u'17'], u'time': [2132, 3413]}, u'edge': {u'target': [], u'time': []}}, u'mouseout': {u'state': {u'target': [], u'time': []}, u'edge': {u'target': [], u'time': []}}}",,,"[4950, 424, 467]",8.8,939816,11.0,8.0,mouselab-mdp,,13
"[2405, 7263, 8773]","[u'up', u'up', u'left']",,"[2, 0, 0]","[1, 3, 7, 12]","{u'mouseover': {u'state': {u'target': [], u'time': []}, u'edge': {u'target': [], u'time': []}}, u'click': {u'state': {u'target': [u'3', u'13'], u'time': [446, 1154]}, u'edge': {u'target': [], u'time': []}}, u'mouseout': {u'state': {u'target': [], u'time': []}, u'edge': {u'target': [], u'time': []}}}",,,"[2404, 422, 631]",17.8,991655,12.0,1.0,mouselab-mdp,,13
"[17423, 34693, 42718]","[u'right', u'right', u'down']",,"[4, 6, 0]","[1, 2, 6, 11]","{u'mouseover': {u'state': {u'target': [], u'time': []}, u'edge': {u'target': [], u'time': []}}, u'click': {u'state': {u'target': [u'2', u'10', u'11'], u'time': [12801, 28715, 32240]}, u'edge': {u'target': [], u'time': []}}, u'mouseout': {u'state': {u'target': [], u'time': []}, u'edge': {u'target': [], u'time': []}}}",,,"[17423, 12001, 1133]",33.2,290476,1.0,6.0,mouselab-mdp,,15
"[18549, 20734, 21909]","[u'left', u'left', u'up']",,"[0, 0, 0]","[1, 4, 8, 14]","{u'mouseover': {u'state': {u'target': [], u'time': []}, u'edge': {u'target': [], u'time': []}}, u'click': {u'state': {u'target': [u'7', u'13', u'12', u'15', u'14'], u'time': [7560, 10282, 11766, 14148, 15393]}, u'edge': {u'target': [], u'time': []}}, u'mouseout': {u'state': {u'target': [], u'time': []}, u'edge': {u'target': [], u'time': []}}}",,,"[18549, 533, 540]",10.0,337900,2.0,10.0,mouselab-mdp,,15
"[15241, 17744, 22577]","[u'up', u'up', u'left']",,"[0, 3, 0]","[1, 3, 7, 12]","{u'mouseover': {u'state': {u'target': [], u'time': []}, u'edge': {u'target': [], u'time': []}}, u'click': {u'state': {u'target': [u'16', u'17', u'10', u'11', u'13', u'12', u'7'], u'time': [3794, 5307, 8411, 10601, 12537, 13368, 17137]}, u'edge': {u'target': [], u'time': []}}, u'mouseout': {u'state': {u'target': [], u'time': []}, u'edge': {u'target': [], u'time': []}}}",,,"[15241, 673, 1096]",29.8,388603,3.0,8.0,mouselab-mdp,,15
"[21822, 23933, 26213]","[u'up', u'up', u'left']",,"[0, 0, 2]","[1, 3, 7, 12]","{u'mouseover': {u'state': {u'target': [], u'time': []}, u'edge': {u'target': [], u'time': []}}, u'click': {u'state': {u'target': [u'15', u'14', u'17', u'11', u'13', u'7', u'9', u'8', u'3', u'10', u'6'], u'time': [1655, 6536, 8814, 10599, 13194, 14173, 16140, 17962, 20839, 32983, 35995]}, u'edge': {u'target': [], u'time': []}}, u'mouseout': {u'state': {u'target': [], u'time': []}, u'edge': {u'target': [], u'time': []}}}",,,"[21822, 2, 1634]",19.4,445418,4.0,9.0,mouselab-mdp,,15
"[12941, 21988, 23435]","[u'left', u'left', u'up']",,"[6, 0, 0]","[1, 4, 8, 14]","{u'mouseover': {u'state': {u'target': [], u'time': []}, u'edge': {u'target': [], u'time': []}}, u'click': {u'state': {u'target': [u'11', u'3', u'12', u'13', u'4', u'14'], u'time': [2638, 6059, 7566, 8454, 10897, 11911]}, u'edge': {u'target': [], u'time': []}}, u'mouseout': {u'state': {u'target': [], u'time': []}, u'edge': {u'target': [], u'time': []}}}",,,"[12941, 1135, 802]",30.4,499169,5.0,0.0,mouselab-mdp,,15
"[9686, 15190, 22455]","[u'right', u'right', u'down']",,"[2, 6, 0]","[1, 2, 6, 11]","{u'mouseover': {u'state': {u'target': [], u'time': []}, u'edge': {u'target': [], u'time': []}}, u'click': {u'state': {u'target': [u'9', u'3', u'13', u'12', u'6', u'10', u'11'], u'time': [1143, 4355, 5400, 6238, 8463, 13875, 14742]}, u'edge': {u'target': [], u'time': []}}, u'mouseout': {u'state': {u'target': [], u'time': []}, u'edge': {u'target': [], u'time': []}}}",,,"[9686, 1797, 389]",26.8,556800,6.0,11.0,mouselab-mdp,,15
"[6424, 11544, 12728]","[u'down', u'down', u'left']",,"[3, 0, 0]","[1, 5, 9, 16]","{u'mouseover': {u'state': {u'target': [], u'time': []}, u'edge': {u'target': [], u'time': []}}, u'click': {u'state': {u'target': [u'16', u'17', u'9'], u'time': [732, 3902, 5375]}, u'edge': {u'target': [], u'time': []}}, u'mouseout': {u'state': {u'target': [], u'time': []}, u'edge': {u'target': [], u'time': []}}}",,,"[6424, 606, 533]",41.2,607598,7.0,1.0,mouselab-mdp,,15
"[4887, 6497, 7936]","[u'up', u'up', u'left']",,"[0, 0, 0]","[1, 3, 7, 12]","{u'mouseover': {u'state': {u'target': [], u'time': []}, u'edge': {u'target': [], u'time': []}}, u'click': {u'state': {u'target': [u'14', u'11', u'12'], u'time': [614, 2016, 3235]}, u'edge': {u'target': [], u'time': []}}, u'mouseout': {u'state': {u'target': [], u'time': []}, u'edge': {u'target': [], u'time': []}}}",,,"[4887, 1, 763]",18.2,655374,8.0,4.0,mouselab-mdp,,15
"[6803, 8610, 10011]","[u'down', u'down', u'right']",,"[0, 0, 0]","[1, 5, 9, 17]","{u'mouseover': {u'state': {u'target': [], u'time': []}, u'edge': {u'target': [], u'time': []}}, u'click': {u'state': {u'target': [u'17', u'5'], u'time': [3865, 5680]}, u'edge': {u'target': [], u'time': []}}, u'mouseout': {u'state': {u'target': [], u'time': []}, u'edge': {u'target': [], u'time': []}}}",,,"[6803, 371, 710]",10.8,706317,9.0,5.0,mouselab-mdp,,15
"[4774, 8006, 9519]","[u'right', u'right', u'down']",,"[1, 0, 0]","[1, 2, 6, 11]","{u'mouseover': {u'state': {u'target': [], u'time': []}, u'edge': {u'target': [], u'time': []}}, u'click': {u'state': {u'target': [u'14', u'11', u'6', u'2'], u'time': [676, 2002, 3097, 4225]}, u'edge': {u'target': [], u'time': []}}, u'mouseout': {u'state': {u'target': [], u'time': []}, u'edge': {u'target': [], u'time': []}}}",,,"[4774, 532, 814]",25.6,755846,10.0,2.0,mouselab-mdp,,15
"[10772, 12634, 14236]","[u'left', u'left', u'down']",,"[0, 0, 0]","[1, 4, 8, 15]","{u'mouseover': {u'state': {u'target': [], u'time': []}, u'edge': {u'target': [], u'time': []}}, u'click': {u'state': {u'target': [u'16', u'14', u'13', u'11', u'12', u'15'], u'time': [1058, 2797, 3961, 5160, 8400, 10144]}, u'edge': {u'target': [], u'time': []}}, u'mouseout': {u'state': {u'target': [], u'time': []}, u'edge': {u'target': [], u'time': []}}}",,,"[10772, 1, 975]",16.4,804436,11.0,3.0,mouselab-mdp,,15
"[3556, 7452, 8557]","[u'down', u'down', u'left']",,"[2, 0, 0]","[1, 5, 9, 16]","{u'mouseover': {u'state': {u'target': [], u'time': []}, u'edge': {u'target': [], u'time': []}}, u'click': {u'state': {u'target': [u'16', u'9'], u'time': [1938, 2995]}, u'edge': {u'target': [], u'time': []}}, u'mouseout': {u'state': {u'target': [], u'time': []}, u'edge': {u'target': [], u'time': []}}}",,,"[3556, 433, 411]",30.8,855235,12.0,7.0,mouselab-mdp,,15
