action_times,actions,correct,delays,path,queries,questions,responses,rt,score,time_elapsed,trial_index,trial_i,trial_type,view_history,pid
,,"[True, True, True, True, True]",,,,"[""True or false: The hidden values will change each time I start a new round."",""How much does it cost to observe each hidden value?"",""How many hidden values am I allowed to observe in each round?"",""How is your bonus determined?"",""What does the feedback teach you?""]","[""True"",""$1.60"",""As many or as few as I wish"",""5% of my score on a random round"",""All of the above.""]",45012,,227423,,,survey-multi-choice,,0
,,"[True, False, True, True, True]",,,,"[""True or false: The hidden values will change each time I start a new round."",""How much does it cost to observe each hidden value?"",""How many hidden values am I allowed to observe in each round?"",""How is your bonus determined?"",""What does the feedback teach you?""]","[""True"",""$0.01"",""As many or as few as I wish"",""5% of my score on a random round"",""All of the above.""]",9194,,64650,,,survey-multi-choice,,1
,,"[True, False, True, True, True]",,,,"[""True or false: The hidden values will change each time I start a new round."",""How much does it cost to observe each hidden value?"",""How many hidden values am I allowed to observe in each round?"",""How is your bonus determined?"",""What does the feedback teach you?""]","[""True"",""$0.01"",""As many or as few as I wish"",""5% of my score on a random round"",""All of the above.""]",18543,,104452,,,survey-multi-choice,,1
,,"[True, True, True, True, True]",,,,"[""True or false: The hidden values will change each time I start a new round."",""How much does it cost to observe each hidden value?"",""How many hidden values am I allowed to observe in each round?"",""How is your bonus determined?"",""What does the feedback teach you?""]","[""True"",""$1.60"",""As many or as few as I wish"",""5% of my score on a random round"",""All of the above.""]",9217,,129273,,,survey-multi-choice,,1
,,"[True, True, True, True, True]",,,,"[""True or false: The hidden values will change each time I start a new round."",""How much does it cost to observe each hidden value?"",""How many hidden values am I allowed to observe in each round?"",""How is your bonus determined?"",""What does the feedback teach you?""]","[""True"",""$2.80"",""As many or as few as I wish"",""5% of my score on a random round"",""All of the above.""]",13594,,35896,,,survey-multi-choice,,2
,,"[True, False, True, True, True]",,,,"[""True or false: The hidden values will change each time I start a new round."",""How much does it cost to observe each hidden value?"",""How many hidden values am I allowed to observe in each round?"",""How is your bonus determined?"",""What does the feedback teach you?""]","[""True"",""$0.01"",""As many or as few as I wish"",""5% of my score on a random round"",""All of the above.""]",90802,,212501,,,survey-multi-choice,,3
,,"[True, True, True, True, True]",,,,"[""True or false: The hidden values will change each time I start a new round."",""How much does it cost to observe each hidden value?"",""How many hidden values am I allowed to observe in each round?"",""How is your bonus determined?"",""What does the feedback teach you?""]","[""True"",""$1.60"",""As many or as few as I wish"",""5% of my score on a random round"",""All of the above.""]",94908,,342324,,,survey-multi-choice,,3
,,"[True, True, True, False, True]",,,,"[""True or false: The hidden values will change each time I start a new round."",""How much does it cost to observe each hidden value?"",""How many hidden values am I allowed to observe in each round?"",""How is your bonus determined?"",""What does the feedback teach you?""]","[""True"",""$0.01"",""As many or as few as I wish"",""10% of my best score on any round"",""All of the above.""]",23917,,105840,,,survey-multi-choice,,4
,,"[True, True, True, True, False]",,,,"[""True or false: The hidden values will change each time I start a new round."",""How much does it cost to observe each hidden value?"",""How many hidden values am I allowed to observe in each round?"",""How is your bonus determined?"",""What does the feedback teach you?""]","[""True"",""$0.01"",""As many or as few as I wish"",""5% of my score on a random round"",""The length of the delay is based on how much more money I could have earned by planning and deciding better.""]",17378,,151936,,,survey-multi-choice,,4
,,"[True, True, True, True, False]",,,,"[""True or false: The hidden values will change each time I start a new round."",""How much does it cost to observe each hidden value?"",""How many hidden values am I allowed to observe in each round?"",""How is your bonus determined?"",""What does the feedback teach you?""]","[""True"",""$0.01"",""As many or as few as I wish"",""5% of my score on a random round"",""Whether I chose the move that was best according to the information I had.""]",18310,,217679,,,survey-multi-choice,,4
,,"[True, True, True, True, True]",,,,"[""True or false: The hidden values will change each time I start a new round."",""How much does it cost to observe each hidden value?"",""How many hidden values am I allowed to observe in each round?"",""How is your bonus determined?"",""What does the feedback teach you?""]","[""True"",""$0.01"",""As many or as few as I wish"",""5% of my score on a random round"",""All of the above.""]",12627,,250475,,,survey-multi-choice,,4
,,"[True, False, True, True, False]",,,,"[""True or false: The hidden values will change each time I start a new round."",""How much does it cost to observe each hidden value?"",""How many hidden values am I allowed to observe in each round?"",""How is your bonus determined?"",""What does the feedback teach you?""]","[""True"",""$0.01"",""As many or as few as I wish"",""5% of my score on a random round"",""Whether I chose the move that was best according to the information I had.""]",42498,,205490,,,survey-multi-choice,,5
,,"[True, True, True, True, True]",,,,"[""True or false: The hidden values will change each time I start a new round."",""How much does it cost to observe each hidden value?"",""How many hidden values am I allowed to observe in each round?"",""How is your bonus determined?"",""What does the feedback teach you?""]","[""True"",""$2.80"",""As many or as few as I wish"",""5% of my score on a random round"",""All of the above.""]",60805,,359290,,,survey-multi-choice,,5
,,"[True, True, False, True, True]",,,,"[""True or false: The hidden values will change each time I start a new round."",""How much does it cost to observe each hidden value?"",""How many hidden values am I allowed to observe in each round?"",""How is your bonus determined?"",""What does the feedback teach you?""]","[""True"",""$2.80"",""At most 10"",""5% of my score on a random round"",""All of the above.""]",64723,,264541,,,survey-multi-choice,,6
,,"[True, True, True, True, True]",,,,"[""True or false: The hidden values will change each time I start a new round."",""How much does it cost to observe each hidden value?"",""How many hidden values am I allowed to observe in each round?"",""How is your bonus determined?"",""What does the feedback teach you?""]","[""True"",""$2.80"",""As many or as few as I wish"",""5% of my score on a random round"",""All of the above.""]",53432,,406888,,,survey-multi-choice,,6
,,"[True, True, True, True, True]",,,,"[""True or false: The hidden values will change each time I start a new round."",""How much does it cost to observe each hidden value?"",""How many hidden values am I allowed to observe in each round?"",""How is your bonus determined?"",""What does the feedback teach you?""]","[""True"",""$2.80"",""As many or as few as I wish"",""5% of my score on a random round"",""All of the above.""]",37177,,181181,,,survey-multi-choice,,7
,,"[True, True, False, False, False]",,,,"[""True or false: The hidden values will change each time I start a new round."",""How much does it cost to observe each hidden value?"",""How many hidden values am I allowed to observe in each round?"",""How is your bonus determined?"",""What does the feedback teach you?""]","[""True"",""$0.01"",""At most 1"",""10% of my best score on any round"",""The length of the delay is based on how much more money I could have earned by planning and deciding better.""]",24206,,60757,,,survey-multi-choice,,8
,,"[True, True, True, True, True]",,,,"[""True or false: The hidden values will change each time I start a new round."",""How much does it cost to observe each hidden value?"",""How many hidden values am I allowed to observe in each round?"",""How is your bonus determined?"",""What does the feedback teach you?""]","[""True"",""$0.01"",""As many or as few as I wish"",""5% of my score on a random round"",""All of the above.""]",189797,,328321,,,survey-multi-choice,,8
,,"[True, True, True, True, False]",,,,"[""True or false: The hidden values will change each time I start a new round."",""How much does it cost to observe each hidden value?"",""How many hidden values am I allowed to observe in each round?"",""How is your bonus determined?"",""What does the feedback teach you?""]","[""True"",""$0.01"",""As many or as few as I wish"",""5% of my score on a random round"",""Whether I chose the move that was best according to the information I had.""]",30151,,629856,,,survey-multi-choice,,9
,,"[True, True, True, True, True]",,,,"[""True or false: The hidden values will change each time I start a new round."",""How much does it cost to observe each hidden value?"",""How many hidden values am I allowed to observe in each round?"",""How is your bonus determined?"",""What does the feedback teach you?""]","[""True"",""$0.01"",""As many or as few as I wish"",""5% of my score on a random round"",""All of the above.""]",15226,,676257,,,survey-multi-choice,,9
,,"[True, True, True, True, True]",,,,"[""True or false: The hidden values will change each time I start a new round."",""How much does it cost to observe each hidden value?"",""How many hidden values am I allowed to observe in each round?"",""How is your bonus determined?"",""What does the feedback teach you?""]","[""True"",""$0.01"",""As many or as few as I wish"",""5% of my score on a random round"",""All of the above.""]",14375,,93499,,,survey-multi-choice,,10
,,"[True, True, False, True, True]",,,,"[""True or false: The hidden values will change each time I start a new round."",""How much does it cost to observe each hidden value?"",""How many hidden values am I allowed to observe in each round?"",""How is your bonus determined?"",""What does the feedback teach you?""]","[""True"",""$0.01"",""At most 1"",""5% of my score on a random round"",""All of the above.""]",20795,,477645,,,survey-multi-choice,,11
,,"[True, True, False, True, True]",,,,"[""True or false: The hidden values will change each time I start a new round."",""How much does it cost to observe each hidden value?"",""How many hidden values am I allowed to observe in each round?"",""How is your bonus determined?"",""What does the feedback teach you?""]","[""True"",""$0.01"",""At most 1"",""5% of my score on a random round"",""All of the above.""]",52616,,541626,,,survey-multi-choice,,11
,,"[True, True, True, True, True]",,,,"[""True or false: The hidden values will change each time I start a new round."",""How much does it cost to observe each hidden value?"",""How many hidden values am I allowed to observe in each round?"",""How is your bonus determined?"",""What does the feedback teach you?""]","[""True"",""$0.01"",""As many or as few as I wish"",""5% of my score on a random round"",""All of the above.""]",13151,,602916,,,survey-multi-choice,,11
,,"[False, True, True, True, True]",,,,"[""True or false: The hidden values will change each time I start a new round."",""How much does it cost to observe each hidden value?"",""How many hidden values am I allowed to observe in each round?"",""How is your bonus determined?"",""What does the feedback teach you?""]","[""False"",""$2.80"",""As many or as few as I wish"",""5% of my score on a random round"",""All of the above.""]",29703,,172772,,,survey-multi-choice,,12
,,"[False, True, True, True, False]",,,,"[""True or false: The hidden values will change each time I start a new round."",""How much does it cost to observe each hidden value?"",""How many hidden values am I allowed to observe in each round?"",""How is your bonus determined?"",""What does the feedback teach you?""]","[""False"",""$2.80"",""As many or as few as I wish"",""5% of my score on a random round"",""Whether I chose the move that was best according to the information I had.""]",21215,,236268,,,survey-multi-choice,,12
,,"[False, True, True, True, False]",,,,"[""True or false: The hidden values will change each time I start a new round."",""How much does it cost to observe each hidden value?"",""How many hidden values am I allowed to observe in each round?"",""How is your bonus determined?"",""What does the feedback teach you?""]","[""False"",""$2.80"",""As many or as few as I wish"",""5% of my score on a random round"",""The length of the delay is based on how much more money I could have earned by planning and deciding better.""]",20479,,352318,,,survey-multi-choice,,12
,,"[True, True, True, True, True]",,,,"[""True or false: The hidden values will change each time I start a new round."",""How much does it cost to observe each hidden value?"",""How many hidden values am I allowed to observe in each round?"",""How is your bonus determined?"",""What does the feedback teach you?""]","[""True"",""$2.80"",""As many or as few as I wish"",""5% of my score on a random round"",""All of the above.""]",15628,,371115,,,survey-multi-choice,,12
,,"[True, True, True, True, False]",,,,"[""True or false: The hidden values will change each time I start a new round."",""How much does it cost to observe each hidden value?"",""How many hidden values am I allowed to observe in each round?"",""How is your bonus determined?"",""What does the feedback teach you?""]","[""True"",""$1.60"",""As many or as few as I wish"",""5% of my score on a random round"",""The length of the delay is based on how much more money I could have earned by planning and deciding better.""]",38836,,263375,,,survey-multi-choice,,13
,,"[True, True, True, True, True]",,,,"[""True or false: The hidden values will change each time I start a new round."",""How much does it cost to observe each hidden value?"",""How many hidden values am I allowed to observe in each round?"",""How is your bonus determined?"",""What does the feedback teach you?""]","[""True"",""$1.60"",""As many or as few as I wish"",""5% of my score on a random round"",""All of the above.""]",14619,,369382,,,survey-multi-choice,,13
,,"[True, True, True, True, False]",,,,"[""True or false: The hidden values will change each time I start a new round."",""How much does it cost to observe each hidden value?"",""How many hidden values am I allowed to observe in each round?"",""How is your bonus determined?"",""What does the feedback teach you?""]","[""True"",""$1.60"",""As many or as few as I wish"",""5% of my score on a random round"",""The length of the delay is based on how much more money I could have earned by planning and deciding better.""]",22830,,167593,,,survey-multi-choice,,14
,,"[True, True, True, True, False]",,,,"[""True or false: The hidden values will change each time I start a new round."",""How much does it cost to observe each hidden value?"",""How many hidden values am I allowed to observe in each round?"",""How is your bonus determined?"",""What does the feedback teach you?""]","[""True"",""$1.60"",""As many or as few as I wish"",""5% of my score on a random round"",""The length of the delay is based on how much more money I could have earned by planning and deciding better.""]",13386,,196946,,,survey-multi-choice,,14
,,"[True, True, True, True, True]",,,,"[""True or false: The hidden values will change each time I start a new round."",""How much does it cost to observe each hidden value?"",""How many hidden values am I allowed to observe in each round?"",""How is your bonus determined?"",""What does the feedback teach you?""]","[""True"",""$1.60"",""As many or as few as I wish"",""5% of my score on a random round"",""All of the above.""]",7459,,228058,,,survey-multi-choice,,14
,,"[True, True, True, True, True]",,,,"[""True or false: The hidden values will change each time I start a new round."",""How much does it cost to observe each hidden value?"",""How many hidden values am I allowed to observe in each round?"",""How is your bonus determined?"",""What does the feedback teach you?""]","[""True"",""$1.60"",""As many or as few as I wish"",""5% of my score on a random round"",""All of the above.""]",38260,,229901,,,survey-multi-choice,,15
