action_times,actions,button_pressed,correct,delays,information_used_correctly,path,planned_too_little,planned_too_much,queries,questions,responses,rt,score,stimulus,time_elapsed,trial_index,trial_i,trial_type,view_history,pid
"[6707, 11747, 13554]","[u'right', u'right', u'up']",,,[],[],"[u'0', 1, 5, 9]",[],[],"{u'mouseover': {u'state': {u'target': [], u'time': []}, u'edge': {u'target': [], u'time': []}}, u'click': {u'state': {u'target': [], u'time': []}, u'edge': {u'target': [], u'time': []}}, u'mouseout': {u'state': {u'target': [], u'time': []}, u'edge': {u'target': [], u'time': []}}}",,,"[6706, 4515, 1285]",-15.0,,225211,1.0,,mouselab-mdp,,0
"[12374, 14886, 17157]","[u'down', u'down', u'right']",,,[],[],"[u'0', 4, 8, 16]",[],[],"{u'mouseover': {u'state': {u'target': [], u'time': []}, u'edge': {u'target': [], u'time': []}}, u'click': {u'state': {u'target': [u'2', u'1', u'4', u'3'], u'time': [2426, 6849, 10015, 11630]}, u'edge': {u'target': [], u'time': []}}, u'mouseout': {u'state': {u'target': [], u'time': []}, u'edge': {u'target': [], u'time': []}}}",,,"[12374, 1987, 1739]",21.0,,296564,2.0,,mouselab-mdp,,0
"[6296, 8352, 22536]","[u'right', u'right', u'up']",,,[],[],"[u'0', 1, 5, 9]",[],[],"{u'mouseover': {u'state': {u'target': [], u'time': []}, u'edge': {u'target': [], u'time': []}}, u'click': {u'state': {u'target': [u'1', u'9', u'10'], u'time': [2448, 10121, 11089]}, u'edge': {u'target': [], u'time': []}}, u'mouseout': {u'state': {u'target': [], u'time': []}, u'edge': {u'target': [], u'time': []}}}",,,"[6296, 1553, 13670]",12.0,,346106,3.0,,mouselab-mdp,,0
"[17407, 18751, 20535]","[u'up', u'up', u'left']",,,[],[],"[u'0', 2, 6, 11]",[],[],"{u'mouseover': {u'state': {u'target': [], u'time': []}, u'edge': {u'target': [], u'time': []}}, u'click': {u'state': {u'target': [u'2', u'3', u'4', u'1', u'7', u'5', u'6', u'11'], u'time': [1233, 2709, 3576, 4478, 7276, 9435, 13701, 15753]}, u'edge': {u'target': [], u'time': []}}, u'mouseout': {u'state': {u'target': [], u'time': []}, u'edge': {u'target': [], u'time': []}}}",,,"[17407, 819, 1236]",27.0,,403899,4.0,,mouselab-mdp,,0
"[18173, 19712, 20662]","[u'up', u'up', u'left']",,,[],[],"[u'0', 2, 6, 11]",[],[],"{u'mouseover': {u'state': {u'target': [], u'time': []}, u'edge': {u'target': [], u'time': []}}, u'click': {u'state': {u'target': [u'3', u'4', u'1', u'2', u'7', u'5', u'8', u'6', u'12'], u'time': [4065, 5119, 5844, 6617, 8755, 10043, 12463, 14057, 15052]}, u'edge': {u'target': [], u'time': []}}, u'mouseout': {u'state': {u'target': [], u'time': []}, u'edge': {u'target': [], u'time': []}}}",,,"[18173, 1015, 435]",-4.0,,485034,5.0,,mouselab-mdp,,0
"[40784, 42024, 43360]","[u'right', u'right', u'up']",,,[],[],"[u'0', 1, 5, 9]",[],[],"{u'mouseover': {u'state': {u'target': [], u'time': []}, u'edge': {u'target': [], u'time': []}}, u'click': {u'state': {u'target': [u'4', u'2', u'1', u'5', u'3', u'7', u'9', u'10', u'14', u'13', u'6', u'12', u'11', u'8', u'16', u'15'], u'time': [2689, 4347, 5086, 8524, 10652, 11859, 13938, 14696, 16101, 17014, 18682, 19619, 20759, 24703, 25375, 26540]}, u'edge': {u'target': [], u'time': []}}, u'mouseout': {u'state': {u'target': [], u'time': []}, u'edge': {u'target': [], u'time': []}}}",,,"[40784, 715, 821]",-21.0,,535931,6.0,,mouselab-mdp,,0
"[12731, 13591, 14324]","[u'right', u'right', u'up']",,,[],[],"[u'0', 1, 5, 9]",[],[],"{u'mouseover': {u'state': {u'target': [], u'time': []}, u'edge': {u'target': [], u'time': []}}, u'click': {u'state': {u'target': [u'1', u'3', u'2', u'4', u'6', u'5', u'8', u'9', u'10'], u'time': [1089, 1957, 2813, 3615, 6882, 7752, 9449, 11497, 12176]}, u'edge': {u'target': [], u'time': []}}, u'mouseout': {u'state': {u'target': [], u'time': []}, u'edge': {u'target': [], u'time': []}}}",,,"[12731, 345, 227]",6.0,,679695,7.0,,mouselab-mdp,,0
"[7418, 11947, 18955]","[u'down', u'down', u'right']",,,[],[],"[u'0', 4, 8, 16]",[],[],"{u'mouseover': {u'state': {u'target': [], u'time': []}, u'edge': {u'target': [], u'time': []}}, u'click': {u'state': {u'target': [u'3', u'7', u'16', u'15'], u'time': [2998, 4432, 15371, 17222]}, u'edge': {u'target': [], u'time': []}}, u'mouseout': {u'state': {u'target': [], u'time': []}, u'edge': {u'target': [], u'time': []}}}",,,"[7418, 4021, 6500]",1.0,,754200,8.0,,mouselab-mdp,,0
"[4130, 5370, 8129]","[u'down', u'down', u'right']",,,[],[],"[u'0', 4, 8, 16]",[],[],"{u'mouseover': {u'state': {u'target': [], u'time': []}, u'edge': {u'target': [], u'time': []}}, u'click': {u'state': {u'target': [u'2', u'4'], u'time': [1506, 2241]}, u'edge': {u'target': [], u'time': []}}, u'mouseout': {u'state': {u'target': [], u'time': []}, u'edge': {u'target': [], u'time': []}}}",,,"[4130, 730, 2206]",-7.0,,808751,9.0,,mouselab-mdp,,0
"[9162, 10179, 11338]","[u'right', u'right', u'up']",,,[],[],"[u'0', 1, 5, 9]",[],[],"{u'mouseover': {u'state': {u'target': [], u'time': []}, u'edge': {u'target': [], u'time': []}}, u'click': {u'state': {u'target': [u'2', u'4', u'1', u'3', u'5'], u'time': [1968, 3826, 4607, 5550, 7791]}, u'edge': {u'target': [], u'time': []}}, u'mouseout': {u'state': {u'target': [], u'time': []}, u'edge': {u'target': [], u'time': []}}}",,,"[9162, 502, 627]",0.0,,856142,10.0,,mouselab-mdp,,0
"[20936, 22481, 24177]","[u'left', u'left', u'up']",,,[],[],"[u'0', 3, 7, 13]",[],[],"{u'mouseover': {u'state': {u'target': [], u'time': []}, u'edge': {u'target': [], u'time': []}}, u'click': {u'state': {u'target': [u'2', u'6', u'1', u'5', u'3', u'7', u'4', u'9', u'10', u'12', u'11', u'13'], u'time': [2375, 4086, 5074, 5991, 7883, 9155, 11576, 14484, 15282, 16438, 17296, 19390]}, u'edge': {u'target': [], u'time': []}}, u'mouseout': {u'state': {u'target': [], u'time': []}, u'edge': {u'target': [], u'time': []}}}",,,"[20936, 997, 1168]",3.0,,944304,11.0,,mouselab-mdp,,0
"[10087, 11070, 12144]","[u'right', u'right', u'up']",,,[],[],"[u'0', 1, 5, 9]",[],[],"{u'mouseover': {u'state': {u'target': [], u'time': []}, u'edge': {u'target': [], u'time': []}}, u'click': {u'state': {u'target': [u'2', u'6', u'11', u'12', u'1', u'5', u'9'], u'time': [1820, 3275, 4648, 5457, 6294, 7028, 8496]}, u'edge': {u'target': [], u'time': []}}, u'mouseout': {u'state': {u'target': [], u'time': []}, u'edge': {u'target': [], u'time': []}}}",,,"[10087, 471, 512]",18.0,,1004113,12.0,,mouselab-mdp,,0
"[15736, 16512, 17424]","[u'right', u'right', u'up']",,,[],[],"[u'0', 1, 5, 9]",[],[],"{u'mouseover': {u'state': {u'target': [], u'time': []}, u'edge': {u'target': [], u'time': []}}, u'click': {u'state': {u'target': [u'2', u'6', u'3', u'7', u'1', u'5', u'9'], u'time': [1426, 3410, 5396, 6441, 10719, 11541, 13760]}, u'edge': {u'target': [], u'time': []}}, u'mouseout': {u'state': {u'target': [], u'time': []}, u'edge': {u'target': [], u'time': []}}}",,,"[15736, 179, 388]",18.0,,1235904,13.0,,mouselab-mdp,,0
"[29839, 30559, 31231]","[u'right', u'right', u'down']",,,[],[],"[u'0', 1, 5, 10]",[],[],"{u'mouseover': {u'state': {u'target': [], u'time': []}, u'edge': {u'target': [], u'time': []}}, u'click': {u'state': {u'target': [u'2', u'3', u'4', u'8', u'16', u'15', u'1', u'5', u'9', u'10'], u'time': [1402, 2185, 2788, 4716, 5403, 6218, 12173, 15185, 16238, 17596]}, u'edge': {u'target': [], u'time': []}}, u'mouseout': {u'state': {u'target': [], u'time': []}, u'edge': {u'target': [], u'time': []}}}",,,"[29839, 183, 141]",-5.0,,1283819,14.0,,mouselab-mdp,,0
"[36204, 37108, 38182]","[u'right', u'right', u'down']",,,[],[],"[u'0', 1, 5, 10]",[],[],"{u'mouseover': {u'state': {u'target': [], u'time': []}, u'edge': {u'target': [], u'time': []}}, u'click': {u'state': {u'target': [u'2', u'4', u'1', u'3', u'7', u'5', u'9', u'10', u'6', u'8', u'15', u'16', u'14', u'13', u'12', u'11'], u'time': [2938, 4042, 5305, 6214, 7233, 8259, 10390, 14044, 16130, 18384, 21159, 21973, 23505, 25315, 31637, 32476]}, u'edge': {u'target': [], u'time': []}}, u'mouseout': {u'state': {u'target': [], u'time': []}, u'edge': {u'target': [], u'time': []}}}",,,"[36204, 339, 557]",-11.0,,1331276,15.0,,mouselab-mdp,,0
"[14968, 16030, 108812]","[u'left', u'left', u'up']",,,[],[],"[u'0', 3, 7, 13]",[],[],"{u'mouseover': {u'state': {u'target': [], u'time': []}, u'edge': {u'target': [], u'time': []}}, u'click': {u'state': {u'target': [u'1', u'5', u'9', u'10', u'7', u'13', u'14', u'3'], u'time': [1245, 2771, 3664, 4474, 5826, 8698, 9630, 12010]}, u'edge': {u'target': [], u'time': []}}, u'mouseout': {u'state': {u'target': [], u'time': []}, u'edge': {u'target': [], u'time': []}}}",,,"[14968, 540, 92176]",7.0,,1442038,16.0,,mouselab-mdp,,0
"[29280, 33662, 35229]","[u'down', u'down', u'right']",,,[],[],"[u'0', 4, 8, 16]",[],[],"{u'mouseover': {u'state': {u'target': [], u'time': []}, u'edge': {u'target': [], u'time': []}}, u'click': {u'state': {u'target': [u'2', u'6', u'11', u'1', u'5', u'10', u'9', u'4', u'8', u'15', u'14', u'7', u'3', u'13', u'12', u'16'], u'time': [2958, 5339, 7160, 9465, 11060, 12263, 14908, 16728, 17988, 19110, 20124, 20892, 21703, 22606, 24308, 25544]}, u'edge': {u'target': [], u'time': []}}, u'mouseout': {u'state': {u'target': [], u'time': []}, u'edge': {u'target': [], u'time': []}}}",,,"[29279, 3875, 1052]",-41.0,,191585,1.0,,mouselab-mdp,,1
"[4014, 7147, 9215]","[u'right', u'right', u'down']",,,[],[],"[u'0', 1, 5, 10]",[],[],"{u'mouseover': {u'state': {u'target': [], u'time': []}, u'edge': {u'target': [], u'time': []}}, u'click': {u'state': {u'target': [], u'time': []}, u'edge': {u'target': [], u'time': []}}, u'mouseout': {u'state': {u'target': [], u'time': []}, u'edge': {u'target': [], u'time': []}}}",,,"[4014, 2621, 1555]",-5.0,,253001,2.0,,mouselab-mdp,,1
"[1576, 7666, 9275]","[u'left', u'left', u'up']",,,[],[],"[u'0', 3, 7, 13]",[],[],"{u'mouseover': {u'state': {u'target': [], u'time': []}, u'edge': {u'target': [], u'time': []}}, u'click': {u'state': {u'target': [], u'time': []}, u'edge': {u'target': [], u'time': []}}, u'mouseout': {u'state': {u'target': [], u'time': []}, u'edge': {u'target': [], u'time': []}}}",,,"[1576, 5574, 1099]",-15.0,,317730,3.0,,mouselab-mdp,,1
"[5961, 11521, 13421]","[u'up', u'up', u'right']",,,[],[],"[u'0', 2, 6, 12]",[],[],"{u'mouseover': {u'state': {u'target': [], u'time': []}, u'edge': {u'target': [], u'time': []}}, u'click': {u'state': {u'target': [], u'time': []}, u'edge': {u'target': [], u'time': []}}, u'mouseout': {u'state': {u'target': [], u'time': []}, u'edge': {u'target': [], u'time': []}}}",,,"[5961, 5037, 1381]",5.0,,386824,4.0,,mouselab-mdp,,1
"[3102, 6174, 8255]","[u'down', u'down', u'left']",,,[],[],"[u'0', 4, 8, 15]",[],[],"{u'mouseover': {u'state': {u'target': [], u'time': []}, u'edge': {u'target': [], u'time': []}}, u'click': {u'state': {u'target': [], u'time': []}, u'edge': {u'target': [], u'time': []}}, u'mouseout': {u'state': {u'target': [], u'time': []}, u'edge': {u'target': [], u'time': []}}}",,,"[3102, 2567, 1566]",-25.0,,471138,5.0,,mouselab-mdp,,1
"[3255, 5752, 7135]","[u'left', u'left', u'down']",,,[],[],"[u'0', 3, 7, 14]",[],[],"{u'mouseover': {u'state': {u'target': [], u'time': []}, u'edge': {u'target': [], u'time': []}}, u'click': {u'state': {u'target': [], u'time': []}, u'edge': {u'target': [], u'time': []}}, u'mouseout': {u'state': {u'target': [], u'time': []}, u'edge': {u'target': [], u'time': []}}}",,,"[3255, 1982, 879]",15.0,,530132,6.0,,mouselab-mdp,,1
"[2923, 4114, 4956]","[u'left', u'left', u'down']",,,[],[],"[u'0', 3, 7, 14]",[],[],"{u'mouseover': {u'state': {u'target': [], u'time': []}, u'edge': {u'target': [], u'time': []}}, u'click': {u'state': {u'target': [], u'time': []}, u'edge': {u'target': [], u'time': []}}, u'mouseout': {u'state': {u'target': [], u'time': []}, u'edge': {u'target': [], u'time': []}}}",,,"[2923, 687, 337]",-25.0,,577302,7.0,,mouselab-mdp,,1
"[2717, 5283, 6627]","[u'left', u'left', u'up']",,,[],[],"[u'0', 3, 7, 13]",[],[],"{u'mouseover': {u'state': {u'target': [], u'time': []}, u'edge': {u'target': [], u'time': []}}, u'click': {u'state': {u'target': [], u'time': []}, u'edge': {u'target': [], u'time': []}}, u'mouseout': {u'state': {u'target': [], u'time': []}, u'edge': {u'target': [], u'time': []}}}",,,"[2717, 2051, 842]",15.0,,701901,8.0,,mouselab-mdp,,1
"[5203, 7321, 8603]","[u'right', u'right', u'down']",,,[],[],"[u'0', 1, 5, 10]",[],[],"{u'mouseover': {u'state': {u'target': [], u'time': []}, u'edge': {u'target': [], u'time': []}}, u'click': {u'state': {u'target': [], u'time': []}, u'edge': {u'target': [], u'time': []}}, u'mouseout': {u'state': {u'target': [], u'time': []}, u'edge': {u'target': [], u'time': []}}}",,,"[5202, 1610, 770]",5.0,,770172,9.0,,mouselab-mdp,,1
"[3891, 8630, 12768]","[u'left', u'left', u'down']",,,[],[],"[u'0', 3, 7, 14]",[],[],"{u'mouseover': {u'state': {u'target': [], u'time': []}, u'edge': {u'target': [], u'time': []}}, u'click': {u'state': {u'target': [], u'time': []}, u'edge': {u'target': [], u'time': []}}, u'mouseout': {u'state': {u'target': [], u'time': []}, u'edge': {u'target': [], u'time': []}}}",,,"[3891, 4238, 3634]",-5.0,,837131,10.0,,mouselab-mdp,,1
"[5253, 10826, 13129]","[u'up', u'up', u'left']",,,[],[],"[u'0', 2, 6, 11]",[],[],"{u'mouseover': {u'state': {u'target': [], u'time': []}, u'edge': {u'target': [], u'time': []}}, u'click': {u'state': {u'target': [], u'time': []}, u'edge': {u'target': [], u'time': []}}, u'mouseout': {u'state': {u'target': [], u'time': []}, u'edge': {u'target': [], u'time': []}}}",,,"[5252, 5059, 1790]",-15.0,,1099842,11.0,,mouselab-mdp,,1
"[1277, 9002, 12082]","[u'right', u'right', u'up']",,,[],[],"[u'0', 1, 5, 9]",[],[],"{u'mouseover': {u'state': {u'target': [], u'time': []}, u'edge': {u'target': [], u'time': []}}, u'click': {u'state': {u'target': [], u'time': []}, u'edge': {u'target': [], u'time': []}}, u'mouseout': {u'state': {u'target': [], u'time': []}, u'edge': {u'target': [], u'time': []}}}",,,"[1277, 7205, 2570]",15.0,,94457,1.0,,mouselab-mdp,,2
"[3441, 5824, 7529]","[u'up', u'up', u'right']",,,[],[],"[u'0', 2, 6, 12]",[],[],"{u'mouseover': {u'state': {u'target': [], u'time': []}, u'edge': {u'target': [], u'time': []}}, u'click': {u'state': {u'target': [], u'time': []}, u'edge': {u'target': [], u'time': []}}, u'mouseout': {u'state': {u'target': [], u'time': []}, u'edge': {u'target': [], u'time': []}}}",,,"[3441, 1866, 1191]",-25.0,,166633,2.0,,mouselab-mdp,,2
"[1835, 3491, 4970]","[u'down', u'down', u'left']",,,[],[],"[u'0', 4, 8, 15]",[],[],"{u'mouseover': {u'state': {u'target': [], u'time': []}, u'edge': {u'target': [], u'time': []}}, u'click': {u'state': {u'target': [], u'time': []}, u'edge': {u'target': [], u'time': []}}, u'mouseout': {u'state': {u'target': [], u'time': []}, u'edge': {u'target': [], u'time': []}}}",,,"[1835, 1138, 972]",-15.0,,259168,3.0,,mouselab-mdp,,2
"[36377, 37702, 38950]","[u'down', u'down', u'right']",,,[],[],"[u'0', 4, 8, 16]",[],[],"{u'mouseover': {u'state': {u'target': [], u'time': []}, u'edge': {u'target': [], u'time': []}}, u'click': {u'state': {u'target': [u'1', u'5', u'9', u'10', u'14', u'13', u'11', u'12', u'16', u'15', u'3', u'4', u'2', u'6', u'7', u'8'], u'time': [2958, 5027, 7028, 7997, 8703, 9210, 9985, 10561, 11303, 11853, 14691, 15296, 16004, 16803, 17412, 18142]}, u'edge': {u'target': [], u'time': []}}, u'mouseout': {u'state': {u'target': [], u'time': []}, u'edge': {u'target': [], u'time': []}}}",,,"[36377, 821, 735]",9.0,,169647,1.0,,mouselab-mdp,,3
"[30506, 31721, 51363]","[u'left', u'left', u'down']",,,[],[],"[u'0', 3, 7, 14]",[],[],"{u'mouseover': {u'state': {u'target': [], u'time': []}, u'edge': {u'target': [], u'time': []}}, u'click': {u'state': {u'target': [u'2', u'6', u'1', u'4', u'3', u'5', u'9', u'10', u'7', u'13', u'14', u'11', u'12', u'16', u'8', u'15'], u'time': [3681, 4177, 4781, 5231, 5671, 7796, 8550, 9146, 10406, 11542, 12668, 13557, 14053, 14715, 15052, 15447]}, u'edge': {u'target': [], u'time': []}}, u'mouseout': {u'state': {u'target': [], u'time': []}, u'edge': {u'target': [], u'time': []}}}",,,"[30505, 710, 19135]",-1.0,,224558,2.0,,mouselab-mdp,,3
"[8405, 12657, 13569]","[u'right', u'right', u'down']",,,[],[],"[u'0', 1, 5, 10]",[],[],"{u'mouseover': {u'state': {u'target': [], u'time': []}, u'edge': {u'target': [], u'time': []}}, u'click': {u'state': {u'target': [u'5', u'10', u'9'], u'time': [10629, 11087, 11592]}, u'edge': {u'target': [], u'time': []}}, u'mouseout': {u'state': {u'target': [], u'time': []}, u'edge': {u'target': [], u'time': []}}}",,,"[8405, 3747, 405]",12.0,,274036,3.0,,mouselab-mdp,,3
"[16124, 17385, 18723]","[u'right', u'right', u'down']",,,[],[],"[u'0', 1, 5, 10]",[],[],"{u'mouseover': {u'state': {u'target': [], u'time': []}, u'edge': {u'target': [], u'time': []}}, u'click': {u'state': {u'target': [u'2', u'3', u'4', u'1', u'6', u'8', u'5', u'9', u'10'], u'time': [1246, 2797, 3337, 3820, 5453, 6713, 7545, 11190, 11763]}, u'edge': {u'target': [], u'time': []}}, u'mouseout': {u'state': {u'target': [], u'time': []}, u'edge': {u'target': [], u'time': []}}}",,,"[16124, 754, 826]",-4.0,,322906,4.0,,mouselab-mdp,,3
"[14192, 14958, 16645]","[u'up', u'up', u'right']",,,[],[],"[u'0', 2, 6, 12]",[],[],"{u'mouseover': {u'state': {u'target': [], u'time': []}, u'edge': {u'target': [], u'time': []}}, u'click': {u'state': {u'target': [u'2', u'6', u'11', u'12', u'4', u'8', u'16', u'15'], u'time': [1596, 2081, 2496, 3216, 4150, 4522, 5061, 5578]}, u'edge': {u'target': [], u'time': []}}, u'mouseout': {u'state': {u'target': [], u'time': []}, u'edge': {u'target': [], u'time': []}}}",,,"[14192, 235, 1173]",7.0,,371552,5.0,,mouselab-mdp,,3
"[10886, 11808, 13553]","[u'left', u'left', u'down']",,,[],[],"[u'0', 3, 7, 14]",[],[],"{u'mouseover': {u'state': {u'target': [], u'time': []}, u'edge': {u'target': [], u'time': []}}, u'click': {u'state': {u'target': [u'3', u'7', u'14', u'13', u'1', u'5', u'9', u'10'], u'time': [1889, 2431, 3060, 3667, 4545, 5119, 5669, 6232]}, u'edge': {u'target': [], u'time': []}}, u'mouseout': {u'state': {u'target': [], u'time': []}, u'edge': {u'target': [], u'time': []}}}",,,"[10886, 412, 1222]",7.0,,424440,6.0,,mouselab-mdp,,3
"[11876, 13023, 14553]","[u'left', u'left', u'up']",,,[],[],"[u'0', 3, 7, 13]",[],[],"{u'mouseover': {u'state': {u'target': [], u'time': []}, u'edge': {u'target': [], u'time': []}}, u'click': {u'state': {u'target': [u'2', u'3', u'4', u'1', u'6', u'11', u'12', u'9', u'5', u'10', u'16', u'8', u'15', u'14', u'7', u'13'], u'time': [1530, 1946, 2429, 2811, 3623, 3973, 4288, 4746, 5096, 5456, 6390, 6761, 7109, 7965, 8348, 8673]}, u'edge': {u'target': [], u'time': []}}, u'mouseout': {u'state': {u'target': [], u'time': []}, u'edge': {u'target': [], u'time': []}}}",,,"[11876, 635, 1015]",-1.0,,472332,7.0,,mouselab-mdp,,3
"[7765, 8665, 9971]","[u'down', u'down', u'left']",,,[],[],"[u'0', 4, 8, 15]",[],[],"{u'mouseover': {u'state': {u'target': [], u'time': []}, u'edge': {u'target': [], u'time': []}}, u'click': {u'state': {u'target': [u'2', u'4', u'16', u'8', u'15'], u'time': [1020, 1571, 2494, 2967, 3506]}, u'edge': {u'target': [], u'time': []}}, u'mouseout': {u'state': {u'target': [], u'time': []}, u'edge': {u'target': [], u'time': []}}}",,,"[7765, 388, 794]",10.0,,540541,8.0,,mouselab-mdp,,3
"[8137, 8902, 10871]","[u'right', u'right', u'up']",,,[],[],"[u'0', 1, 5, 9]",[],[],"{u'mouseover': {u'state': {u'target': [], u'time': []}, u'edge': {u'target': [], u'time': []}}, u'click': {u'state': {u'target': [u'3', u'1', u'2', u'4', u'5', u'9'], u'time': [1265, 1965, 2415, 2887, 4338, 4969]}, u'edge': {u'target': [], u'time': []}}, u'mouseout': {u'state': {u'target': [], u'time': []}, u'edge': {u'target': [], u'time': []}}}",,,"[8137, 257, 1460]",9.0,,644211,9.0,,mouselab-mdp,,3
"[21390, 22459, 23617]","[u'right', u'right', u'down']",,,[],[],"[u'0', 1, 5, 10]",[],[],"{u'mouseover': {u'state': {u'target': [], u'time': []}, u'edge': {u'target': [], u'time': []}}, u'click': {u'state': {u'target': [u'3', u'2', u'1', u'4', u'8', u'5', u'9', u'10', u'7', u'14', u'13', u'6', u'11'], u'time': [3229, 4184, 4756, 5300, 6524, 10045, 11326, 11832, 13126, 13598, 14150, 14835, 15648]}, u'edge': {u'target': [], u'time': []}}, u'mouseout': {u'state': {u'target': [], u'time': []}, u'edge': {u'target': [], u'time': []}}}",,,"[21390, 552, 642]",-8.0,,693126,10.0,,mouselab-mdp,,3
"[31779, 32565, 33431]","[u'right', u'right', u'down']",,,[],[],"[u'0', 1, 5, 10]",[],[],"{u'mouseover': {u'state': {u'target': [], u'time': []}, u'edge': {u'target': [], u'time': []}}, u'click': {u'state': {u'target': [u'3', u'1', u'5', u'7', u'10', u'9', u'13', u'14', u'2', u'4', u'6', u'11', u'12', u'8', u'16', u'15'], u'time': [2331, 2790, 3904, 4489, 6065, 6638, 9000, 9439, 10307, 10881, 12275, 12871, 13669, 15030, 15324, 15639]}, u'edge': {u'target': [], u'time': []}}, u'mouseout': {u'state': {u'target': [], u'time': []}, u'edge': {u'target': [], u'time': []}}}",,,"[31779, 276, 358]",-21.0,,745810,11.0,,mouselab-mdp,,3
"[8094, 8960, 9940]","[u'up', u'up', u'right']",,,[],[],"[u'0', 2, 6, 12]",[],[],"{u'mouseover': {u'state': {u'target': [], u'time': []}, u'edge': {u'target': [], u'time': []}}, u'click': {u'state': {u'target': [u'1', u'3', u'4', u'2', u'6', u'11', u'12'], u'time': [2171, 2642, 3441, 4013, 5006, 5444, 6129]}, u'edge': {u'target': [], u'time': []}}, u'mouseout': {u'state': {u'target': [], u'time': []}, u'edge': {u'target': [], u'time': []}}}",,,"[8094, 362, 475]",-2.0,,822434,12.0,,mouselab-mdp,,3
"[5325, 6159, 7092]","[u'left', u'left', u'up']",,,[],[],"[u'0', 3, 7, 13]",[],[],"{u'mouseover': {u'state': {u'target': [], u'time': []}, u'edge': {u'target': [], u'time': []}}, u'click': {u'state': {u'target': [u'3', u'7', u'14', u'13'], u'time': [898, 2202, 3070, 3924]}, u'edge': {u'target': [], u'time': []}}, u'mouseout': {u'state': {u'target': [], u'time': []}, u'edge': {u'target': [], u'time': []}}}",,,"[5325, 315, 415]",21.0,,876741,13.0,,mouselab-mdp,,3
"[7487, 8387, 9410]","[u'up', u'up', u'left']",,,[],[],"[u'0', 2, 6, 11]",[],[],"{u'mouseover': {u'state': {u'target': [], u'time': []}, u'edge': {u'target': [], u'time': []}}, u'click': {u'state': {u'target': [u'2', u'6', u'11', u'12'], u'time': [1710, 2542, 3150, 3767]}, u'edge': {u'target': [], u'time': []}}, u'mouseout': {u'state': {u'target': [], u'time': []}, u'edge': {u'target': [], u'time': []}}}",,,"[7487, 396, 501]",11.0,,931740,14.0,,mouselab-mdp,,3
"[9899, 10710, 11633]","[u'right', u'right', u'down']",,,[],[],"[u'0', 1, 5, 10]",[],[],"{u'mouseover': {u'state': {u'target': [], u'time': []}, u'edge': {u'target': [], u'time': []}}, u'click': {u'state': {u'target': [u'2', u'1', u'5', u'6', u'9', u'10'], u'time': [3202, 4696, 5607, 6721, 7418, 8262]}, u'edge': {u'target': [], u'time': []}}, u'mouseout': {u'state': {u'target': [], u'time': []}, u'edge': {u'target': [], u'time': []}}}",,,"[9899, 291, 413]",19.0,,980522,15.0,,mouselab-mdp,,3
"[18241, 18960, 20321]","[u'up', u'up', u'left']",,,[],[],"[u'0', 2, 6, 11]",[],[],"{u'mouseover': {u'state': {u'target': [], u'time': []}, u'edge': {u'target': [], u'time': []}}, u'click': {u'state': {u'target': [u'2', u'1', u'4', u'3', u'6', u'5', u'9', u'12', u'11', u'7', u'13', u'14'], u'time': [2116, 2891, 3473, 4051, 4915, 5566, 6162, 7074, 7636, 12373, 13396, 13958]}, u'edge': {u'target': [], u'time': []}}, u'mouseout': {u'state': {u'target': [], u'time': []}, u'edge': {u'target': [], u'time': []}}}",,,"[18241, 206, 850]",3.0,,1032924,16.0,,mouselab-mdp,,3
"[38217, 39118, 39934]","[u'down', u'down', u'left']",,,[],[],"[u'0', 4, 8, 15]",[],[],"{u'mouseover': {u'state': {u'target': [], u'time': []}, u'edge': {u'target': [], u'time': []}}, u'click': {u'state': {u'target': [u'3', u'7', u'1', u'5', u'9', u'10', u'13', u'14', u'2', u'4', u'6', u'12', u'11', u'8', u'15', u'16'], u'time': [2185, 5748, 10170, 10784, 11971, 12815, 14728, 15568, 17412, 18274, 19190, 19703, 20193, 21079, 21359, 21737]}, u'edge': {u'target': [], u'time': []}}, u'mouseout': {u'state': {u'target': [], u'time': []}, u'edge': {u'target': [], u'time': []}}}",,,"[38216, 365, 286]",-31.0,,171788,1.0,,mouselab-mdp,,4
"[4195, 6355, 7906]","[u'left', u'left', u'up']",,,[],[],"[u'0', 3, 7, 13]",[],[],"{u'mouseover': {u'state': {u'target': [], u'time': []}, u'edge': {u'target': [], u'time': []}}, u'click': {u'state': {u'target': [], u'time': []}, u'edge': {u'target': [], u'time': []}}, u'mouseout': {u'state': {u'target': [], u'time': []}, u'edge': {u'target': [], u'time': []}}}",,,"[4195, 1640, 1023]",15.0,,248169,2.0,,mouselab-mdp,,4
"[35441, 36352, 37304]","[u'left', u'left', u'up']",,,[],[],"[u'0', 3, 7, 13]",[],[],"{u'mouseover': {u'state': {u'target': [], u'time': []}, u'edge': {u'target': [], u'time': []}}, u'click': {u'state': {u'target': [], u'time': []}, u'edge': {u'target': [], u'time': []}}, u'mouseout': {u'state': {u'target': [], u'time': []}, u'edge': {u'target': [], u'time': []}}}",,,"[35440, 384, 422]",-15.0,,337740,3.0,,mouselab-mdp,,4
"[3157, 3981, 4909]","[u'up', u'up', u'left']",,,[],[],"[u'0', 2, 6, 11]",[],[],"{u'mouseover': {u'state': {u'target': [], u'time': []}, u'edge': {u'target': [], u'time': []}}, u'click': {u'state': {u'target': [], u'time': []}, u'edge': {u'target': [], u'time': []}}, u'mouseout': {u'state': {u'target': [], u'time': []}, u'edge': {u'target': [], u'time': []}}}",,,"[3157, 294, 405]",-5.0,,386112,4.0,,mouselab-mdp,,4
"[875, 1731, 2714]","[u'up', u'up', u'right']",,,[],[],"[u'0', 2, 6, 12]",[],[],"{u'mouseover': {u'state': {u'target': [], u'time': []}, u'edge': {u'target': [], u'time': []}}, u'click': {u'state': {u'target': [], u'time': []}, u'edge': {u'target': [], u'time': []}}, u'mouseout': {u'state': {u'target': [], u'time': []}, u'edge': {u'target': [], u'time': []}}}",,,"[874, 325, 468]",-15.0,,494099,5.0,,mouselab-mdp,,4
"[3439, 4593, 5696]","[u'right', u'right', u'up']",,,[],[],"[u'0', 1, 5, 9]",[],[],"{u'mouseover': {u'state': {u'target': [], u'time': []}, u'edge': {u'target': [], u'time': []}}, u'click': {u'state': {u'target': [], u'time': []}, u'edge': {u'target': [], u'time': []}}, u'mouseout': {u'state': {u'target': [], u'time': []}, u'edge': {u'target': [], u'time': []}}}",,,"[3439, 637, 573]",25.0,,551247,6.0,,mouselab-mdp,,4
"[836, 1452, 2180]","[u'right', u'right', u'down']",,,[],[],"[u'0', 1, 5, 10]",[],[],"{u'mouseover': {u'state': {u'target': [], u'time': []}, u'edge': {u'target': [], u'time': []}}, u'click': {u'state': {u'target': [], u'time': []}, u'edge': {u'target': [], u'time': []}}, u'mouseout': {u'state': {u'target': [], u'time': []}, u'edge': {u'target': [], u'time': []}}}",,,"[836, 86, 198]",5.0,,724878,7.0,,mouselab-mdp,,4
"[2089, 3136, 4330]","[u'right', u'right', u'down']",,,[],[],"[u'0', 1, 5, 10]",[],[],"{u'mouseover': {u'state': {u'target': [], u'time': []}, u'edge': {u'target': [], u'time': []}}, u'click': {u'state': {u'target': [], u'time': []}, u'edge': {u'target': [], u'time': []}}, u'mouseout': {u'state': {u'target': [], u'time': []}, u'edge': {u'target': [], u'time': []}}}",,,"[2089, 528, 668]",5.0,,773659,8.0,,mouselab-mdp,,4
"[10456, 11678, 12799]","[u'down', u'down', u'right']",,,[],[],"[u'0', 4, 8, 16]",[],[],"{u'mouseover': {u'state': {u'target': [], u'time': []}, u'edge': {u'target': [], u'time': []}}, u'click': {u'state': {u'target': [], u'time': []}, u'edge': {u'target': [], u'time': []}}, u'mouseout': {u'state': {u'target': [], u'time': []}, u'edge': {u'target': [], u'time': []}}}",,,"[10456, 698, 603]",5.0,,895932,9.0,,mouselab-mdp,,4
"[581, 1173, 1988]","[u'down', u'down', u'left']",,,[],[],"[u'0', 4, 8, 15]",[],[],"{u'mouseover': {u'state': {u'target': [], u'time': []}, u'edge': {u'target': [], u'time': []}}, u'click': {u'state': {u'target': [], u'time': []}, u'edge': {u'target': [], u'time': []}}, u'mouseout': {u'state': {u'target': [], u'time': []}, u'edge': {u'target': [], u'time': []}}}",,,"[580, 63, 297]",-5.0,,978104,10.0,,mouselab-mdp,,4
"[10232, 11209, 13159]","[u'left', u'left', u'up']",,,[],[],"[u'0', 3, 7, 13]",[],[],"{u'mouseover': {u'state': {u'target': [], u'time': []}, u'edge': {u'target': [], u'time': []}}, u'click': {u'state': {u'target': [], u'time': []}, u'edge': {u'target': [], u'time': []}}, u'mouseout': {u'state': {u'target': [], u'time': []}, u'edge': {u'target': [], u'time': []}}}",,,"[10232, 455, 1421]",-25.0,,1046742,11.0,,mouselab-mdp,,4
"[615, 3063, 5382]","[u'up', u'up', u'left']",,,[],[],"[u'0', 2, 6, 11]",[],[],"{u'mouseover': {u'state': {u'target': [], u'time': []}, u'edge': {u'target': [], u'time': []}}, u'click': {u'state': {u'target': [], u'time': []}, u'edge': {u'target': [], u'time': []}}, u'mouseout': {u'state': {u'target': [], u'time': []}, u'edge': {u'target': [], u'time': []}}}",,,"[615, 1923, 1787]",-15.0,,1131440,12.0,,mouselab-mdp,,4
"[11930, 12635, 13331]","[u'left', u'left', u'up']",,,[],[],"[u'0', 3, 7, 13]",[],[],"{u'mouseover': {u'state': {u'target': [], u'time': []}, u'edge': {u'target': [], u'time': []}}, u'click': {u'state': {u'target': [u'1', u'5', u'9', u'10', u'6', u'2', u'11', u'12', u'8', u'15', u'16', u'14', u'13', u'7', u'3'], u'time': [1218, 2048, 2619, 3257, 4197, 4636, 5176, 5727, 6672, 7085, 7474, 8504, 8963, 9620, 10890]}, u'edge': {u'target': [], u'time': []}}, u'mouseout': {u'state': {u'target': [], u'time': []}, u'edge': {u'target': [], u'time': []}}}",,,"[11930, 187, 166]",0.0,,1257161,13.0,,mouselab-mdp,,4
"[3404, 3943, 4730]","[u'left', u'left', u'up']",,,[],[],"[u'0', 3, 7, 13]",[],[],"{u'mouseover': {u'state': {u'target': [], u'time': []}, u'edge': {u'target': [], u'time': []}}, u'click': {u'state': {u'target': [u'13', u'14', u'3'], u'time': [443, 1009, 2355]}, u'edge': {u'target': [], u'time': []}}, u'mouseout': {u'state': {u'target': [], u'time': []}, u'edge': {u'target': [], u'time': []}}}",,,"[3404, 7, 246]",22.0,,1402329,14.0,,mouselab-mdp,,4
"[9835, 10530, 11539]","[u'up', u'up', u'left']",,,[],[],"[u'0', 2, 6, 11]",[],[],"{u'mouseover': {u'state': {u'target': [], u'time': []}, u'edge': {u'target': [], u'time': []}}, u'click': {u'state': {u'target': [u'13', u'14', u'15', u'16', u'4', u'10', u'9', u'12', u'11', u'2'], u'time': [483, 1354, 1894, 2428, 4039, 4672, 6156, 6821, 7593, 8551]}, u'edge': {u'target': [], u'time': []}}, u'mouseout': {u'state': {u'target': [], u'time': []}, u'edge': {u'target': [], u'time': []}}}",,,"[9835, 169, 490]",-15.0,,1497788,15.0,,mouselab-mdp,,4
"[1081, 2994, 4331]","[u'down', u'down', u'left']",,,[],[],"[u'0', 4, 8, 15]",[],[],"{u'mouseover': {u'state': {u'target': [], u'time': []}, u'edge': {u'target': [], u'time': []}}, u'click': {u'state': {u'target': [], u'time': []}, u'edge': {u'target': [], u'time': []}}, u'mouseout': {u'state': {u'target': [], u'time': []}, u'edge': {u'target': [], u'time': []}}}",,,"[1081, 1390, 809]",15.0,,1571368,16.0,,mouselab-mdp,,4
"[11275, 12751, 15856]","[u'right', u'right', u'down']",,,[],[],"[u'0', 1, 5, 10]",[],[],"{u'mouseover': {u'state': {u'target': [], u'time': []}, u'edge': {u'target': [], u'time': []}}, u'click': {u'state': {u'target': [u'1', u'5', u'10', u'9'], u'time': [2306, 4099, 5307, 7123]}, u'edge': {u'target': [], u'time': []}}, u'mouseout': {u'state': {u'target': [], u'time': []}, u'edge': {u'target': [], u'time': []}}}",,,"[11275, 955, 2575]",21.0,,198051,1.0,,mouselab-mdp,,5
"[11030, 12143, 13070]","[u'up', u'up', u'left']",,,[],[],"[u'0', 2, 6, 11]",[],[],"{u'mouseover': {u'state': {u'target': [], u'time': []}, u'edge': {u'target': [], u'time': []}}, u'click': {u'state': {u'target': [u'4', u'2', u'6', u'11', u'12'], u'time': [1950, 3786, 5359, 6533, 9588]}, u'edge': {u'target': [], u'time': []}}, u'mouseout': {u'state': {u'target': [], u'time': []}, u'edge': {u'target': [], u'time': []}}}",,,"[11030, 608, 402]",30.0,,261563,2.0,,mouselab-mdp,,5
"[33516, 34380, 35326]","[u'down', u'down', u'left']",,,[],[],"[u'0', 4, 8, 15]",[],[],"{u'mouseover': {u'state': {u'target': [], u'time': []}, u'edge': {u'target': [], u'time': []}}, u'click': {u'state': {u'target': [u'4', u'8', u'3', u'1', u'2', u'16', u'15', u'5', u'10', u'6'], u'time': [3357, 4679, 6973, 8153, 9315, 11526, 12774, 29848, 30925, 31897]}, u'edge': {u'target': [], u'time': []}}, u'mouseout': {u'state': {u'target': [], u'time': []}, u'edge': {u'target': [], u'time': []}}}",,,"[33515, 336, 415]",5.0,,310180,3.0,,mouselab-mdp,,5
"[26012, 26748, 28005]","[u'left', u'left', u'up']",,,[],[],"[u'0', 3, 7, 13]",[],[],"{u'mouseover': {u'state': {u'target': [], u'time': []}, u'edge': {u'target': [], u'time': []}}, u'click': {u'state': {u'target': [u'2', u'6', u'4', u'3', u'7', u'14', u'13', u'1', u'5', u'10', u'9'], u'time': [3724, 4834, 5902, 6905, 9574, 10708, 11535, 12620, 13398, 14362, 15165]}, u'edge': {u'target': [], u'time': []}}, u'mouseout': {u'state': {u'target': [], u'time': []}, u'edge': {u'target': [], u'time': []}}}",,,"[26012, 216, 725]",4.0,,359216,4.0,,mouselab-mdp,,5
"[17476, 18341, 19364]","[u'right', u'right', u'up']",,,[],[],"[u'0', 1, 5, 9]",[],[],"{u'mouseover': {u'state': {u'target': [], u'time': []}, u'edge': {u'target': [], u'time': []}}, u'click': {u'state': {u'target': [u'2', u'6', u'11', u'12', u'3', u'4', u'1', u'5', u'10', u'9'], u'time': [945, 1803, 2643, 3371, 7270, 7999, 8856, 10304, 11112, 11935]}, u'edge': {u'target': [], u'time': []}}, u'mouseout': {u'state': {u'target': [], u'time': []}, u'edge': {u'target': [], u'time': []}}}",,,"[17476, 334, 491]",5.0,,406043,5.0,,mouselab-mdp,,5
"[9459, 10243, 11023]","[u'down', u'down', u'left']",,,[],[],"[u'0', 4, 8, 15]",[],[],"{u'mouseover': {u'state': {u'target': [], u'time': []}, u'edge': {u'target': [], u'time': []}}, u'click': {u'state': {u'target': [u'3', u'2', u'1', u'4', u'8', u'15', u'16'], u'time': [1059, 2173, 3338, 4251, 5598, 6409, 7720]}, u'edge': {u'target': [], u'time': []}}, u'mouseout': {u'state': {u'target': [], u'time': []}, u'edge': {u'target': [], u'time': []}}}",,,"[9459, 268, 251]",8.0,,464249,6.0,,mouselab-mdp,,5
"[8699, 9332, 10145]","[u'down', u'down', u'right']",,,[],[],"[u'0', 4, 8, 16]",[],[],"{u'mouseover': {u'state': {u'target': [], u'time': []}, u'edge': {u'target': [], u'time': []}}, u'click': {u'state': {u'target': [u'3', u'1', u'2', u'4', u'8', u'16'], u'time': [1233, 2428, 3622, 4608, 5702, 6560]}, u'edge': {u'target': [], u'time': []}}, u'mouseout': {u'state': {u'target': [], u'time': []}, u'edge': {u'target': [], u'time': []}}}",,,"[8699, 100, 281]",19.0,,511769,7.0,,mouselab-mdp,,5
"[15510, 16911, 17734]","[u'up', u'up', u'left']",,,[],[],"[u'0', 2, 6, 11]",[],[],"{u'mouseover': {u'state': {u'target': [], u'time': []}, u'edge': {u'target': [], u'time': []}}, u'click': {u'state': {u'target': [u'2', u'6', u'4', u'1', u'5', u'3', u'12', u'11'], u'time': [1219, 2449, 4334, 5158, 6043, 7768, 10487, 11298]}, u'edge': {u'target': [], u'time': []}}, u'mouseout': {u'state': {u'target': [], u'time': []}, u'edge': {u'target': [], u'time': []}}}",,,"[15510, 880, 303]",7.0,,624096,8.0,,mouselab-mdp,,5
"[19643, 20427, 21888]","[u'up', u'up', u'right']",,,[],[],"[u'0', 2, 6, 12]",[],[],"{u'mouseover': {u'state': {u'target': [], u'time': []}, u'edge': {u'target': [], u'time': []}}, u'click': {u'state': {u'target': [u'2', u'6', u'12', u'11', u'3', u'4', u'1', u'7', u'8'], u'time': [1377, 2490, 3339, 4141, 6830, 7521, 8239, 11838, 13857]}, u'edge': {u'target': [], u'time': []}}, u'mouseout': {u'state': {u'target': [], u'time': []}, u'edge': {u'target': [], u'time': []}}}",,,"[19643, 254, 930]",-4.0,,671381,9.0,,mouselab-mdp,,5
"[11882, 12579, 14013]","[u'right', u'right', u'down']",,,[],[],"[u'0', 1, 5, 10]",[],[],"{u'mouseover': {u'state': {u'target': [], u'time': []}, u'edge': {u'target': [], u'time': []}}, u'click': {u'state': {u'target': [u'2', u'4', u'1', u'3', u'6', u'5', u'8', u'7', u'9', u'10'], u'time': [848, 1609, 2711, 3831, 5498, 6206, 6960, 7893, 9140, 10426]}, u'edge': {u'target': [], u'time': []}}, u'mouseout': {u'state': {u'target': [], u'time': []}, u'edge': {u'target': [], u'time': []}}}",,,"[11882, 167, 902]",-5.0,,731396,10.0,,mouselab-mdp,,5
"[10643, 11403, 13995]","[u'right', u'right', u'up']",,,[],[],"[u'0', 1, 5, 9]",[],[],"{u'mouseover': {u'state': {u'target': [], u'time': []}, u'edge': {u'target': [], u'time': []}}, u'click': {u'state': {u'target': [u'2', u'4', u'1', u'3', u'6', u'5', u'9', u'10'], u'time': [3452, 4343, 5073, 5758, 6764, 7536, 8634, 13057]}, u'edge': {u'target': [], u'time': []}}, u'mouseout': {u'state': {u'target': [], u'time': []}, u'edge': {u'target': [], u'time': []}}}",,,"[10643, 233, 2058]",7.0,,825379,11.0,,mouselab-mdp,,5
"[17233, 17833, 18713]","[u'left', u'left', u'up']",,,[],[],"[u'0', 3, 7, 13]",[],[],"{u'mouseover': {u'state': {u'target': [], u'time': []}, u'edge': {u'target': [], u'time': []}}, u'click': {u'state': {u'target': [u'2', u'6', u'12', u'11', u'1', u'5', u'3', u'4', u'9', u'10', u'7', u'13'], u'time': [822, 1504, 3552, 4999, 5921, 6824, 7777, 8502, 9519, 10168, 14966, 15811]}, u'edge': {u'target': [], u'time': []}}, u'mouseout': {u'state': {u'target': [], u'time': []}, u'edge': {u'target': [], u'time': []}}}",,,"[17233, 66, 346]",3.0,,874395,12.0,,mouselab-mdp,,5
"[22707, 23428, 24475]","[u'right', u'right', u'down']",,,[],[],"[u'0', 1, 5, 10]",[],[],"{u'mouseover': {u'state': {u'target': [], u'time': []}, u'edge': {u'target': [], u'time': []}}, u'click': {u'state': {u'target': [u'4', u'8', u'16', u'2', u'6', u'12', u'11', u'1', u'5', u'9', u'10', u'3'], u'time': [1527, 2200, 4212, 7869, 8596, 10270, 11062, 15787, 16566, 17366, 18222, 19354]}, u'edge': {u'target': [], u'time': []}}, u'mouseout': {u'state': {u'target': [], u'time': []}, u'edge': {u'target': [], u'time': []}}}",,,"[22707, 200, 513]",3.0,,928218,13.0,,mouselab-mdp,,5
"[9342, 9931, 10606]","[u'left', u'left', u'up']",,,[],[],"[u'0', 3, 7, 13]",[],[],"{u'mouseover': {u'state': {u'target': [], u'time': []}, u'edge': {u'target': [], u'time': []}}, u'click': {u'state': {u'target': [u'2', u'4', u'1', u'5', u'10', u'3', u'7', u'13'], u'time': [1137, 2216, 2828, 3486, 4279, 6195, 6946, 7940]}, u'edge': {u'target': [], u'time': []}}, u'mouseout': {u'state': {u'target': [], u'time': []}, u'edge': {u'target': [], u'time': []}}}",,,"[9342, 64, 140]",17.0,,1021579,14.0,,mouselab-mdp,,5
"[7454, 8499, 9254]","[u'right', u'right', u'up']",,,[],[],"[u'0', 1, 5, 9]",[],[],"{u'mouseover': {u'state': {u'target': [], u'time': []}, u'edge': {u'target': [], u'time': []}}, u'click': {u'state': {u'target': [u'2', u'6', u'1', u'5', u'10', u'9'], u'time': [637, 1435, 3669, 4357, 5582, 6232]}, u'edge': {u'target': [], u'time': []}}, u'mouseout': {u'state': {u'target': [], u'time': []}, u'edge': {u'target': [], u'time': []}}}",,,"[7453, 521, 223]",19.0,,1080504,15.0,,mouselab-mdp,,5
"[21167, 21846, 23174]","[u'right', u'right', u'down']",,,[],[],"[u'0', 1, 5, 10]",[],[],"{u'mouseover': {u'state': {u'target': [], u'time': []}, u'edge': {u'target': [], u'time': []}}, u'click': {u'state': {u'target': [u'2', u'4', u'1', u'5', u'3', u'7', u'6', u'12', u'11', u'9', u'10', u'13', u'14', u'8'], u'time': [663, 1373, 1962, 2672, 3933, 4918, 6049, 6893, 7738, 9130, 9793, 14014, 14765, 16874]}, u'edge': {u'target': [], u'time': []}}, u'mouseout': {u'state': {u'target': [], u'time': []}, u'edge': {u'target': [], u'time': []}}}",,,"[21167, 151, 796]",-19.0,,1148154,16.0,,mouselab-mdp,,5
"[46595, 47582, 51750]","[u'up', u'up', u'right']",,,[],[],"[u'0', 2, 6, 12]",[],[],"{u'mouseover': {u'state': {u'target': [], u'time': []}, u'edge': {u'target': [], u'time': []}}, u'click': {u'state': {u'target': [u'4', u'8', u'2', u'6', u'12', u'11'], u'time': [23712, 31064, 35688, 37916, 40818, 42370]}, u'edge': {u'target': [], u'time': []}}, u'mouseout': {u'state': {u'target': [], u'time': []}, u'edge': {u'target': [], u'time': []}}}",,,"[46594, 471, 3654]",9.0,,208770,1.0,,mouselab-mdp,,6
"[23897, 24749, 26074]","[u'right', u'right', u'down']",,,[],[],"[u'0', 1, 5, 10]",[],[],"{u'mouseover': {u'state': {u'target': [], u'time': []}, u'edge': {u'target': [], u'time': []}}, u'click': {u'state': {u'target': [u'4', u'2', u'6', u'12', u'11', u'1', u'5', u'10'], u'time': [8473, 10125, 12197, 13565, 14860, 18998, 20232, 21467]}, u'edge': {u'target': [], u'time': []}}, u'mouseout': {u'state': {u'target': [], u'time': []}, u'edge': {u'target': [], u'time': []}}}",,,"[23897, 331, 803]",17.0,,267563,2.0,,mouselab-mdp,,6
"[31974, 33286, 35149]","[u'right', u'right', u'up']",,,[],[],"[u'0', 1, 5, 9]",[],[],"{u'mouseover': {u'state': {u'target': [], u'time': []}, u'edge': {u'target': [], u'time': []}}, u'click': {u'state': {u'target': [u'2', u'4', u'1', u'3', u'6', u'8', u'16', u'15', u'9', u'5', u'10'], u'time': [5727, 7128, 8809, 10204, 13385, 15185, 16800, 18248, 20459, 21943, 29827]}, u'edge': {u'target': [], u'time': []}}, u'mouseout': {u'state': {u'target': [], u'time': []}, u'edge': {u'target': [], u'time': []}}}",,,"[31974, 783, 1337]",4.0,,322531,3.0,,mouselab-mdp,,6
"[13977, 15160, 16986]","[u'up', u'up', u'left']",,,[],[],"[u'0', 2, 6, 11]",[],[],"{u'mouseover': {u'state': {u'target': [], u'time': []}, u'edge': {u'target': [], u'time': []}}, u'click': {u'state': {u'target': [u'4', u'3', u'2', u'6', u'11'], u'time': [3368, 4673, 5936, 7899, 9335]}, u'edge': {u'target': [], u'time': []}}, u'mouseout': {u'state': {u'target': [], u'time': []}, u'edge': {u'target': [], u'time': []}}}",,,"[13977, 646, 1309]",10.0,,377346,4.0,,mouselab-mdp,,6
"[9808, 46777, 47543]","[u'down', u'down', u'left']",,,[],[],"[u'0', 4, 8, 15]",[],[],"{u'mouseover': {u'state': {u'target': [], u'time': []}, u'edge': {u'target': [], u'time': []}}, u'click': {u'state': {u'target': [u'2', u'6', u'12', u'11', u'8', u'16', u'15'], u'time': [2813, 4215, 6018, 7639, 41500, 42526, 43671]}, u'edge': {u'target': [], u'time': []}}, u'mouseout': {u'state': {u'target': [], u'time': []}, u'edge': {u'target': [], u'time': []}}}",,,"[9806, 36450, 247]",-22.0,,440879,5.0,,mouselab-mdp,,6
"[23429, 24293, 25069]","[u'left', u'left', u'down']",,,[],[],"[u'0', 3, 7, 14]",[],[],"{u'mouseover': {u'state': {u'target': [], u'time': []}, u'edge': {u'target': [], u'time': []}}, u'click': {u'state': {u'target': [u'2', u'6', u'3', u'7', u'13', u'14', u'4', u'1', u'5', u'9', u'10'], u'time': [4864, 6600, 8713, 9905, 11168, 12357, 14240, 15340, 16556, 18032, 18992]}, u'edge': {u'target': [], u'time': []}}, u'mouseout': {u'state': {u'target': [], u'time': []}, u'edge': {u'target': [], u'time': []}}}",,,"[23429, 349, 250]",4.0,,490207,6.0,,mouselab-mdp,,6
"[25010, 25801, 26481]","[u'right', u'right', u'down']",,,[],[],"[u'0', 1, 5, 10]",[],[],"{u'mouseover': {u'state': {u'target': [], u'time': []}, u'edge': {u'target': [], u'time': []}}, u'click': {u'state': {u'target': [u'1', u'5', u'3', u'2', u'6', u'4', u'12', u'11', u'9', u'10'], u'time': [6587, 8171, 10129, 11438, 12606, 14530, 17813, 19424, 21113, 22078]}, u'edge': {u'target': [], u'time': []}}, u'mouseout': {u'state': {u'target': [], u'time': []}, u'edge': {u'target': [], u'time': []}}}",,,"[25010, 275, 153]",-5.0,,540805,7.0,,mouselab-mdp,,6
"[9095, 10031, 79926]","[u'up', u'up', u'right']",,,[],[],"[u'0', 2, 6, 12]",[],[],"{u'mouseover': {u'state': {u'target': [], u'time': []}, u'edge': {u'target': [], u'time': []}}, u'click': {u'state': {u'target': [u'2', u'6', u'11', u'12'], u'time': [3361, 4631, 5789, 6945]}, u'edge': {u'target': [], u'time': []}}, u'mouseout': {u'state': {u'target': [], u'time': []}, u'edge': {u'target': [], u'time': []}}}",,,"[9094, 429, 69383]",11.0,,625906,8.0,,mouselab-mdp,,6
"[15333, 16108, 16903]","[u'down', u'down', u'left']",,,[],[],"[u'0', 4, 8, 15]",[],[],"{u'mouseover': {u'state': {u'target': [], u'time': []}, u'edge': {u'target': [], u'time': []}}, u'click': {u'state': {u'target': [u'2', u'1', u'4', u'8', u'3', u'16', u'15'], u'time': [3527, 4932, 5921, 7868, 10662, 12055, 13040]}, u'edge': {u'target': [], u'time': []}}, u'mouseout': {u'state': {u'target': [], u'time': []}, u'edge': {u'target': [], u'time': []}}}",,,"[15333, 253, 277]",8.0,,719135,9.0,,mouselab-mdp,,6
"[65767, 66838, 67781]","[u'right', u'right', u'down']",,,[],[],"[u'0', 1, 5, 10]",[],[],"{u'mouseover': {u'state': {u'target': [], u'time': []}, u'edge': {u'target': [], u'time': []}}, u'click': {u'state': {u'target': [u'2', u'3', u'4', u'1', u'6', u'8', u'5', u'9', u'10', u'7'], u'time': [24377, 27117, 29309, 30953, 35651, 37995, 39344, 41201, 46401, 50628]}, u'edge': {u'target': [], u'time': []}}, u'mouseout': {u'state': {u'target': [], u'time': []}, u'edge': {u'target': [], u'time': []}}}",,,"[65767, 566, 427]",-5.0,,798878,10.0,,mouselab-mdp,,6
"[11278, 12038, 12662]","[u'up', u'up', u'left']",,,[],[],"[u'0', 2, 6, 11]",[],[],"{u'mouseover': {u'state': {u'target': [], u'time': []}, u'edge': {u'target': [], u'time': []}}, u'click': {u'state': {u'target': [u'2', u'6', u'12', u'11'], u'time': [6008, 7452, 8519, 9632]}, u'edge': {u'target': [], u'time': []}}, u'mouseout': {u'state': {u'target': [], u'time': []}, u'edge': {u'target': [], u'time': []}}}",,,"[11278, 237, 103]",11.0,,850269,11.0,,mouselab-mdp,,6
"[15072, 16344, 17407]","[u'down', u'down', u'left']",,,[],[],"[u'0', 4, 8, 15]",[],[],"{u'mouseover': {u'state': {u'target': [], u'time': []}, u'edge': {u'target': [], u'time': []}}, u'click': {u'state': {u'target': [u'2', u'3', u'4', u'8', u'1', u'16', u'15'], u'time': [3230, 4487, 5477, 6882, 9460, 11009, 12032]}, u'edge': {u'target': [], u'time': []}}, u'mouseout': {u'state': {u'target': [], u'time': []}, u'edge': {u'target': [], u'time': []}}}",,,"[15072, 748, 538]",8.0,,904259,12.0,,mouselab-mdp,,6
"[22495, 23773, 25021]","[u'right', u'right', u'up']",,,[],[],"[u'0', 1, 5, 9]",[],[],"{u'mouseover': {u'state': {u'target': [], u'time': []}, u'edge': {u'target': [], u'time': []}}, u'click': {u'state': {u'target': [u'2', u'1', u'5', u'3', u'7', u'4', u'10', u'9'], u'time': [2820, 4020, 5440, 6912, 8061, 9667, 11838, 13076]}, u'edge': {u'target': [], u'time': []}}, u'mouseout': {u'state': {u'target': [], u'time': []}, u'edge': {u'target': [], u'time': []}}}",,,"[22495, 753, 705]",-13.0,,1006307,13.0,,mouselab-mdp,,6
"[10646, 11485, 12358]","[u'right', u'right', u'up']",,,[],[],"[u'0', 1, 5, 9]",[],[],"{u'mouseover': {u'state': {u'target': [], u'time': []}, u'edge': {u'target': [], u'time': []}}, u'click': {u'state': {u'target': [u'2', u'6', u'1', u'5', u'9'], u'time': [3406, 4756, 6396, 7928, 9098]}, u'edge': {u'target': [], u'time': []}}, u'mouseout': {u'state': {u'target': [], u'time': []}, u'edge': {u'target': [], u'time': []}}}",,,"[10645, 325, 343]",20.0,,1073794,14.0,,mouselab-mdp,,6
"[12180, 12963, 13796]","[u'left', u'left', u'up']",,,[],[],"[u'0', 3, 7, 13]",[],[],"{u'mouseover': {u'state': {u'target': [], u'time': []}, u'edge': {u'target': [], u'time': []}}, u'click': {u'state': {u'target': [u'2', u'1', u'5', u'3', u'7', u'13'], u'time': [4820, 5942, 7336, 8758, 9676, 10802]}, u'edge': {u'target': [], u'time': []}}, u'mouseout': {u'state': {u'target': [], u'time': []}, u'edge': {u'target': [], u'time': []}}}",,,"[12180, 263, 307]",19.0,,1135106,15.0,,mouselab-mdp,,6
"[18021, 18962, 22225]","[u'up', u'up', u'left']",,,[],[],"[u'0', 2, 6, 11]",[],[],"{u'mouseover': {u'state': {u'target': [], u'time': []}, u'edge': {u'target': [], u'time': []}}, u'click': {u'state': {u'target': [u'2', u'6', u'12', u'11', u'1', u'4', u'3'], u'time': [4012, 6867, 7948, 9210, 13195, 14364, 15532]}, u'edge': {u'target': [], u'time': []}}, u'mouseout': {u'state': {u'target': [], u'time': []}, u'edge': {u'target': [], u'time': []}}}",,,"[18020, 414, 2746]",-2.0,,1204339,16.0,,mouselab-mdp,,6
"[2880, 3806, 5270]","[u'right', u'right', u'down']",,,[],[],"[u'0', 1, 5, 10]",[],[],"{u'mouseover': {u'state': {u'target': [], u'time': []}, u'edge': {u'target': [], u'time': []}}, u'click': {u'state': {u'target': [], u'time': []}, u'edge': {u'target': [], u'time': []}}, u'mouseout': {u'state': {u'target': [], u'time': []}, u'edge': {u'target': [], u'time': []}}}",,,"[2879, 417, 953]",-15.0,,244886,1.0,,mouselab-mdp,,7
"[888, 4439, 9521]","[u'left', u'left', u'up']",,,[],[],"[u'0', 3, 7, 13]",[],[],"{u'mouseover': {u'state': {u'target': [], u'time': []}, u'edge': {u'target': [], u'time': []}}, u'click': {u'state': {u'target': [], u'time': []}, u'edge': {u'target': [], u'time': []}}, u'mouseout': {u'state': {u'target': [], u'time': []}, u'edge': {u'target': [], u'time': []}}}",,,"[888, 3044, 4575]",15.0,,346752,2.0,,mouselab-mdp,,7
"[2484, 9597, 11413]","[u'up', u'up', u'right']",,,[],[],"[u'0', 2, 6, 12]",[],[],"{u'mouseover': {u'state': {u'target': [], u'time': []}, u'edge': {u'target': [], u'time': []}}, u'click': {u'state': {u'target': [], u'time': []}, u'edge': {u'target': [], u'time': []}}, u'mouseout': {u'state': {u'target': [], u'time': []}, u'edge': {u'target': [], u'time': []}}}",,,"[2484, 6598, 1297]",-5.0,,514998,3.0,,mouselab-mdp,,7
"[1914, 3402, 4899]","[u'down', u'down', u'right']",,,[],[],"[u'0', 4, 8, 16]",[],[],"{u'mouseover': {u'state': {u'target': [], u'time': []}, u'edge': {u'target': [], u'time': []}}, u'click': {u'state': {u'target': [], u'time': []}, u'edge': {u'target': [], u'time': []}}, u'mouseout': {u'state': {u'target': [], u'time': []}, u'edge': {u'target': [], u'time': []}}}",,,"[1914, 970, 984]",-5.0,,568757,4.0,,mouselab-mdp,,7
"[3162, 4434, 5945]","[u'right', u'right', u'up']",,,[],[],"[u'0', 1, 5, 9]",[],[],"{u'mouseover': {u'state': {u'target': [], u'time': []}, u'edge': {u'target': [], u'time': []}}, u'click': {u'state': {u'target': [], u'time': []}, u'edge': {u'target': [], u'time': []}}, u'mouseout': {u'state': {u'target': [], u'time': []}, u'edge': {u'target': [], u'time': []}}}",,,"[3162, 760, 1006]",-5.0,,616440,5.0,,mouselab-mdp,,7
"[2104, 3409, 4625]","[u'down', u'down', u'left']",,,[],[],"[u'0', 4, 8, 15]",[],[],"{u'mouseover': {u'state': {u'target': [], u'time': []}, u'edge': {u'target': [], u'time': []}}, u'click': {u'state': {u'target': [], u'time': []}, u'edge': {u'target': [], u'time': []}}, u'mouseout': {u'state': {u'target': [], u'time': []}, u'edge': {u'target': [], u'time': []}}}",,,"[2104, 791, 708]",15.0,,691344,6.0,,mouselab-mdp,,7
"[540, 1980, 3028]","[u'down', u'down', u'right']",,,[],[],"[u'0', 4, 8, 16]",[],[],"{u'mouseover': {u'state': {u'target': [], u'time': []}, u'edge': {u'target': [], u'time': []}}, u'click': {u'state': {u'target': [], u'time': []}, u'edge': {u'target': [], u'time': []}}, u'mouseout': {u'state': {u'target': [], u'time': []}, u'edge': {u'target': [], u'time': []}}}",,,"[540, 927, 542]",-15.0,,761518,7.0,,mouselab-mdp,,7
"[661, 1790, 2905]","[u'right', u'right', u'down']",,,[],[],"[u'0', 1, 5, 10]",[],[],"{u'mouseover': {u'state': {u'target': [], u'time': []}, u'edge': {u'target': [], u'time': []}}, u'click': {u'state': {u'target': [], u'time': []}, u'edge': {u'target': [], u'time': []}}, u'mouseout': {u'state': {u'target': [], u'time': []}, u'edge': {u'target': [], u'time': []}}}",,,"[661, 616, 597]",-5.0,,831652,8.0,,mouselab-mdp,,7
"[1581, 2565, 3533]","[u'left', u'left', u'down']",,,[],[],"[u'0', 3, 7, 14]",[],[],"{u'mouseover': {u'state': {u'target': [], u'time': []}, u'edge': {u'target': [], u'time': []}}, u'click': {u'state': {u'target': [], u'time': []}, u'edge': {u'target': [], u'time': []}}, u'mouseout': {u'state': {u'target': [], u'time': []}, u'edge': {u'target': [], u'time': []}}}",,,"[1581, 469, 455]",-15.0,,886025,9.0,,mouselab-mdp,,7
"[1520, 2520, 3512]","[u'up', u'up', u'right']",,,[],[],"[u'0', 2, 6, 12]",[],[],"{u'mouseover': {u'state': {u'target': [], u'time': []}, u'edge': {u'target': [], u'time': []}}, u'click': {u'state': {u'target': [], u'time': []}, u'edge': {u'target': [], u'time': []}}, u'mouseout': {u'state': {u'target': [], u'time': []}, u'edge': {u'target': [], u'time': []}}}",,,"[1520, 487, 480]",-25.0,,1000949,10.0,,mouselab-mdp,,7
"[1650, 2545, 3409]","[u'left', u'left', u'down']",,,[],[],"[u'0', 3, 7, 14]",[],[],"{u'mouseover': {u'state': {u'target': [], u'time': []}, u'edge': {u'target': [], u'time': []}}, u'click': {u'state': {u'target': [], u'time': []}, u'edge': {u'target': [], u'time': []}}, u'mouseout': {u'state': {u'target': [], u'time': []}, u'edge': {u'target': [], u'time': []}}}",,,"[1650, 388, 351]",-15.0,,1156506,11.0,,mouselab-mdp,,7
"[316, 1244, 2132]","[u'down', u'down', u'right']",,,[],[],"[u'0', 4, 8, 16]",[],[],"{u'mouseover': {u'state': {u'target': [], u'time': []}, u'edge': {u'target': [], u'time': []}}, u'click': {u'state': {u'target': [], u'time': []}, u'edge': {u'target': [], u'time': []}}, u'mouseout': {u'state': {u'target': [], u'time': []}, u'edge': {u'target': [], u'time': []}}}",,,"[316, 422, 378]",-15.0,,1216838,12.0,,mouselab-mdp,,7
"[467, 1066, 1683]","[u'down', u'down', u'left']",,,[],[],"[u'0', 4, 8, 15]",[],[],"{u'mouseover': {u'state': {u'target': [], u'time': []}, u'edge': {u'target': [], u'time': []}}, u'click': {u'state': {u'target': [], u'time': []}, u'edge': {u'target': [], u'time': []}}, u'mouseout': {u'state': {u'target': [], u'time': []}, u'edge': {u'target': [], u'time': []}}}",,,"[467, 83, 100]",-15.0,,1332498,13.0,,mouselab-mdp,,7
"[12358, 13084, 13757]","[u'right', u'right', u'up']",,,[],[],"[u'0', 1, 5, 9]",[],[],"{u'mouseover': {u'state': {u'target': [], u'time': []}, u'edge': {u'target': [], u'time': []}}, u'click': {u'state': {u'target': [u'1', u'3'], u'time': [9708, 10705]}, u'edge': {u'target': [], u'time': []}}, u'mouseout': {u'state': {u'target': [], u'time': []}, u'edge': {u'target': [], u'time': []}}}",,,"[12357, 217, 157]",13.0,,157532,1.0,,mouselab-mdp,,8
"[3018, 4305, 5026]","[u'up', u'up', u'right']",,,[],[],"[u'0', 2, 6, 12]",[],[],"{u'mouseover': {u'state': {u'target': [], u'time': []}, u'edge': {u'target': [], u'time': []}}, u'click': {u'state': {u'target': [u'2'], u'time': [1102]}, u'edge': {u'target': [], u'time': []}}, u'mouseout': {u'state': {u'target': [], u'time': []}, u'edge': {u'target': [], u'time': []}}}",,,"[3017, 756, 213]",14.0,,214228,2.0,,mouselab-mdp,,8
"[6011, 7506, 8370]","[u'up', u'up', u'left']",,,[],[],"[u'0', 2, 6, 11]",[],[],"{u'mouseover': {u'state': {u'target': [], u'time': []}, u'edge': {u'target': [], u'time': []}}, u'click': {u'state': {u'target': [u'8', u'4', u'3', u'2', u'1'], u'time': [1151, 1959, 2805, 3733, 4530]}, u'edge': {u'target': [], u'time': []}}, u'mouseout': {u'state': {u'target': [], u'time': []}, u'edge': {u'target': [], u'time': []}}}",,,"[6011, 986, 352]",0.0,,269717,3.0,,mouselab-mdp,,8
"[4079, 5097, 5889]","[u'up', u'up', u'right']",,,[],[],"[u'0', 2, 6, 12]",[],[],"{u'mouseover': {u'state': {u'target': [], u'time': []}, u'edge': {u'target': [], u'time': []}}, u'click': {u'state': {u'target': [u'2', u'1'], u'time': [1200, 2207]}, u'edge': {u'target': [], u'time': []}}, u'mouseout': {u'state': {u'target': [], u'time': []}, u'edge': {u'target': [], u'time': []}}}",,,"[4079, 500, 275]",3.0,,322318,4.0,,mouselab-mdp,,8
"[4382, 5701, 7013]","[u'right', u'right', u'down']",,,[],[],"[u'0', 1, 5, 10]",[],[],"{u'mouseover': {u'state': {u'target': [], u'time': []}, u'edge': {u'target': [], u'time': []}}, u'click': {u'state': {u'target': [u'3', u'1'], u'time': [1545, 2288]}, u'edge': {u'target': [], u'time': []}}, u'mouseout': {u'state': {u'target': [], u'time': []}, u'edge': {u'target': [], u'time': []}}}",,,"[4382, 810, 807]",3.0,,384326,5.0,,mouselab-mdp,,8
"[5773, 6676, 7724]","[u'right', u'right', u'up']",,,[],[],"[u'0', 1, 5, 9]",[],[],"{u'mouseover': {u'state': {u'target': [], u'time': []}, u'edge': {u'target': [], u'time': []}}, u'click': {u'state': {u'target': [u'4', u'2', u'1', u'3'], u'time': [1245, 2296, 3189, 3957]}, u'edge': {u'target': [], u'time': []}}, u'mouseout': {u'state': {u'target': [], u'time': []}, u'edge': {u'target': [], u'time': []}}}",,,"[5773, 402, 536]",1.0,,446440,6.0,,mouselab-mdp,,8
"[3903, 4823, 5943]","[u'left', u'left', u'up']",,,[],[],"[u'0', 3, 7, 13]",[],[],"{u'mouseover': {u'state': {u'target': [], u'time': []}, u'edge': {u'target': [], u'time': []}}, u'click': {u'state': {u'target': [u'4', u'3'], u'time': [864, 1524]}, u'edge': {u'target': [], u'time': []}}, u'mouseout': {u'state': {u'target': [], u'time': []}, u'edge': {u'target': [], u'time': []}}}",,,"[3902, 415, 606]",3.0,,501522,7.0,,mouselab-mdp,,8
"[2489, 3272, 4504]","[u'up', u'up', u'left']",,,[],[],"[u'0', 2, 6, 11]",[],[],"{u'mouseover': {u'state': {u'target': [], u'time': []}, u'edge': {u'target': [], u'time': []}}, u'click': {u'state': {u'target': [u'2'], u'time': [1053]}, u'edge': {u'target': [], u'time': []}}, u'mouseout': {u'state': {u'target': [], u'time': []}, u'edge': {u'target': [], u'time': []}}}",,,"[2489, 273, 726]",4.0,,559987,8.0,,mouselab-mdp,,8
"[3097, 4225, 101500]","[u'right', u'right', u'up']",,,[],[],"[u'0', 1, 5, 9]",[],[],"{u'mouseover': {u'state': {u'target': [], u'time': []}, u'edge': {u'target': [], u'time': []}}, u'click': {u'state': {u'target': [u'1', u'10', u'9'], u'time': [1936, 5938, 7266]}, u'edge': {u'target': [], u'time': []}}, u'mouseout': {u'state': {u'target': [], u'time': []}, u'edge': {u'target': [], u'time': []}}}",,,"[3097, 617, 96761]",-8.0,,667670,9.0,,mouselab-mdp,,8
"[6529, 7193, 7985]","[u'right', u'right', u'up']",,,[],[],"[u'0', 1, 5, 9]",[],[],"{u'mouseover': {u'state': {u'target': [], u'time': []}, u'edge': {u'target': [], u'time': []}}, u'click': {u'state': {u'target': [u'2', u'1', u'9'], u'time': [1420, 2381, 5462]}, u'edge': {u'target': [], u'time': []}}, u'mouseout': {u'state': {u'target': [], u'time': []}, u'edge': {u'target': [], u'time': []}}}",,,"[6529, 152, 277]",12.0,,716942,10.0,,mouselab-mdp,,8
"[5663, 9942, 10726]","[u'down', u'down', u'left']",,,[],[],"[u'0', 4, 8, 15]",[],[],"{u'mouseover': {u'state': {u'target': [], u'time': []}, u'edge': {u'target': [], u'time': []}}, u'click': {u'state': {u'target': [u'1', u'2', u'3', u'4', u'8', u'16', u'15'], u'time': [2369, 3017, 3590, 4169, 6865, 7687, 8793]}, u'edge': {u'target': [], u'time': []}}, u'mouseout': {u'state': {u'target': [], u'time': []}, u'edge': {u'target': [], u'time': []}}}",,,"[5663, 3772, 266]",8.0,,775015,11.0,,mouselab-mdp,,8
"[3206, 5533, 6294]","[u'right', u'right', u'up']",,,[],[],"[u'0', 1, 5, 9]",[],[],"{u'mouseover': {u'state': {u'target': [], u'time': []}, u'edge': {u'target': [], u'time': []}}, u'click': {u'state': {u'target': [u'1', u'9'], u'time': [2046, 4336]}, u'edge': {u'target': [], u'time': []}}, u'mouseout': {u'state': {u'target': [], u'time': []}, u'edge': {u'target': [], u'time': []}}}",,,"[3206, 1813, 246]",23.0,,823238,12.0,,mouselab-mdp,,8
"[3268, 8748, 9820]","[u'left', u'left', u'up']",,,[],[],"[u'0', 3, 7, 13]",[],[],"{u'mouseover': {u'state': {u'target': [], u'time': []}, u'edge': {u'target': [], u'time': []}}, u'click': {u'state': {u'target': [u'2', u'3', u'13', u'14'], u'time': [1468, 2192, 4304, 5327]}, u'edge': {u'target': [], u'time': []}}, u'mouseout': {u'state': {u'target': [], u'time': []}, u'edge': {u'target': [], u'time': []}}}",,,"[3268, 4975, 560]",-19.0,,877893,13.0,,mouselab-mdp,,8
"[4252, 4963, 5585]","[u'right', u'right', u'down']",,,[],[],"[u'0', 1, 5, 10]",[],[],"{u'mouseover': {u'state': {u'target': [], u'time': []}, u'edge': {u'target': [], u'time': []}}, u'click': {u'state': {u'target': [u'1', u'9', u'10'], u'time': [1260, 2357, 3005]}, u'edge': {u'target': [], u'time': []}}, u'mouseout': {u'state': {u'target': [], u'time': []}, u'edge': {u'target': [], u'time': []}}}",,,"[4252, 206, 114]",2.0,,926947,14.0,,mouselab-mdp,,8
"[6853, 7549, 8076]","[u'down', u'down', u'left']",,,[],[],"[u'0', 4, 8, 15]",[],[],"{u'mouseover': {u'state': {u'target': [], u'time': []}, u'edge': {u'target': [], u'time': []}}, u'click': {u'state': {u'target': [u'2', u'1', u'4', u'16', u'15'], u'time': [2340, 3477, 4108, 5095, 5752]}, u'edge': {u'target': [], u'time': []}}, u'mouseout': {u'state': {u'target': [], u'time': []}, u'edge': {u'target': [], u'time': []}}}",,,"[6853, 189, 17]",10.0,,988728,15.0,,mouselab-mdp,,8
"[14929, 15697, 16401]","[u'up', u'up', u'left']",,,[],[],"[u'0', 2, 6, 11]",[],[],"{u'mouseover': {u'state': {u'target': [], u'time': []}, u'edge': {u'target': [], u'time': []}}, u'click': {u'state': {u'target': [u'3', u'2', u'1', u'4', u'9', u'10', u'16', u'15', u'11', u'12', u'13', u'14'], u'time': [1142, 1964, 2506, 3276, 4180, 6121, 7621, 9596, 10500, 11756, 12604, 13348]}, u'edge': {u'target': [], u'time': []}}, u'mouseout': {u'state': {u'target': [], u'time': []}, u'edge': {u'target': [], u'time': []}}}",,,"[14929, 266, 189]",-17.0,,1068814,16.0,,mouselab-mdp,,8
"[17629, 18903, 20093]","[u'right', u'right', u'down']",,,[],[],"[u'0', 1, 5, 10]",[],[],"{u'mouseover': {u'state': {u'target': [], u'time': []}, u'edge': {u'target': [], u'time': []}}, u'click': {u'state': {u'target': [u'1', u'5', u'10'], u'time': [6173, 10491, 13029]}, u'edge': {u'target': [], u'time': []}}, u'mouseout': {u'state': {u'target': [], u'time': []}, u'edge': {u'target': [], u'time': []}}}",,,"[17628, 759, 684]",22.0,,226837,1.0,,mouselab-mdp,,9
"[28702, 29560, 30611]","[u'left', u'left', u'up']",,,[],[],"[u'0', 3, 7, 13]",[],[],"{u'mouseover': {u'state': {u'target': [], u'time': []}, u'edge': {u'target': [], u'time': []}}, u'click': {u'state': {u'target': [u'3', u'4', u'2', u'6', u'1', u'5', u'7', u'14', u'13'], u'time': [2069, 4397, 8606, 10404, 15786, 17057, 22299, 23776, 25391]}, u'edge': {u'target': [], u'time': []}}, u'mouseout': {u'state': {u'target': [], u'time': []}, u'edge': {u'target': [], u'time': []}}}",,,"[28702, 348, 532]",6.0,,300108,2.0,,mouselab-mdp,,9
"[21946, 22709, 23621]","[u'right', u'right', u'up']",,,[],[],"[u'0', 1, 5, 9]",[],[],"{u'mouseover': {u'state': {u'target': [], u'time': []}, u'edge': {u'target': [], u'time': []}}, u'click': {u'state': {u'target': [u'3', u'1', u'5', u'10', u'9', u'7', u'2', u'4'], u'time': [3140, 3964, 7625, 8943, 10445, 15899, 17159, 19990]}, u'edge': {u'target': [], u'time': []}}, u'mouseout': {u'state': {u'target': [], u'time': []}, u'edge': {u'target': [], u'time': []}}}",,,"[21946, 253, 398]",-3.0,,393236,3.0,,mouselab-mdp,,9
"[10890, 11515, 12202]","[u'right', u'right', u'down']",,,[],[],"[u'0', 1, 5, 10]",[],[],"{u'mouseover': {u'state': {u'target': [], u'time': []}, u'edge': {u'target': [], u'time': []}}, u'click': {u'state': {u'target': [u'1', u'3', u'5', u'10', u'9'], u'time': [1948, 3243, 4404, 5283, 6486]}, u'edge': {u'target': [], u'time': []}}, u'mouseout': {u'state': {u'target': [], u'time': []}, u'edge': {u'target': [], u'time': []}}}",,,"[10890, 115, 168]",0.0,,469843,4.0,,mouselab-mdp,,9
"[10815, 11429, 13109]","[u'right', u'right', u'up']",,,[],[],"[u'0', 1, 5, 9]",[],[],"{u'mouseover': {u'state': {u'target': [], u'time': []}, u'edge': {u'target': [], u'time': []}}, u'click': {u'state': {u'target': [u'3', u'7', u'1', u'5', u'10', u'9'], u'time': [1234, 2520, 4060, 4938, 5855, 7792]}, u'edge': {u'target': [], u'time': []}}, u'mouseout': {u'state': {u'target': [], u'time': []}, u'edge': {u'target': [], u'time': []}}}",,,"[10815, 108, 1171]",9.0,,534217,5.0,,mouselab-mdp,,9
"[6145, 6869, 7908]","[u'left', u'left', u'up']",,,[],[],"[u'0', 3, 7, 13]",[],[],"{u'mouseover': {u'state': {u'target': [], u'time': []}, u'edge': {u'target': [], u'time': []}}, u'click': {u'state': {u'target': [u'3', u'7', u'14', u'13'], u'time': [1833, 2861, 3590, 4468]}, u'edge': {u'target': [], u'time': []}}, u'mouseout': {u'state': {u'target': [], u'time': []}, u'edge': {u'target': [], u'time': []}}}",,,"[6145, 211, 531]",11.0,,586685,6.0,,mouselab-mdp,,9
"[17689, 18377, 19150]","[u'right', u'right', u'up']",,,[],[],"[u'0', 1, 5, 9]",[],[],"{u'mouseover': {u'state': {u'target': [], u'time': []}, u'edge': {u'target': [], u'time': []}}, u'click': {u'state': {u'target': [u'2', u'4', u'1', u'5', u'6', u'12', u'11', u'9'], u'time': [3721, 4852, 5787, 6941, 7898, 8612, 12282, 13995]}, u'edge': {u'target': [], u'time': []}}, u'mouseout': {u'state': {u'target': [], u'time': []}, u'edge': {u'target': [], u'time': []}}}",,,"[17689, 180, 268]",7.0,,635760,7.0,,mouselab-mdp,,9
"[9865, 10542, 11391]","[u'up', u'up', u'right']",,,[],[],"[u'0', 2, 6, 12]",[],[],"{u'mouseover': {u'state': {u'target': [], u'time': []}, u'edge': {u'target': [], u'time': []}}, u'click': {u'state': {u'target': [u'2', u'6', u'12', u'11'], u'time': [3050, 3890, 4643, 6064]}, u'edge': {u'target': [], u'time': []}}, u'mouseout': {u'state': {u'target': [], u'time': []}, u'edge': {u'target': [], u'time': []}}}",,,"[9865, 163, 323]",1.0,,683140,8.0,,mouselab-mdp,,9
"[15035, 15746, 16486]","[u'up', u'up', u'left']",,,[],[],"[u'0', 2, 6, 11]",[],[],"{u'mouseover': {u'state': {u'target': [], u'time': []}, u'edge': {u'target': [], u'time': []}}, u'click': {u'state': {u'target': [u'3', u'7', u'14', u'4', u'1', u'2', u'6', u'12', u'11'], u'time': [4203, 4997, 5684, 6815, 7411, 8139, 9153, 9989, 13266]}, u'edge': {u'target': [], u'time': []}}, u'mouseout': {u'state': {u'target': [], u'time': []}, u'edge': {u'target': [], u'time': []}}}",,,"[15035, 204, 227]",6.0,,733731,9.0,,mouselab-mdp,,9
"[10898, 11660, 12486]","[u'right', u'right', u'up']",,,[],[],"[u'0', 1, 5, 9]",[],[],"{u'mouseover': {u'state': {u'target': [], u'time': []}, u'edge': {u'target': [], u'time': []}}, u'click': {u'state': {u'target': [u'2', u'3', u'4', u'1', u'6', u'12', u'5', u'10', u'9'], u'time': [1212, 1973, 2570, 3458, 4911, 6479, 7385, 8272, 9111]}, u'edge': {u'target': [], u'time': []}}, u'mouseout': {u'state': {u'target': [], u'time': []}, u'edge': {u'target': [], u'time': []}}}",,,"[10898, 250, 307]",6.0,,783891,10.0,,mouselab-mdp,,9
"[15677, 16322, 17395]","[u'up', u'up', u'right']",,,[],[],"[u'0', 2, 6, 12]",[],[],"{u'mouseover': {u'state': {u'target': [], u'time': []}, u'edge': {u'target': [], u'time': []}}, u'click': {u'state': {u'target': [u'1', u'5', u'9', u'10', u'4', u'2'], u'time': [6926, 8050, 8880, 10783, 12325, 13367]}, u'edge': {u'target': [], u'time': []}}, u'mouseout': {u'state': {u'target': [], u'time': []}, u'edge': {u'target': [], u'time': []}}}",,,"[15677, 127, 567]",-21.0,,836173,11.0,,mouselab-mdp,,9
"[1112, 1873, 2754]","[u'right', u'right', u'up']",,,[],[],"[u'0', 1, 5, 9]",[],[],"{u'mouseover': {u'state': {u'target': [], u'time': []}, u'edge': {u'target': [], u'time': []}}, u'click': {u'state': {u'target': [], u'time': []}, u'edge': {u'target': [], u'time': []}}, u'mouseout': {u'state': {u'target': [], u'time': []}, u'edge': {u'target': [], u'time': []}}}",,,"[1111, 249, 359]",-5.0,,882555,12.0,,mouselab-mdp,,9
"[6888, 7704, 8418]","[u'right', u'right', u'down']",,,[],[],"[u'0', 1, 5, 10]",[],[],"{u'mouseover': {u'state': {u'target': [], u'time': []}, u'edge': {u'target': [], u'time': []}}, u'click': {u'state': {u'target': [u'2', u'6', u'12', u'1', u'5', u'9', u'10'], u'time': [975, 1745, 2245, 3248, 3739, 4235, 5019]}, u'edge': {u'target': [], u'time': []}}, u'mouseout': {u'state': {u'target': [], u'time': []}, u'edge': {u'target': [], u'time': []}}}",,,"[6887, 297, 210]",-2.0,,934534,13.0,,mouselab-mdp,,9
"[5218, 5897, 6829]","[u'left', u'left', u'up']",,,[],[],"[u'0', 3, 7, 13]",[],[],"{u'mouseover': {u'state': {u'target': [], u'time': []}, u'edge': {u'target': [], u'time': []}}, u'click': {u'state': {u'target': [u'3', u'7', u'14', u'13'], u'time': [1219, 2018, 2641, 3398]}, u'edge': {u'target': [], u'time': []}}, u'mouseout': {u'state': {u'target': [], u'time': []}, u'edge': {u'target': [], u'time': []}}}",,,"[5218, 167, 416]",11.0,,1010100,14.0,,mouselab-mdp,,9
"[5419, 5958, 6545]","[u'up', u'up', u'left']",,,[],[],"[u'0', 2, 6, 11]",[],[],"{u'mouseover': {u'state': {u'target': [], u'time': []}, u'edge': {u'target': [], u'time': []}}, u'click': {u'state': {u'target': [u'2', u'6', u'12', u'11'], u'time': [1880, 2571, 3125, 3912]}, u'edge': {u'target': [], u'time': []}}, u'mouseout': {u'state': {u'target': [], u'time': []}, u'edge': {u'target': [], u'time': []}}}",,,"[5419, 33, 70]",11.0,,1059177,15.0,,mouselab-mdp,,9
"[8425, 8995, 9822]","[u'up', u'up', u'right']",,,[],[],"[u'0', 2, 6, 12]",[],[],"{u'mouseover': {u'state': {u'target': [], u'time': []}, u'edge': {u'target': [], u'time': []}}, u'click': {u'state': {u'target': [u'3', u'2', u'6', u'12', u'11'], u'time': [1047, 2010, 2808, 3559, 4326]}, u'edge': {u'target': [], u'time': []}}, u'mouseout': {u'state': {u'target': [], u'time': []}, u'edge': {u'target': [], u'time': []}}}",,,"[8424, 56, 317]",10.0,,1115668,16.0,,mouselab-mdp,,9
"[52093, 53245, 55754]","[u'right', u'right', u'up']",,,[],[],"[u'0', 1, 5, 9]",[],[],"{u'mouseover': {u'state': {u'target': [], u'time': []}, u'edge': {u'target': [], u'time': []}}, u'click': {u'state': {u'target': [u'1', u'5', u'9', u'10', u'4', u'2', u'11', u'6', u'12', u'8', u'16', u'3', u'15', u'7', u'14', u'13'], u'time': [4208, 6102, 8918, 11080, 12805, 14536, 16009, 17558, 19118, 20880, 22176, 24214, 25386, 26786, 27597, 28352]}, u'edge': {u'target': [], u'time': []}}, u'mouseout': {u'state': {u'target': [], u'time': []}, u'edge': {u'target': [], u'time': []}}}",,,"[52091, 631, 1991]",9.0,,682903,1.0,,mouselab-mdp,,10
"[4719, 6668, 8074]","[u'up', u'up', u'right']",,,[],[],"[u'0', 2, 6, 12]",[],[],"{u'mouseover': {u'state': {u'target': [], u'time': []}, u'edge': {u'target': [], u'time': []}}, u'click': {u'state': {u'target': [], u'time': []}, u'edge': {u'target': [], u'time': []}}, u'mouseout': {u'state': {u'target': [], u'time': []}, u'edge': {u'target': [], u'time': []}}}",,,"[4719, 1439, 896]",-25.0,,797410,2.0,,mouselab-mdp,,10
"[1786, 7722, 8906]","[u'right', u'right', u'up']",,,[],[],"[u'0', 1, 5, 9]",[],[],"{u'mouseover': {u'state': {u'target': [], u'time': []}, u'edge': {u'target': [], u'time': []}}, u'click': {u'state': {u'target': [], u'time': []}, u'edge': {u'target': [], u'time': []}}, u'mouseout': {u'state': {u'target': [], u'time': []}, u'edge': {u'target': [], u'time': []}}}",,,"[1786, 5422, 673]",-5.0,,850371,3.0,,mouselab-mdp,,10
"[2916, 6975, 9356]","[u'down', u'down', u'right']",,,[],[],"[u'0', 4, 8, 16]",[],[],"{u'mouseover': {u'state': {u'target': [], u'time': []}, u'edge': {u'target': [], u'time': []}}, u'click': {u'state': {u'target': [], u'time': []}, u'edge': {u'target': [], u'time': []}}, u'mouseout': {u'state': {u'target': [], u'time': []}, u'edge': {u'target': [], u'time': []}}}",,,"[2916, 3544, 1876]",-15.0,,905023,4.0,,mouselab-mdp,,10
"[1313, 3945, 5380]","[u'left', u'left', u'up']",,,[],[],"[u'0', 3, 7, 13]",[],[],"{u'mouseover': {u'state': {u'target': [], u'time': []}, u'edge': {u'target': [], u'time': []}}, u'click': {u'state': {u'target': [], u'time': []}, u'edge': {u'target': [], u'time': []}}, u'mouseout': {u'state': {u'target': [], u'time': []}, u'edge': {u'target': [], u'time': []}}}",,,"[1313, 2110, 930]",-25.0,,1104394,5.0,,mouselab-mdp,,10
"[1978, 3391, 4839]","[u'up', u'up', u'left']",,,[],[],"[u'0', 2, 6, 11]",[],[],"{u'mouseover': {u'state': {u'target': [], u'time': []}, u'edge': {u'target': [], u'time': []}}, u'click': {u'state': {u'target': [], u'time': []}, u'edge': {u'target': [], u'time': []}}, u'mouseout': {u'state': {u'target': [], u'time': []}, u'edge': {u'target': [], u'time': []}}}",,,"[1978, 892, 940]",-15.0,,1478007,6.0,,mouselab-mdp,,10
"[2517, 3405, 4918]","[u'down', u'down', u'right']",,,[],[],"[u'0', 4, 8, 16]",[],[],"{u'mouseover': {u'state': {u'target': [], u'time': []}, u'edge': {u'target': [], u'time': []}}, u'click': {u'state': {u'target': [], u'time': []}, u'edge': {u'target': [], u'time': []}}, u'mouseout': {u'state': {u'target': [], u'time': []}, u'edge': {u'target': [], u'time': []}}}",,,"[2517, 371, 1001]",-35.0,,1546302,7.0,,mouselab-mdp,,10
"[1288, 2449, 4445]","[u'up', u'up', u'left']",,,[],[],"[u'0', 2, 6, 11]",[],[],"{u'mouseover': {u'state': {u'target': [], u'time': []}, u'edge': {u'target': [], u'time': []}}, u'click': {u'state': {u'target': [], u'time': []}, u'edge': {u'target': [], u'time': []}}, u'mouseout': {u'state': {u'target': [], u'time': []}, u'edge': {u'target': [], u'time': []}}}",,,"[1287, 652, 1482]",15.0,,1600279,8.0,,mouselab-mdp,,10
"[2507, 3854, 5670]","[u'up', u'up', u'right']",,,[],[],"[u'0', 2, 6, 12]",[],[],"{u'mouseover': {u'state': {u'target': [], u'time': []}, u'edge': {u'target': [], u'time': []}}, u'click': {u'state': {u'target': [], u'time': []}, u'edge': {u'target': [], u'time': []}}, u'mouseout': {u'state': {u'target': [], u'time': []}, u'edge': {u'target': [], u'time': []}}}",,,"[2507, 829, 1295]",5.0,,1655244,9.0,,mouselab-mdp,,10
"[1369, 2494, 3435]","[u'up', u'up', u'left']",,,[],[],"[u'0', 2, 6, 11]",[],[],"{u'mouseover': {u'state': {u'target': [], u'time': []}, u'edge': {u'target': [], u'time': []}}, u'click': {u'state': {u'target': [], u'time': []}, u'edge': {u'target': [], u'time': []}}, u'mouseout': {u'state': {u'target': [], u'time': []}, u'edge': {u'target': [], u'time': []}}}",,,"[1369, 621, 428]",5.0,,1703930,10.0,,mouselab-mdp,,10
"[6154, 7232, 9694]","[u'up', u'up', u'right']",,,[],[],"[u'0', 2, 6, 12]",[],[],"{u'mouseover': {u'state': {u'target': [], u'time': []}, u'edge': {u'target': [], u'time': []}}, u'click': {u'state': {u'target': [], u'time': []}, u'edge': {u'target': [], u'time': []}}, u'mouseout': {u'state': {u'target': [], u'time': []}, u'edge': {u'target': [], u'time': []}}}",,,"[6154, 559, 1955]",15.0,,1785836,11.0,,mouselab-mdp,,10
"[1746, 3727, 5234]","[u'down', u'down', u'right']",,,[],[],"[u'0', 4, 8, 16]",[],[],"{u'mouseover': {u'state': {u'target': [], u'time': []}, u'edge': {u'target': [], u'time': []}}, u'click': {u'state': {u'target': [], u'time': []}, u'edge': {u'target': [], u'time': []}}, u'mouseout': {u'state': {u'target': [], u'time': []}, u'edge': {u'target': [], u'time': []}}}",,,"[1746, 1469, 993]",-5.0,,1840336,12.0,,mouselab-mdp,,10
"[1470, 3115, 4639]","[u'up', u'up', u'left']",,,[],[],"[u'0', 2, 6, 11]",[],[],"{u'mouseover': {u'state': {u'target': [], u'time': []}, u'edge': {u'target': [], u'time': []}}, u'click': {u'state': {u'target': [], u'time': []}, u'edge': {u'target': [], u'time': []}}, u'mouseout': {u'state': {u'target': [], u'time': []}, u'edge': {u'target': [], u'time': []}}}",,,"[1470, 1132, 1007]",-15.0,,1914780,13.0,,mouselab-mdp,,10
"[3397, 4555, 5849]","[u'up', u'up', u'left']",,,[],[],"[u'0', 2, 6, 11]",[],[],"{u'mouseover': {u'state': {u'target': [], u'time': []}, u'edge': {u'target': [], u'time': []}}, u'click': {u'state': {u'target': [], u'time': []}, u'edge': {u'target': [], u'time': []}}, u'mouseout': {u'state': {u'target': [], u'time': []}, u'edge': {u'target': [], u'time': []}}}",,,"[3397, 652, 779]",15.0,,1963402,14.0,,mouselab-mdp,,10
"[499, 1740, 2787]","[u'right', u'right', u'up']",,,[],[],"[u'0', 1, 5, 9]",[],[],"{u'mouseover': {u'state': {u'target': [], u'time': []}, u'edge': {u'target': [], u'time': []}}, u'click': {u'state': {u'target': [], u'time': []}, u'edge': {u'target': [], u'time': []}}, u'mouseout': {u'state': {u'target': [], u'time': []}, u'edge': {u'target': [], u'time': []}}}",,,"[499, 720, 534]",15.0,,2012309,15.0,,mouselab-mdp,,10
"[2979, 4102, 5262]","[u'down', u'down', u'left']",,,[],[],"[u'0', 4, 8, 15]",[],[],"{u'mouseover': {u'state': {u'target': [], u'time': []}, u'edge': {u'target': [], u'time': []}}, u'click': {u'state': {u'target': [], u'time': []}, u'edge': {u'target': [], u'time': []}}, u'mouseout': {u'state': {u'target': [], u'time': []}, u'edge': {u'target': [], u'time': []}}}",,,"[2979, 593, 654]",-25.0,,2081883,16.0,,mouselab-mdp,,10
"[10570, 18715, 20330]","[u'up', u'up', u'right']",,,[],[],"[u'0', 2, 6, 12]",[],[],"{u'mouseover': {u'state': {u'target': [], u'time': []}, u'edge': {u'target': [], u'time': []}}, u'click': {u'state': {u'target': [u'1'], u'time': [3803]}, u'edge': {u'target': [], u'time': []}}, u'mouseout': {u'state': {u'target': [], u'time': []}, u'edge': {u'target': [], u'time': []}}}",,,"[10569, 7631, 1113]",-26.0,,246160,1.0,,mouselab-mdp,,11
"[17604, 20404, 23109]","[u'left', u'left', u'up']",,,[],[],"[u'0', 3, 7, 13]",[],[],"{u'mouseover': {u'state': {u'target': [], u'time': []}, u'edge': {u'target': [], u'time': []}}, u'click': {u'state': {u'target': [u'4', u'3', u'1'], u'time': [7379, 10867, 13626]}, u'edge': {u'target': [], u'time': []}}, u'mouseout': {u'state': {u'target': [], u'time': []}, u'edge': {u'target': [], u'time': []}}}",,,"[17604, 2294, 2198]",-18.0,,294192,2.0,,mouselab-mdp,,11
"[24291, 25330, 26402]","[u'right', u'right', u'down']",,,[],[],"[u'0', 1, 5, 10]",[],[],"{u'mouseover': {u'state': {u'target': [], u'time': []}, u'edge': {u'target': [], u'time': []}}, u'click': {u'state': {u'target': [u'2', u'6', u'11', u'12', u'13', u'14', u'7', u'3', u'1', u'9', u'5', u'10', u'4', u'15', u'8', u'16'], u'time': [2216, 3000, 4104, 5384, 6769, 7584, 8153, 9097, 10456, 12280, 12792, 13664, 16608, 17344, 17793, 18417]}, u'edge': {u'target': [], u'time': []}}, u'mouseout': {u'state': {u'target': [], u'time': []}, u'edge': {u'target': [], u'time': []}}}",,,"[24291, 521, 560]",9.0,,352448,3.0,,mouselab-mdp,,11
"[27219, 28179, 29315]","[u'left', u'left', u'down']",,,[],[],"[u'0', 3, 7, 14]",[],[],"{u'mouseover': {u'state': {u'target': [], u'time': []}, u'edge': {u'target': [], u'time': []}}, u'click': {u'state': {u'target': [u'1', u'3', u'4', u'2', u'7', u'13', u'14', u'8', u'9', u'5', u'10'], u'time': [3067, 4985, 5777, 6537, 9985, 11353, 12153, 20218, 21809, 22393, 22833]}, u'edge': {u'target': [], u'time': []}}, u'mouseout': {u'state': {u'target': [], u'time': []}, u'edge': {u'target': [], u'time': []}}}",,,"[27219, 446, 633]",-6.0,,403088,4.0,,mouselab-mdp,,11
"[3761, 4785, 5681]","[u'down', u'down', u'right']",,,[],[],"[u'0', 4, 8, 16]",[],[],"{u'mouseover': {u'state': {u'target': [], u'time': []}, u'edge': {u'target': [], u'time': []}}, u'click': {u'state': {u'target': [], u'time': []}, u'edge': {u'target': [], u'time': []}}, u'mouseout': {u'state': {u'target': [], u'time': []}, u'edge': {u'target': [], u'time': []}}}",,,"[3760, 512, 391]",-5.0,,451456,5.0,,mouselab-mdp,,11
"[8902, 9622, 10486]","[u'down', u'down', u'right']",,,[],[],"[u'0', 4, 8, 16]",[],[],"{u'mouseover': {u'state': {u'target': [], u'time': []}, u'edge': {u'target': [], u'time': []}}, u'click': {u'state': {u'target': [u'1', u'2', u'3', u'4', u'8', u'15', u'16'], u'time': [1276, 2132, 2612, 3101, 5046, 5612, 6387]}, u'edge': {u'target': [], u'time': []}}, u'mouseout': {u'state': {u'target': [], u'time': []}, u'edge': {u'target': [], u'time': []}}}",,,"[8901, 213, 361]",18.0,,499200,6.0,,mouselab-mdp,,11
"[34950, 36567, 37735]","[u'right', u'right', u'up']",,,[],[],"[u'0', 1, 5, 9]",[],[],"{u'mouseover': {u'state': {u'target': [], u'time': []}, u'edge': {u'target': [], u'time': []}}, u'click': {u'state': {u'target': [u'13', u'14', u'15', u'16', u'9', u'10', u'11', u'12', u'6', u'2', u'5', u'1', u'3', u'7', u'4', u'8'], u'time': [13823, 14636, 15916, 16876, 18037, 18996, 20228, 20900, 22068, 22621, 25452, 26900, 29669, 30684, 32412, 33108]}, u'edge': {u'target': [], u'time': []}}, u'mouseout': {u'state': {u'target': [], u'time': []}, u'edge': {u'target': [], u'time': []}}}",,,"[34950, 1105, 656]",-1.0,,615200,7.0,,mouselab-mdp,,11
"[66414, 67261, 71582]","[u'left', u'left', u'up']",,,[],[],"[u'0', 3, 7, 13]",[],[],"{u'mouseover': {u'state': {u'target': [], u'time': []}, u'edge': {u'target': [], u'time': []}}, u'click': {u'state': {u'target': [u'1', u'5', u'9', u'10', u'13', u'7', u'14', u'15', u'8', u'16', u'11', u'6', u'12', u'2', u'4', u'3'], u'time': [37665, 38181, 38613, 39197, 40229, 40626, 41188, 42412, 42772, 43212, 44724, 45084, 45380, 50188, 51003, 51740]}, u'edge': {u'target': [], u'time': []}}, u'mouseout': {u'state': {u'target': [], u'time': []}, u'edge': {u'target': [], u'time': []}}}",,,"[66414, 332, 3803]",-1.0,,691344,8.0,,mouselab-mdp,,11
"[59901, 60603, 62315]","[u'left', u'left', u'down']",,,[],[],"[u'0', 3, 7, 14]",[],[],"{u'mouseover': {u'state': {u'target': [], u'time': []}, u'edge': {u'target': [], u'time': []}}, u'click': {u'state': {u'target': [u'1', u'5', u'9', u'10', u'4', u'15', u'8', u'16', u'13', u'7', u'14'], u'time': [48053, 49026, 50298, 51003, 52025, 52929, 53369, 53857, 55721, 56169, 57698]}, u'edge': {u'target': [], u'time': []}}, u'mouseout': {u'state': {u'target': [], u'time': []}, u'edge': {u'target': [], u'time': []}}}",,,"[59901, 190, 1202]",-16.0,,756897,9.0,,mouselab-mdp,,11
"[10613, 11573, 12517]","[u'left', u'left', u'down']",,,[],[],"[u'0', 3, 7, 14]",[],[],"{u'mouseover': {u'state': {u'target': [], u'time': []}, u'edge': {u'target': [], u'time': []}}, u'click': {u'state': {u'target': [u'13', u'9', u'10', u'14', u'15', u'16'], u'time': [1589, 2715, 3627, 4987, 5819, 6771]}, u'edge': {u'target': [], u'time': []}}, u'mouseout': {u'state': {u'target': [], u'time': []}, u'edge': {u'target': [], u'time': []}}}",,,"[10613, 453, 430]",-1.0,,808223,10.0,,mouselab-mdp,,11
"[4709, 5381, 6677]","[u'left', u'left', u'down']",,,[],[],"[u'0', 3, 7, 14]",[],[],"{u'mouseover': {u'state': {u'target': [], u'time': []}, u'edge': {u'target': [], u'time': []}}, u'click': {u'state': {u'target': [], u'time': []}, u'edge': {u'target': [], u'time': []}}, u'mouseout': {u'state': {u'target': [], u'time': []}, u'edge': {u'target': [], u'time': []}}}",,,"[4709, 156, 786]",15.0,,862385,11.0,,mouselab-mdp,,11
"[3873, 5377, 6833]","[u'up', u'up', u'right']",,,[],[],"[u'0', 2, 6, 12]",[],[],"{u'mouseover': {u'state': {u'target': [], u'time': []}, u'edge': {u'target': [], u'time': []}}, u'click': {u'state': {u'target': [], u'time': []}, u'edge': {u'target': [], u'time': []}}, u'mouseout': {u'state': {u'target': [], u'time': []}, u'edge': {u'target': [], u'time': []}}}",,,"[3873, 985, 941]",15.0,,963616,12.0,,mouselab-mdp,,11
"[9024, 10127, 11103]","[u'left', u'left', u'up']",,,[],[],"[u'0', 3, 7, 13]",[],[],"{u'mouseover': {u'state': {u'target': [], u'time': []}, u'edge': {u'target': [], u'time': []}}, u'click': {u'state': {u'target': [u'7', u'13', u'14'], u'time': [1766, 2918, 3710]}, u'edge': {u'target': [], u'time': []}}, u'mouseout': {u'state': {u'target': [], u'time': []}, u'edge': {u'target': [], u'time': []}}}",,,"[9024, 590, 466]",12.0,,1012656,13.0,,mouselab-mdp,,11
"[1833, 2392, 3369]","[u'right', u'right', u'down']",,,[],[],"[u'0', 1, 5, 10]",[],[],"{u'mouseover': {u'state': {u'target': [], u'time': []}, u'edge': {u'target': [], u'time': []}}, u'click': {u'state': {u'target': [], u'time': []}, u'edge': {u'target': [], u'time': []}}, u'mouseout': {u'state': {u'target': [], u'time': []}, u'edge': {u'target': [], u'time': []}}}",,,"[1833, 54, 464]",5.0,,1063697,14.0,,mouselab-mdp,,11
"[1813, 2421, 3605]","[u'right', u'right', u'down']",,,[],[],"[u'0', 1, 5, 10]",[],[],"{u'mouseover': {u'state': {u'target': [], u'time': []}, u'edge': {u'target': [], u'time': []}}, u'click': {u'state': {u'target': [], u'time': []}, u'edge': {u'target': [], u'time': []}}, u'mouseout': {u'state': {u'target': [], u'time': []}, u'edge': {u'target': [], u'time': []}}}",,,"[1813, 96, 680]",-5.0,,1124640,15.0,,mouselab-mdp,,11
"[3007, 3903, 5055]","[u'left', u'left', u'up']",,,[],[],"[u'0', 3, 7, 13]",[],[],"{u'mouseover': {u'state': {u'target': [], u'time': []}, u'edge': {u'target': [], u'time': []}}, u'click': {u'state': {u'target': [], u'time': []}, u'edge': {u'target': [], u'time': []}}, u'mouseout': {u'state': {u'target': [], u'time': []}, u'edge': {u'target': [], u'time': []}}}",,,"[3007, 379, 648]",25.0,,1187728,16.0,,mouselab-mdp,,11
"[10772, 12563, 14515]","[u'up', u'up', u'left']",,,[],[],"[u'0', 2, 6, 11]",[],[],"{u'mouseover': {u'state': {u'target': [], u'time': []}, u'edge': {u'target': [], u'time': []}}, u'click': {u'state': {u'target': [u'2', u'6'], u'time': [5360, 6690]}, u'edge': {u'target': [], u'time': []}}, u'mouseout': {u'state': {u'target': [], u'time': []}, u'edge': {u'target': [], u'time': []}}}",,,"[10771, 1277, 1446]",33.0,,176969,1.0,,mouselab-mdp,,12
"[15478, 16645, 17469]","[u'right', u'right', u'up']",,,[],[],"[u'0', 1, 5, 9]",[],[],"{u'mouseover': {u'state': {u'target': [], u'time': []}, u'edge': {u'target': [], u'time': []}}, u'click': {u'state': {u'target': [u'3', u'4', u'2', u'1', u'5', u'6', u'8', u'7', u'11', u'12', u'10'], u'time': [912, 1636, 2419, 2974, 4517, 5360, 6512, 7645, 10130, 10938, 11903]}, u'edge': {u'target': [], u'time': []}}, u'mouseout': {u'state': {u'target': [], u'time': []}, u'edge': {u'target': [], u'time': []}}}",,,"[15478, 651, 309]",-16.0,,224944,2.0,,mouselab-mdp,,12
"[7146, 8387, 9394]","[u'right', u'right', u'up']",,,[],[],"[u'0', 1, 5, 9]",[],[],"{u'mouseover': {u'state': {u'target': [], u'time': []}, u'edge': {u'target': [], u'time': []}}, u'click': {u'state': {u'target': [u'2', u'4', u'1', u'3'], u'time': [1705, 2452, 2872, 3535]}, u'edge': {u'target': [], u'time': []}}, u'mouseout': {u'state': {u'target': [], u'time': []}, u'edge': {u'target': [], u'time': []}}}",,,"[7146, 725, 499]",1.0,,275681,3.0,,mouselab-mdp,,12
"[13373, 14165, 14956]","[u'up', u'up', u'left']",,,[],[],"[u'0', 2, 6, 11]",[],[],"{u'mouseover': {u'state': {u'target': [], u'time': []}, u'edge': {u'target': [], u'time': []}}, u'click': {u'state': {u'target': [u'6', u'5', u'8', u'7', u'3', u'2', u'12', u'11'], u'time': [1055, 1870, 2632, 3384, 4368, 8697, 10156, 10858]}, u'edge': {u'target': [], u'time': []}}, u'mouseout': {u'state': {u'target': [], u'time': []}, u'edge': {u'target': [], u'time': []}}}",,,"[13373, 289, 281]",7.0,,322056,4.0,,mouselab-mdp,,12
"[11476, 12227, 13019]","[u'left', u'left', u'up']",,,[],[],"[u'0', 3, 7, 13]",[],[],"{u'mouseover': {u'state': {u'target': [], u'time': []}, u'edge': {u'target': [], u'time': []}}, u'click': {u'state': {u'target': [u'7', u'6', u'5', u'8', u'15', u'16', u'4', u'3', u'13'], u'time': [1061, 1790, 2514, 3361, 5601, 6241, 6852, 8848, 9356]}, u'edge': {u'target': [], u'time': []}}, u'mouseout': {u'state': {u'target': [], u'time': []}, u'edge': {u'target': [], u'time': []}}}",,,"[11476, 248, 290]",16.0,,370056,5.0,,mouselab-mdp,,12
"[18214, 18982, 19798]","[u'up', u'up', u'right']",,,[],[],"[u'0', 2, 6, 12]",[],[],"{u'mouseover': {u'state': {u'target': [], u'time': []}, u'edge': {u'target': [], u'time': []}}, u'click': {u'state': {u'target': [u'7', u'6', u'5', u'8', u'11', u'12', u'2', u'9', u'10', u'14', u'13', u'3', u'16'], u'time': [831, 1627, 2321, 3182, 4264, 4740, 5246, 7409, 7934, 9183, 10021, 11063, 12269]}, u'edge': {u'target': [], u'time': []}}, u'mouseout': {u'state': {u'target': [], u'time': []}, u'edge': {u'target': [], u'time': []}}}",,,"[18213, 252, 302]",-8.0,,425977,6.0,,mouselab-mdp,,12
"[6695, 7366, 8135]","[u'right', u'right', u'up']",,,[],[],"[u'0', 1, 5, 9]",[],[],"{u'mouseover': {u'state': {u'target': [], u'time': []}, u'edge': {u'target': [], u'time': []}}, u'click': {u'state': {u'target': [u'5', u'9', u'1'], u'time': [2728, 3696, 4737]}, u'edge': {u'target': [], u'time': []}}, u'mouseout': {u'state': {u'target': [], u'time': []}, u'edge': {u'target': [], u'time': []}}}",,,"[6695, 157, 260]",22.0,,473824,7.0,,mouselab-mdp,,12
"[17353, 18041, 18944]","[u'left', u'left', u'down']",,,[],[],"[u'0', 3, 7, 14]",[],[],"{u'mouseover': {u'state': {u'target': [], u'time': []}, u'edge': {u'target': [], u'time': []}}, u'click': {u'state': {u'target': [u'1', u'5', u'9', u'2', u'3', u'4', u'13', u'14', u'10', u'12', u'16', u'11'], u'time': [1091, 1856, 2406, 3501, 4132, 4613, 5429, 6033, 8158, 9496, 10694, 12997]}, u'edge': {u'target': [], u'time': []}}, u'mouseout': {u'state': {u'target': [], u'time': []}, u'edge': {u'target': [], u'time': []}}}",,,"[17353, 171, 392]",-27.0,,523128,8.0,,mouselab-mdp,,12
"[11403, 12012, 12763]","[u'right', u'right', u'down']",,,[],[],"[u'0', 1, 5, 10]",[],[],"{u'mouseover': {u'state': {u'target': [], u'time': []}, u'edge': {u'target': [], u'time': []}}, u'click': {u'state': {u'target': [u'6', u'5', u'8', u'7', u'9', u'10', u'12', u'11', u'2', u'1'], u'time': [1551, 2400, 3260, 4013, 4857, 5479, 6403, 7042, 8110, 8971]}, u'edge': {u'target': [], u'time': []}}, u'mouseout': {u'state': {u'target': [], u'time': []}, u'edge': {u'target': [], u'time': []}}}",,,"[11403, 96, 247]",5.0,,574569,9.0,,mouselab-mdp,,12
"[12334, 13095, 13710]","[u'down', u'down', u'left']",,,[],[],"[u'0', 4, 8, 15]",[],[],"{u'mouseover': {u'state': {u'target': [], u'time': []}, u'edge': {u'target': [], u'time': []}}, u'click': {u'state': {u'target': [u'6', u'5', u'12', u'9', u'10', u'1', u'11', u'4', u'3', u'16', u'15', u'8'], u'time': [1302, 2023, 2895, 3577, 4316, 5258, 6794, 7884, 8433, 8967, 9728, 10353]}, u'edge': {u'target': [], u'time': []}}, u'mouseout': {u'state': {u'target': [], u'time': []}, u'edge': {u'target': [], u'time': []}}}",,,"[12334, 251, 99]",3.0,,623297,10.0,,mouselab-mdp,,12
"[7846, 8422, 9197]","[u'up', u'up', u'left']",,,[],[],"[u'0', 2, 6, 11]",[],[],"{u'mouseover': {u'state': {u'target': [], u'time': []}, u'edge': {u'target': [], u'time': []}}, u'click': {u'state': {u'target': [u'11', u'12', u'2'], u'time': [4616, 5686, 6557]}, u'edge': {u'target': [], u'time': []}}, u'mouseout': {u'state': {u'target': [], u'time': []}, u'edge': {u'target': [], u'time': []}}}",,,"[7846, 67, 258]",12.0,,670153,11.0,,mouselab-mdp,,12
"[10695, 11247, 11895]","[u'right', u'right', u'down']",,,[],[],"[u'0', 1, 5, 10]",[],[],"{u'mouseover': {u'state': {u'target': [], u'time': []}, u'edge': {u'target': [], u'time': []}}, u'click': {u'state': {u'target': [u'6', u'5', u'8', u'7', u'1', u'9', u'10'], u'time': [2260, 2914, 4392, 5153, 6964, 7668, 8213]}, u'edge': {u'target': [], u'time': []}}, u'mouseout': {u'state': {u'target': [], u'time': []}, u'edge': {u'target': [], u'time': []}}}",,,"[10695, 48, 130]",-2.0,,717321,12.0,,mouselab-mdp,,12
"[8196, 8916, 49651]","[u'left', u'left', u'down']",,,[],[],"[u'0', 3, 7, 14]",[],[],"{u'mouseover': {u'state': {u'target': [], u'time': []}, u'edge': {u'target': [], u'time': []}}, u'click': {u'state': {u'target': [u'6', u'5', u'8', u'7', u'13', u'14', u'3'], u'time': [1063, 1649, 3416, 4233, 5644, 6251, 6825]}, u'edge': {u'target': [], u'time': []}}, u'mouseout': {u'state': {u'target': [], u'time': []}, u'edge': {u'target': [], u'time': []}}}",,,"[8195, 216, 40217]",8.0,,769928,13.0,,mouselab-mdp,,12
"[9207, 9847, 10527]","[u'right', u'right', u'up']",,,[],[],"[u'0', 1, 5, 9]",[],[],"{u'mouseover': {u'state': {u'target': [], u'time': []}, u'edge': {u'target': [], u'time': []}}, u'click': {u'state': {u'target': [u'7', u'5', u'8', u'9', u'1', u'10'], u'time': [3606, 4533, 5279, 6013, 6789, 7392]}, u'edge': {u'target': [], u'time': []}}, u'mouseout': {u'state': {u'target': [], u'time': []}, u'edge': {u'target': [], u'time': []}}}",,,"[9207, 137, 168]",9.0,,818008,14.0,,mouselab-mdp,,12
"[11822, 12422, 13014]","[u'up', u'up', u'left']",,,[],[],"[u'0', 2, 6, 11]",[],[],"{u'mouseover': {u'state': {u'target': [], u'time': []}, u'edge': {u'target': [], u'time': []}}, u'click': {u'state': {u'target': [u'8', u'5', u'6', u'9', u'1', u'10', u'12', u'11', u'2'], u'time': [2346, 3106, 3999, 4809, 6279, 7601, 8514, 9954, 10435]}, u'edge': {u'target': [], u'time': []}}, u'mouseout': {u'state': {u'target': [], u'time': []}, u'edge': {u'target': [], u'time': []}}}",,,"[11822, 96, 88]",6.0,,866240,15.0,,mouselab-mdp,,12
"[11926, 12998, 13614]","[u'right', u'right', u'down']",,,[],[],"[u'0', 1, 5, 10]",[],[],"{u'mouseover': {u'state': {u'target': [], u'time': []}, u'edge': {u'target': [], u'time': []}}, u'click': {u'state': {u'target': [u'6', u'5', u'8', u'7', u'1', u'9', u'10', u'3'], u'time': [2498, 3262, 4020, 4669, 6042, 6627, 7164, 9356]}, u'edge': {u'target': [], u'time': []}}, u'mouseout': {u'state': {u'target': [], u'time': []}, u'edge': {u'target': [], u'time': []}}}",,,"[11926, 555, 105]",-3.0,,922050,16.0,,mouselab-mdp,,12
"[5910, 7883, 10972]","[u'left', u'left', u'up']",,,[],[],"[u'0', 3, 7, 13]",[],[],"{u'mouseover': {u'state': {u'target': [], u'time': []}, u'edge': {u'target': [], u'time': []}}, u'click': {u'state': {u'target': [], u'time': []}, u'edge': {u'target': [], u'time': []}}, u'mouseout': {u'state': {u'target': [], u'time': []}, u'edge': {u'target': [], u'time': []}}}",,,"[5909, 1440, 2543]",15.0,,386268,1.0,,mouselab-mdp,,13
"[11649, 12298, 13322]","[u'right', u'right', u'down']",,,[],[],"[u'0', 1, 5, 10]",[],[],"{u'mouseover': {u'state': {u'target': [], u'time': []}, u'edge': {u'target': [], u'time': []}}, u'click': {u'state': {u'target': [u'7', u'6', u'5', u'1'], u'time': [4786, 6258, 7902, 10476]}, u'edge': {u'target': [], u'time': []}}, u'mouseout': {u'state': {u'target': [], u'time': []}, u'edge': {u'target': [], u'time': []}}}",,,"[11649, 116, 495]",11.0,,435961,2.0,,mouselab-mdp,,13
"[6515, 7368, 8177]","[u'right', u'right', u'up']",,,[],[],"[u'0', 1, 5, 9]",[],[],"{u'mouseover': {u'state': {u'target': [], u'time': []}, u'edge': {u'target': [], u'time': []}}, u'click': {u'state': {u'target': [u'6', u'7', u'8', u'5', u'10'], u'time': [1196, 2475, 3345, 4073, 5109]}, u'edge': {u'target': [], u'time': []}}, u'mouseout': {u'state': {u'target': [], u'time': []}, u'edge': {u'target': [], u'time': []}}}",,,"[6514, 315, 270]",20.0,,489520,3.0,,mouselab-mdp,,13
"[4944, 5870, 6560]","[u'up', u'up', u'right']",,,[],[],"[u'0', 2, 6, 12]",[],[],"{u'mouseover': {u'state': {u'target': [], u'time': []}, u'edge': {u'target': [], u'time': []}}, u'click': {u'state': {u'target': [u'8', u'5', u'6', u'11'], u'time': [1145, 2041, 2875, 3783]}, u'edge': {u'target': [], u'time': []}}, u'mouseout': {u'state': {u'target': [], u'time': []}, u'edge': {u'target': [], u'time': []}}}",,,"[4944, 385, 154]",-19.0,,548405,4.0,,mouselab-mdp,,13
"[8011, 8841, 9466]","[u'left', u'left', u'up']",,,[],[],"[u'0', 3, 7, 13]",[],[],"{u'mouseover': {u'state': {u'target': [], u'time': []}, u'edge': {u'target': [], u'time': []}}, u'click': {u'state': {u'target': [u'7', u'6', u'5', u'8', u'13'], u'time': [2333, 4010, 4807, 5464, 6405]}, u'edge': {u'target': [], u'time': []}}, u'mouseout': {u'state': {u'target': [], u'time': []}, u'edge': {u'target': [], u'time': []}}}",,,"[8011, 268, 98]",10.0,,630932,5.0,,mouselab-mdp,,13
"[4719, 5401, 6127]","[u'right', u'right', u'down']",,,[],[],"[u'0', 1, 5, 10]",[],[],"{u'mouseover': {u'state': {u'target': [], u'time': []}, u'edge': {u'target': [], u'time': []}}, u'click': {u'state': {u'target': [u'8', u'5', u'9'], u'time': [1232, 2199, 3680]}, u'edge': {u'target': [], u'time': []}}, u'mouseout': {u'state': {u'target': [], u'time': []}, u'edge': {u'target': [], u'time': []}}}",,,"[4719, 136, 162]",12.0,,685950,6.0,,mouselab-mdp,,13
"[5787, 6390, 7067]","[u'right', u'right', u'up']",,,[],[],"[u'0', 1, 5, 9]",[],[],"{u'mouseover': {u'state': {u'target': [], u'time': []}, u'edge': {u'target': [], u'time': []}}, u'click': {u'state': {u'target': [u'7', u'5', u'6', u'8', u'9'], u'time': [581, 1516, 2300, 3414, 4404]}, u'edge': {u'target': [], u'time': []}}, u'mouseout': {u'state': {u'target': [], u'time': []}, u'edge': {u'target': [], u'time': []}}}",,,"[5787, 53, 132]",0.0,,734104,7.0,,mouselab-mdp,,13
"[7213, 8348, 8948]","[u'left', u'left', u'down']",,,[],[],"[u'0', 3, 7, 14]",[],[],"{u'mouseover': {u'state': {u'target': [], u'time': []}, u'edge': {u'target': [], u'time': []}}, u'click': {u'state': {u'target': [u'7', u'5', u'6', u'8', u'13', u'14'], u'time': [582, 2053, 2983, 3928, 4885, 6197]}, u'edge': {u'target': [], u'time': []}}, u'mouseout': {u'state': {u'target': [], u'time': []}, u'edge': {u'target': [], u'time': []}}}",,,"[7213, 589, 59]",-11.0,,786058,8.0,,mouselab-mdp,,13
"[21770, 22303, 22919]","[u'up', u'up', u'right']",,,[],[],"[u'0', 2, 6, 12]",[],[],"{u'mouseover': {u'state': {u'target': [], u'time': []}, u'edge': {u'target': [], u'time': []}}, u'click': {u'state': {u'target': [u'7', u'6', u'5', u'8', u'1', u'2', u'3', u'4', u'14', u'13', u'12', u'11'], u'time': [1375, 2456, 3289, 5402, 7436, 8360, 9282, 9879, 10792, 12290, 13273, 13727]}, u'edge': {u'target': [], u'time': []}}, u'mouseout': {u'state': {u'target': [], u'time': []}, u'edge': {u'target': [], u'time': []}}}",,,"[21770, 5, 80]",-7.0,,850744,9.0,,mouselab-mdp,,13
"[13849, 14954, 15521]","[u'right', u'right', u'down']",,,[],[],"[u'0', 1, 5, 10]",[],[],"{u'mouseover': {u'state': {u'target': [], u'time': []}, u'edge': {u'target': [], u'time': []}}, u'click': {u'state': {u'target': [u'7', u'6', u'5', u'10', u'9', u'8', u'1', u'3'], u'time': [1897, 2798, 4724, 5686, 6692, 7669, 8361, 10979]}, u'edge': {u'target': [], u'time': []}}, u'mouseout': {u'state': {u'target': [], u'time': []}, u'edge': {u'target': [], u'time': []}}}",,,"[13849, 567, 24]",-3.0,,914619,10.0,,mouselab-mdp,,13
"[11753, 12313, 12905]","[u'right', u'right', u'down']",,,[],[],"[u'0', 1, 5, 10]",[],[],"{u'mouseover': {u'state': {u'target': [], u'time': []}, u'edge': {u'target': [], u'time': []}}, u'click': {u'state': {u'target': [u'5', u'8', u'6', u'12', u'9', u'10'], u'time': [3603, 6478, 7430, 9250, 10002, 10793]}, u'edge': {u'target': [], u'time': []}}, u'mouseout': {u'state': {u'target': [], u'time': []}, u'edge': {u'target': [], u'time': []}}}",,,"[11753, 30, 40]",-1.0,,971653,11.0,,mouselab-mdp,,13
"[9628, 10331, 10969]","[u'left', u'left', u'up']",,,[],[],"[u'0', 3, 7, 13]",[],[],"{u'mouseover': {u'state': {u'target': [], u'time': []}, u'edge': {u'target': [], u'time': []}}, u'click': {u'state': {u'target': [u'5', u'10', u'6', u'7', u'8', u'16', u'15', u'4', u'13'], u'time': [1333, 1980, 3046, 3826, 4552, 5620, 6244, 7100, 8668]}, u'edge': {u'target': [], u'time': []}}, u'mouseout': {u'state': {u'target': [], u'time': []}, u'edge': {u'target': [], u'time': []}}}",,,"[9628, 161, 93]",16.0,,1021741,12.0,,mouselab-mdp,,13
"[10747, 11355, 12033]","[u'right', u'right', u'up']",,,[],[],"[u'0', 1, 5, 9]",[],[],"{u'mouseover': {u'state': {u'target': [], u'time': []}, u'edge': {u'target': [], u'time': []}}, u'click': {u'state': {u'target': [u'5', u'10', u'1', u'2', u'3', u'4', u'6', u'7', u'8', u'9'], u'time': [1147, 2070, 3724, 4725, 5085, 5420, 6995, 7843, 8499, 9363]}, u'edge': {u'target': [], u'time': []}}, u'mouseout': {u'state': {u'target': [], u'time': []}, u'edge': {u'target': [], u'time': []}}}",,,"[10747, 72, 144]",-5.0,,1080757,13.0,,mouselab-mdp,,13
"[4699, 5286, 5875]","[u'right', u'right', u'up']",,,[],[],"[u'0', 1, 5, 9]",[],[],"{u'mouseover': {u'state': {u'target': [], u'time': []}, u'edge': {u'target': [], u'time': []}}, u'click': {u'state': {u'target': [u'1', u'5', u'9'], u'time': [1493, 2705, 3822]}, u'edge': {u'target': [], u'time': []}}, u'mouseout': {u'state': {u'target': [], u'time': []}, u'edge': {u'target': [], u'time': []}}}",,,"[4698, 47, 38]",12.0,,1177818,14.0,,mouselab-mdp,,13
"[4346, 4956, 6035]","[u'right', u'right', u'down']",,,[],[],"[u'0', 1, 5, 10]",[],[],"{u'mouseover': {u'state': {u'target': [], u'time': []}, u'edge': {u'target': [], u'time': []}}, u'click': {u'state': {u'target': [u'5', u'10'], u'time': [2356, 3275]}, u'edge': {u'target': [], u'time': []}}, u'mouseout': {u'state': {u'target': [], u'time': []}, u'edge': {u'target': [], u'time': []}}}",,,"[4345, 72, 521]",23.0,,1276945,15.0,,mouselab-mdp,,13
"[10969, 11512, 12098]","[u'left', u'left', u'down']",,,[],[],"[u'0', 3, 7, 14]",[],[],"{u'mouseover': {u'state': {u'target': [], u'time': []}, u'edge': {u'target': [], u'time': []}}, u'click': {u'state': {u'target': [u'5', u'7', u'13', u'14', u'3'], u'time': [1677, 3308, 6973, 7693, 8445]}, u'edge': {u'target': [], u'time': []}}, u'mouseout': {u'state': {u'target': [], u'time': []}, u'edge': {u'target': [], u'time': []}}}",,,"[10969, 21, 36]",10.0,,1332505,16.0,,mouselab-mdp,,13
"[11703, 13094, 14383]","[u'up', u'up', u'left']",,,[],[],"[u'0', 2, 6, 11]",[],[],"{u'mouseover': {u'state': {u'target': [], u'time': []}, u'edge': {u'target': [], u'time': []}}, u'click': {u'state': {u'target': [u'2', u'11', u'6'], u'time': [2921, 6276, 8910]}, u'edge': {u'target': [], u'time': []}}, u'mouseout': {u'state': {u'target': [], u'time': []}, u'edge': {u'target': [], u'time': []}}}",,,"[11703, 868, 761]",12.0,,865291,1.0,,mouselab-mdp,,14
"[25998, 26941, 27921]","[u'down', u'down', u'right']",,,[],[],"[u'0', 4, 8, 16]",[],[],"{u'mouseover': {u'state': {u'target': [], u'time': []}, u'edge': {u'target': [], u'time': []}}, u'click': {u'state': {u'target': [u'3', u'7', u'4', u'8', u'16'], u'time': [3602, 6741, 8525, 10294, 11495]}, u'edge': {u'target': [], u'time': []}}, u'mouseout': {u'state': {u'target': [], u'time': []}, u'edge': {u'target': [], u'time': []}}}",,,"[25998, 418, 449]",0.0,,926378,2.0,,mouselab-mdp,,14
