action_times,actions,button_pressed,correct,delays,information_used_correctly,path,planned_too_little,planned_too_much,queries,questions,responses,rt,score,stimulus,time_elapsed,trial_index,trial_i,trial_type,view_history,pid
,,,"[True, False, True, True]",,,,,,,"[""True or false: The hidden values will change each time I start a new round."",""How much does it cost to observe each hidden value?"",""How many hidden values am I allowed to observe in each round?"",""How is your bonus determined?""]","[""True"",""$0.01"",""As many or as few as I wish"",""1 cent for every $1 I earn in each round""]",28061,,,137776,,,survey-multi-choice,,0
,,,"[True, True, True, True]",,,,,,,"[""True or false: The hidden values will change each time I start a new round."",""How much does it cost to observe each hidden value?"",""How many hidden values am I allowed to observe in each round?"",""How is your bonus determined?""]","[""True"",""$1.00"",""As many or as few as I wish"",""1 cent for every $1 I earn in each round""]",16451,,,170248,,,survey-multi-choice,,0
,,,"[True, False, False, True]",,,,,,,"[""True or false: The hidden values will change each time I start a new round."",""How much does it cost to observe each hidden value?"",""How many hidden values am I allowed to observe in each round?"",""How is your bonus determined?""]","[""True"",""$0.05"",""At most 5"",""1 cent for every $1 I earn in each round""]",19737,,,72083,,,survey-multi-choice,,1
,,,"[True, True, True, True]",,,,,,,"[""True or false: The hidden values will change each time I start a new round."",""How much does it cost to observe each hidden value?"",""How many hidden values am I allowed to observe in each round?"",""How is your bonus determined?""]","[""True"",""$1.00"",""As many or as few as I wish"",""1 cent for every $1 I earn in each round""]",16375,,,140666,,,survey-multi-choice,,1
,,,"[True, True, True, True]",,,,,,,"[""True or false: The hidden values will change each time I start a new round."",""How much does it cost to observe each hidden value?"",""How many hidden values am I allowed to observe in each round?"",""How is your bonus determined?""]","[""True"",""$1.00"",""As many or as few as I wish"",""1 cent for every $1 I earn in each round""]",14830,,,40557,,,survey-multi-choice,,2
,,,"[False, True, True, True]",,,,,,,"[""True or false: The hidden values will change each time I start a new round."",""How much does it cost to observe each hidden value?"",""How many hidden values am I allowed to observe in each round?"",""How is your bonus determined?""]","[""False"",""$1.00"",""As many or as few as I wish"",""1 cent for every $1 I earn in each round""]",18269,,,100013,,,survey-multi-choice,,3
,,,"[True, True, True, True]",,,,,,,"[""True or false: The hidden values will change each time I start a new round."",""How much does it cost to observe each hidden value?"",""How many hidden values am I allowed to observe in each round?"",""How is your bonus determined?""]","[""True"",""$1.00"",""As many or as few as I wish"",""1 cent for every $1 I earn in each round""]",7037,,,114469,,,survey-multi-choice,,3
,,,"[True, True, True, True]",,,,,,,"[""True or false: The hidden values will change each time I start a new round."",""How much does it cost to observe each hidden value?"",""How many hidden values am I allowed to observe in each round?"",""How is your bonus determined?""]","[""True"",""$1.00"",""As many or as few as I wish"",""1 cent for every $1 I earn in each round""]",19332,,,115952,,,survey-multi-choice,,4
,,,"[True, True, True, True]",,,,,,,"[""True or false: The hidden values will change each time I start a new round."",""How much does it cost to observe each hidden value?"",""How many hidden values am I allowed to observe in each round?"",""How is your bonus determined?""]","[""True"",""$1.00"",""As many or as few as I wish"",""1 cent for every $1 I earn in each round""]",26977,,,132345,,,survey-multi-choice,,5
,,,"[True, True, True, True]",,,,,,,"[""True or false: The hidden values will change each time I start a new round."",""How much does it cost to observe each hidden value?"",""How many hidden values am I allowed to observe in each round?"",""How is your bonus determined?""]","[""True"",""$1.00"",""As many or as few as I wish"",""1 cent for every $1 I earn in each round""]",42635,,,139861,,,survey-multi-choice,,6
,,,"[True, True, True, True]",,,,,,,"[""True or false: The hidden values will change each time I start a new round."",""How much does it cost to observe each hidden value?"",""How many hidden values am I allowed to observe in each round?"",""How is your bonus determined?""]","[""True"",""$1.00"",""As many or as few as I wish"",""1 cent for every $1 I earn in each round""]",133445,,,191819,,,survey-multi-choice,,7
,,,"[True, True, True, True]",,,,,,,"[""True or false: The hidden values will change each time I start a new round."",""How much does it cost to observe each hidden value?"",""How many hidden values am I allowed to observe in each round?"",""How is your bonus determined?""]","[""True"",""$1.00"",""As many or as few as I wish"",""1 cent for every $1 I earn in each round""]",13999,,,106124,,,survey-multi-choice,,8
,,,"[True, True, True, True]",,,,,,,"[""True or false: The hidden values will change each time I start a new round."",""How much does it cost to observe each hidden value?"",""How many hidden values am I allowed to observe in each round?"",""How is your bonus determined?""]","[""True"",""$1.00"",""As many or as few as I wish"",""1 cent for every $1 I earn in each round""]",15366,,,162187,,,survey-multi-choice,,9
,,,"[True, False, True, True]",,,,,,,"[""True or false: The hidden values will change each time I start a new round."",""How much does it cost to observe each hidden value?"",""How many hidden values am I allowed to observe in each round?"",""How is your bonus determined?""]","[""True"",""$0.01"",""As many or as few as I wish"",""1 cent for every $1 I earn in each round""]",37964,,,417496,,,survey-multi-choice,,10
,,,"[False, False, True, True]",,,,,,,"[""True or false: The hidden values will change each time I start a new round."",""How much does it cost to observe each hidden value?"",""How many hidden values am I allowed to observe in each round?"",""How is your bonus determined?""]","[""False"",""$0.01"",""As many or as few as I wish"",""1 cent for every $1 I earn in each round""]",12209,,,496471,,,survey-multi-choice,,10
,,,"[False, True, True, True]",,,,,,,"[""True or false: The hidden values will change each time I start a new round."",""How much does it cost to observe each hidden value?"",""How many hidden values am I allowed to observe in each round?"",""How is your bonus determined?""]","[""False"",""$1.00"",""As many or as few as I wish"",""1 cent for every $1 I earn in each round""]",23230,,,574911,,,survey-multi-choice,,10
,,,"[True, True, True, True]",,,,,,,"[""True or false: The hidden values will change each time I start a new round."",""How much does it cost to observe each hidden value?"",""How many hidden values am I allowed to observe in each round?"",""How is your bonus determined?""]","[""True"",""$1.00"",""As many or as few as I wish"",""1 cent for every $1 I earn in each round""]",8868,,,624763,,,survey-multi-choice,,10
,,,"[True, True, True, True]",,,,,,,"[""True or false: The hidden values will change each time I start a new round."",""How much does it cost to observe each hidden value?"",""How many hidden values am I allowed to observe in each round?"",""How is your bonus determined?""]","[""True"",""$1.00"",""As many or as few as I wish"",""1 cent for every $1 I earn in each round""]",28877,,,195287,,,survey-multi-choice,,11
,,,"[True, False, False, True]",,,,,,,"[""True or false: The hidden values will change each time I start a new round."",""How much does it cost to observe each hidden value?"",""How many hidden values am I allowed to observe in each round?"",""How is your bonus determined?""]","[""True"",""$0.05"",""At most 1"",""1 cent for every $1 I earn in each round""]",34758,,,66788,,,survey-multi-choice,,12
,,,"[True, False, True, True]",,,,,,,"[""True or false: The hidden values will change each time I start a new round."",""How much does it cost to observe each hidden value?"",""How many hidden values am I allowed to observe in each round?"",""How is your bonus determined?""]","[""True"",""$0.01"",""As many or as few as I wish"",""1 cent for every $1 I earn in each round""]",11101,,,107632,,,survey-multi-choice,,12
,,,"[True, True, True, True]",,,,,,,"[""True or false: The hidden values will change each time I start a new round."",""How much does it cost to observe each hidden value?"",""How many hidden values am I allowed to observe in each round?"",""How is your bonus determined?""]","[""True"",""$1.00"",""As many or as few as I wish"",""1 cent for every $1 I earn in each round""]",5560,,,128572,,,survey-multi-choice,,12
,,,"[True, True, True, True]",,,,,,,"[""True or false: The hidden values will change each time I start a new round."",""How much does it cost to observe each hidden value?"",""How many hidden values am I allowed to observe in each round?"",""How is your bonus determined?""]","[""True"",""$1.00"",""As many or as few as I wish"",""1 cent for every $1 I earn in each round""]",14218,,,334367,,,survey-multi-choice,,13
,,,"[True, True, True, True]",,,,,,,"[""True or false: The hidden values will change each time I start a new round."",""How much does it cost to observe each hidden value?"",""How many hidden values am I allowed to observe in each round?"",""How is your bonus determined?""]","[""True"",""$1.00"",""As many or as few as I wish"",""1 cent for every $1 I earn in each round""]",55236,,,811896,,,survey-multi-choice,,14
,,,"[True, True, True, True]",,,,,,,"[""True or false: The hidden values will change each time I start a new round."",""How much does it cost to observe each hidden value?"",""How many hidden values am I allowed to observe in each round?"",""How is your bonus determined?""]","[""True"",""$1.00"",""As many or as few as I wish"",""1 cent for every $1 I earn in each round""]",11438,,,84429,,,survey-multi-choice,,15
,,,"[True, True, True, True]",,,,,,,"[""True or false: The hidden values will change each time I start a new round."",""How much does it cost to observe each hidden value?"",""How many hidden values am I allowed to observe in each round?"",""How is your bonus determined?""]","[""True"",""$1.00"",""As many or as few as I wish"",""1 cent for every $1 I earn in each round""]",11739,,,92593,,,survey-multi-choice,,16
,,,"[True, True, True, True]",,,,,,,"[""True or false: The hidden values will change each time I start a new round."",""How much does it cost to observe each hidden value?"",""How many hidden values am I allowed to observe in each round?"",""How is your bonus determined?""]","[""True"",""$1.00"",""As many or as few as I wish"",""1 cent for every $1 I earn in each round""]",15197,,,122047,,,survey-multi-choice,,17
,,,"[True, True, True, True]",,,,,,,"[""True or false: The hidden values will change each time I start a new round."",""How much does it cost to observe each hidden value?"",""How many hidden values am I allowed to observe in each round?"",""How is your bonus determined?""]","[""True"",""$1.00"",""As many or as few as I wish"",""1 cent for every $1 I earn in each round""]",19024,,,162964,,,survey-multi-choice,,18
,,,"[True, True, True, True]",,,,,,,"[""True or false: The hidden values will change each time I start a new round."",""How much does it cost to observe each hidden value?"",""How many hidden values am I allowed to observe in each round?"",""How is your bonus determined?""]","[""True"",""$1.00"",""As many or as few as I wish"",""1 cent for every $1 I earn in each round""]",14908,,,109844,,,survey-multi-choice,,19
,,,"[True, False, True, True]",,,,,,,"[""True or false: The hidden values will change each time I start a new round."",""How much does it cost to observe each hidden value?"",""How many hidden values am I allowed to observe in each round?"",""How is your bonus determined?""]","[""True"",""$0.01"",""As many or as few as I wish"",""1 cent for every $1 I earn in each round""]",9275,,,37027,,,survey-multi-choice,,20
,,,"[True, True, True, True]",,,,,,,"[""True or false: The hidden values will change each time I start a new round."",""How much does it cost to observe each hidden value?"",""How many hidden values am I allowed to observe in each round?"",""How is your bonus determined?""]","[""True"",""$1.00"",""As many or as few as I wish"",""1 cent for every $1 I earn in each round""]",10352,,,73096,,,survey-multi-choice,,20
,,,"[True, False, True, True]",,,,,,,"[""True or false: The hidden values will change each time I start a new round."",""How much does it cost to observe each hidden value?"",""How many hidden values am I allowed to observe in each round?"",""How is your bonus determined?""]","[""True"",""$0.01"",""As many or as few as I wish"",""1 cent for every $1 I earn in each round""]",45111,,,111316,,,survey-multi-choice,,21
,,,"[True, True, True, True]",,,,,,,"[""True or false: The hidden values will change each time I start a new round."",""How much does it cost to observe each hidden value?"",""How many hidden values am I allowed to observe in each round?"",""How is your bonus determined?""]","[""True"",""$1.00"",""As many or as few as I wish"",""1 cent for every $1 I earn in each round""]",7512,,,129959,,,survey-multi-choice,,21
,,,"[True, True, False, True]",,,,,,,"[""True or false: The hidden values will change each time I start a new round."",""How much does it cost to observe each hidden value?"",""How many hidden values am I allowed to observe in each round?"",""How is your bonus determined?""]","[""True"",""$1.00"",""At most 1"",""1 cent for every $1 I earn in each round""]",73502,,,280599,,,survey-multi-choice,,22
,,,"[True, True, True, True]",,,,,,,"[""True or false: The hidden values will change each time I start a new round."",""How much does it cost to observe each hidden value?"",""How many hidden values am I allowed to observe in each round?"",""How is your bonus determined?""]","[""True"",""$1.00"",""As many or as few as I wish"",""1 cent for every $1 I earn in each round""]",42418,,,329131,,,survey-multi-choice,,22
,,,"[True, True, False, True]",,,,,,,"[""True or false: The hidden values will change each time I start a new round."",""How much does it cost to observe each hidden value?"",""How many hidden values am I allowed to observe in each round?"",""How is your bonus determined?""]","[""True"",""$1.00"",""At most 1"",""1 cent for every $1 I earn in each round""]",71236,,,150315,,,survey-multi-choice,,23
,,,"[True, True, True, True]",,,,,,,"[""True or false: The hidden values will change each time I start a new round."",""How much does it cost to observe each hidden value?"",""How many hidden values am I allowed to observe in each round?"",""How is your bonus determined?""]","[""True"",""$1.00"",""As many or as few as I wish"",""1 cent for every $1 I earn in each round""]",12625,,,182268,,,survey-multi-choice,,23
,,,"[True, True, True, True]",,,,,,,"[""True or false: The hidden values will change each time I start a new round."",""How much does it cost to observe each hidden value?"",""How many hidden values am I allowed to observe in each round?"",""How is your bonus determined?""]","[""True"",""$1.00"",""As many or as few as I wish"",""1 cent for every $1 I earn in each round""]",26901,,,180481,,,survey-multi-choice,,24
,,,"[True, True, True, True]",,,,,,,"[""True or false: The hidden values will change each time I start a new round."",""How much does it cost to observe each hidden value?"",""How many hidden values am I allowed to observe in each round?"",""How is your bonus determined?""]","[""True"",""$1.00"",""As many or as few as I wish"",""1 cent for every $1 I earn in each round""]",19359,,,99627,,,survey-multi-choice,,25
,,,"[True, True, True, True]",,,,,,,"[""True or false: The hidden values will change each time I start a new round."",""How much does it cost to observe each hidden value?"",""How many hidden values am I allowed to observe in each round?"",""How is your bonus determined?""]","[""True"",""$1.00"",""As many or as few as I wish"",""1 cent for every $1 I earn in each round""]",40364,,,256951,,,survey-multi-choice,,26
,,,"[True, False, True, False]",,,,,,,"[""True or false: The hidden values will change each time I start a new round."",""How much does it cost to observe each hidden value?"",""How many hidden values am I allowed to observe in each round?"",""How is your bonus determined?""]","[""True"",""$0.05"",""As many or as few as I wish"",""10% of my score on a random round""]",27545,,,43517,,,survey-multi-choice,,27
,,,"[True, True, True, True]",,,,,,,"[""True or false: The hidden values will change each time I start a new round."",""How much does it cost to observe each hidden value?"",""How many hidden values am I allowed to observe in each round?"",""How is your bonus determined?""]","[""True"",""$1.00"",""As many or as few as I wish"",""1 cent for every $1 I earn in each round""]",10564,,,69011,,,survey-multi-choice,,27
,,,"[True, False, True, True]",,,,,,,"[""True or false: The hidden values will change each time I start a new round."",""How much does it cost to observe each hidden value?"",""How many hidden values am I allowed to observe in each round?"",""How is your bonus determined?""]","[""True"",""$0.01"",""As many or as few as I wish"",""1 cent for every $1 I earn in each round""]",14268,,,255718,,,survey-multi-choice,,28
,,,"[True, True, True, True]",,,,,,,"[""True or false: The hidden values will change each time I start a new round."",""How much does it cost to observe each hidden value?"",""How many hidden values am I allowed to observe in each round?"",""How is your bonus determined?""]","[""True"",""$1.00"",""As many or as few as I wish"",""1 cent for every $1 I earn in each round""]",5797,,,274530,,,survey-multi-choice,,28
,,,"[True, True, True, True]",,,,,,,"[""True or false: The hidden values will change each time I start a new round."",""How much does it cost to observe each hidden value?"",""How many hidden values am I allowed to observe in each round?"",""How is your bonus determined?""]","[""True"",""$1.00"",""As many or as few as I wish"",""1 cent for every $1 I earn in each round""]",40310,,,165256,,,survey-multi-choice,,29
,,,"[True, True, True, True]",,,,,,,"[""True or false: The hidden values will change each time I start a new round."",""How much does it cost to observe each hidden value?"",""How many hidden values am I allowed to observe in each round?"",""How is your bonus determined?""]","[""True"",""$1.00"",""As many or as few as I wish"",""1 cent for every $1 I earn in each round""]",18294,,,170127,,,survey-multi-choice,,30
,,,"[True, True, True, True]",,,,,,,"[""True or false: The hidden values will change each time I start a new round."",""How much does it cost to observe each hidden value?"",""How many hidden values am I allowed to observe in each round?"",""How is your bonus determined?""]","[""True"",""$1.00"",""As many or as few as I wish"",""1 cent for every $1 I earn in each round""]",33356,,,455240,,,survey-multi-choice,,31
,,,"[True, True, True, True]",,,,,,,"[""True or false: The hidden values will change each time I start a new round."",""How much does it cost to observe each hidden value?"",""How many hidden values am I allowed to observe in each round?"",""How is your bonus determined?""]","[""True"",""$1.00"",""As many or as few as I wish"",""1 cent for every $1 I earn in each round""]",15827,,,67306,,,survey-multi-choice,,32
,,,"[True, True, True, True]",,,,,,,"[""True or false: The hidden values will change each time I start a new round."",""How much does it cost to observe each hidden value?"",""How many hidden values am I allowed to observe in each round?"",""How is your bonus determined?""]","[""True"",""$1.00"",""As many or as few as I wish"",""1 cent for every $1 I earn in each round""]",19205,,,121094,,,survey-multi-choice,,33
,,,"[True, True, True, True]",,,,,,,"[""True or false: The hidden values will change each time I start a new round."",""How much does it cost to observe each hidden value?"",""How many hidden values am I allowed to observe in each round?"",""How is your bonus determined?""]","[""True"",""$1.00"",""As many or as few as I wish"",""1 cent for every $1 I earn in each round""]",14075,,,462158,,,survey-multi-choice,,34
,,,"[True, False, False, True]",,,,,,,"[""True or false: The hidden values will change each time I start a new round."",""How much does it cost to observe each hidden value?"",""How many hidden values am I allowed to observe in each round?"",""How is your bonus determined?""]","[""True"",""$0.05"",""At most 5"",""1 cent for every $1 I earn in each round""]",15698,,,46284,,,survey-multi-choice,,35
,,,"[True, True, True, True]",,,,,,,"[""True or false: The hidden values will change each time I start a new round."",""How much does it cost to observe each hidden value?"",""How many hidden values am I allowed to observe in each round?"",""How is your bonus determined?""]","[""True"",""$1.00"",""As many or as few as I wish"",""1 cent for every $1 I earn in each round""]",6825,,,98102,,,survey-multi-choice,,35
