action_times,actions,beliefs,correct,delays,information_used_correctly,meta_actions,path,planned_too_little,planned_too_much,queries,questions,responses,rt,score,time_elapsed,trial_index,trial_i,trial_type,view_history,pid
"[40349, 49408, 50584]","[u'0', u'0', u'1']","[[0, u'__', u'__', u'__', u'__', u'__', u'__', u'__', u'__', u'__', u'__', u'__', u'__', u'__', u'__', u'__', u'__'], [0, u'__', u'__', u'__', u'__', u'__', u'__', u'__', u'__', 4, u'__', u'__', u'__', u'__', u'__', u'__', u'__'], [0, u'__', u'__', u'__', u'__', u'__', u'__', u'__', u'__', 4, 4, u'__', u'__', u'__', u'__', u'__', u'__'], [0, u'__', u'__', u'__', u'__', u'__', u'__', u'__', u'__', 4, 4, u'__', -4, u'__', u'__', u'__', u'__'], [0, u'__', u'__', u'__', u'__', u'__', u'__', u'__', u'__', 4, 4, 4, -4, u'__', u'__', u'__', u'__'], [0, u'__', u'__', u'__', u'__', u'__', u'__', u'__', u'__', 4, 4, 4, -4, 12, u'__', u'__', u'__'], [0, u'__', u'__', u'__', u'__', u'__', u'__', u'__', u'__', 4, 4, 4, -4, 12, -4, u'__', u'__'], [0, u'__', u'__', u'__', u'__', u'__', u'__', u'__', u'__', 4, 4, 4, -4, 12, -4, u'__', 12], [0, u'__', u'__', u'__', u'__', u'__', u'__', u'__', u'__', 4, 4, 4, -4, 12, -4, -4, 12], [0, 4, u'__', u'__', u'__', u'__', u'__', u'__', u'__', 4, 4, 4, -4, 12, -4, -4, 12], [0, 4, u'__', u'__', -4, u'__', u'__', u'__', u'__', 4, 4, 4, -4, 12, -4, -4, 12], [0, 4, -4, u'__', -4, u'__', u'__', u'__', u'__', 4, 4, 4, -4, 12, -4, -4, 12], [0, 4, -4, 4, -4, u'__', u'__', u'__', u'__', 4, 4, 4, -4, 12, -4, -4, 12], [0, 4, -4, 4, -4, u'__', u'__', u'__', 4, 4, 4, 4, -4, 12, -4, -4, 12], [0, 4, -4, 4, -4, u'__', -4, u'__', 4, 4, 4, 4, -4, 12, -4, -4, 12], [0, 4, -4, 4, -4, -12, -4, u'__', 4, 4, 4, 4, -4, 12, -4, -4, 12], [0, 4, -4, 4, -4, -12, -4, 4, 4, 4, 4, 4, -4, 12, -4, -4, 12]]",,[],[],[],"[u'0', 1, 2, 3]",[],[],"{u'mouseover': {u'state': {u'target': [], u'time': []}, u'edge': {u'target': [], u'time': []}}, u'click': {u'state': {u'target': [9, 10, 12, 11, 13, 14, 16, 15, 1, 4, 2, 3, 8, 6, 5, 7], u'time': [3546, 5281, 6767, 11208, 13661, 15010, 16254, 17572, 20097, 21312, 23386, 24678, 26598, 28210, 29510, 30743]}, u'edge': {u'target': [], u'time': []}}, u'mouseout': {u'state': {u'target': [], u'time': []}, u'edge': {u'target': [], u'time': []}}}",,,"[40348, 8540, 670]",-12.0,167536,1.0,,mouselab-mdp,,0
"[2811, 4704, 6879]","[u'2', u'2', u'1']","[[0, u'__', u'__', u'__', u'__', u'__', u'__', u'__', u'__', u'__', u'__', u'__', u'__', u'__', u'__', u'__', u'__']]",,[],[],[],"[u'0', 9, 10, 12]",[],[],"{u'mouseover': {u'state': {u'target': [], u'time': []}, u'edge': {u'target': [], u'time': []}}, u'click': {u'state': {u'target': [], u'time': []}, u'edge': {u'target': [], u'time': []}}, u'mouseout': {u'state': {u'target': [], u'time': []}, u'edge': {u'target': [], u'time': []}}}",,,"[2810, 1398, 1673]",12.0,222724,2.0,,mouselab-mdp,,0
"[1910, 5403, 7059]","[u'2', u'2', u'1']","[[0, u'__', u'__', u'__', u'__', u'__', u'__', u'__', u'__', u'__', u'__', u'__', u'__', u'__', u'__', u'__', u'__']]",,[],[],[],"[u'0', 9, 10, 12]",[],[],"{u'mouseover': {u'state': {u'target': [], u'time': []}, u'edge': {u'target': [], u'time': []}}, u'click': {u'state': {u'target': [], u'time': []}, u'edge': {u'target': [], u'time': []}}, u'mouseout': {u'state': {u'target': [], u'time': []}, u'edge': {u'target': [], u'time': []}}}",,,"[1910, 2993, 1149]",20.0,296714,3.0,,mouselab-mdp,,0
"[1096, 2710, 4333]","[u'2', u'2', u'1']","[[0, u'__', u'__', u'__', u'__', u'__', u'__', u'__', u'__', u'__', u'__', u'__', u'__', u'__', u'__', u'__', u'__']]",,[],[],[],"[u'0', 9, 10, 12]",[],[],"{u'mouseover': {u'state': {u'target': [], u'time': []}, u'edge': {u'target': [], u'time': []}}, u'click': {u'state': {u'target': [], u'time': []}, u'edge': {u'target': [], u'time': []}}, u'mouseout': {u'state': {u'target': [], u'time': []}, u'edge': {u'target': [], u'time': []}}}",,,"[1096, 1114, 1120]",-20.0,361712,4.0,,mouselab-mdp,,0
"[2329, 4095, 5082]","[u'0', u'0', u'1']","[[0, u'__', u'__', u'__', u'__', u'__', u'__', u'__', u'__', u'__', u'__', u'__', u'__', u'__', u'__', u'__', u'__']]",,[],[],[],"[u'0', 1, 2, 3]",[],[],"{u'mouseover': {u'state': {u'target': [], u'time': []}, u'edge': {u'target': [], u'time': []}}, u'click': {u'state': {u'target': [], u'time': []}, u'edge': {u'target': [], u'time': []}}, u'mouseout': {u'state': {u'target': [], u'time': []}, u'edge': {u'target': [], u'time': []}}}",,,"[2328, 1244, 481]",-4.0,420491,5.0,,mouselab-mdp,,0
"[4050, 5964, 7295]","[u'3', u'3', u'2']","[[0, u'__', u'__', u'__', u'__', u'__', u'__', u'__', u'__', u'__', u'__', u'__', u'__', u'__', u'__', u'__', u'__']]",,[],[],[],"[u'0', 13, 14, 16]",[],[],"{u'mouseover': {u'state': {u'target': [], u'time': []}, u'edge': {u'target': [], u'time': []}}, u'click': {u'state': {u'target': [], u'time': []}, u'edge': {u'target': [], u'time': []}}, u'mouseout': {u'state': {u'target': [], u'time': []}, u'edge': {u'target': [], u'time': []}}}",,,"[4049, 1391, 840]",-20.0,472911,6.0,,mouselab-mdp,,0
"[2031, 3546, 5129]","[u'2', u'2', u'1']","[[0, u'__', u'__', u'__', u'__', u'__', u'__', u'__', u'__', u'__', u'__', u'__', u'__', u'__', u'__', u'__', u'__']]",,[],[],[],"[u'0', 9, 10, 12]",[],[],"{u'mouseover': {u'state': {u'target': [], u'time': []}, u'edge': {u'target': [], u'time': []}}, u'click': {u'state': {u'target': [], u'time': []}, u'edge': {u'target': [], u'time': []}}, u'mouseout': {u'state': {u'target': [], u'time': []}, u'edge': {u'target': [], u'time': []}}}",,,"[2031, 997, 1063]",20.0,546962,7.0,,mouselab-mdp,,0
"[1573, 3242, 4629]","[u'0', u'0', u'1']","[[0, u'__', u'__', u'__', u'__', u'__', u'__', u'__', u'__', u'__', u'__', u'__', u'__', u'__', u'__', u'__', u'__']]",,[],[],[],"[u'0', 1, 2, 3]",[],[],"{u'mouseover': {u'state': {u'target': [], u'time': []}, u'edge': {u'target': [], u'time': []}}, u'click': {u'state': {u'target': [], u'time': []}, u'edge': {u'target': [], u'time': []}}, u'mouseout': {u'state': {u'target': [], u'time': []}, u'edge': {u'target': [], u'time': []}}}",,,"[1573, 1161, 864]",36.0,593875,8.0,,mouselab-mdp,,0
"[1591, 2866, 3797]","[u'2', u'2', u'1']","[[0, u'__', u'__', u'__', u'__', u'__', u'__', u'__', u'__', u'__', u'__', u'__', u'__', u'__', u'__', u'__', u'__']]",,[],[],[],"[u'0', 9, 10, 12]",[],[],"{u'mouseover': {u'state': {u'target': [], u'time': []}, u'edge': {u'target': [], u'time': []}}, u'click': {u'state': {u'target': [], u'time': []}, u'edge': {u'target': [], u'time': []}}, u'mouseout': {u'state': {u'target': [], u'time': []}, u'edge': {u'target': [], u'time': []}}}",,,"[1590, 768, 434]",4.0,649278,9.0,,mouselab-mdp,,0
"[1635, 2622, 3860]","[u'0', u'0', u'1']","[[0, u'__', u'__', u'__', u'__', u'__', u'__', u'__', u'__', u'__', u'__', u'__', u'__', u'__', u'__', u'__', u'__']]",,[],[],[],"[u'0', 1, 2, 3]",[],[],"{u'mouseover': {u'state': {u'target': [], u'time': []}, u'edge': {u'target': [], u'time': []}}, u'click': {u'state': {u'target': [], u'time': []}, u'edge': {u'target': [], u'time': []}}, u'mouseout': {u'state': {u'target': [], u'time': []}, u'edge': {u'target': [], u'time': []}}}",,,"[1634, 463, 735]",4.0,766136,10.0,,mouselab-mdp,,0
"[5964, 8322, 9563]","[u'0', u'0', u'1']","[[0, u'__', u'__', u'__', u'__', u'__', u'__', u'__', u'__', u'__', u'__', u'__', u'__', u'__', u'__', u'__', u'__']]",,[],[],[],"[u'0', 1, 2, 3]",[],[],"{u'mouseover': {u'state': {u'target': [], u'time': []}, u'edge': {u'target': [], u'time': []}}, u'click': {u'state': {u'target': [], u'time': []}, u'edge': {u'target': [], u'time': []}}, u'mouseout': {u'state': {u'target': [], u'time': []}, u'edge': {u'target': [], u'time': []}}}",,,"[5964, 1859, 732]",-4.0,836720,11.0,,mouselab-mdp,,0
"[6548, 7494, 8908]","[u'2', u'2', u'1']","[[0, u'__', u'__', u'__', u'__', u'__', u'__', u'__', u'__', u'__', u'__', u'__', u'__', u'__', u'__', u'__', u'__']]",,[],[],[],"[u'0', 9, 10, 12]",[],[],"{u'mouseover': {u'state': {u'target': [], u'time': []}, u'edge': {u'target': [], u'time': []}}, u'click': {u'state': {u'target': [], u'time': []}, u'edge': {u'target': [], u'time': []}}, u'mouseout': {u'state': {u'target': [], u'time': []}, u'edge': {u'target': [], u'time': []}}}",,,"[6548, 431, 910]",4.0,910451,12.0,,mouselab-mdp,,0
"[1765, 4064, 5475]","[u'2', u'2', u'1']","[[0, u'__', u'__', u'__', u'__', u'__', u'__', u'__', u'__', u'__', u'__', u'__', u'__', u'__', u'__', u'__', u'__']]",,[],[],[],"[u'0', 9, 10, 12]",[],[],"{u'mouseover': {u'state': {u'target': [], u'time': []}, u'edge': {u'target': [], u'time': []}}, u'click': {u'state': {u'target': [], u'time': []}, u'edge': {u'target': [], u'time': []}}, u'mouseout': {u'state': {u'target': [], u'time': []}, u'edge': {u'target': [], u'time': []}}}",,,"[1765, 1807, 902]",-20.0,958566,13.0,,mouselab-mdp,,0
"[1586, 2655, 4456]","[u'0', u'0', u'1']","[[0, u'__', u'__', u'__', u'__', u'__', u'__', u'__', u'__', u'__', u'__', u'__', u'__', u'__', u'__', u'__', u'__']]",,[],[],[],"[u'0', 1, 2, 3]",[],[],"{u'mouseover': {u'state': {u'target': [], u'time': []}, u'edge': {u'target': [], u'time': []}}, u'click': {u'state': {u'target': [], u'time': []}, u'edge': {u'target': [], u'time': []}}, u'mouseout': {u'state': {u'target': [], u'time': []}, u'edge': {u'target': [], u'time': []}}}",,,"[1585, 554, 1306]",4.0,1051560,14.0,,mouselab-mdp,,0
"[1288, 2623, 3691]","[u'0', u'0', u'1']","[[0, u'__', u'__', u'__', u'__', u'__', u'__', u'__', u'__', u'__', u'__', u'__', u'__', u'__', u'__', u'__', u'__']]",,[],[],[],"[u'0', 1, 2, 3]",[],[],"{u'mouseover': {u'state': {u'target': [], u'time': []}, u'edge': {u'target': [], u'time': []}}, u'click': {u'state': {u'target': [], u'time': []}, u'edge': {u'target': [], u'time': []}}, u'mouseout': {u'state': {u'target': [], u'time': []}, u'edge': {u'target': [], u'time': []}}}",,,"[1287, 816, 552]",4.0,1131088,15.0,,mouselab-mdp,,0
"[1126, 2010, 2890]","[u'0', u'0', u'1']","[[0, u'__', u'__', u'__', u'__', u'__', u'__', u'__', u'__', u'__', u'__', u'__', u'__', u'__', u'__', u'__', u'__']]",,[],[],[],"[u'0', 1, 2, 3]",[],[],"{u'mouseover': {u'state': {u'target': [], u'time': []}, u'edge': {u'target': [], u'time': []}}, u'click': {u'state': {u'target': [], u'time': []}, u'edge': {u'target': [], u'time': []}}, u'mouseout': {u'state': {u'target': [], u'time': []}, u'edge': {u'target': [], u'time': []}}}",,,"[1125, 375, 371]",-4.0,1199269,16.0,,mouselab-mdp,,0
"[2718, 27580, 29360]","[u'1', u'1', u'0']","[[0, u'__', u'__', u'__', u'__', u'__', u'__', u'__', u'__', u'__', u'__', u'__', u'__', u'__', u'__', u'__', u'__']]",,[],[],[],"[u'0', 5, 6, 8]",[],[],"{u'mouseover': {u'state': {u'target': [], u'time': []}, u'edge': {u'target': [], u'time': []}}, u'click': {u'state': {u'target': [], u'time': []}, u'edge': {u'target': [], u'time': []}}, u'mouseout': {u'state': {u'target': [], u'time': []}, u'edge': {u'target': [], u'time': []}}}",,,"[2716, 20193, 1270]",28.0,126972,1.0,,mouselab-mdp,,1
"[2583, 3719, 4977]","[u'0', u'0', u'1']","[[0, u'__', u'__', u'__', u'__', u'__', u'__', u'__', u'__', u'__', u'__', u'__', u'__', u'__', u'__', u'__', u'__']]",,[],[],[],"[u'0', 1, 2, 3]",[],[],"{u'mouseover': {u'state': {u'target': [], u'time': []}, u'edge': {u'target': [], u'time': []}}, u'click': {u'state': {u'target': [], u'time': []}, u'edge': {u'target': [], u'time': []}}, u'mouseout': {u'state': {u'target': [], u'time': []}, u'edge': {u'target': [], u'time': []}}}",,,"[2583, 637, 748]",-4.0,176829,2.0,,mouselab-mdp,,1
"[8479, 13810, 15444]","[u'1', u'1', u'2']","[[0, u'__', u'__', u'__', u'__', u'__', u'__', u'__', u'__', u'__', u'__', u'__', u'__', u'__', u'__', u'__', u'__'], [0, u'__', u'__', u'__', u'__', u'__', u'__', u'__', u'__', 4, u'__', u'__', u'__', u'__', u'__', u'__', u'__'], [0, u'__', u'__', u'__', u'__', u'__', u'__', u'__', u'__', 4, u'__', u'__', u'__', -4, u'__', u'__', u'__'], [0, 4, u'__', u'__', u'__', u'__', u'__', u'__', u'__', 4, u'__', u'__', u'__', -4, u'__', u'__', u'__'], [0, 4, u'__', u'__', u'__', 12, u'__', u'__', u'__', 4, u'__', u'__', u'__', -4, u'__', u'__', u'__']]",,[],[],[],"[u'0', 5, 6, 7]",[],[],"{u'mouseover': {u'state': {u'target': [], u'time': []}, u'edge': {u'target': [], u'time': []}}, u'click': {u'state': {u'target': [9, 13, 1, 5], u'time': [2706, 5791, 6659, 7310]}, u'edge': {u'target': [], u'time': []}}, u'mouseout': {u'state': {u'target': [], u'time': []}, u'edge': {u'target': [], u'time': []}}}",,,"[8479, 727, 1134]",24.0,229565,3.0,,mouselab-mdp,,1
"[1764, 5666, 7073]","[u'0', u'0', u'3']","[[0, u'__', u'__', u'__', u'__', u'__', u'__', u'__', u'__', u'__', u'__', u'__', u'__', u'__', u'__', u'__', u'__'], [0, 12, u'__', u'__', u'__', u'__', u'__', u'__', u'__', u'__', u'__', u'__', u'__', u'__', u'__', u'__', u'__']]",,[],[],[],"[u'0', 1, 2, 4]",[],[],"{u'mouseover': {u'state': {u'target': [], u'time': []}, u'edge': {u'target': [], u'time': []}}, u'click': {u'state': {u'target': [1], u'time': [615]}, u'edge': {u'target': [], u'time': []}}, u'mouseout': {u'state': {u'target': [], u'time': []}, u'edge': {u'target': [], u'time': []}}}",,,"[1764, 1192, 901]",-13.0,322999,4.0,,mouselab-mdp,,1
"[5743, 7009, 7941]","[u'2', u'2', u'1']","[[0, u'__', u'__', u'__', u'__', u'__', u'__', u'__', u'__', u'__', u'__', u'__', u'__', u'__', u'__', u'__', u'__'], [0, u'__', u'__', u'__', u'__', u'__', u'__', u'__', u'__', 4, u'__', u'__', u'__', u'__', u'__', u'__', u'__'], [0, u'__', u'__', u'__', u'__', u'__', u'__', u'__', u'__', 4, u'__', u'__', u'__', -12, u'__', u'__', u'__'], [0, -4, u'__', u'__', u'__', u'__', u'__', u'__', u'__', 4, u'__', u'__', u'__', -12, u'__', u'__', u'__'], [0, -4, u'__', u'__', u'__', 4, u'__', u'__', u'__', 4, u'__', u'__', u'__', -12, u'__', u'__', u'__'], [0, -4, u'__', u'__', u'__', 4, u'__', u'__', u'__', 4, 12, u'__', u'__', -12, u'__', u'__', u'__']]",,[],[],[],"[u'0', 9, 10, 12]",[],[],"{u'mouseover': {u'state': {u'target': [], u'time': []}, u'edge': {u'target': [], u'time': []}}, u'click': {u'state': {u'target': [9, 13, 1, 5, 10], u'time': [873, 1434, 1861, 2410, 4153]}, u'edge': {u'target': [], u'time': []}}, u'mouseout': {u'state': {u'target': [], u'time': []}, u'edge': {u'target': [], u'time': []}}}",,,"[5741, 237, 429]",15.0,371355,5.0,,mouselab-mdp,,1
"[11717, 12407, 13097]","[u'2', u'2', u'3']","[[0, u'__', u'__', u'__', u'__', u'__', u'__', u'__', u'__', u'__', u'__', u'__', u'__', u'__', u'__', u'__', u'__'], [0, 4, u'__', u'__', u'__', u'__', u'__', u'__', u'__', u'__', u'__', u'__', u'__', u'__', u'__', u'__', u'__'], [0, 4, u'__', u'__', u'__', -12, u'__', u'__', u'__', u'__', u'__', u'__', u'__', u'__', u'__', u'__', u'__'], [0, 4, u'__', u'__', u'__', -12, u'__', u'__', u'__', 4, u'__', u'__', u'__', u'__', u'__', u'__', u'__'], [0, 4, u'__', u'__', u'__', -12, u'__', u'__', u'__', 4, u'__', u'__', u'__', 12, u'__', u'__', u'__'], [0, 4, u'__', u'__', u'__', -12, u'__', u'__', u'__', 4, u'__', u'__', u'__', 12, -4, u'__', u'__'], [0, 4, -4, u'__', u'__', -12, u'__', u'__', u'__', 4, u'__', u'__', u'__', 12, -4, u'__', u'__'], [0, 4, -4, u'__', u'__', -12, u'__', u'__', u'__', 4, 4, u'__', u'__', 12, -4, u'__', u'__']]",,[],[],[],"[u'0', 9, 10, 11]",[],[],"{u'mouseover': {u'state': {u'target': [], u'time': []}, u'edge': {u'target': [], u'time': []}}, u'click': {u'state': {u'target': [1, 5, 9, 13, 14, 2, 10], u'time': [889, 1754, 2426, 2868, 4747, 8013, 8949]}, u'edge': {u'target': [], u'time': []}}, u'mouseout': {u'state': {u'target': [], u'time': []}, u'edge': {u'target': [], u'time': []}}}",,,"[11717, 184, 191]",5.0,452174,6.0,,mouselab-mdp,,1
"[7878, 8551, 9193]","[u'0', u'0', u'3']","[[0, u'__', u'__', u'__', u'__', u'__', u'__', u'__', u'__', u'__', u'__', u'__', u'__', u'__', u'__', u'__', u'__'], [0, 12, u'__', u'__', u'__', u'__', u'__', u'__', u'__', u'__', u'__', u'__', u'__', u'__', u'__', u'__', u'__'], [0, 12, u'__', u'__', u'__', 4, u'__', u'__', u'__', u'__', u'__', u'__', u'__', u'__', u'__', u'__', u'__'], [0, 12, u'__', u'__', u'__', 4, u'__', u'__', u'__', -12, u'__', u'__', u'__', u'__', u'__', u'__', u'__'], [0, 12, u'__', u'__', u'__', 4, u'__', u'__', u'__', -12, u'__', u'__', u'__', 12, u'__', u'__', u'__'], [0, 12, u'__', u'__', u'__', 4, u'__', u'__', u'__', -12, u'__', u'__', u'__', 12, 4, u'__', u'__'], [0, 12, 4, u'__', u'__', 4, u'__', u'__', u'__', -12, u'__', u'__', u'__', 12, 4, u'__', u'__'], [0, 12, 4, u'__', 12, 4, u'__', u'__', u'__', -12, u'__', u'__', u'__', 12, 4, u'__', u'__']]",,[],[],[],"[u'0', 1, 2, 4]",[],[],"{u'mouseover': {u'state': {u'target': [], u'time': []}, u'edge': {u'target': [], u'time': []}}, u'click': {u'state': {u'target': [1, 5, 9, 13, 14, 2, 4], u'time': [1192, 1927, 2483, 2919, 4535, 5299, 6524]}, u'edge': {u'target': [], u'time': []}}, u'mouseout': {u'state': {u'target': [], u'time': []}, u'edge': {u'target': [], u'time': []}}}",,,"[7878, 164, 144]",21.0,533541,7.0,,mouselab-mdp,,1
"[4209, 9546, 13111]","[u'2', u'2', u'1']","[[0, u'__', u'__', u'__', u'__', u'__', u'__', u'__', u'__', u'__', u'__', u'__', u'__', u'__', u'__', u'__', u'__'], [0, u'__', u'__', u'__', u'__', u'__', u'__', u'__', u'__', u'__', u'__', u'__', u'__', -4, u'__', u'__', u'__'], [0, -12, u'__', u'__', u'__', u'__', u'__', u'__', u'__', u'__', u'__', u'__', u'__', -4, u'__', u'__', u'__'], [0, -12, u'__', u'__', u'__', u'__', u'__', u'__', u'__', 20, u'__', u'__', u'__', -4, u'__', u'__', u'__'], [0, -12, u'__', u'__', u'__', 12, u'__', u'__', u'__', 20, u'__', u'__', u'__', -4, u'__', u'__', u'__']]",,[],[],[],"[u'0', 9, 10, 12]",[],[],"{u'mouseover': {u'state': {u'target': [], u'time': []}, u'edge': {u'target': [], u'time': []}}, u'click': {u'state': {u'target': [13, 1, 9, 5], u'time': [1092, 1648, 2660, 3018]}, u'edge': {u'target': [], u'time': []}}, u'mouseout': {u'state': {u'target': [], u'time': []}, u'edge': {u'target': [], u'time': []}}}",,,"[4209, 286, 3065]",0.0,583557,8.0,,mouselab-mdp,,1
"[6421, 9892, 10929]","[u'1', u'1', u'0']","[[0, u'__', u'__', u'__', u'__', u'__', u'__', u'__', u'__', u'__', u'__', u'__', u'__', u'__', u'__', u'__', u'__'], [0, -20, u'__', u'__', u'__', u'__', u'__', u'__', u'__', u'__', u'__', u'__', u'__', u'__', u'__', u'__', u'__'], [0, -20, u'__', u'__', u'__', 20, u'__', u'__', u'__', u'__', u'__', u'__', u'__', u'__', u'__', u'__', u'__'], [0, -20, u'__', u'__', u'__', 20, u'__', u'__', u'__', -12, u'__', u'__', u'__', u'__', u'__', u'__', u'__'], [0, -20, u'__', u'__', u'__', 20, u'__', u'__', u'__', -12, u'__', u'__', u'__', 4, u'__', u'__', u'__'], [0, -20, u'__', u'__', u'__', 20, 12, u'__', u'__', -12, u'__', u'__', u'__', 4, u'__', u'__', u'__'], [0, -20, u'__', u'__', u'__', 20, 12, u'__', 4, -12, u'__', u'__', u'__', 4, u'__', u'__', u'__'], [0, -20, u'__', u'__', u'__', 20, 12, -4, 4, -12, u'__', u'__', u'__', 4, u'__', u'__', u'__']]",,[],[],[],"[u'0', 5, 6, 8]",[],[],"{u'mouseover': {u'state': {u'target': [], u'time': []}, u'edge': {u'target': [], u'time': []}}, u'click': {u'state': {u'target': [1, 5, 9, 13, 6, 8, 7], u'time': [1049, 1620, 3023, 3370, 4035, 4588, 5123]}, u'edge': {u'target': [], u'time': []}}, u'mouseout': {u'state': {u'target': [], u'time': []}, u'edge': {u'target': [], u'time': []}}}",,,"[6421, 124, 529]",29.0,635724,9.0,,mouselab-mdp,,1
"[16550, 17232, 17990]","[u'1', u'1', u'2']","[[0, u'__', u'__', u'__', u'__', u'__', u'__', u'__', u'__', u'__', u'__', u'__', u'__', u'__', u'__', u'__', u'__'], [0, -4, u'__', u'__', u'__', u'__', u'__', u'__', u'__', u'__', u'__', u'__', u'__', u'__', u'__', u'__', u'__'], [0, -4, u'__', u'__', u'__', 4, u'__', u'__', u'__', u'__', u'__', u'__', u'__', u'__', u'__', u'__', u'__'], [0, -4, u'__', u'__', u'__', 4, u'__', u'__', u'__', -4, u'__', u'__', u'__', u'__', u'__', u'__', u'__'], [0, -4, u'__', u'__', u'__', 4, u'__', u'__', u'__', -4, u'__', u'__', u'__', 4, u'__', u'__', u'__'], [0, -4, u'__', u'__', u'__', 4, u'__', u'__', u'__', -4, u'__', u'__', u'__', 4, 4, u'__', u'__'], [0, -4, u'__', u'__', u'__', 4, 4, u'__', u'__', -4, u'__', u'__', u'__', 4, 4, u'__', u'__'], [0, -4, u'__', u'__', u'__', 4, 4, u'__', u'__', -4, u'__', u'__', u'__', 4, 4, -12, u'__'], [0, -4, u'__', u'__', u'__', 4, 4, u'__', u'__', -4, u'__', u'__', u'__', 4, 4, -12, -12], [0, -4, u'__', u'__', u'__', 4, 4, 12, u'__', -4, u'__', u'__', u'__', 4, 4, -12, -12], [0, -4, u'__', u'__', u'__', 4, 4, 12, 4, -4, u'__', u'__', u'__', 4, 4, -12, -12], [0, -4, u'__', u'__', u'__', 4, 4, 12, 4, -4, u'__', u'__', -12, 4, 4, -12, -12], [0, -4, u'__', u'__', u'__', 4, 4, 12, 4, -4, -4, u'__', -12, 4, 4, -12, -12], [0, -4, 4, u'__', u'__', 4, 4, 12, 4, -4, -4, u'__', -12, 4, 4, -12, -12], [0, -4, 4, -20, u'__', 4, 4, 12, 4, -4, -4, u'__', -12, 4, 4, -12, -12], [0, -4, 4, -20, 4, 4, 4, 12, 4, -4, -4, u'__', -12, 4, 4, -12, -12], [0, -4, 4, -20, 4, 4, 4, 12, 4, -4, -4, 4, -12, 4, 4, -12, -12]]",,[],[],[],"[u'0', 5, 6, 7]",[],[],"{u'mouseover': {u'state': {u'target': [], u'time': []}, u'edge': {u'target': [], u'time': []}}, u'click': {u'state': {u'target': [1, 5, 9, 13, 14, 6, 15, 16, 7, 8, 12, 10, 2, 3, 4, 11], u'time': [1449, 1904, 2374, 2830, 3817, 4996, 5976, 6952, 7944, 8358, 10722, 11280, 11962, 12841, 13359, 14338]}, u'edge': {u'target': [], u'time': []}}, u'mouseout': {u'state': {u'target': [], u'time': []}, u'edge': {u'target': [], u'time': []}}}",,,"[16550, 186, 264]",4.0,682993,10.0,,mouselab-mdp,,1
"[8172, 9081, 9932]","[u'3', u'3', u'2']","[[0, u'__', u'__', u'__', u'__', u'__', u'__', u'__', u'__', u'__', u'__', u'__', u'__', u'__', u'__', u'__', u'__'], [0, u'__', u'__', u'__', u'__', 4, u'__', u'__', u'__', u'__', u'__', u'__', u'__', u'__', u'__', u'__', u'__'], [0, 4, u'__', u'__', u'__', 4, u'__', u'__', u'__', u'__', u'__', u'__', u'__', u'__', u'__', u'__', u'__'], [0, 4, u'__', u'__', u'__', 4, u'__', u'__', u'__', u'__', u'__', u'__', u'__', 4, u'__', u'__', u'__'], [0, 4, u'__', u'__', u'__', 4, u'__', u'__', u'__', -4, u'__', u'__', u'__', 4, u'__', u'__', u'__'], [0, 4, u'__', u'__', u'__', 4, -4, u'__', u'__', -4, u'__', u'__', u'__', 4, u'__', u'__', u'__'], [0, 4, u'__', u'__', u'__', 4, -4, u'__', u'__', -4, u'__', u'__', u'__', 4, 12, u'__', u'__'], [0, 4, u'__', u'__', u'__', 4, -4, u'__', u'__', -4, u'__', u'__', u'__', 4, 12, -4, u'__'], [0, 4, u'__', u'__', u'__', 4, -4, u'__', u'__', -4, u'__', u'__', u'__', 4, 12, -4, 12]]",,[],[],[],"[u'0', 13, 14, 16]",[],[],"{u'mouseover': {u'state': {u'target': [], u'time': []}, u'edge': {u'target': [], u'time': []}}, u'click': {u'state': {u'target': [5, 1, 13, 9, 6, 14, 15, 16], u'time': [2492, 3116, 3566, 4012, 5109, 5990, 6624, 7173]}, u'edge': {u'target': [], u'time': []}}, u'mouseout': {u'state': {u'target': [], u'time': []}, u'edge': {u'target': [], u'time': []}}}",,,"[8172, 323, 316]",20.0,749772,11.0,,mouselab-mdp,,1
"[11490, 12105, 12709]","[u'0', u'0', u'1']","[[0, u'__', u'__', u'__', u'__', u'__', u'__', u'__', u'__', u'__', u'__', u'__', u'__', u'__', u'__', u'__', u'__'], [0, u'__', u'__', u'__', u'__', u'__', u'__', u'__', u'__', -4, u'__', u'__', u'__', u'__', u'__', u'__', u'__'], [0, u'__', u'__', u'__', u'__', u'__', u'__', u'__', u'__', -4, u'__', u'__', u'__', -20, u'__', u'__', u'__'], [0, -12, u'__', u'__', u'__', u'__', u'__', u'__', u'__', -4, u'__', u'__', u'__', -20, u'__', u'__', u'__'], [0, -12, u'__', u'__', u'__', -4, u'__', u'__', u'__', -4, u'__', u'__', u'__', -20, u'__', u'__', u'__'], [0, -12, u'__', u'__', u'__', -4, -4, u'__', u'__', -4, u'__', u'__', u'__', -20, u'__', u'__', u'__'], [0, -12, u'__', u'__', u'__', -4, -4, u'__', u'__', -4, u'__', u'__', u'__', -20, -12, u'__', u'__'], [0, -12, 12, u'__', u'__', -4, -4, u'__', u'__', -4, u'__', u'__', u'__', -20, -12, u'__', u'__'], [0, -12, 12, u'__', u'__', -4, -4, u'__', u'__', -4, 4, u'__', u'__', -20, -12, u'__', u'__'], [0, -12, 12, 4, u'__', -4, -4, u'__', u'__', -4, 4, u'__', u'__', -20, -12, u'__', u'__'], [0, -12, 12, 4, -4, -4, -4, u'__', u'__', -4, 4, u'__', u'__', -20, -12, u'__', u'__'], [0, -12, 12, 4, -4, -4, -4, u'__', u'__', -4, 4, u'__', -12, -20, -12, u'__', u'__'], [0, -12, 12, 4, -4, -4, -4, u'__', u'__', -4, 4, -4, -12, -20, -12, u'__', u'__']]",,[],[],[],"[u'0', 1, 2, 3]",[],[],"{u'mouseover': {u'state': {u'target': [], u'time': []}, u'edge': {u'target': [], u'time': []}}, u'click': {u'state': {u'target': [9, 13, 1, 5, 6, 14, 2, 10, 3, 4, 12, 11], u'time': [598, 1008, 1464, 1836, 2616, 3288, 3984, 4722, 5950, 6561, 7462, 8286]}, u'edge': {u'target': [], u'time': []}}, u'mouseout': {u'state': {u'target': [], u'time': []}, u'edge': {u'target': [], u'time': []}}}",,,"[11489, 110, 99]",-8.0,828681,12.0,,mouselab-mdp,,1
"[6407, 7282, 8200]","[u'2', u'2', u'3']","[[0, u'__', u'__', u'__', u'__', u'__', u'__', u'__', u'__', u'__', u'__', u'__', u'__', u'__', u'__', u'__', u'__'], [0, u'__', u'__', u'__', u'__', -4, u'__', u'__', u'__', u'__', u'__', u'__', u'__', u'__', u'__', u'__', u'__'], [0, 4, u'__', u'__', u'__', -4, u'__', u'__', u'__', u'__', u'__', u'__', u'__', u'__', u'__', u'__', u'__'], [0, 4, u'__', u'__', u'__', -4, u'__', u'__', u'__', u'__', u'__', u'__', u'__', 4, u'__', u'__', u'__'], [0, 4, u'__', u'__', u'__', -4, u'__', u'__', u'__', 20, u'__', u'__', u'__', 4, u'__', u'__', u'__'], [0, 4, u'__', u'__', u'__', -4, u'__', u'__', u'__', 20, -4, u'__', u'__', 4, u'__', u'__', u'__'], [0, 4, u'__', u'__', u'__', -4, u'__', u'__', u'__', 20, -4, u'__', 4, 4, u'__', u'__', u'__'], [0, 4, u'__', u'__', u'__', -4, u'__', u'__', u'__', 20, -4, 12, 4, 4, u'__', u'__', u'__']]",,[],[],[],"[u'0', 9, 10, 11]",[],[],"{u'mouseover': {u'state': {u'target': [], u'time': []}, u'edge': {u'target': [], u'time': []}}, u'click': {u'state': {u'target': [5, 1, 13, 9, 10, 12, 11], u'time': [1424, 1979, 2637, 2986, 4826, 5468, 5936]}, u'edge': {u'target': [], u'time': []}}, u'mouseout': {u'state': {u'target': [], u'time': []}, u'edge': {u'target': [], u'time': []}}}",,,"[6407, 218, 320]",21.0,879816,13.0,,mouselab-mdp,,1
"[4965, 5649, 6487]","[u'2', u'2', u'1']","[[0, u'__', u'__', u'__', u'__', u'__', u'__', u'__', u'__', u'__', u'__', u'__', u'__', u'__', u'__', u'__', u'__'], [0, u'__', u'__', u'__', u'__', u'__', u'__', u'__', u'__', u'__', u'__', u'__', u'__', 4, u'__', u'__', u'__'], [0, u'__', u'__', u'__', u'__', u'__', u'__', u'__', u'__', 12, u'__', u'__', u'__', 4, u'__', u'__', u'__'], [0, u'__', u'__', u'__', u'__', -12, u'__', u'__', u'__', 12, u'__', u'__', u'__', 4, u'__', u'__', u'__'], [0, -4, u'__', u'__', u'__', -12, u'__', u'__', u'__', 12, u'__', u'__', u'__', 4, u'__', u'__', u'__'], [0, -4, u'__', u'__', u'__', -12, u'__', u'__', u'__', 12, 4, u'__', u'__', 4, u'__', u'__', u'__']]",,[],[],[],"[u'0', 9, 10, 12]",[],[],"{u'mouseover': {u'state': {u'target': [], u'time': []}, u'edge': {u'target': [], u'time': []}}, u'click': {u'state': {u'target': [13, 9, 5, 1, 10], u'time': [639, 1073, 1618, 2089, 4149]}, u'edge': {u'target': [], u'time': []}}, u'mouseout': {u'state': {u'target': [], u'time': []}, u'edge': {u'target': [], u'time': []}}}",,,"[4965, 106, 249]",15.0,927343,14.0,,mouselab-mdp,,1
"[9670, 10432, 12388]","[u'3', u'3', u'0']","[[0, u'__', u'__', u'__', u'__', u'__', u'__', u'__', u'__', u'__', u'__', u'__', u'__', u'__', u'__', u'__', u'__'], [0, 4, u'__', u'__', u'__', u'__', u'__', u'__', u'__', u'__', u'__', u'__', u'__', u'__', u'__', u'__', u'__'], [0, 4, u'__', u'__', u'__', 4, u'__', u'__', u'__', u'__', u'__', u'__', u'__', u'__', u'__', u'__', u'__'], [0, 4, u'__', u'__', u'__', 4, u'__', u'__', u'__', u'__', u'__', u'__', u'__', -4, u'__', u'__', u'__'], [0, 4, u'__', u'__', u'__', 4, u'__', u'__', u'__', -4, u'__', u'__', u'__', -4, u'__', u'__', u'__'], [0, 4, u'__', u'__', u'__', 4, -4, u'__', u'__', -4, u'__', u'__', u'__', -4, u'__', u'__', u'__'], [0, 4, -20, u'__', u'__', 4, -4, u'__', u'__', -4, u'__', u'__', u'__', -4, u'__', u'__', u'__'], [0, 4, -20, u'__', u'__', 4, -4, u'__', u'__', -4, 4, u'__', u'__', -4, u'__', u'__', u'__'], [0, 4, -20, u'__', u'__', 4, -4, u'__', u'__', -4, 4, u'__', u'__', -4, 20, u'__', u'__']]",,[],[],[],"[u'0', 13, 14, 15]",[],[],"{u'mouseover': {u'state': {u'target': [], u'time': []}, u'edge': {u'target': [], u'time': []}}, u'click': {u'state': {u'target': [1, 5, 13, 9, 6, 2, 10, 14], u'time': [2269, 3284, 4113, 4491, 5600, 6129, 8117, 8672]}, u'edge': {u'target': [], u'time': []}}, u'mouseout': {u'state': {u'target': [], u'time': []}, u'edge': {u'target': [], u'time': []}}}",,,"[9669, 257, 1447]",4.0,978884,15.0,,mouselab-mdp,,1
"[7231, 8087, 55887]","[u'1', u'1', u'0']","[[0, u'__', u'__', u'__', u'__', u'__', u'__', u'__', u'__', u'__', u'__', u'__', u'__', u'__', u'__', u'__', u'__'], [0, u'__', u'__', u'__', u'__', u'__', u'__', u'__', u'__', 4, u'__', u'__', u'__', u'__', u'__', u'__', u'__'], [0, u'__', u'__', u'__', u'__', u'__', u'__', u'__', u'__', 4, u'__', u'__', u'__', -4, u'__', u'__', u'__'], [0, -12, u'__', u'__', u'__', u'__', u'__', u'__', u'__', 4, u'__', u'__', u'__', -4, u'__', u'__', u'__'], [0, -12, u'__', u'__', u'__', 20, u'__', u'__', u'__', 4, u'__', u'__', u'__', -4, u'__', u'__', u'__'], [0, -12, u'__', u'__', u'__', 20, 4, u'__', u'__', 4, u'__', u'__', u'__', -4, u'__', u'__', u'__'], [0, -12, u'__', u'__', u'__', 20, 4, u'__', -4, 4, u'__', u'__', u'__', -4, u'__', u'__', u'__'], [0, -12, u'__', u'__', u'__', 20, 4, -4, -4, 4, u'__', u'__', u'__', -4, u'__', u'__', u'__']]",,[],[],[],"[u'0', 5, 6, 8]",[],[],"{u'mouseover': {u'state': {u'target': [], u'time': []}, u'edge': {u'target': [], u'time': []}}, u'click': {u'state': {u'target': [9, 13, 1, 5, 6, 8, 7], u'time': [2389, 2855, 3278, 3769, 4744, 5209, 6077]}, u'edge': {u'target': [], u'time': []}}, u'mouseout': {u'state': {u'target': [], u'time': []}, u'edge': {u'target': [], u'time': []}}}",,,"[7231, 362, 47292]",13.0,1038070,16.0,,mouselab-mdp,,1
"[10860, 16642, 18643]","[u'2', u'2', u'1']","[[0, u'__', u'__', u'__', u'__', u'__', u'__', u'__', u'__', u'__', u'__', u'__', u'__', u'__', u'__', u'__', u'__'], [0, u'__', u'__', u'__', u'__', u'__', u'__', u'__', u'__', 4, u'__', u'__', u'__', u'__', u'__', u'__', u'__']]",,[],[],[],"[u'0', 9, 10, 12]",[],[],"{u'mouseover': {u'state': {u'target': [], u'time': []}, u'edge': {u'target': [], u'time': []}}, u'click': {u'state': {u'target': [9], u'time': [7693]}, u'edge': {u'target': [], u'time': []}}, u'mouseout': {u'state': {u'target': [], u'time': []}, u'edge': {u'target': [], u'time': []}}}",,,"[10858, 5287, 1501]",3.0,180014,1.0,,mouselab-mdp,,2
"[9375, 11423, 18631]","[u'2', u'2', u'3']","[[0, u'__', u'__', u'__', u'__', u'__', u'__', u'__', u'__', u'__', u'__', u'__', u'__', u'__', u'__', u'__', u'__'], [0, -4, u'__', u'__', u'__', u'__', u'__', u'__', u'__', u'__', u'__', u'__', u'__', u'__', u'__', u'__', u'__'], [0, -4, u'__', u'__', u'__', u'__', u'__', u'__', u'__', 12, u'__', u'__', u'__', u'__', u'__', u'__', u'__'], [0, -4, u'__', u'__', u'__', u'__', u'__', u'__', u'__', 12, 4, u'__', u'__', u'__', u'__', u'__', u'__']]",,[],[],[],"[u'0', 9, 10, 11]",[],[],"{u'mouseover': {u'state': {u'target': [], u'time': []}, u'edge': {u'target': [], u'time': []}}, u'click': {u'state': {u'target': [1, 9, 10], u'time': [2481, 4110, 7416]}, u'edge': {u'target': [], u'time': []}}, u'mouseout': {u'state': {u'target': [], u'time': []}, u'edge': {u'target': [], u'time': []}}}",,,"[9375, 1545, 6720]",17.0,229149,2.0,,mouselab-mdp,,2
"[13802, 14825, 16009]","[u'0', u'0', u'1']","[[0, u'__', u'__', u'__', u'__', u'__', u'__', u'__', u'__', u'__', u'__', u'__', u'__', u'__', u'__', u'__', u'__'], [0, u'__', u'__', u'__', u'__', u'__', u'__', u'__', u'__', u'__', u'__', u'__', u'__', 4, u'__', u'__', u'__'], [0, u'__', u'__', u'__', u'__', u'__', u'__', u'__', u'__', u'__', u'__', u'__', u'__', 4, 4, u'__', u'__'], [0, u'__', u'__', u'__', u'__', 4, u'__', u'__', u'__', u'__', u'__', u'__', u'__', 4, 4, u'__', u'__'], [0, u'__', u'__', u'__', u'__', 4, u'__', u'__', u'__', -12, u'__', u'__', u'__', 4, 4, u'__', u'__'], [0, 12, u'__', u'__', u'__', 4, u'__', u'__', u'__', -12, u'__', u'__', u'__', 4, 4, u'__', u'__'], [0, 12, u'__', 4, u'__', 4, u'__', u'__', u'__', -12, u'__', u'__', u'__', 4, 4, u'__', u'__'], [0, 12, u'__', 4, -12, 4, u'__', u'__', u'__', -12, u'__', u'__', u'__', 4, 4, u'__', u'__']]",,[],[],[],"[u'0', 1, 2, 3]",[],[],"{u'mouseover': {u'state': {u'target': [], u'time': []}, u'edge': {u'target': [], u'time': []}}, u'click': {u'state': {u'target': [13, 14, 5, 9, 1, 3, 4], u'time': [1735, 4277, 6475, 7632, 8625, 10686, 12087]}, u'edge': {u'target': [], u'time': []}}, u'mouseout': {u'state': {u'target': [], u'time': []}, u'edge': {u'target': [], u'time': []}}}",,,"[13802, 527, 693]",-3.0,279230,3.0,,mouselab-mdp,,2
"[17396, 18292, 19420]","[u'3', u'3', u'2']","[[0, u'__', u'__', u'__', u'__', u'__', u'__', u'__', u'__', u'__', u'__', u'__', u'__', u'__', u'__', u'__', u'__'], [0, u'__', u'__', u'__', u'__', u'__', u'__', u'__', u'__', -4, u'__', u'__', u'__', u'__', u'__', u'__', u'__'], [0, u'__', u'__', u'__', u'__', u'__', u'__', u'__', u'__', -4, 4, u'__', u'__', u'__', u'__', u'__', u'__'], [0, u'__', u'__', u'__', u'__', u'__', u'__', u'__', u'__', -4, 4, 4, u'__', u'__', u'__', u'__', u'__'], [0, u'__', u'__', u'__', u'__', u'__', u'__', u'__', u'__', -4, 4, 4, 4, u'__', u'__', u'__', u'__'], [0, u'__', u'__', u'__', u'__', u'__', u'__', u'__', u'__', -4, 4, 4, 4, -4, u'__', u'__', u'__'], [0, u'__', u'__', u'__', u'__', u'__', u'__', u'__', u'__', -4, 4, 4, 4, -4, 20, u'__', u'__'], [0, u'__', u'__', u'__', u'__', u'__', u'__', u'__', u'__', -4, 4, 4, 4, -4, 20, -4, u'__'], [0, u'__', u'__', u'__', u'__', u'__', u'__', u'__', u'__', -4, 4, 4, 4, -4, 20, -4, 12]]",,[],[],[],"[u'0', 13, 14, 16]",[],[],"{u'mouseover': {u'state': {u'target': [], u'time': []}, u'edge': {u'target': [], u'time': []}}, u'click': {u'state': {u'target': [9, 10, 11, 12, 13, 14, 15, 16], u'time': [1109, 3091, 4091, 8059, 11985, 12717, 13912, 14798]}, u'edge': {u'target': [], u'time': []}}, u'mouseout': {u'state': {u'target': [], u'time': []}, u'edge': {u'target': [], u'time': []}}}",,,"[17396, 401, 629]",20.0,327525,4.0,,mouselab-mdp,,2
"[22849, 23720, 24537]","[u'2', u'2', u'3']","[[0, u'__', u'__', u'__', u'__', u'__', u'__', u'__', u'__', u'__', u'__', u'__', u'__', u'__', u'__', u'__', u'__'], [0, u'__', u'__', u'__', u'__', u'__', u'__', u'__', u'__', u'__', u'__', u'__', u'__', -4, u'__', u'__', u'__'], [0, u'__', u'__', u'__', u'__', u'__', u'__', u'__', u'__', u'__', u'__', u'__', u'__', -4, -12, u'__', u'__'], [0, u'__', u'__', u'__', u'__', 12, u'__', u'__', u'__', u'__', u'__', u'__', u'__', -4, -12, u'__', u'__'], [0, u'__', u'__', u'__', u'__', 12, -12, u'__', u'__', u'__', u'__', u'__', u'__', -4, -12, u'__', u'__'], [0, u'__', u'__', u'__', u'__', 12, -12, 20, u'__', u'__', u'__', u'__', u'__', -4, -12, u'__', u'__'], [0, u'__', u'__', u'__', u'__', 12, -12, 20, u'__', 20, u'__', u'__', u'__', -4, -12, u'__', u'__'], [0, u'__', u'__', u'__', u'__', 12, -12, 20, u'__', 20, 4, u'__', u'__', -4, -12, u'__', u'__'], [0, u'__', u'__', u'__', u'__', 12, -12, 20, u'__', 20, 4, 4, u'__', -4, -12, u'__', u'__'], [0, u'__', u'__', u'__', u'__', 12, -12, 20, u'__', 20, 4, 4, -20, -4, -12, u'__', u'__'], [0, u'__', -4, u'__', u'__', 12, -12, 20, u'__', 20, 4, 4, -20, -4, -12, u'__', u'__']]",,[],[],[],"[u'0', 9, 10, 11]",[],[],"{u'mouseover': {u'state': {u'target': [], u'time': []}, u'edge': {u'target': [], u'time': []}}, u'click': {u'state': {u'target': [13, 14, 5, 6, 7, 9, 10, 11, 12, 2], u'time': [5850, 6621, 7707, 8179, 9074, 13585, 14365, 15305, 16270, 20134]}, u'edge': {u'target': [], u'time': []}}, u'mouseout': {u'state': {u'target': [], u'time': []}, u'edge': {u'target': [], u'time': []}}}",,,"[22849, 374, 323]",18.0,390453,5.0,,mouselab-mdp,,2
"[22921, 24056, 24856]","[u'2', u'2', u'3']","[[0, u'__', u'__', u'__', u'__', u'__', u'__', u'__', u'__', u'__', u'__', u'__', u'__', u'__', u'__', u'__', u'__'], [0, u'__', u'__', u'__', u'__', u'__', u'__', u'__', u'__', u'__', -4, u'__', u'__', u'__', u'__', u'__', u'__'], [0, u'__', u'__', u'__', u'__', u'__', u'__', u'__', u'__', u'__', -4, u'__', u'__', u'__', 12, u'__', u'__'], [0, u'__', 4, u'__', u'__', u'__', u'__', u'__', u'__', u'__', -4, u'__', u'__', u'__', 12, u'__', u'__'], [0, u'__', 4, u'__', u'__', u'__', 4, u'__', u'__', u'__', -4, u'__', u'__', u'__', 12, u'__', u'__'], [0, u'__', 4, u'__', u'__', u'__', 4, u'__', u'__', u'__', -4, u'__', u'__', 4, 12, u'__', u'__'], [0, u'__', 4, u'__', u'__', u'__', 4, u'__', u'__', u'__', -4, u'__', u'__', 4, 12, u'__', -12], [0, u'__', 4, u'__', u'__', u'__', 4, u'__', u'__', u'__', -4, u'__', u'__', 4, 12, -12, -12], [0, u'__', 4, 4, u'__', u'__', 4, u'__', u'__', u'__', -4, u'__', u'__', 4, 12, -12, -12], [0, 4, 4, 4, u'__', u'__', 4, u'__', u'__', u'__', -4, u'__', u'__', 4, 12, -12, -12], [0, 4, 4, 4, 4, u'__', 4, u'__', u'__', u'__', -4, u'__', u'__', 4, 12, -12, -12], [0, 4, 4, 4, 4, -4, 4, u'__', u'__', u'__', -4, u'__', u'__', 4, 12, -12, -12], [0, 4, 4, 4, 4, -4, 4, -4, u'__', u'__', -4, u'__', u'__', 4, 12, -12, -12], [0, 4, 4, 4, 4, -4, 4, -4, u'__', 20, -4, u'__', u'__', 4, 12, -12, -12], [0, 4, 4, 4, 4, -4, 4, -4, u'__', 20, -4, 12, u'__', 4, 12, -12, -12]]",,[],[],[],"[u'0', 9, 10, 11]",[],[],"{u'mouseover': {u'state': {u'target': [], u'time': []}, u'edge': {u'target': [], u'time': []}}, u'click': {u'state': {u'target': [10, 14, 2, 6, 13, 16, 15, 3, 1, 4, 5, 7, 9, 11], u'time': [4787, 6328, 7502, 8134, 9940, 10756, 11677, 13436, 14216, 15462, 17018, 17566, 18716, 19605]}, u'edge': {u'target': [], u'time': []}}, u'mouseout': {u'state': {u'target': [], u'time': []}, u'edge': {u'target': [], u'time': []}}}",,,"[22921, 642, 309]",14.0,438862,6.0,,mouselab-mdp,,2
"[16689, 17529, 18657]","[u'1', u'1', u'0']","[[0, u'__', u'__', u'__', u'__', u'__', u'__', u'__', u'__', u'__', u'__', u'__', u'__', u'__', u'__', u'__', u'__'], [0, u'__', u'__', u'__', u'__', u'__', u'__', u'__', u'__', u'__', u'__', u'__', u'__', u'__', -20, u'__', u'__'], [0, u'__', -4, u'__', u'__', u'__', u'__', u'__', u'__', u'__', u'__', u'__', u'__', u'__', -20, u'__', u'__'], [0, u'__', -4, u'__', u'__', 20, u'__', u'__', u'__', u'__', u'__', u'__', u'__', u'__', -20, u'__', u'__'], [0, u'__', -4, u'__', u'__', 20, 12, u'__', u'__', u'__', u'__', u'__', u'__', u'__', -20, u'__', u'__'], [0, u'__', -4, u'__', u'__', 20, 12, -20, u'__', u'__', u'__', u'__', u'__', u'__', -20, u'__', u'__'], [0, u'__', -4, u'__', u'__', 20, 12, -20, -4, u'__', u'__', u'__', u'__', u'__', -20, u'__', u'__'], [0, u'__', -4, u'__', u'__', 20, 12, -20, -4, u'__', -12, u'__', u'__', u'__', -20, u'__', u'__']]",,[],[],[],"[u'0', 5, 6, 8]",[],[],"{u'mouseover': {u'state': {u'target': [], u'time': []}, u'edge': {u'target': [], u'time': []}}, u'click': {u'state': {u'target': [14, 2, 5, 6, 7, 8, 10], u'time': [2560, 3964, 5276, 7733, 9009, 9642, 12448]}, u'edge': {u'target': [], u'time': []}}, u'mouseout': {u'state': {u'target': [], u'time': []}, u'edge': {u'target': [], u'time': []}}}",,,"[16689, 345, 625]",21.0,488255,7.0,,mouselab-mdp,,2
"[16751, 17607, 18614]","[u'1', u'1', u'0']","[[0, u'__', u'__', u'__', u'__', u'__', u'__', u'__', u'__', u'__', u'__', u'__', u'__', u'__', u'__', u'__', u'__'], [0, u'__', u'__', u'__', u'__', u'__', u'__', u'__', u'__', u'__', u'__', u'__', u'__', u'__', 4, u'__', u'__'], [0, u'__', u'__', u'__', u'__', u'__', 20, u'__', u'__', u'__', u'__', u'__', u'__', u'__', 4, u'__', u'__'], [0, u'__', u'__', u'__', u'__', 4, 20, u'__', u'__', u'__', u'__', u'__', u'__', u'__', 4, u'__', u'__'], [0, u'__', u'__', u'__', u'__', 4, 20, -12, u'__', u'__', u'__', u'__', u'__', u'__', 4, u'__', u'__'], [0, u'__', u'__', u'__', u'__', 4, 20, -12, 12, u'__', u'__', u'__', u'__', u'__', 4, u'__', u'__'], [0, u'__', 4, u'__', u'__', 4, 20, -12, 12, u'__', u'__', u'__', u'__', u'__', 4, u'__', u'__'], [0, u'__', 4, u'__', u'__', 4, 20, -12, 12, u'__', 4, u'__', u'__', u'__', 4, u'__', u'__']]",,[],[],[],"[u'0', 5, 6, 8]",[],[],"{u'mouseover': {u'state': {u'target': [], u'time': []}, u'edge': {u'target': [], u'time': []}}, u'click': {u'state': {u'target': [14, 6, 5, 7, 8, 2, 10], u'time': [1061, 2894, 4182, 4908, 5607, 12275, 13864]}, u'edge': {u'target': [], u'time': []}}, u'mouseout': {u'state': {u'target': [], u'time': []}, u'edge': {u'target': [], u'time': []}}}",,,"[16749, 353, 509]",29.0,536189,8.0,,mouselab-mdp,,2
"[25220, 25924, 26668]","[u'1', u'1', u'2']","[[0, u'__', u'__', u'__', u'__', u'__', u'__', u'__', u'__', u'__', u'__', u'__', u'__', u'__', u'__', u'__', u'__'], [0, u'__', u'__', u'__', u'__', u'__', u'__', u'__', u'__', u'__', u'__', u'__', u'__', 4, u'__', u'__', u'__'], [0, u'__', u'__', u'__', u'__', u'__', u'__', u'__', u'__', u'__', u'__', u'__', u'__', 4, 4, u'__', u'__'], [0, u'__', u'__', u'__', u'__', u'__', u'__', u'__', u'__', u'__', u'__', u'__', u'__', 4, 4, -12, u'__'], [0, u'__', u'__', u'__', u'__', u'__', 4, u'__', u'__', u'__', u'__', u'__', u'__', 4, 4, -12, u'__'], [0, u'__', u'__', u'__', u'__', 4, 4, u'__', u'__', u'__', u'__', u'__', u'__', 4, 4, -12, u'__'], [0, u'__', u'__', u'__', u'__', 4, 4, u'__', u'__', -4, u'__', u'__', u'__', 4, 4, -12, u'__'], [0, u'__', u'__', u'__', u'__', 4, 4, u'__', u'__', -4, -4, u'__', u'__', 4, 4, -12, u'__'], [0, -4, u'__', u'__', u'__', 4, 4, u'__', u'__', -4, -4, u'__', u'__', 4, 4, -12, u'__'], [0, -4, 4, u'__', u'__', 4, 4, u'__', u'__', -4, -4, u'__', u'__', 4, 4, -12, u'__'], [0, -4, 4, u'__', u'__', 4, 4, u'__', u'__', -4, -4, 4, u'__', 4, 4, -12, u'__'], [0, -4, 4, u'__', u'__', 4, 4, 12, u'__', -4, -4, 4, u'__', 4, 4, -12, u'__'], [0, -4, 4, u'__', u'__', 4, 4, 12, 4, -4, -4, 4, u'__', 4, 4, -12, u'__'], [0, -4, 4, u'__', u'__', 4, 4, 12, 4, -4, -4, 4, u'__', 4, 4, -12, -12], [0, -4, 4, u'__', 4, 4, 4, 12, 4, -4, -4, 4, u'__', 4, 4, -12, -12], [0, -4, 4, -20, 4, 4, 4, 12, 4, -4, -4, 4, u'__', 4, 4, -12, -12], [0, -4, 4, -20, 4, 4, 4, 12, 4, -4, -4, 4, -12, 4, 4, -12, -12]]",,[],[],[],"[u'0', 5, 6, 7]",[],[],"{u'mouseover': {u'state': {u'target': [], u'time': []}, u'edge': {u'target': [], u'time': []}}, u'click': {u'state': {u'target': [13, 14, 15, 6, 5, 9, 10, 1, 2, 11, 7, 8, 16, 4, 3, 12], u'time': [2212, 3075, 3836, 5220, 5825, 6505, 6906, 7918, 8334, 10623, 11856, 12686, 16342, 18271, 19992, 21351]}, u'edge': {u'target': [], u'time': []}}, u'mouseout': {u'state': {u'target': [], u'time': []}, u'edge': {u'target': [], u'time': []}}}",,,"[25220, 211, 254]",4.0,588910,9.0,,mouselab-mdp,,2
"[21971, 22650, 23378]","[u'1', u'1', u'0']","[[0, u'__', u'__', u'__', u'__', u'__', u'__', u'__', u'__', u'__', u'__', u'__', u'__', u'__', u'__', u'__', u'__'], [0, u'__', u'__', u'__', u'__', u'__', u'__', u'__', u'__', u'__', -20, u'__', u'__', u'__', u'__', u'__', u'__'], [0, u'__', u'__', u'__', u'__', u'__', u'__', u'__', u'__', u'__', -20, u'__', u'__', u'__', -4, u'__', u'__'], [0, u'__', u'__', u'__', u'__', u'__', 4, u'__', u'__', u'__', -20, u'__', u'__', u'__', -4, u'__', u'__'], [0, u'__', 20, u'__', u'__', u'__', 4, u'__', u'__', u'__', -20, u'__', u'__', u'__', -4, u'__', u'__'], [0, -12, 20, u'__', u'__', u'__', 4, u'__', u'__', u'__', -20, u'__', u'__', u'__', -4, u'__', u'__'], [0, -12, 20, u'__', -4, u'__', 4, u'__', u'__', u'__', -20, u'__', u'__', u'__', -4, u'__', u'__'], [0, -12, 20, 4, -4, u'__', 4, u'__', u'__', u'__', -20, u'__', u'__', u'__', -4, u'__', u'__'], [0, -12, 20, 4, -4, 20, 4, u'__', u'__', u'__', -20, u'__', u'__', u'__', -4, u'__', u'__'], [0, -12, 20, 4, -4, 20, 4, -4, u'__', u'__', -20, u'__', u'__', u'__', -4, u'__', u'__'], [0, -12, 20, 4, -4, 20, 4, -4, -4, u'__', -20, u'__', u'__', u'__', -4, u'__', u'__']]",,[],[],[],"[u'0', 5, 6, 8]",[],[],"{u'mouseover': {u'state': {u'target': [], u'time': []}, u'edge': {u'target': [], u'time': []}}, u'click': {u'state': {u'target': [10, 14, 6, 2, 1, 4, 3, 5, 7, 8], u'time': [2493, 3835, 4725, 5432, 7028, 7688, 8371, 13069, 13969, 14613]}, u'edge': {u'target': [], u'time': []}}, u'mouseout': {u'state': {u'target': [], u'time': []}, u'edge': {u'target': [], u'time': []}}}",,,"[21971, 185, 228]",10.0,636701,10.0,,mouselab-mdp,,2
"[32882, 33777, 34481]","[u'2', u'2', u'3']","[[0, u'__', u'__', u'__', u'__', u'__', u'__', u'__', u'__', u'__', u'__', u'__', u'__', u'__', u'__', u'__', u'__'], [0, u'__', u'__', u'__', u'__', u'__', u'__', u'__', u'__', u'__', u'__', u'__', u'__', u'__', 4, u'__', u'__'], [0, u'__', u'__', u'__', u'__', u'__', u'__', u'__', u'__', u'__', 4, u'__', u'__', u'__', 4, u'__', u'__'], [0, u'__', u'__', u'__', u'__', u'__', 4, u'__', u'__', u'__', 4, u'__', u'__', u'__', 4, u'__', u'__'], [0, u'__', -4, u'__', u'__', u'__', 4, u'__', u'__', u'__', 4, u'__', u'__', u'__', 4, u'__', u'__'], [0, u'__', -4, u'__', u'__', u'__', 4, u'__', u'__', u'__', 4, u'__', u'__', u'__', 4, u'__', -4], [0, u'__', -4, u'__', u'__', u'__', 4, u'__', u'__', u'__', 4, u'__', u'__', -4, 4, u'__', -4], [0, 4, -4, u'__', u'__', u'__', 4, u'__', u'__', u'__', 4, u'__', u'__', -4, 4, u'__', -4], [0, 4, -4, u'__', -4, u'__', 4, u'__', u'__', u'__', 4, u'__', u'__', -4, 4, u'__', -4], [0, 4, -4, u'__', -4, 12, 4, u'__', u'__', u'__', 4, u'__', u'__', -4, 4, u'__', -4], [0, 4, -4, u'__', -4, 12, 4, 12, u'__', u'__', 4, u'__', u'__', -4, 4, u'__', -4], [0, 4, -4, u'__', -4, 12, 4, 12, u'__', u'__', 4, u'__', 4, -4, 4, u'__', -4], [0, 4, -4, u'__', -4, 12, 4, 12, u'__', 4, 4, u'__', 4, -4, 4, u'__', -4], [0, 4, -4, u'__', -4, 12, 4, 12, u'__', 4, 4, 20, 4, -4, 4, u'__', -4]]",,[],[],[],"[u'0', 9, 10, 11]",[],[],"{u'mouseover': {u'state': {u'target': [], u'time': []}, u'edge': {u'target': [], u'time': []}}, u'click': {u'state': {u'target': [14, 10, 6, 2, 16, 13, 1, 4, 5, 7, 12, 9, 11], u'time': [7937, 9201, 9902, 10615, 12597, 13096, 13984, 14654, 15567, 16120, 18718, 21752, 22977]}, u'edge': {u'target': [], u'time': []}}, u'mouseout': {u'state': {u'target': [], u'time': []}, u'edge': {u'target': [], u'time': []}}}",,,"[32882, 398, 201]",15.0,690910,11.0,,mouselab-mdp,,2
"[18767, 19279, 19951]","[u'1', u'1', u'0']","[[0, u'__', u'__', u'__', u'__', u'__', u'__', u'__', u'__', u'__', u'__', u'__', u'__', u'__', u'__', u'__', u'__'], [0, u'__', u'__', u'__', u'__', u'__', u'__', u'__', u'__', u'__', 4, u'__', u'__', u'__', u'__', u'__', u'__'], [0, u'__', u'__', u'__', u'__', u'__', u'__', u'__', u'__', u'__', 4, u'__', u'__', u'__', -4, u'__', u'__'], [0, u'__', u'__', u'__', 12, u'__', u'__', u'__', u'__', u'__', 4, u'__', u'__', u'__', -4, u'__', u'__'], [0, u'__', 12, u'__', 12, u'__', u'__', u'__', u'__', u'__', 4, u'__', u'__', u'__', -4, u'__', u'__'], [0, -20, 12, u'__', 12, u'__', u'__', u'__', u'__', u'__', 4, u'__', u'__', u'__', -4, u'__', u'__'], [0, -20, 12, u'__', 12, u'__', 12, u'__', u'__', u'__', 4, u'__', u'__', u'__', -4, u'__', u'__'], [0, -20, 12, u'__', 12, 20, 12, u'__', u'__', u'__', 4, u'__', u'__', u'__', -4, u'__', u'__'], [0, -20, 12, u'__', 12, 20, 12, -4, u'__', u'__', 4, u'__', u'__', u'__', -4, u'__', u'__'], [0, -20, 12, u'__', 12, 20, 12, -4, 4, u'__', 4, u'__', u'__', u'__', -4, u'__', u'__']]",,[],[],[],"[u'0', 5, 6, 8]",[],[],"{u'mouseover': {u'state': {u'target': [], u'time': []}, u'edge': {u'target': [], u'time': []}}, u'click': {u'state': {u'target': [10, 14, 4, 2, 1, 6, 5, 7, 8], u'time': [7710, 8834, 9783, 11919, 12727, 14545, 15267, 16648, 17414]}, u'edge': {u'target': [], u'time': []}}, u'mouseout': {u'state': {u'target': [], u'time': []}, u'edge': {u'target': [], u'time': []}}}",,,"[18767, 11, 167]",27.0,744623,12.0,,mouselab-mdp,,2
"[30679, 31318, 31894]","[u'0', u'0', u'1']","[[0, u'__', u'__', u'__', u'__', u'__', u'__', u'__', u'__', u'__', u'__', u'__', u'__', u'__', u'__', u'__', u'__'], [0, u'__', u'__', u'__', u'__', u'__', u'__', u'__', u'__', -4, u'__', u'__', u'__', u'__', u'__', u'__', u'__'], [0, u'__', u'__', u'__', u'__', u'__', u'__', u'__', u'__', -4, 4, u'__', u'__', u'__', u'__', u'__', u'__'], [0, u'__', u'__', u'__', u'__', u'__', u'__', u'__', u'__', -4, 4, u'__', u'__', -20, u'__', u'__', u'__'], [0, u'__', u'__', u'__', u'__', u'__', u'__', u'__', u'__', -4, 4, u'__', u'__', -20, -12, u'__', u'__'], [0, u'__', u'__', u'__', u'__', -4, u'__', u'__', u'__', -4, 4, u'__', u'__', -20, -12, u'__', u'__'], [0, u'__', u'__', u'__', u'__', -4, -4, u'__', u'__', -4, 4, u'__', u'__', -20, -12, u'__', u'__'], [0, -12, u'__', u'__', u'__', -4, -4, u'__', u'__', -4, 4, u'__', u'__', -20, -12, u'__', u'__'], [0, -12, 12, u'__', u'__', -4, -4, u'__', u'__', -4, 4, u'__', u'__', -20, -12, u'__', u'__'], [0, -12, 12, u'__', u'__', -4, -4, u'__', u'__', -4, 4, -4, u'__', -20, -12, u'__', u'__'], [0, -12, 12, u'__', u'__', -4, -4, u'__', u'__', -4, 4, -4, -12, -20, -12, u'__', u'__'], [0, -12, 12, 4, u'__', -4, -4, u'__', u'__', -4, 4, -4, -12, -20, -12, u'__', u'__'], [0, -12, 12, 4, -4, -4, -4, u'__', u'__', -4, 4, -4, -12, -20, -12, u'__', u'__'], [0, -12, 12, 4, -4, -4, -4, -12, u'__', -4, 4, -4, -12, -20, -12, u'__', u'__'], [0, -12, 12, 4, -4, -4, -4, -12, -4, -4, 4, -4, -12, -20, -12, u'__', u'__']]",,[],[],[],"[u'0', 1, 2, 3]",[],[],"{u'mouseover': {u'state': {u'target': [], u'time': []}, u'edge': {u'target': [], u'time': []}}, u'click': {u'state': {u'target': [9, 10, 13, 14, 5, 6, 1, 2, 11, 12, 3, 4, 7, 8], u'time': [1898, 2435, 3366, 3739, 4577, 4914, 5992, 6451, 8825, 9374, 10300, 10989, 14056, 14842]}, u'edge': {u'target': [], u'time': []}}, u'mouseout': {u'state': {u'target': [], u'time': []}, u'edge': {u'target': [], u'time': []}}}",,,"[30679, 139, 81]",-10.0,797613,13.0,,mouselab-mdp,,2
"[13966, 14502, 15037]","[u'0', u'0', u'1']","[[0, u'__', u'__', u'__', u'__', u'__', u'__', u'__', u'__', u'__', u'__', u'__', u'__', u'__', u'__', u'__', u'__'], [0, u'__', u'__', u'__', u'__', u'__', u'__', u'__', u'__', u'__', -4, u'__', u'__', u'__', u'__', u'__', u'__'], [0, u'__', u'__', u'__', u'__', u'__', u'__', u'__', u'__', u'__', -4, u'__', u'__', u'__', 12, u'__', u'__'], [0, u'__', 12, u'__', u'__', u'__', u'__', u'__', u'__', u'__', -4, u'__', u'__', u'__', 12, u'__', u'__'], [0, u'__', 12, u'__', u'__', u'__', -4, u'__', u'__', u'__', -4, u'__', u'__', u'__', 12, u'__', u'__'], [0, u'__', 12, u'__', u'__', u'__', -4, u'__', u'__', u'__', -4, u'__', u'__', u'__', 12, u'__', 12], [0, u'__', 12, u'__', u'__', u'__', -4, u'__', u'__', u'__', -4, u'__', u'__', 4, 12, u'__', 12], [0, 4, 12, u'__', u'__', u'__', -4, u'__', u'__', u'__', -4, u'__', u'__', 4, 12, u'__', 12], [0, 4, 12, u'__', -4, u'__', -4, u'__', u'__', u'__', -4, u'__', u'__', 4, 12, u'__', 12], [0, 4, 12, 20, -4, u'__', -4, u'__', u'__', u'__', -4, u'__', u'__', 4, 12, u'__', 12]]",,[],[],[],"[u'0', 1, 2, 3]",[],[],"{u'mouseover': {u'state': {u'target': [], u'time': []}, u'edge': {u'target': [], u'time': []}}, u'click': {u'state': {u'target': [10, 14, 2, 6, 16, 13, 1, 4, 3], u'time': [1972, 3109, 3918, 4543, 5668, 6184, 8053, 9143, 9846]}, u'edge': {u'target': [], u'time': []}}, u'mouseout': {u'state': {u'target': [], u'time': []}, u'edge': {u'target': [], u'time': []}}}",,,"[13966, 38, 23]",27.0,850062,14.0,,mouselab-mdp,,2
"[28188, 29244, 29851]","[u'2', u'2', u'1']","[[0, u'__', u'__', u'__', u'__', u'__', u'__', u'__', u'__', u'__', u'__', u'__', u'__', u'__', u'__', u'__', u'__'], [0, u'__', u'__', u'__', u'__', u'__', u'__', u'__', u'__', u'__', u'__', u'__', u'__', u'__', -12, u'__', u'__'], [0, u'__', u'__', u'__', u'__', u'__', -12, u'__', u'__', u'__', u'__', u'__', u'__', u'__', -12, u'__', u'__'], [0, u'__', u'__', u'__', u'__', u'__', -12, u'__', u'__', u'__', -4, u'__', u'__', u'__', -12, u'__', u'__'], [0, u'__', -4, u'__', u'__', u'__', -12, u'__', u'__', u'__', -4, u'__', u'__', u'__', -12, u'__', u'__'], [0, -4, -4, u'__', u'__', u'__', -12, u'__', u'__', u'__', -4, u'__', u'__', u'__', -12, u'__', u'__'], [0, -4, -4, u'__', u'__', u'__', -12, u'__', u'__', 4, -4, u'__', u'__', u'__', -12, u'__', u'__'], [0, -4, -4, u'__', u'__', u'__', -12, u'__', u'__', 4, -4, -4, u'__', u'__', -12, u'__', u'__'], [0, -4, -4, u'__', u'__', u'__', -12, u'__', u'__', 4, -4, -4, -4, u'__', -12, u'__', u'__'], [0, -4, -4, u'__', u'__', u'__', -12, u'__', u'__', 4, -4, -4, -4, -12, -12, u'__', u'__'], [0, -4, -4, u'__', u'__', u'__', -12, u'__', u'__', 4, -4, -4, -4, -12, -12, u'__', -12], [0, -4, -4, u'__', u'__', 20, -12, u'__', u'__', 4, -4, -4, -4, -12, -12, u'__', -12], [0, -4, -4, u'__', u'__', 20, -12, -12, u'__', 4, -4, -4, -4, -12, -12, u'__', -12], [0, -4, -4, u'__', u'__', 20, -12, -12, -12, 4, -4, -4, -4, -12, -12, u'__', -12], [0, -4, -4, 4, u'__', 20, -12, -12, -12, 4, -4, -4, -4, -12, -12, u'__', -12], [0, -4, -4, 4, -4, 20, -12, -12, -12, 4, -4, -4, -4, -12, -12, u'__', -12]]",,[],[],[],"[u'0', 9, 10, 12]",[],[],"{u'mouseover': {u'state': {u'target': [], u'time': []}, u'edge': {u'target': [], u'time': []}}, u'click': {u'state': {u'target': [14, 6, 10, 2, 1, 9, 11, 12, 13, 16, 5, 7, 8, 3, 4], u'time': [1332, 2712, 3611, 4312, 5110, 7283, 7859, 8529, 12152, 12812, 13468, 14368, 15140, 17296, 18673]}, u'edge': {u'target': [], u'time': []}}, u'mouseout': {u'state': {u'target': [], u'time': []}, u'edge': {u'target': [], u'time': []}}}",,,"[28188, 555, 110]",-19.0,913928,15.0,,mouselab-mdp,,2
"[12982, 13996, 14636]","[u'2', u'2', u'1']","[[0, u'__', u'__', u'__', u'__', u'__', u'__', u'__', u'__', u'__', u'__', u'__', u'__', u'__', u'__', u'__', u'__'], [0, u'__', u'__', u'__', u'__', u'__', u'__', u'__', u'__', u'__', u'__', u'__', u'__', -12, u'__', u'__', u'__'], [0, u'__', u'__', u'__', u'__', u'__', -4, u'__', u'__', u'__', u'__', u'__', u'__', -12, u'__', u'__', u'__'], [0, u'__', u'__', u'__', u'__', u'__', -4, u'__', u'__', u'__', 12, u'__', u'__', -12, u'__', u'__', u'__'], [0, -4, u'__', u'__', u'__', u'__', -4, u'__', u'__', u'__', 12, u'__', u'__', -12, u'__', u'__', u'__'], [0, -4, -4, u'__', u'__', u'__', -4, u'__', u'__', u'__', 12, u'__', u'__', -12, u'__', u'__', u'__'], [0, -4, -4, u'__', u'__', u'__', -4, u'__', u'__', 4, 12, u'__', u'__', -12, u'__', u'__', u'__'], [0, -4, -4, u'__', u'__', u'__', -4, u'__', u'__', 4, 12, -4, u'__', -12, u'__', u'__', u'__'], [0, -4, -4, u'__', u'__', u'__', -4, u'__', u'__', 4, 12, -4, 4, -12, u'__', u'__', u'__'], [0, -4, -4, u'__', u'__', u'__', -4, u'__', u'__', 4, 12, -4, 4, -12, 4, u'__', u'__'], [0, -4, -4, u'__', u'__', 4, -4, u'__', u'__', 4, 12, -4, 4, -12, 4, u'__', u'__']]",,[],[],[],"[u'0', 9, 10, 12]",[],[],"{u'mouseover': {u'state': {u'target': [], u'time': []}, u'edge': {u'target': [], u'time': []}}, u'click': {u'state': {u'target': [13, 6, 10, 1, 2, 9, 11, 12, 14, 5], u'time': [1618, 2981, 3916, 4947, 5395, 6646, 7297, 7955, 10479, 12458]}, u'edge': {u'target': [], u'time': []}}, u'mouseout': {u'state': {u'target': [], u'time': []}, u'edge': {u'target': [], u'time': []}}}",,,"[12982, 505, 141]",10.0,965565,16.0,,mouselab-mdp,,2
