action_times,actions,button_pressed,correct,delays,information_used_correctly,key_press,path,planned_too_little,planned_too_much,queries,questions,responses,rt,score,stimulus,time_elapsed,trial_index,trial_i,trial_type,view_history,pid
,,,,,,,,,,,,,128005,,,128007,,,instructions,"[{""page_index"":0,""viewing_time"":82248},{""page_index"":1,""viewing_time"":15581},{""page_index"":2,""viewing_time"":17200},{""page_index"":3,""viewing_time"":12976}]",0
,,,,,,,,,,,,,357228,,,357228,,,instructions,"[{""page_index"":0,""viewing_time"":121789},{""page_index"":1,""viewing_time"":57517},{""page_index"":2,""viewing_time"":93579},{""page_index"":3,""viewing_time"":84343}]",1
,,,,,,,,,,,,,150598,,,550255,,,instructions,"[{""page_index"":0,""viewing_time"":51123},{""page_index"":1,""viewing_time"":18938},{""page_index"":2,""viewing_time"":69528},{""page_index"":3,""viewing_time"":11008}]",1
,,,,,,,,,,,,,89615,,,89616,,,instructions,"[{""page_index"":0,""viewing_time"":51551},{""page_index"":1,""viewing_time"":5128},{""page_index"":2,""viewing_time"":32936}]",2
,,,,,,,,,,,,,233642,,,364248,,,instructions,"[{""page_index"":0,""viewing_time"":107346},{""page_index"":1,""viewing_time"":87883},{""page_index"":2,""viewing_time"":38411}]",2
,,,,,,,,,,,,,241004,,,241006,,,instructions,"[{""page_index"":0,""viewing_time"":84605},{""page_index"":1,""viewing_time"":66818},{""page_index"":2,""viewing_time"":54619},{""page_index"":3,""viewing_time"":34960}]",3
,,,,,,,,,,,,,118680,,,409166,,,instructions,"[{""page_index"":0,""viewing_time"":49701},{""page_index"":1,""viewing_time"":19758},{""page_index"":2,""viewing_time"":13818},{""page_index"":3,""viewing_time"":35402}]",3
,,,,,,,,,,,,,123369,,,123370,,,instructions,"[{""page_index"":0,""viewing_time"":46041},{""page_index"":1,""viewing_time"":70529},{""page_index"":2,""viewing_time"":6798}]",4
,,,,,,,,,,,,,106109,,,266224,,,instructions,"[{""page_index"":0,""viewing_time"":35117},{""page_index"":1,""viewing_time"":42560},{""page_index"":2,""viewing_time"":28432}]",4
,,,,,,,,,,,,,46948,,,46951,,,instructions,"[{""page_index"":0,""viewing_time"":21875},{""page_index"":1,""viewing_time"":14150},{""page_index"":2,""viewing_time"":5431},{""page_index"":3,""viewing_time"":5491}]",5
,,,,,,,,,,,,,186759,,,186759,,,instructions,"[{""page_index"":0,""viewing_time"":51405},{""page_index"":1,""viewing_time"":65226},{""page_index"":2,""viewing_time"":49154},{""page_index"":3,""viewing_time"":20973}]",6
,,,,,,,,,,,,,804450,,,804451,,,instructions,"[{""page_index"":0,""viewing_time"":627200},{""page_index"":1,""viewing_time"":172975},{""page_index"":2,""viewing_time"":2859},{""page_index"":3,""viewing_time"":1416}]",7
,,,,,,,,,,,,,247033,,,1075158,,,instructions,"[{""page_index"":0,""viewing_time"":147685},{""page_index"":1,""viewing_time"":37772},{""page_index"":2,""viewing_time"":35134},{""page_index"":3,""viewing_time"":26441}]",7
,,,,,,,,,,,,,149591,,,149592,,,instructions,"[{""page_index"":0,""viewing_time"":53998},{""page_index"":1,""viewing_time"":50360},{""page_index"":2,""viewing_time"":45232}]",8
,,,,,,,,,,,,,256568,,,256584,,,instructions,"[{""page_index"":0,""viewing_time"":121574},{""page_index"":1,""viewing_time"":76796},{""page_index"":2,""viewing_time"":58180}]",9
,,,,,,,,,,,,,145984,,,145985,,,instructions,"[{""page_index"":0,""viewing_time"":57307},{""page_index"":1,""viewing_time"":61323},{""page_index"":2,""viewing_time"":16522},{""page_index"":3,""viewing_time"":10831}]",10
,,,,,,,,,,,,,27303,,,217165,,,instructions,"[{""page_index"":0,""viewing_time"":21281},{""page_index"":1,""viewing_time"":1507},{""page_index"":2,""viewing_time"":1143},{""page_index"":3,""viewing_time"":3371}]",10
,,,,,,,,,,,,,389667,,,389669,,,instructions,"[{""page_index"":0,""viewing_time"":56389},{""page_index"":1,""viewing_time"":12897},{""page_index"":0,""viewing_time"":27716},{""page_index"":1,""viewing_time"":191000},{""page_index"":2,""viewing_time"":65403},{""page_index"":3,""viewing_time"":36261}]",11
,,,,,,,,,,,,,117764,,,117765,,,instructions,"[{""page_index"":0,""viewing_time"":33004},{""page_index"":1,""viewing_time"":36749},{""page_index"":2,""viewing_time"":28482},{""page_index"":3,""viewing_time"":19529}]",12
,,,,,,,,,,,,,25708,,,171273,,,instructions,"[{""page_index"":0,""viewing_time"":15438},{""page_index"":1,""viewing_time"":5224},{""page_index"":2,""viewing_time"":2863},{""page_index"":3,""viewing_time"":2183}]",12
,,,,,,,,,,,,,190594,,,190597,,,instructions,"[{""page_index"":0,""viewing_time"":90056},{""page_index"":1,""viewing_time"":24971},{""page_index"":2,""viewing_time"":43614},{""page_index"":3,""viewing_time"":31948}]",13
,,,,,,,,,,,,,185771,,,185781,,,instructions,"[{""page_index"":0,""viewing_time"":85367},{""page_index"":1,""viewing_time"":48269},{""page_index"":2,""viewing_time"":33578},{""page_index"":1,""viewing_time"":9052},{""page_index"":2,""viewing_time"":9505}]",14
,,,,,,,,,,,,,35847,,,35847,,,instructions,"[{""page_index"":0,""viewing_time"":3911},{""page_index"":1,""viewing_time"":9744},{""page_index"":2,""viewing_time"":9916},{""page_index"":1,""viewing_time"":11571},{""page_index"":2,""viewing_time"":704}]",15
,,,,,,,,,,,,,285608,,,285611,,,instructions,"[{""page_index"":0,""viewing_time"":61574},{""page_index"":1,""viewing_time"":54958},{""page_index"":2,""viewing_time"":130751},{""page_index"":3,""viewing_time"":38323}]",16
,,,,,,,,,,,,,124728,,,124730,,,instructions,"[{""page_index"":0,""viewing_time"":42909},{""page_index"":1,""viewing_time"":39220},{""page_index"":2,""viewing_time"":15204},{""page_index"":3,""viewing_time"":27394}]",17
,,,,,,,,,,,,,98523,,,98527,,,instructions,"[{""page_index"":0,""viewing_time"":43331},{""page_index"":1,""viewing_time"":31230},{""page_index"":2,""viewing_time"":23960}]",18
,,,,,,,,,,,,,195933,,,195936,,,instructions,"[{""page_index"":0,""viewing_time"":18360},{""page_index"":1,""viewing_time"":38080},{""page_index"":2,""viewing_time"":69852},{""page_index"":3,""viewing_time"":69638}]",19
,,,,,,,,,,,,,92046,,,92047,,,instructions,"[{""page_index"":0,""viewing_time"":38611},{""page_index"":1,""viewing_time"":32082},{""page_index"":2,""viewing_time"":21351}]",20
,,,,,,,,,,,,,378412,,,378418,,,instructions,"[{""page_index"":0,""viewing_time"":317623},{""page_index"":1,""viewing_time"":43716},{""page_index"":2,""viewing_time"":17066}]",21
,,,,,,,,,,,,,40299,,,40301,,,instructions,"[{""page_index"":0,""viewing_time"":15322},{""page_index"":1,""viewing_time"":11983},{""page_index"":2,""viewing_time"":12992}]",22
,,,,,,,,,,,,,35741,,,103515,,,instructions,"[{""page_index"":0,""viewing_time"":10628},{""page_index"":1,""viewing_time"":20808},{""page_index"":2,""viewing_time"":4304}]",22
,,,,,,,,,,,,,94450,,,94450,,,instructions,"[{""page_index"":0,""viewing_time"":40619},{""page_index"":1,""viewing_time"":38661},{""page_index"":2,""viewing_time"":15170}]",23
,,,,,,,,,,,,,231885,,,231886,,,instructions,"[{""page_index"":0,""viewing_time"":41356},{""page_index"":1,""viewing_time"":124408},{""page_index"":2,""viewing_time"":39152},{""page_index"":3,""viewing_time"":26968}]",24
,,,,,,,,,,,,,108169,,,108171,,,instructions,"[{""page_index"":0,""viewing_time"":29849},{""page_index"":1,""viewing_time"":26148},{""page_index"":2,""viewing_time"":31125},{""page_index"":3,""viewing_time"":21046}]",25
,,,,,,,,,,,,,675450,,,675451,,,instructions,"[{""page_index"":0,""viewing_time"":154442},{""page_index"":1,""viewing_time"":41600},{""page_index"":2,""viewing_time"":7356},{""page_index"":1,""viewing_time"":17186},{""page_index"":0,""viewing_time"":2886},{""page_index"":1,""viewing_time"":1158},{""page_index"":2,""viewing_time"":11528},{""page_index"":1,""viewing_time"":2005},{""page_index"":0,""viewing_time"":31601},{""page_index"":1,""viewing_time"":403666},{""page_index"":2,""viewing_time"":2020}]",26
,,,,,,,,,,,,,10282,,,769145,,,instructions,"[{""page_index"":0,""viewing_time"":4294},{""page_index"":1,""viewing_time"":3069},{""page_index"":2,""viewing_time"":2918}]",26
,,,,,,,,,,,,,46739,,,826128,,,instructions,"[{""page_index"":0,""viewing_time"":37182},{""page_index"":1,""viewing_time"":3852},{""page_index"":2,""viewing_time"":5704}]",26
,,,,,,,,,,,,,106322,,,959094,,,instructions,"[{""page_index"":0,""viewing_time"":29777},{""page_index"":1,""viewing_time"":72734},{""page_index"":2,""viewing_time"":3810}]",26
,,,,,,,,,,,,,13942,,,989865,,,instructions,"[{""page_index"":0,""viewing_time"":6226},{""page_index"":1,""viewing_time"":6256},{""page_index"":2,""viewing_time"":1460}]",26
,,,,,,,,,,,,,69343,,,69345,,,instructions,"[{""page_index"":0,""viewing_time"":27498},{""page_index"":1,""viewing_time"":24050},{""page_index"":2,""viewing_time"":17794}]",27
,,,,,,,,,,,,,71282,,,71284,,,instructions,"[{""page_index"":0,""viewing_time"":29559},{""page_index"":1,""viewing_time"":22239},{""page_index"":2,""viewing_time"":19482}]",28
,,,,,,,,,,,,,75858,,,75859,,,instructions,"[{""page_index"":0,""viewing_time"":24604},{""page_index"":1,""viewing_time"":37701},{""page_index"":2,""viewing_time"":13552}]",29
,,,,,,,,,,,,,103175,,,103176,,,instructions,"[{""page_index"":0,""viewing_time"":40977},{""page_index"":1,""viewing_time"":20329},{""page_index"":2,""viewing_time"":21783},{""page_index"":3,""viewing_time"":20084}]",30
,,,,,,,,,,,,,50218,,,204859,,,instructions,"[{""page_index"":0,""viewing_time"":7057},{""page_index"":1,""viewing_time"":8272},{""page_index"":2,""viewing_time"":27677},{""page_index"":3,""viewing_time"":7210}]",30
,,,,,,,,,,,,,137406,,,137406,,,instructions,"[{""page_index"":0,""viewing_time"":26594},{""page_index"":1,""viewing_time"":38576},{""page_index"":2,""viewing_time"":42550},{""page_index"":3,""viewing_time"":29685}]",31
,,,,,,,,,,,,,126591,,,308537,,,instructions,"[{""page_index"":0,""viewing_time"":24218},{""page_index"":1,""viewing_time"":43048},{""page_index"":2,""viewing_time"":41869},{""page_index"":3,""viewing_time"":17455}]",31
,,,,,,,,,,,,,219754,,,219755,,,instructions,"[{""page_index"":0,""viewing_time"":58249},{""page_index"":1,""viewing_time"":49189},{""page_index"":2,""viewing_time"":50002},{""page_index"":1,""viewing_time"":2208},{""page_index"":2,""viewing_time"":1696},{""page_index"":3,""viewing_time"":58409}]",32
,,,,,,,,,,,,,180946,,,180947,,,instructions,"[{""page_index"":0,""viewing_time"":53826},{""page_index"":1,""viewing_time"":45903},{""page_index"":2,""viewing_time"":38760},{""page_index"":3,""viewing_time"":42456}]",33
,,,,,,,,,,,,,40392,,,261904,,,instructions,"[{""page_index"":0,""viewing_time"":4319},{""page_index"":1,""viewing_time"":4105},{""page_index"":2,""viewing_time"":30191},{""page_index"":3,""viewing_time"":1776}]",33
,,,,,,,,,,,,,166667,,,166668,,,instructions,"[{""page_index"":0,""viewing_time"":38872},{""page_index"":1,""viewing_time"":39229},{""page_index"":2,""viewing_time"":71330},{""page_index"":3,""viewing_time"":17234}]",34
,,,,,,,,,,,,,155513,,,155515,,,instructions,"[{""page_index"":0,""viewing_time"":58688},{""page_index"":1,""viewing_time"":14816},{""page_index"":2,""viewing_time"":50784},{""page_index"":3,""viewing_time"":31223}]",35
,,,,,,,,,,,,,130241,,,329807,,,instructions,"[{""page_index"":0,""viewing_time"":35745},{""page_index"":1,""viewing_time"":59920},{""page_index"":2,""viewing_time"":27807},{""page_index"":3,""viewing_time"":6768}]",35
,,,,,,,,,,,,,144263,,,144265,,,instructions,"[{""page_index"":0,""viewing_time"":36871},{""page_index"":1,""viewing_time"":86934},{""page_index"":2,""viewing_time"":20457}]",36
,,,,,,,,,,,,,63650,,,63652,,,instructions,"[{""page_index"":0,""viewing_time"":25031},{""page_index"":1,""viewing_time"":23104},{""page_index"":2,""viewing_time"":15512}]",37
,,,,,,,,,,,,,38337,,,127585,,,instructions,"[{""page_index"":0,""viewing_time"":5814},{""page_index"":1,""viewing_time"":16808},{""page_index"":2,""viewing_time"":9345},{""page_index"":1,""viewing_time"":5850},{""page_index"":2,""viewing_time"":518}]",37
,,,,,,,,,,,,,184142,,,184143,,,instructions,"[{""page_index"":0,""viewing_time"":63516},{""page_index"":1,""viewing_time"":39172},{""page_index"":2,""viewing_time"":55607},{""page_index"":3,""viewing_time"":25846}]",38
,,,,,,,,,,,,,133911,,,133912,,,instructions,"[{""page_index"":0,""viewing_time"":24344},{""page_index"":1,""viewing_time"":68212},{""page_index"":2,""viewing_time"":28342},{""page_index"":3,""viewing_time"":13011}]",39
,,,,,,,,,,,,,132349,,,132351,,,instructions,"[{""page_index"":0,""viewing_time"":36782},{""page_index"":1,""viewing_time"":47684},{""page_index"":2,""viewing_time"":19487},{""page_index"":1,""viewing_time"":221},{""page_index"":0,""viewing_time"":25850},{""page_index"":1,""viewing_time"":1081},{""page_index"":2,""viewing_time"":1242}]",40
,,,,,,,,,,,,,183827,,,183829,,,instructions,"[{""page_index"":0,""viewing_time"":37655},{""page_index"":1,""viewing_time"":30878},{""page_index"":2,""viewing_time"":55993},{""page_index"":3,""viewing_time"":32098},{""page_index"":2,""viewing_time"":5554},{""page_index"":3,""viewing_time"":8382},{""page_index"":2,""viewing_time"":939},{""page_index"":1,""viewing_time"":10949},{""page_index"":2,""viewing_time"":729},{""page_index"":3,""viewing_time"":650}]",41
,,,,,,,,,,,,,135934,,,359499,,,instructions,"[{""page_index"":0,""viewing_time"":27723},{""page_index"":1,""viewing_time"":21948},{""page_index"":2,""viewing_time"":73995},{""page_index"":3,""viewing_time"":12267}]",41
,,,,,,,,,,,,,135128,,,135131,,,instructions,"[{""page_index"":0,""viewing_time"":48069},{""page_index"":1,""viewing_time"":39479},{""page_index"":2,""viewing_time"":24280},{""page_index"":3,""viewing_time"":23296}]",42
,,,,,,,,,,,,,47015,,,47017,,,instructions,"[{""page_index"":0,""viewing_time"":14021},{""page_index"":1,""viewing_time"":5543},{""page_index"":2,""viewing_time"":14672},{""page_index"":3,""viewing_time"":12775}]",43
,,,,,,,,,,,,,150352,,,150352,,,instructions,"[{""page_index"":0,""viewing_time"":46753},{""page_index"":1,""viewing_time"":31861},{""page_index"":0,""viewing_time"":9098},{""page_index"":1,""viewing_time"":830},{""page_index"":2,""viewing_time"":37992},{""page_index"":3,""viewing_time"":23818}]",44
,,,,,,,,,,,,,1881527,,,1881529,,,instructions,"[{""page_index"":0,""viewing_time"":1709157},{""page_index"":1,""viewing_time"":54897},{""page_index"":2,""viewing_time"":75006},{""page_index"":3,""viewing_time"":42466}]",45
,,,,,,,,,,,,,96908,,,96909,,,instructions,"[{""page_index"":0,""viewing_time"":75456},{""page_index"":1,""viewing_time"":8724},{""page_index"":2,""viewing_time"":12727}]",46
,,,,,,,,,,,,,35532,,,429980,,,instructions,"[{""page_index"":0,""viewing_time"":4812},{""page_index"":1,""viewing_time"":9922},{""page_index"":2,""viewing_time"":16443},{""page_index"":1,""viewing_time"":3697},{""page_index"":2,""viewing_time"":657}]",46
,,,,,,,,,,,,,55849,,,503666,,,instructions,"[{""page_index"":0,""viewing_time"":26849},{""page_index"":1,""viewing_time"":1864},{""page_index"":2,""viewing_time"":27134}]",46
,,,,,,,,,,,,,93776,,,612699,,,instructions,"[{""page_index"":0,""viewing_time"":31479},{""page_index"":1,""viewing_time"":37869},{""page_index"":2,""viewing_time"":24426}]",46
,,,,,,,,,,,,,9979,,,641313,,,instructions,"[{""page_index"":0,""viewing_time"":8815},{""page_index"":1,""viewing_time"":1016},{""page_index"":2,""viewing_time"":148}]",46
,,,,,,,,,,,,,3513,,,666777,,,instructions,"[{""page_index"":0,""viewing_time"":1483},{""page_index"":1,""viewing_time"":768},{""page_index"":2,""viewing_time"":1262}]",46
,,,,,,,,,,,,,246060,,,246062,,,instructions,"[{""page_index"":0,""viewing_time"":45075},{""page_index"":1,""viewing_time"":60780},{""page_index"":2,""viewing_time"":65738},{""page_index"":3,""viewing_time"":74465}]",47
,,,,,,,,,,,,,71207,,,71208,,,instructions,"[{""page_index"":0,""viewing_time"":4061},{""page_index"":1,""viewing_time"":56894},{""page_index"":2,""viewing_time"":10251}]",48
,,,,,,,,,,,,,212993,,,212996,,,instructions,"[{""page_index"":0,""viewing_time"":74584},{""page_index"":1,""viewing_time"":70831},{""page_index"":2,""viewing_time"":35680},{""page_index"":3,""viewing_time"":31896}]",49
,,,,,,,,,,,,,127490,,,127491,,,instructions,"[{""page_index"":0,""viewing_time"":70001},{""page_index"":1,""viewing_time"":40523},{""page_index"":2,""viewing_time"":16966}]",50
,,,,,,,,,,,,,25976,,,25976,,,instructions,"[{""page_index"":0,""viewing_time"":4527},{""page_index"":1,""viewing_time"":2736},{""page_index"":2,""viewing_time"":15839},{""page_index"":3,""viewing_time"":2873}]",51
,,,,,,,,,,,,,160180,,,271908,,,instructions,"[{""page_index"":0,""viewing_time"":20374},{""page_index"":1,""viewing_time"":27354},{""page_index"":2,""viewing_time"":84022},{""page_index"":3,""viewing_time"":28430}]",51
,,,,,,,,,,,,,26656,,,26656,,,instructions,"[{""page_index"":0,""viewing_time"":5919},{""page_index"":1,""viewing_time"":13592},{""page_index"":2,""viewing_time"":7144}]",52
,,,,,,,,,,,,,41280,,,85569,,,instructions,"[{""page_index"":0,""viewing_time"":19152},{""page_index"":1,""viewing_time"":14136},{""page_index"":2,""viewing_time"":7991}]",52
,,,,,,,,,,,,,94134,,,94135,,,instructions,"[{""page_index"":0,""viewing_time"":41443},{""page_index"":1,""viewing_time"":30723},{""page_index"":2,""viewing_time"":21967}]",53
,,,,,,,,,,,,,109034,,,109036,,,instructions,"[{""page_index"":0,""viewing_time"":35674},{""page_index"":1,""viewing_time"":27200},{""page_index"":2,""viewing_time"":29360},{""page_index"":3,""viewing_time"":16799}]",54
,,,,,,,,,,,,,117624,,,117625,,,instructions,"[{""page_index"":0,""viewing_time"":67070},{""page_index"":1,""viewing_time"":17310},{""page_index"":2,""viewing_time"":14911},{""page_index"":3,""viewing_time"":18332}]",55
,,,,,,,,,,,,,76157,,,233271,,,instructions,"[{""page_index"":0,""viewing_time"":8095},{""page_index"":1,""viewing_time"":48306},{""page_index"":2,""viewing_time"":7507},{""page_index"":3,""viewing_time"":12248}]",55
,,,,,,,,,,,,,7773,,,273417,,,instructions,"[{""page_index"":0,""viewing_time"":4181},{""page_index"":1,""viewing_time"":2015},{""page_index"":2,""viewing_time"":824},{""page_index"":3,""viewing_time"":752}]",55
,,,,,,,,,,,,,4103,,,295563,,,instructions,"[{""page_index"":0,""viewing_time"":1902},{""page_index"":1,""viewing_time"":896},{""page_index"":2,""viewing_time"":632},{""page_index"":3,""viewing_time"":672}]",55
,,,,,,,,,,,,,331278,,,641314,,,instructions,"[{""page_index"":0,""viewing_time"":18363},{""page_index"":1,""viewing_time"":7009},{""page_index"":0,""viewing_time"":129639},{""page_index"":1,""viewing_time"":72889},{""page_index"":2,""viewing_time"":60803},{""page_index"":3,""viewing_time"":42574}]",55
,,,,,,,,,,,,,280279,,,280281,,,instructions,"[{""page_index"":0,""viewing_time"":154735},{""page_index"":1,""viewing_time"":46580},{""page_index"":2,""viewing_time"":78961}]",56
,,,,,,,,,,,,,126192,,,126193,,,instructions,"[{""page_index"":0,""viewing_time"":36519},{""page_index"":1,""viewing_time"":38587},{""page_index"":2,""viewing_time"":26628},{""page_index"":3,""viewing_time"":24458}]",57
,,,,,,,,,,,,,24309,,,188437,,,instructions,"[{""page_index"":0,""viewing_time"":2991},{""page_index"":1,""viewing_time"":2616},{""page_index"":2,""viewing_time"":7908},{""page_index"":3,""viewing_time"":10794}]",57
,,,,,,,,,,,,,152089,,,152091,,,instructions,"[{""page_index"":0,""viewing_time"":9651},{""page_index"":1,""viewing_time"":49462},{""page_index"":2,""viewing_time"":66920},{""page_index"":3,""viewing_time"":26056}]",58
,,,,,,,,,,,,,81597,,,81598,,,instructions,"[{""page_index"":0,""viewing_time"":29340},{""page_index"":1,""viewing_time"":21960},{""page_index"":2,""viewing_time"":18224},{""page_index"":3,""viewing_time"":12071}]",59
,,,,,,,,,,,,,3218,,,110780,,,instructions,"[{""page_index"":0,""viewing_time"":1425},{""page_index"":1,""viewing_time"":841},{""page_index"":2,""viewing_time"":488},{""page_index"":3,""viewing_time"":464}]",59
,,,,,,,,,,,,,88016,,,88023,,,instructions,"[{""page_index"":0,""viewing_time"":34595},{""page_index"":1,""viewing_time"":26753},{""page_index"":2,""viewing_time"":26665}]",60
,,,,,,,,,,,,,65374,,,184472,,,instructions,"[{""page_index"":0,""viewing_time"":51556},{""page_index"":1,""viewing_time"":6016},{""page_index"":2,""viewing_time"":7800}]",60
,,,,,,,,,,,,,65439,,,65440,,,instructions,"[{""page_index"":0,""viewing_time"":4680},{""page_index"":1,""viewing_time"":6180},{""page_index"":2,""viewing_time"":49233},{""page_index"":3,""viewing_time"":5344}]",61
,,,,,,,,,,,,,137599,,,137601,,,instructions,"[{""page_index"":0,""viewing_time"":50895},{""page_index"":1,""viewing_time"":58265},{""page_index"":2,""viewing_time"":28438}]",62
,,,,,,,,,,,,,278338,,,278339,,,instructions,"[{""page_index"":0,""viewing_time"":86568},{""page_index"":1,""viewing_time"":62869},{""page_index"":2,""viewing_time"":89024},{""page_index"":3,""viewing_time"":39875}]",63
,,,,,,,,,,,,,213075,,,213076,,,instructions,"[{""page_index"":0,""viewing_time"":76741},{""page_index"":1,""viewing_time"":60557},{""page_index"":2,""viewing_time"":66577},{""page_index"":3,""viewing_time"":9200}]",64
,,,,,,,,,,,,,31328,,,320859,,,instructions,"[{""page_index"":0,""viewing_time"":7764},{""page_index"":1,""viewing_time"":5083},{""page_index"":2,""viewing_time"":11738},{""page_index"":3,""viewing_time"":6743}]",64
,,,,,,,,,,,,,12289,,,374896,,,instructions,"[{""page_index"":0,""viewing_time"":1636},{""page_index"":1,""viewing_time"":1804},{""page_index"":2,""viewing_time"":3498},{""page_index"":3,""viewing_time"":5351}]",64
,,,,,,,,,,,,,89072,,,89073,,,instructions,"[{""page_index"":0,""viewing_time"":21735},{""page_index"":1,""viewing_time"":18155},{""page_index"":2,""viewing_time"":32521},{""page_index"":3,""viewing_time"":16660}]",65
,,,,,,,,,,,,,117992,,,117995,,,instructions,"[{""page_index"":0,""viewing_time"":63549},{""page_index"":1,""viewing_time"":27854},{""page_index"":2,""viewing_time"":26586}]",66
,,,,,,,,,,,,,43358,,,43361,,,instructions,"[{""page_index"":0,""viewing_time"":16717},{""page_index"":1,""viewing_time"":11830},{""page_index"":2,""viewing_time"":14809}]",67
,,,,,,,,,,,,,132488,,,132488,,,instructions,"[{""page_index"":0,""viewing_time"":14403},{""page_index"":1,""viewing_time"":23374},{""page_index"":2,""viewing_time"":84099},{""page_index"":3,""viewing_time"":10611}]",68
,,,,,,,,,,,,,113441,,,113445,,,instructions,"[{""page_index"":0,""viewing_time"":37299},{""page_index"":1,""viewing_time"":20547},{""page_index"":2,""viewing_time"":34179},{""page_index"":3,""viewing_time"":21411}]",69
,,,,,,,,,,,,,138800,,,138804,,,instructions,"[{""page_index"":0,""viewing_time"":41874},{""page_index"":1,""viewing_time"":24282},{""page_index"":2,""viewing_time"":40410},{""page_index"":3,""viewing_time"":32231}]",70
,,,,,,,,,,,,,101207,,,101208,,,instructions,"[{""page_index"":0,""viewing_time"":39328},{""page_index"":1,""viewing_time"":38461},{""page_index"":2,""viewing_time"":23415}]",71
,,,,,,,,,,,,,93341,,,93348,,,instructions,"[{""page_index"":0,""viewing_time"":52145},{""page_index"":1,""viewing_time"":24153},{""page_index"":2,""viewing_time"":17039}]",72
,,,,,,,,,,,,,128452,,,128458,,,instructions,"[{""page_index"":0,""viewing_time"":54441},{""page_index"":1,""viewing_time"":14099},{""page_index"":2,""viewing_time"":28865},{""page_index"":3,""viewing_time"":31044}]",73
,,,,,,,,,,,,,94494,,,268774,,,instructions,"[{""page_index"":0,""viewing_time"":19920},{""page_index"":1,""viewing_time"":34734},{""page_index"":2,""viewing_time"":27974},{""page_index"":3,""viewing_time"":11863}]",73
,,,,,,,,,,,,,110178,,,110181,,,instructions,"[{""page_index"":0,""viewing_time"":46609},{""page_index"":1,""viewing_time"":38109},{""page_index"":2,""viewing_time"":25458}]",74
,,,,,,,,,,,,,148475,,,148475,,,instructions,"[{""page_index"":0,""viewing_time"":35847},{""page_index"":1,""viewing_time"":6181},{""page_index"":0,""viewing_time"":8967},{""page_index"":1,""viewing_time"":34159},{""page_index"":2,""viewing_time"":38488},{""page_index"":3,""viewing_time"":24829}]",75
,,,,,,,,,,,,,1836,,,211707,,,instructions,"[{""page_index"":0,""viewing_time"":916},{""page_index"":1,""viewing_time"":300},{""page_index"":2,""viewing_time"":260},{""page_index"":3,""viewing_time"":356}]",75
,,,,,,,,,,,,,42502,,,272436,,,instructions,"[{""page_index"":0,""viewing_time"":3428},{""page_index"":1,""viewing_time"":11236},{""page_index"":0,""viewing_time"":7680},{""page_index"":1,""viewing_time"":4989},{""page_index"":2,""viewing_time"":8501},{""page_index"":3,""viewing_time"":6668}]",75
,,,,,,,,,,,,,69688,,,69690,,,instructions,"[{""page_index"":0,""viewing_time"":29047},{""page_index"":1,""viewing_time"":22719},{""page_index"":2,""viewing_time"":17920}]",76
,,,,,,,,,,,,,77693,,,77694,,,instructions,"[{""page_index"":0,""viewing_time"":21692},{""page_index"":1,""viewing_time"":29266},{""page_index"":2,""viewing_time"":9546},{""page_index"":3,""viewing_time"":17188}]",77
,,,,,,,,,,,,,115362,,,115364,,,instructions,"[{""page_index"":0,""viewing_time"":51818},{""page_index"":1,""viewing_time"":35911},{""page_index"":2,""viewing_time"":27632}]",78
,,,,,,,,,,,,,1404879,,,1404880,,,instructions,"[{""page_index"":0,""viewing_time"":1380966},{""page_index"":1,""viewing_time"":9246},{""page_index"":2,""viewing_time"":5122},{""page_index"":3,""viewing_time"":9545}]",79
,,,,,,,,,,,,,22422,,,1513044,,,instructions,"[{""page_index"":0,""viewing_time"":6511},{""page_index"":1,""viewing_time"":2929},{""page_index"":2,""viewing_time"":8358},{""page_index"":3,""viewing_time"":4624}]",79
,,,,,,,,,,,,,38774,,,1572095,,,instructions,"[{""page_index"":0,""viewing_time"":9428},{""page_index"":1,""viewing_time"":10299},{""page_index"":2,""viewing_time"":13298},{""page_index"":3,""viewing_time"":5749}]",79
,,,,,,,,,,,,,14079,,,1604114,,,instructions,"[{""page_index"":0,""viewing_time"":8700},{""page_index"":1,""viewing_time"":3100},{""page_index"":2,""viewing_time"":1470},{""page_index"":3,""viewing_time"":809}]",79
,,,,,,,,,,,,,2964,,,1625357,,,instructions,"[{""page_index"":0,""viewing_time"":907},{""page_index"":1,""viewing_time"":643},{""page_index"":2,""viewing_time"":684},{""page_index"":3,""viewing_time"":730}]",79
,,,,,,,,,,,,,3111,,,1701245,,,instructions,"[{""page_index"":0,""viewing_time"":1021},{""page_index"":1,""viewing_time"":948},{""page_index"":2,""viewing_time"":629},{""page_index"":3,""viewing_time"":513}]",79
,,,,,,,,,,,,,194360,,,194362,,,instructions,"[{""page_index"":0,""viewing_time"":90914},{""page_index"":1,""viewing_time"":31546},{""page_index"":2,""viewing_time"":33997},{""page_index"":3,""viewing_time"":37902}]",80
,,,,,,,,,,,,,35684,,,286609,,,instructions,"[{""page_index"":0,""viewing_time"":7482},{""page_index"":1,""viewing_time"":14055},{""page_index"":2,""viewing_time"":7778},{""page_index"":3,""viewing_time"":6368}]",80
,,,,,,,,,,,,,71715,,,382459,,,instructions,"[{""page_index"":0,""viewing_time"":38063},{""page_index"":1,""viewing_time"":15884},{""page_index"":2,""viewing_time"":11714},{""page_index"":3,""viewing_time"":6053}]",80
,,,,,,,,,,,,,58184,,,460453,,,instructions,"[{""page_index"":0,""viewing_time"":31504},{""page_index"":1,""viewing_time"":16609},{""page_index"":2,""viewing_time"":1950},{""page_index"":1,""viewing_time"":3379},{""page_index"":2,""viewing_time"":2950},{""page_index"":3,""viewing_time"":1792}]",80
,,,,,,,,,,,,,13694,,,13695,,,instructions,"[{""page_index"":0,""viewing_time"":2003},{""page_index"":1,""viewing_time"":5247},{""page_index"":2,""viewing_time"":6443}]",81
,,,,,,,,,,,,,11704,,,39877,,,instructions,"[{""page_index"":0,""viewing_time"":10848},{""page_index"":1,""viewing_time"":412},{""page_index"":2,""viewing_time"":444}]",81
,,,,,,,,,,,,,396734,,,396737,,,instructions,"[{""page_index"":0,""viewing_time"":138236},{""page_index"":1,""viewing_time"":36438},{""page_index"":2,""viewing_time"":207724},{""page_index"":3,""viewing_time"":14334}]",82
,,,,,,,,,,,,,360775,,,360776,,,instructions,"[{""page_index"":0,""viewing_time"":171518},{""page_index"":1,""viewing_time"":74438},{""page_index"":2,""viewing_time"":72936},{""page_index"":3,""viewing_time"":41882}]",83
,,,,,,,,,,,,,7056,,,418567,,,instructions,"[{""page_index"":0,""viewing_time"":3580},{""page_index"":1,""viewing_time"":833},{""page_index"":2,""viewing_time"":1633},{""page_index"":3,""viewing_time"":1010}]",83
,,,,,,,,,,,,,208326,,,208329,,,instructions,"[{""page_index"":0,""viewing_time"":67786},{""page_index"":1,""viewing_time"":47867},{""page_index"":2,""viewing_time"":55941},{""page_index"":3,""viewing_time"":36730}]",84
,,,,,,,,,,,,,156580,,,156581,,,instructions,"[{""page_index"":0,""viewing_time"":42168},{""page_index"":1,""viewing_time"":31301},{""page_index"":2,""viewing_time"":37835},{""page_index"":3,""viewing_time"":45275}]",85
,,,,,,,,,,,,,110684,,,110685,,,instructions,"[{""page_index"":0,""viewing_time"":44207},{""page_index"":1,""viewing_time"":44883},{""page_index"":2,""viewing_time"":21593}]",86
,,,,,,,,,,,,,32423,,,164919,,,instructions,"[{""page_index"":0,""viewing_time"":16381},{""page_index"":1,""viewing_time"":13348},{""page_index"":2,""viewing_time"":2693}]",86
,,,,,,,,,,,,,131661,,,131661,,,instructions,"[{""page_index"":0,""viewing_time"":86993},{""page_index"":1,""viewing_time"":39236},{""page_index"":2,""viewing_time"":5432}]",87
,,,,,,,,,,,,,116270,,,309638,,,instructions,"[{""page_index"":0,""viewing_time"":9372},{""page_index"":1,""viewing_time"":80158},{""page_index"":2,""viewing_time"":26740}]",87
,,,,,,,,,,,,,6555,,,393454,,,instructions,"[{""page_index"":0,""viewing_time"":2616},{""page_index"":1,""viewing_time"":2486},{""page_index"":2,""viewing_time"":1453}]",87
,,,,,,,,,,,,,13399,,,430545,,,instructions,"[{""page_index"":0,""viewing_time"":2135},{""page_index"":1,""viewing_time"":1453},{""page_index"":2,""viewing_time"":9811}]",87
,,,,,,,,,,,,,251488,,,251490,,,instructions,"[{""page_index"":0,""viewing_time"":72905},{""page_index"":1,""viewing_time"":52013},{""page_index"":2,""viewing_time"":37395},{""page_index"":3,""viewing_time"":89174}]",88
,,,,,,,,,,,,,17019,,,309814,,,instructions,"[{""page_index"":0,""viewing_time"":8251},{""page_index"":1,""viewing_time"":1329},{""page_index"":2,""viewing_time"":4574},{""page_index"":3,""viewing_time"":2865}]",88
,,,,,,,,,,,,,120739,,,120742,,,instructions,"[{""page_index"":0,""viewing_time"":50056},{""page_index"":1,""viewing_time"":18483},{""page_index"":2,""viewing_time"":21190},{""page_index"":3,""viewing_time"":31008}]",89
,,,,,,,,,,,,,137047,,,308735,,,instructions,"[{""page_index"":0,""viewing_time"":39760},{""page_index"":1,""viewing_time"":34813},{""page_index"":2,""viewing_time"":49621},{""page_index"":3,""viewing_time"":12851}]",89
,,,,,,,,,,,,,261928,,,261933,,,instructions,"[{""page_index"":0,""viewing_time"":110660},{""page_index"":1,""viewing_time"":44236},{""page_index"":2,""viewing_time"":58827},{""page_index"":3,""viewing_time"":48200}]",90
,,,,,,,,,,,,,383771,,,383773,,,instructions,"[{""page_index"":0,""viewing_time"":298257},{""page_index"":1,""viewing_time"":21823},{""page_index"":2,""viewing_time"":42900},{""page_index"":3,""viewing_time"":20790}]",91
,,,,,,,,,,,,,58698,,,58700,,,instructions,"[{""page_index"":0,""viewing_time"":16411},{""page_index"":1,""viewing_time"":4719},{""page_index"":2,""viewing_time"":30073},{""page_index"":3,""viewing_time"":7494}]",92
,,,,,,,,,,,,,26288,,,138817,,,instructions,"[{""page_index"":0,""viewing_time"":11561},{""page_index"":1,""viewing_time"":5278},{""page_index"":2,""viewing_time"":4691},{""page_index"":3,""viewing_time"":4758}]",92
,,,,,,,,,,,,,174769,,,174771,,,instructions,"[{""page_index"":0,""viewing_time"":51823},{""page_index"":1,""viewing_time"":49385},{""page_index"":2,""viewing_time"":45022},{""page_index"":3,""viewing_time"":28537}]",93
,,,,,,,,,,,,,105999,,,328530,,,instructions,"[{""page_index"":0,""viewing_time"":66079},{""page_index"":1,""viewing_time"":31612},{""page_index"":2,""viewing_time"":6670},{""page_index"":3,""viewing_time"":1637}]",93
,,,,,,,,,,,,,102476,,,102477,,,instructions,"[{""page_index"":0,""viewing_time"":32367},{""page_index"":1,""viewing_time"":20527},{""page_index"":2,""viewing_time"":24687},{""page_index"":3,""viewing_time"":24893}]",94
,,,,,,,,,,,,,35064,,,172207,,,instructions,"[{""page_index"":0,""viewing_time"":8984},{""page_index"":1,""viewing_time"":7544},{""page_index"":2,""viewing_time"":16375},{""page_index"":3,""viewing_time"":2160}]",94
,,,,,,,,,,,,,245252,,,245254,,,instructions,"[{""page_index"":0,""viewing_time"":77029},{""page_index"":1,""viewing_time"":47317},{""page_index"":2,""viewing_time"":72047},{""page_index"":3,""viewing_time"":48858}]",95
,,,,,,,,,,,,,44995,,,44998,,,instructions,"[{""page_index"":0,""viewing_time"":25176},{""page_index"":1,""viewing_time"":18479},{""page_index"":2,""viewing_time"":652},{""page_index"":3,""viewing_time"":687}]",96
,,,,,,,,,,,,,8195,,,74063,,,instructions,"[{""page_index"":0,""viewing_time"":3892},{""page_index"":1,""viewing_time"":861},{""page_index"":2,""viewing_time"":813},{""page_index"":3,""viewing_time"":2628}]",96
,,,,,,,,,,,,,35018,,,128060,,,instructions,"[{""page_index"":0,""viewing_time"":32044},{""page_index"":1,""viewing_time"":720},{""page_index"":2,""viewing_time"":1623},{""page_index"":3,""viewing_time"":630}]",96
,,,,,,,,,,,,,13612,,,159694,,,instructions,"[{""page_index"":0,""viewing_time"":6118},{""page_index"":1,""viewing_time"":3296},{""page_index"":2,""viewing_time"":2413},{""page_index"":3,""viewing_time"":1785}]",96
,,,,,,,,,,,,,96698,,,96698,,,instructions,"[{""page_index"":0,""viewing_time"":35953},{""page_index"":1,""viewing_time"":37759},{""page_index"":2,""viewing_time"":22985}]",97
,,,,,,,,,,,,,260462,,,260470,,,instructions,"[{""page_index"":0,""viewing_time"":124519},{""page_index"":1,""viewing_time"":30176},{""page_index"":2,""viewing_time"":105758}]",98
,,,,,,,,,,,,,26254,,,323065,,,instructions,"[{""page_index"":0,""viewing_time"":9213},{""page_index"":1,""viewing_time"":11698},{""page_index"":2,""viewing_time"":5341}]",98
,,,,,,,,,,,,,6016,,,343768,,,instructions,"[{""page_index"":0,""viewing_time"":4227},{""page_index"":1,""viewing_time"":763},{""page_index"":2,""viewing_time"":1024}]",98
,,,,,,,,,,,,,323426,,,323427,,,instructions,"[{""page_index"":0,""viewing_time"":28793},{""page_index"":1,""viewing_time"":207},{""page_index"":2,""viewing_time"":89358},{""page_index"":3,""viewing_time"":25677},{""page_index"":2,""viewing_time"":798},{""page_index"":1,""viewing_time"":1985},{""page_index"":0,""viewing_time"":42430},{""page_index"":1,""viewing_time"":40838},{""page_index"":0,""viewing_time"":4544},{""page_index"":1,""viewing_time"":8966},{""page_index"":2,""viewing_time"":68329},{""page_index"":3,""viewing_time"":11499}]",99
,,,,,,,,,,,,,34074,,,34075,,,instructions,"[{""page_index"":0,""viewing_time"":31246},{""page_index"":1,""viewing_time"":1867},{""page_index"":2,""viewing_time"":958}]",100
,,,,,,,,,,,,,24194,,,81736,,,instructions,"[{""page_index"":0,""viewing_time"":4728},{""page_index"":1,""viewing_time"":7508},{""page_index"":2,""viewing_time"":11957}]",100
,,,,,,,,,,,,,200764,,,200765,,,instructions,"[{""page_index"":0,""viewing_time"":58147},{""page_index"":1,""viewing_time"":52442},{""page_index"":2,""viewing_time"":13054},{""page_index"":1,""viewing_time"":28666},{""page_index"":2,""viewing_time"":26470},{""page_index"":3,""viewing_time"":21983}]",101
,,,,,,,,,,,,,429067,,,429069,,,instructions,"[{""page_index"":0,""viewing_time"":185330},{""page_index"":1,""viewing_time"":72151},{""page_index"":2,""viewing_time"":115050},{""page_index"":3,""viewing_time"":56534}]",102
,,,,,,,,,,,,,44524,,,536591,,,instructions,"[{""page_index"":0,""viewing_time"":13092},{""page_index"":1,""viewing_time"":6728},{""page_index"":0,""viewing_time"":5833},{""page_index"":1,""viewing_time"":4559},{""page_index"":2,""viewing_time"":11591},{""page_index"":3,""viewing_time"":2720}]",102
,,,,,,,,,,,,,240398,,,240401,,,instructions,"[{""page_index"":0,""viewing_time"":79923},{""page_index"":1,""viewing_time"":96041},{""page_index"":2,""viewing_time"":34284},{""page_index"":3,""viewing_time"":30148}]",103
,,,,,,,,,,,,,230841,,,230841,,,instructions,"[{""page_index"":0,""viewing_time"":56559},{""page_index"":1,""viewing_time"":103289},{""page_index"":2,""viewing_time"":39609},{""page_index"":3,""viewing_time"":31384}]",104
,,,,,,,,,,,,,177270,,,177272,,,instructions,"[{""page_index"":0,""viewing_time"":57459},{""page_index"":1,""viewing_time"":60337},{""page_index"":2,""viewing_time"":34120},{""page_index"":3,""viewing_time"":25352}]",105
,,,,,,,,,,,,,1794325,,,1794328,,,instructions,"[{""page_index"":0,""viewing_time"":79585},{""page_index"":1,""viewing_time"":1611132},{""page_index"":2,""viewing_time"":103596}]",106
,,,,,,,,,,,,,213092,,,213093,,,instructions,"[{""page_index"":0,""viewing_time"":89137},{""page_index"":1,""viewing_time"":28225},{""page_index"":2,""viewing_time"":42604},{""page_index"":3,""viewing_time"":7738},{""page_index"":2,""viewing_time"":14528},{""page_index"":3,""viewing_time"":30859}]",107
,,,,,,,,,,,,,52692,,,322774,,,instructions,"[{""page_index"":0,""viewing_time"":8591},{""page_index"":1,""viewing_time"":1856},{""page_index"":0,""viewing_time"":783},{""page_index"":1,""viewing_time"":1232},{""page_index"":0,""viewing_time"":4242},{""page_index"":1,""viewing_time"":2279},{""page_index"":0,""viewing_time"":14816},{""page_index"":1,""viewing_time"":2808},{""page_index"":2,""viewing_time"":4832},{""page_index"":3,""viewing_time"":5181},{""page_index"":2,""viewing_time"":631},{""page_index"":1,""viewing_time"":488},{""page_index"":0,""viewing_time"":3073},{""page_index"":1,""viewing_time"":791},{""page_index"":2,""viewing_time"":528},{""page_index"":3,""viewing_time"":560}]",107
,,,,,,,,,,,,,43552,,,387628,,,instructions,"[{""page_index"":0,""viewing_time"":13649},{""page_index"":1,""viewing_time"":1344},{""page_index"":2,""viewing_time"":18666},{""page_index"":3,""viewing_time"":9893}]",107
,,,,,,,,,,,,,36910,,,452973,,,instructions,"[{""page_index"":0,""viewing_time"":9035},{""page_index"":1,""viewing_time"":13329},{""page_index"":2,""viewing_time"":12187},{""page_index"":3,""viewing_time"":2358}]",107
,,,,,,,,,,,,,95794,,,95796,,,instructions,"[{""page_index"":0,""viewing_time"":39289},{""page_index"":1,""viewing_time"":21926},{""page_index"":2,""viewing_time"":12694},{""page_index"":3,""viewing_time"":21885}]",108
,,,,,,,,,,,,,92719,,,92721,,,instructions,"[{""page_index"":0,""viewing_time"":25999},{""page_index"":1,""viewing_time"":21116},{""page_index"":2,""viewing_time"":26929},{""page_index"":3,""viewing_time"":18675}]",109
,,,,,,,,,,,,,36353,,,172592,,,instructions,"[{""page_index"":0,""viewing_time"":4657},{""page_index"":1,""viewing_time"":19277},{""page_index"":2,""viewing_time"":4264},{""page_index"":3,""viewing_time"":8155}]",109
,,,,,,,,,,,,,103086,,,103086,,,instructions,"[{""page_index"":0,""viewing_time"":42159},{""page_index"":1,""viewing_time"":14649},{""page_index"":2,""viewing_time"":23180},{""page_index"":3,""viewing_time"":23098}]",110
,,,,,,,,,,,,,47965,,,186910,,,instructions,"[{""page_index"":0,""viewing_time"":17668},{""page_index"":1,""viewing_time"":6615},{""page_index"":2,""viewing_time"":14919},{""page_index"":3,""viewing_time"":8762}]",110
,,,,,,,,,,,,,4649,,,242539,,,instructions,"[{""page_index"":0,""viewing_time"":843},{""page_index"":1,""viewing_time"":706},{""page_index"":2,""viewing_time"":1354},{""page_index"":3,""viewing_time"":1746}]",110
,,,,,,,,,,,,,278690,,,278692,,,instructions,"[{""page_index"":0,""viewing_time"":85547},{""page_index"":1,""viewing_time"":46963},{""page_index"":2,""viewing_time"":39921},{""page_index"":1,""viewing_time"":1269},{""page_index"":0,""viewing_time"":6959},{""page_index"":1,""viewing_time"":1947},{""page_index"":2,""viewing_time"":6947},{""page_index"":1,""viewing_time"":6158},{""page_index"":0,""viewing_time"":26399},{""page_index"":1,""viewing_time"":17636},{""page_index"":2,""viewing_time"":38943}]",111
,,,,,,,,,,,,,21255,,,21257,,,instructions,"[{""page_index"":0,""viewing_time"":7156},{""page_index"":1,""viewing_time"":8609},{""page_index"":2,""viewing_time"":5489}]",112
,,,,,,,,,,,,,175702,,,175702,,,instructions,"[{""page_index"":0,""viewing_time"":59534},{""page_index"":1,""viewing_time"":12232},{""page_index"":0,""viewing_time"":6016},{""page_index"":1,""viewing_time"":39783},{""page_index"":2,""viewing_time"":31641},{""page_index"":3,""viewing_time"":26495}]",113
,,,,,,,,,,,,,24665,,,234126,,,instructions,"[{""page_index"":0,""viewing_time"":3801},{""page_index"":1,""viewing_time"":1256},{""page_index"":0,""viewing_time"":2192},{""page_index"":1,""viewing_time"":2224},{""page_index"":0,""viewing_time"":7320},{""page_index"":1,""viewing_time"":1735},{""page_index"":2,""viewing_time"":4585},{""page_index"":3,""viewing_time"":1552}]",113
,,,,,,,,,,,,,116454,,,116456,,,instructions,"[{""page_index"":0,""viewing_time"":17932},{""page_index"":1,""viewing_time"":20807},{""page_index"":2,""viewing_time"":59025},{""page_index"":3,""viewing_time"":18690}]",114
,,,,,,,,,,,,,88422,,,88433,,,instructions,"[{""page_index"":0,""viewing_time"":30349},{""page_index"":1,""viewing_time"":33808},{""page_index"":2,""viewing_time"":10779},{""page_index"":3,""viewing_time"":13486}]",115
,,,,,,,,,,,,,55704,,,162689,,,instructions,"[{""page_index"":0,""viewing_time"":10352},{""page_index"":1,""viewing_time"":13350},{""page_index"":2,""viewing_time"":20255},{""page_index"":3,""viewing_time"":11747}]",115
,,,,,,,,,,,,,92243,,,92246,,,instructions,"[{""page_index"":0,""viewing_time"":38568},{""page_index"":1,""viewing_time"":35702},{""page_index"":2,""viewing_time"":17971}]",116
,,,,,,,,,,,,,131623,,,131625,,,instructions,"[{""page_index"":0,""viewing_time"":59858},{""page_index"":1,""viewing_time"":1848},{""page_index"":0,""viewing_time"":7459},{""page_index"":1,""viewing_time"":40257},{""page_index"":2,""viewing_time"":8144},{""page_index"":3,""viewing_time"":14055}]",117
,,,,,,,,,,,,,259095,,,259099,,,instructions,"[{""page_index"":0,""viewing_time"":118929},{""page_index"":1,""viewing_time"":69136},{""page_index"":2,""viewing_time"":40828},{""page_index"":3,""viewing_time"":30199}]",118
,,,,,,,,,,,,,244945,,,244947,,,instructions,"[{""page_index"":0,""viewing_time"":100201},{""page_index"":1,""viewing_time"":85407},{""page_index"":2,""viewing_time"":59337}]",119
,,,,,,,,,,,,,58902,,,358778,,,instructions,"[{""page_index"":0,""viewing_time"":6517},{""page_index"":1,""viewing_time"":43576},{""page_index"":0,""viewing_time"":2800},{""page_index"":1,""viewing_time"":600},{""page_index"":2,""viewing_time"":5408}]",119
,,,,,,,,,,,,,76624,,,76625,,,instructions,"[{""page_index"":0,""viewing_time"":24026},{""page_index"":1,""viewing_time"":18782},{""page_index"":2,""viewing_time"":18673},{""page_index"":3,""viewing_time"":15142}]",120
,,,,,,,,,,,,,43407,,,171857,,,instructions,"[{""page_index"":0,""viewing_time"":3569},{""page_index"":1,""viewing_time"":8794},{""page_index"":2,""viewing_time"":21300},{""page_index"":3,""viewing_time"":9744}]",120
,,,,,,,,,,,,,47577,,,47577,,,instructions,"[{""page_index"":0,""viewing_time"":4542},{""page_index"":1,""viewing_time"":20500},{""page_index"":2,""viewing_time"":19134},{""page_index"":3,""viewing_time"":3399}]",121
,,,,,,,,,,,,,87958,,,87958,,,instructions,"[{""page_index"":0,""viewing_time"":23500},{""page_index"":1,""viewing_time"":20390},{""page_index"":2,""viewing_time"":28145},{""page_index"":3,""viewing_time"":15923}]",122
,,,,,,,,,,,,,9294,,,121423,,,instructions,"[{""page_index"":0,""viewing_time"":2108},{""page_index"":1,""viewing_time"":668},{""page_index"":2,""viewing_time"":4937},{""page_index"":3,""viewing_time"":1581}]",122
,,,,,,,,,,,,,39294,,,185423,,,instructions,"[{""page_index"":0,""viewing_time"":1819},{""page_index"":1,""viewing_time"":15914},{""page_index"":2,""viewing_time"":6513},{""page_index"":1,""viewing_time"":1539},{""page_index"":0,""viewing_time"":3997},{""page_index"":1,""viewing_time"":2311},{""page_index"":2,""viewing_time"":2201},{""page_index"":3,""viewing_time"":4999}]",122
,,,,,,,,,,,,,118883,,,118886,,,instructions,"[{""page_index"":0,""viewing_time"":26108},{""page_index"":1,""viewing_time"":59661},{""page_index"":2,""viewing_time"":15472},{""page_index"":3,""viewing_time"":17639}]",123
,,,,,,,,,,,,,54178,,,204537,,,instructions,"[{""page_index"":0,""viewing_time"":8442},{""page_index"":1,""viewing_time"":4991},{""page_index"":2,""viewing_time"":35357},{""page_index"":3,""viewing_time"":5387}]",123
,,,,,,,,,,,,,272582,,,272583,,,instructions,"[{""page_index"":0,""viewing_time"":126538},{""page_index"":1,""viewing_time"":74936},{""page_index"":2,""viewing_time"":35731},{""page_index"":3,""viewing_time"":35377}]",124
,,,,,,,,,,,,,70885,,,70887,,,instructions,"[{""page_index"":0,""viewing_time"":45658},{""page_index"":1,""viewing_time"":6192},{""page_index"":0,""viewing_time"":3536},{""page_index"":1,""viewing_time"":13185},{""page_index"":2,""viewing_time"":2312}]",125
,,,,,,,,,,,,,108573,,,198676,,,instructions,"[{""page_index"":0,""viewing_time"":37740},{""page_index"":1,""viewing_time"":38903},{""page_index"":2,""viewing_time"":31929}]",125
,,,,,,,,,,,,,72776,,,294924,,,instructions,"[{""page_index"":0,""viewing_time"":53927},{""page_index"":1,""viewing_time"":14775},{""page_index"":2,""viewing_time"":4073}]",125
,,,,,,,,,,,,,143823,,,143823,,,instructions,"[{""page_index"":0,""viewing_time"":51950},{""page_index"":1,""viewing_time"":62472},{""page_index"":2,""viewing_time"":29401}]",126
,,,,,,,,,,,,,122225,,,122226,,,instructions,"[{""page_index"":0,""viewing_time"":43034},{""page_index"":1,""viewing_time"":30001},{""page_index"":2,""viewing_time"":27669},{""page_index"":3,""viewing_time"":21521}]",127
,,,,,,,,,,,,,158596,,,158597,,,instructions,"[{""page_index"":0,""viewing_time"":66132},{""page_index"":1,""viewing_time"":39814},{""page_index"":2,""viewing_time"":32568},{""page_index"":3,""viewing_time"":20080}]",128
,,,,,,,,,,,,,177842,,,177843,,,instructions,"[{""page_index"":0,""viewing_time"":94476},{""page_index"":1,""viewing_time"":37707},{""page_index"":2,""viewing_time"":24454},{""page_index"":3,""viewing_time"":21203}]",129
,,,,,,,,,,,,,62400,,,279750,,,instructions,"[{""page_index"":0,""viewing_time"":35553},{""page_index"":1,""viewing_time"":5152},{""page_index"":2,""viewing_time"":12069},{""page_index"":3,""viewing_time"":9626}]",129
,,,,,,,,,,,,,252628,,,252628,,,instructions,"[{""page_index"":0,""viewing_time"":175549},{""page_index"":1,""viewing_time"":19376},{""page_index"":2,""viewing_time"":39671},{""page_index"":3,""viewing_time"":3467},{""page_index"":2,""viewing_time"":821},{""page_index"":3,""viewing_time"":13743}]",130
,,,,,,,,,,,,,58429,,,359044,,,instructions,"[{""page_index"":0,""viewing_time"":11061},{""page_index"":1,""viewing_time"":12985},{""page_index"":2,""viewing_time"":25224},{""page_index"":3,""viewing_time"":9159}]",130
,,,,,,,,,,,,,38495,,,421933,,,instructions,"[{""page_index"":0,""viewing_time"":13710},{""page_index"":1,""viewing_time"":9985},{""page_index"":2,""viewing_time"":3495},{""page_index"":3,""viewing_time"":3616},{""page_index"":2,""viewing_time"":7128},{""page_index"":3,""viewing_time"":560}]",130
,,,,,,,,,,,,,6679,,,452061,,,instructions,"[{""page_index"":0,""viewing_time"":1598},{""page_index"":1,""viewing_time"":496},{""page_index"":2,""viewing_time"":1392},{""page_index"":3,""viewing_time"":3192}]",130
,,,,,,,,,,,,,20510,,,492132,,,instructions,"[{""page_index"":0,""viewing_time"":9135},{""page_index"":1,""viewing_time"":2216},{""page_index"":2,""viewing_time"":8599},{""page_index"":3,""viewing_time"":560}]",130
,,,,,,,,,,,,,3910,,,509205,,,instructions,"[{""page_index"":0,""viewing_time"":1509},{""page_index"":1,""viewing_time"":552},{""page_index"":2,""viewing_time"":1353},{""page_index"":3,""viewing_time"":496}]",130
,,,,,,,,,,,,,3559,,,534348,,,instructions,"[{""page_index"":0,""viewing_time"":1382},{""page_index"":1,""viewing_time"":472},{""page_index"":2,""viewing_time"":1233},{""page_index"":3,""viewing_time"":471}]",130
,,,,,,,,,,,,,25111,,,589909,,,instructions,"[{""page_index"":0,""viewing_time"":2422},{""page_index"":1,""viewing_time"":7111},{""page_index"":2,""viewing_time"":1457},{""page_index"":3,""viewing_time"":919},{""page_index"":2,""viewing_time"":12561},{""page_index"":3,""viewing_time"":640}]",130
,,,,,,,,,,,,,21438,,,625909,,,instructions,"[{""page_index"":0,""viewing_time"":5445},{""page_index"":1,""viewing_time"":1152},{""page_index"":2,""viewing_time"":1848},{""page_index"":3,""viewing_time"":12993}]",130
,,,,,,,,,,,,,174190,,,174190,,,instructions,"[{""page_index"":0,""viewing_time"":55521},{""page_index"":1,""viewing_time"":87547},{""page_index"":2,""viewing_time"":31121}]",131
,,,,,,,,,,,,,27446,,,27446,,,instructions,"[{""page_index"":0,""viewing_time"":14821},{""page_index"":1,""viewing_time"":6392},{""page_index"":2,""viewing_time"":6232}]",132
,,,,,,,,,,,,,17222,,,208046,,,instructions,"[{""page_index"":0,""viewing_time"":7029},{""page_index"":1,""viewing_time"":4448},{""page_index"":2,""viewing_time"":5744}]",132
,,,,,,,,,,,,,113351,,,113368,,,instructions,"[{""page_index"":0,""viewing_time"":54842},{""page_index"":1,""viewing_time"":13400},{""page_index"":0,""viewing_time"":5622},{""page_index"":1,""viewing_time"":14868},{""page_index"":0,""viewing_time"":914},{""page_index"":1,""viewing_time"":1410},{""page_index"":2,""viewing_time"":11104},{""page_index"":1,""viewing_time"":1296},{""page_index"":2,""viewing_time"":9895}]",133
,,,,,,,,,,,,,77519,,,77520,,,instructions,"[{""page_index"":0,""viewing_time"":23452},{""page_index"":1,""viewing_time"":19207},{""page_index"":2,""viewing_time"":17597},{""page_index"":3,""viewing_time"":17263}]",134
,,,,,,,,,,,,,27466,,,135622,,,instructions,"[{""page_index"":0,""viewing_time"":6061},{""page_index"":1,""viewing_time"":2048},{""page_index"":2,""viewing_time"":11001},{""page_index"":3,""viewing_time"":8356}]",134
,,,,,,,,,,,,,57125,,,232594,,,instructions,"[{""page_index"":0,""viewing_time"":10568},{""page_index"":1,""viewing_time"":15256},{""page_index"":2,""viewing_time"":26249},{""page_index"":3,""viewing_time"":5051}]",134
,,,,,,,,,,,,,30453,,,30454,,,instructions,"[{""page_index"":0,""viewing_time"":12517},{""page_index"":1,""viewing_time"":5727},{""page_index"":2,""viewing_time"":12208}]",135
,,,,,,,,,,,,,32635,,,79623,,,instructions,"[{""page_index"":0,""viewing_time"":20131},{""page_index"":1,""viewing_time"":8284},{""page_index"":2,""viewing_time"":4220}]",135
,,,,,,,,,,,,,2532277,,,2532280,,,instructions,"[{""page_index"":0,""viewing_time"":131051},{""page_index"":1,""viewing_time"":23346},{""page_index"":2,""viewing_time"":115247},{""page_index"":3,""viewing_time"":38758},{""page_index"":2,""viewing_time"":15716},{""page_index"":1,""viewing_time"":1459765},{""page_index"":0,""viewing_time"":147984},{""page_index"":1,""viewing_time"":36363},{""page_index"":2,""viewing_time"":2342},{""page_index"":1,""viewing_time"":1004},{""page_index"":0,""viewing_time"":36111},{""page_index"":1,""viewing_time"":83252},{""page_index"":2,""viewing_time"":438663},{""page_index"":3,""viewing_time"":2673}]",136
,,,,,,,,,,,,,188818,,,2819376,,,instructions,"[{""page_index"":0,""viewing_time"":9988},{""page_index"":1,""viewing_time"":27643},{""page_index"":2,""viewing_time"":94354},{""page_index"":3,""viewing_time"":56831}]",136
,,,,,,,,,,,,,4303,,,2911030,,,instructions,"[{""page_index"":0,""viewing_time"":3198},{""page_index"":1,""viewing_time"":210},{""page_index"":2,""viewing_time"":533},{""page_index"":3,""viewing_time"":360}]",136
,,,,,,,,,,,,,134108,,,3076988,,,instructions,"[{""page_index"":0,""viewing_time"":24485},{""page_index"":1,""viewing_time"":26513},{""page_index"":2,""viewing_time"":31034},{""page_index"":3,""viewing_time"":52074}]",136
,,,,,,,,,,,,,49651,,,3190808,,,instructions,"[{""page_index"":0,""viewing_time"":5624},{""page_index"":1,""viewing_time"":1432},{""page_index"":2,""viewing_time"":15614},{""page_index"":1,""viewing_time"":25639},{""page_index"":2,""viewing_time"":521},{""page_index"":3,""viewing_time"":819}]",136
,,,,,,,,,,,,,71880,,,71881,,,instructions,"[{""page_index"":0,""viewing_time"":29383},{""page_index"":1,""viewing_time"":24566},{""page_index"":2,""viewing_time"":17930}]",137
,,,,,,,,,,,,,86854,,,86855,,,instructions,"[{""page_index"":0,""viewing_time"":21940},{""page_index"":1,""viewing_time"":20136},{""page_index"":2,""viewing_time"":23002},{""page_index"":3,""viewing_time"":21775}]",138
,,,,,,,,,,,,,29264,,,29264,,,instructions,"[{""page_index"":0,""viewing_time"":9624},{""page_index"":1,""viewing_time"":8797},{""page_index"":2,""viewing_time"":10843}]",139
,,,,,,,,,,,,,28824,,,80033,,,instructions,"[{""page_index"":0,""viewing_time"":20004},{""page_index"":1,""viewing_time"":7303},{""page_index"":2,""viewing_time"":1517}]",139
,,,,,,,,,,,,,68146,,,168559,,,instructions,"[{""page_index"":0,""viewing_time"":8954},{""page_index"":1,""viewing_time"":29351},{""page_index"":2,""viewing_time"":25041},{""page_index"":1,""viewing_time"":4444},{""page_index"":2,""viewing_time"":356}]",139
,,,,,,,,,,,,,62467,,,62470,,,instructions,"[{""page_index"":0,""viewing_time"":26823},{""page_index"":1,""viewing_time"":18765},{""page_index"":2,""viewing_time"":7945},{""page_index"":3,""viewing_time"":8930}]",140
,,,,,,,,,,,,,46299,,,137145,,,instructions,"[{""page_index"":0,""viewing_time"":10852},{""page_index"":1,""viewing_time"":8478},{""page_index"":2,""viewing_time"":20874},{""page_index"":3,""viewing_time"":6095}]",140
,,,,,,,,,,,,,12201,,,170634,,,instructions,"[{""page_index"":0,""viewing_time"":2791},{""page_index"":1,""viewing_time"":1355},{""page_index"":2,""viewing_time"":6836},{""page_index"":3,""viewing_time"":1217}]",140
,,,,,,,,,,,,,47277,,,47278,,,instructions,"[{""page_index"":0,""viewing_time"":29594},{""page_index"":1,""viewing_time"":4583},{""page_index"":2,""viewing_time"":4451},{""page_index"":3,""viewing_time"":8649}]",141
,,,,,,,,,,,,,46393,,,129415,,,instructions,"[{""page_index"":0,""viewing_time"":10486},{""page_index"":1,""viewing_time"":6505},{""page_index"":2,""viewing_time"":14169},{""page_index"":3,""viewing_time"":15232}]",141
,,,,,,,,,,,,,39147,,,39150,,,instructions,"[{""page_index"":0,""viewing_time"":14104},{""page_index"":1,""viewing_time"":192},{""page_index"":0,""viewing_time"":2371},{""page_index"":1,""viewing_time"":13687},{""page_index"":2,""viewing_time"":3232},{""page_index"":3,""viewing_time"":5560}]",142
,,,,,,,,,,,,,23349,,,88052,,,instructions,"[{""page_index"":0,""viewing_time"":16404},{""page_index"":1,""viewing_time"":2953},{""page_index"":2,""viewing_time"":2192},{""page_index"":3,""viewing_time"":1799}]",142
,,,,,,,,,,,,,149246,,,149246,,,instructions,"[{""page_index"":0,""viewing_time"":48296},{""page_index"":1,""viewing_time"":39262},{""page_index"":2,""viewing_time"":34502},{""page_index"":3,""viewing_time"":27185}]",143
,,,,,,,,,,,,,80338,,,260957,,,instructions,"[{""page_index"":0,""viewing_time"":18197},{""page_index"":1,""viewing_time"":26564},{""page_index"":2,""viewing_time"":20503},{""page_index"":3,""viewing_time"":15074}]",143
,,,,,,,,,,,,,135260,,,135263,,,instructions,"[{""page_index"":0,""viewing_time"":22794},{""page_index"":1,""viewing_time"":9633},{""page_index"":2,""viewing_time"":68386},{""page_index"":3,""viewing_time"":34444}]",144
,,,,,,,,,,,,,135468,,,320688,,,instructions,"[{""page_index"":0,""viewing_time"":72976},{""page_index"":1,""viewing_time"":11176},{""page_index"":2,""viewing_time"":35384},{""page_index"":3,""viewing_time"":15930}]",144
,,,,,,,,,,,,,96713,,,471543,,,instructions,"[{""page_index"":0,""viewing_time"":3302},{""page_index"":1,""viewing_time"":24182},{""page_index"":2,""viewing_time"":49997},{""page_index"":3,""viewing_time"":19231}]",144
,,,,,,,,,,,,,151386,,,678516,,,instructions,"[{""page_index"":0,""viewing_time"":44506},{""page_index"":1,""viewing_time"":40813},{""page_index"":2,""viewing_time"":39939},{""page_index"":3,""viewing_time"":26126}]",144
,,,,,,,,,,,,,74443,,,797996,,,instructions,"[{""page_index"":0,""viewing_time"":3242},{""page_index"":1,""viewing_time"":2506},{""page_index"":2,""viewing_time"":64787},{""page_index"":3,""viewing_time"":3906}]",144
,,,,,,,,,,,,,131836,,,131836,,,instructions,"[{""page_index"":0,""viewing_time"":35981},{""page_index"":1,""viewing_time"":17239},{""page_index"":2,""viewing_time"":66111},{""page_index"":3,""viewing_time"":12504}]",145
,,,,,,,,,,,,,66247,,,234915,,,instructions,"[{""page_index"":0,""viewing_time"":10647},{""page_index"":1,""viewing_time"":7336},{""page_index"":0,""viewing_time"":6200},{""page_index"":1,""viewing_time"":5544},{""page_index"":0,""viewing_time"":10232},{""page_index"":1,""viewing_time"":5480},{""page_index"":2,""viewing_time"":14983},{""page_index"":3,""viewing_time"":5824}]",145
,,,,,,,,,,,,,148359,,,148360,,,instructions,"[{""page_index"":0,""viewing_time"":55080},{""page_index"":1,""viewing_time"":28336},{""page_index"":2,""viewing_time"":42905},{""page_index"":3,""viewing_time"":22036}]",146
,,,,,,,,,,,,,40159,,,231416,,,instructions,"[{""page_index"":0,""viewing_time"":21655},{""page_index"":1,""viewing_time"":11328},{""page_index"":2,""viewing_time"":5087},{""page_index"":3,""viewing_time"":2088}]",146
,,,,,,,,,,,,,105860,,,105860,,,instructions,"[{""page_index"":0,""viewing_time"":42972},{""page_index"":1,""viewing_time"":20641},{""page_index"":2,""viewing_time"":28956},{""page_index"":3,""viewing_time"":13289}]",147
,,,,,,,,,,,,,171386,,,171388,,,instructions,"[{""page_index"":0,""viewing_time"":72701},{""page_index"":1,""viewing_time"":32752},{""page_index"":2,""viewing_time"":43512},{""page_index"":3,""viewing_time"":22419}]",148
,,,,,,,,,,,,,341026,,,341028,,,instructions,"[{""page_index"":0,""viewing_time"":97513},{""page_index"":1,""viewing_time"":99940},{""page_index"":2,""viewing_time"":98804},{""page_index"":3,""viewing_time"":44768}]",149
,,,,,,,,,,,,,6204,,,408185,,,instructions,"[{""page_index"":0,""viewing_time"":2315},{""page_index"":1,""viewing_time"":920},{""page_index"":2,""viewing_time"":1631},{""page_index"":3,""viewing_time"":1337}]",149
,,,,,,,,,,,,,138810,,,138811,,,instructions,"[{""page_index"":0,""viewing_time"":37522},{""page_index"":1,""viewing_time"":34959},{""page_index"":2,""viewing_time"":49240},{""page_index"":3,""viewing_time"":17088}]",150
,,,,,,,,,,,,,58571,,,58572,,,instructions,"[{""page_index"":0,""viewing_time"":31500},{""page_index"":1,""viewing_time"":3655},{""page_index"":0,""viewing_time"":1599},{""page_index"":1,""viewing_time"":8761},{""page_index"":2,""viewing_time"":4960},{""page_index"":3,""viewing_time"":3254},{""page_index"":2,""viewing_time"":1928},{""page_index"":3,""viewing_time"":2913}]",151
,,,,,,,,,,,,,170263,,,170264,,,instructions,"[{""page_index"":0,""viewing_time"":63840},{""page_index"":1,""viewing_time"":32646},{""page_index"":2,""viewing_time"":44516},{""page_index"":3,""viewing_time"":29260}]",152
,,,,,,,,,,,,,163370,,,163370,,,instructions,"[{""page_index"":0,""viewing_time"":48218},{""page_index"":1,""viewing_time"":48380},{""page_index"":2,""viewing_time"":34080},{""page_index"":3,""viewing_time"":32691}]",153
,,,,,,,,,,,,,84241,,,84241,,,instructions,"[{""page_index"":0,""viewing_time"":14256},{""page_index"":1,""viewing_time"":43647},{""page_index"":2,""viewing_time"":26337}]",154
,,,,,,,,,,,,,152420,,,152421,,,instructions,"[{""page_index"":0,""viewing_time"":48793},{""page_index"":1,""viewing_time"":38726},{""page_index"":2,""viewing_time"":36147},{""page_index"":3,""viewing_time"":28754}]",155
,,,,,,,,,,,,,108696,,,108696,,,instructions,"[{""page_index"":0,""viewing_time"":29767},{""page_index"":1,""viewing_time"":27391},{""page_index"":2,""viewing_time"":38480},{""page_index"":3,""viewing_time"":13058}]",156
,,,,,,,,,,,,,165709,,,165710,,,instructions,"[{""page_index"":0,""viewing_time"":52876},{""page_index"":1,""viewing_time"":14396},{""page_index"":0,""viewing_time"":15941},{""page_index"":1,""viewing_time"":4544},{""page_index"":0,""viewing_time"":3790},{""page_index"":1,""viewing_time"":2909},{""page_index"":0,""viewing_time"":2739},{""page_index"":1,""viewing_time"":2041},{""page_index"":0,""viewing_time"":3831},{""page_index"":1,""viewing_time"":19744},{""page_index"":2,""viewing_time"":14672},{""page_index"":3,""viewing_time"":28225}]",157
,,,,,,,,,,,,,119597,,,323845,,,instructions,"[{""page_index"":0,""viewing_time"":35069},{""page_index"":1,""viewing_time"":10056},{""page_index"":2,""viewing_time"":46592},{""page_index"":3,""viewing_time"":27880}]",157
,,,,,,,,,,,,,40472,,,40473,,,instructions,"[{""page_index"":0,""viewing_time"":25757},{""page_index"":1,""viewing_time"":11334},{""page_index"":2,""viewing_time"":3379}]",158
,,,,,,,,,,,,,31600,,,106085,,,instructions,"[{""page_index"":0,""viewing_time"":12806},{""page_index"":1,""viewing_time"":12687},{""page_index"":2,""viewing_time"":6106}]",158
,,,,,,,,,,,,,4093,,,129051,,,instructions,"[{""page_index"":0,""viewing_time"":2678},{""page_index"":1,""viewing_time"":1375},{""page_index"":2,""viewing_time"":39}]",158
,,,,,,,,,,,,,4547,,,148100,,,instructions,"[{""page_index"":0,""viewing_time"":2345},{""page_index"":1,""viewing_time"":1511},{""page_index"":2,""viewing_time"":691}]",158
,,,,,,,,,,,,,4542,,,166980,,,instructions,"[{""page_index"":0,""viewing_time"":3006},{""page_index"":1,""viewing_time"":978},{""page_index"":2,""viewing_time"":557}]",158
,,,,,,,,,,,,,3954,,,186680,,,instructions,"[{""page_index"":0,""viewing_time"":2514},{""page_index"":1,""viewing_time"":863},{""page_index"":2,""viewing_time"":577}]",158
,,,,,,,,,,,,,17576,,,218264,,,instructions,"[{""page_index"":0,""viewing_time"":4299},{""page_index"":1,""viewing_time"":6441},{""page_index"":2,""viewing_time"":6836}]",158
,,,,,,,,,,,,,25495,,,260735,,,instructions,"[{""page_index"":0,""viewing_time"":7851},{""page_index"":1,""viewing_time"":5522},{""page_index"":2,""viewing_time"":12122}]",158
,,,,,,,,,,,,,16715,,,298217,,,instructions,"[{""page_index"":0,""viewing_time"":14985},{""page_index"":1,""viewing_time"":1036},{""page_index"":2,""viewing_time"":694}]",158
,,,,,,,,,,,,,24621,,,24622,,,instructions,"[{""page_index"":0,""viewing_time"":5688},{""page_index"":1,""viewing_time"":10529},{""page_index"":2,""viewing_time"":4929},{""page_index"":3,""viewing_time"":3473}]",159
,,,,,,,,,,,,,111643,,,111645,,,instructions,"[{""page_index"":0,""viewing_time"":31594},{""page_index"":1,""viewing_time"":50790},{""page_index"":2,""viewing_time"":29257}]",160
,,,,,,,,,,,,,72826,,,72827,,,instructions,"[{""page_index"":0,""viewing_time"":36014},{""page_index"":1,""viewing_time"":20906},{""page_index"":2,""viewing_time"":7760},{""page_index"":3,""viewing_time"":8145}]",161
,,,,,,,,,,,,,84681,,,181326,,,instructions,"[{""page_index"":0,""viewing_time"":14268},{""page_index"":1,""viewing_time"":26331},{""page_index"":2,""viewing_time"":31157},{""page_index"":3,""viewing_time"":8353},{""page_index"":2,""viewing_time"":1126},{""page_index"":3,""viewing_time"":3445}]",161
,,,,,,,,,,,,,152876,,,152877,,,instructions,"[{""page_index"":0,""viewing_time"":9073},{""page_index"":1,""viewing_time"":40587},{""page_index"":2,""viewing_time"":66987},{""page_index"":3,""viewing_time"":36229}]",162
,,,,,,,,,,,,,64746,,,64748,,,instructions,"[{""page_index"":0,""viewing_time"":12861},{""page_index"":1,""viewing_time"":28514},{""page_index"":2,""viewing_time"":23368}]",163
,,,,,,,,,,,,,19514,,,126946,,,instructions,"[{""page_index"":0,""viewing_time"":5829},{""page_index"":1,""viewing_time"":8499},{""page_index"":2,""viewing_time"":5185}]",163
,,,,,,,,,,,,,152277,,,152289,,,instructions,"[{""page_index"":0,""viewing_time"":44268},{""page_index"":1,""viewing_time"":38370},{""page_index"":2,""viewing_time"":41205},{""page_index"":3,""viewing_time"":28422}]",164
,,,,,,,,,,,,,164325,,,164325,,,instructions,"[{""page_index"":0,""viewing_time"":49155},{""page_index"":1,""viewing_time"":34824},{""page_index"":2,""viewing_time"":56074},{""page_index"":3,""viewing_time"":24271}]",165
,,,,,,,,,,,,,203456,,,203457,,,instructions,"[{""page_index"":0,""viewing_time"":54277},{""page_index"":1,""viewing_time"":59273},{""page_index"":2,""viewing_time"":50954},{""page_index"":3,""viewing_time"":38951}]",166
,,,,,,,,,,,,,60519,,,315840,,,instructions,"[{""page_index"":0,""viewing_time"":10751},{""page_index"":1,""viewing_time"":11792},{""page_index"":2,""viewing_time"":29553},{""page_index"":3,""viewing_time"":8423}]",166
,,,,,,,,,,,,,87452,,,437632,,,instructions,"[{""page_index"":0,""viewing_time"":22663},{""page_index"":1,""viewing_time"":23822},{""page_index"":2,""viewing_time"":29200},{""page_index"":3,""viewing_time"":11767}]",166
,,,,,,,,,,,,,160861,,,160861,,,instructions,"[{""page_index"":0,""viewing_time"":43471},{""page_index"":1,""viewing_time"":37518},{""page_index"":2,""viewing_time"":47416},{""page_index"":3,""viewing_time"":32454}]",167
,,,,,,,,,,,,,161625,,,161626,,,instructions,"[{""page_index"":0,""viewing_time"":61352},{""page_index"":1,""viewing_time"":31528},{""page_index"":2,""viewing_time"":37089},{""page_index"":3,""viewing_time"":31655}]",168
,,,,,,,,,,,,,134799,,,134800,,,instructions,"[{""page_index"":0,""viewing_time"":47991},{""page_index"":1,""viewing_time"":36487},{""page_index"":2,""viewing_time"":20368},{""page_index"":3,""viewing_time"":29952}]",169
,,,,,,,,,,,,,170432,,,170434,,,instructions,"[{""page_index"":0,""viewing_time"":65833},{""page_index"":1,""viewing_time"":54945},{""page_index"":2,""viewing_time"":31067},{""page_index"":3,""viewing_time"":18586}]",170
,,,,,,,,,,,,,323285,,,323287,,,instructions,"[{""page_index"":0,""viewing_time"":180488},{""page_index"":1,""viewing_time"":46648},{""page_index"":2,""viewing_time"":56754},{""page_index"":3,""viewing_time"":39395}]",171
,,,,,,,,,,,,,111740,,,111742,,,instructions,"[{""page_index"":0,""viewing_time"":31219},{""page_index"":1,""viewing_time"":10788},{""page_index"":2,""viewing_time"":21202},{""page_index"":1,""viewing_time"":571},{""page_index"":0,""viewing_time"":21168},{""page_index"":1,""viewing_time"":16442},{""page_index"":2,""viewing_time"":10348}]",172
,,,,,,,,,,,,,105830,,,105831,,,instructions,"[{""page_index"":0,""viewing_time"":30004},{""page_index"":1,""viewing_time"":33647},{""page_index"":2,""viewing_time"":25905},{""page_index"":3,""viewing_time"":16272}]",173
,,,,,,,,,,,,,25611,,,167132,,,instructions,"[{""page_index"":0,""viewing_time"":18715},{""page_index"":1,""viewing_time"":2951},{""page_index"":2,""viewing_time"":1849},{""page_index"":3,""viewing_time"":2095}]",173
,,,,,,,,,,,,,7070,,,189829,,,instructions,"[{""page_index"":0,""viewing_time"":3988},{""page_index"":1,""viewing_time"":761},{""page_index"":2,""viewing_time"":1647},{""page_index"":3,""viewing_time"":674}]",173
,,,,,,,,,,,,,36841,,,36842,,,instructions,"[{""page_index"":0,""viewing_time"":10942},{""page_index"":1,""viewing_time"":15566},{""page_index"":2,""viewing_time"":10329}]",174
,,,,,,,,,,,,,24379,,,82205,,,instructions,"[{""page_index"":0,""viewing_time"":10964},{""page_index"":1,""viewing_time"":9639},{""page_index"":2,""viewing_time"":3775}]",174
,,,,,,,,,,,,,97148,,,97149,,,instructions,"[{""page_index"":0,""viewing_time"":24971},{""page_index"":1,""viewing_time"":23855},{""page_index"":2,""viewing_time"":28136},{""page_index"":3,""viewing_time"":20185}]",175
,,,,,,,,,,,,,62273,,,188331,,,instructions,"[{""page_index"":0,""viewing_time"":6865},{""page_index"":1,""viewing_time"":14439},{""page_index"":2,""viewing_time"":18096},{""page_index"":3,""viewing_time"":22872}]",175
,,,,,,,,,,,,,16625,,,261092,,,instructions,"[{""page_index"":0,""viewing_time"":10071},{""page_index"":1,""viewing_time"":1008},{""page_index"":2,""viewing_time"":3472},{""page_index"":3,""viewing_time"":2074}]",175
,,,,,,,,,,,,,31427,,,31429,,,instructions,"[{""page_index"":0,""viewing_time"":11233},{""page_index"":1,""viewing_time"":7346},{""page_index"":2,""viewing_time"":9635},{""page_index"":3,""viewing_time"":3211}]",176
,,,,,,,,,,,,,44389,,,44391,,,instructions,"[{""page_index"":0,""viewing_time"":29627},{""page_index"":1,""viewing_time"":7671},{""page_index"":2,""viewing_time"":7089}]",177
,,,,,,,,,,,,,129066,,,198829,,,instructions,"[{""page_index"":0,""viewing_time"":60039},{""page_index"":1,""viewing_time"":51223},{""page_index"":2,""viewing_time"":17802}]",177
,,,,,,,,,,,,,130426,,,347966,,,instructions,"[{""page_index"":0,""viewing_time"":125481},{""page_index"":1,""viewing_time"":2704},{""page_index"":2,""viewing_time"":2240}]",177
,,,,,,,,,,,,,238750,,,238751,,,instructions,"[{""page_index"":0,""viewing_time"":80296},{""page_index"":1,""viewing_time"":44744},{""page_index"":2,""viewing_time"":67382},{""page_index"":3,""viewing_time"":46327}]",178
,,,,,,,,,,,,,92088,,,412268,,,instructions,"[{""page_index"":0,""viewing_time"":17601},{""page_index"":1,""viewing_time"":32871},{""page_index"":2,""viewing_time"":39376},{""page_index"":3,""viewing_time"":2239}]",178
,,,,,,,,,,,,,121061,,,121062,,,instructions,"[{""page_index"":0,""viewing_time"":48432},{""page_index"":1,""viewing_time"":26384},{""page_index"":2,""viewing_time"":23771},{""page_index"":3,""viewing_time"":22474}]",179
,,,,,,,,,,,,,196691,,,196693,,,instructions,"[{""page_index"":0,""viewing_time"":67667},{""page_index"":1,""viewing_time"":30594},{""page_index"":2,""viewing_time"":8252},{""page_index"":1,""viewing_time"":44290},{""page_index"":2,""viewing_time"":4335},{""page_index"":3,""viewing_time"":41552}]",180
,,,,,,,,,,,,,99316,,,364261,,,instructions,"[{""page_index"":0,""viewing_time"":21681},{""page_index"":1,""viewing_time"":20543},{""page_index"":2,""viewing_time"":32473},{""page_index"":3,""viewing_time"":24617}]",180
,,,,,,,,,,,,,217680,,,217685,,,instructions,"[{""page_index"":0,""viewing_time"":49529},{""page_index"":1,""viewing_time"":39574},{""page_index"":2,""viewing_time"":73327},{""page_index"":3,""viewing_time"":55248}]",181
,,,,,,,,,,,,,187734,,,187736,,,instructions,"[{""page_index"":0,""viewing_time"":79213},{""page_index"":1,""viewing_time"":65275},{""page_index"":2,""viewing_time"":43245}]",182
,,,,,,,,,,,,,211284,,,211287,,,instructions,"[{""page_index"":0,""viewing_time"":122538},{""page_index"":1,""viewing_time"":24895},{""page_index"":2,""viewing_time"":36963},{""page_index"":3,""viewing_time"":26887}]",183
,,,,,,,,,,,,,17199,,,275480,,,instructions,"[{""page_index"":0,""viewing_time"":12734},{""page_index"":1,""viewing_time"":2056},{""page_index"":2,""viewing_time"":1168},{""page_index"":3,""viewing_time"":1240}]",183
,,,,,,,,,,,,,89728,,,89735,,,instructions,"[{""page_index"":0,""viewing_time"":37298},{""page_index"":1,""viewing_time"":38694},{""page_index"":2,""viewing_time"":13731}]",184
,,,,,,,,,,,,,142526,,,142526,,,instructions,"[{""page_index"":0,""viewing_time"":45006},{""page_index"":1,""viewing_time"":44938},{""page_index"":2,""viewing_time"":27438},{""page_index"":3,""viewing_time"":25142}]",185
,,,,,,,,,,,,,691422,,,691426,,,instructions,"[{""page_index"":0,""viewing_time"":269970},{""page_index"":1,""viewing_time"":308706},{""page_index"":2,""viewing_time"":112739}]",186
,,,,,,,,,,,,,168899,,,168900,,,instructions,"[{""page_index"":0,""viewing_time"":41736},{""page_index"":1,""viewing_time"":43102},{""page_index"":2,""viewing_time"":54215},{""page_index"":3,""viewing_time"":29845}]",187
,,,,,,,,,,,,,243311,,,243311,,,instructions,"[{""page_index"":0,""viewing_time"":38089},{""page_index"":1,""viewing_time"":56855},{""page_index"":2,""viewing_time"":32864},{""page_index"":3,""viewing_time"":115501}]",188
,,,,,,,,,,,,,100747,,,100749,,,instructions,"[{""page_index"":0,""viewing_time"":24137},{""page_index"":1,""viewing_time"":40312},{""page_index"":2,""viewing_time"":36297}]",189
,,,,,,,,,,,,,142463,,,142467,,,instructions,"[{""page_index"":0,""viewing_time"":64165},{""page_index"":1,""viewing_time"":46400},{""page_index"":2,""viewing_time"":31896}]",190
,,,,,,,,,,,,,121229,,,121232,,,instructions,"[{""page_index"":0,""viewing_time"":74324},{""page_index"":1,""viewing_time"":15},{""page_index"":0,""viewing_time"":2272},{""page_index"":1,""viewing_time"":14136},{""page_index"":2,""viewing_time"":7424},{""page_index"":3,""viewing_time"":23057}]",191
,,,,,,,,,,,,,101376,,,277327,,,instructions,"[{""page_index"":0,""viewing_time"":20454},{""page_index"":1,""viewing_time"":38810},{""page_index"":2,""viewing_time"":33623},{""page_index"":3,""viewing_time"":8488}]",191
,,,,,,,,,,,,,121755,,,121756,,,instructions,"[{""page_index"":0,""viewing_time"":30701},{""page_index"":1,""viewing_time"":24519},{""page_index"":2,""viewing_time"":23663},{""page_index"":3,""viewing_time"":9672},{""page_index"":2,""viewing_time"":808},{""page_index"":1,""viewing_time"":21591},{""page_index"":2,""viewing_time"":1912},{""page_index"":3,""viewing_time"":8887}]",192
,,,,,,,,,,,,,24305,,,169730,,,instructions,"[{""page_index"":0,""viewing_time"":2217},{""page_index"":1,""viewing_time"":928},{""page_index"":2,""viewing_time"":9408},{""page_index"":3,""viewing_time"":11751}]",192
,,,,,,,,,,,,,152544,,,152547,,,instructions,"[{""page_index"":0,""viewing_time"":46566},{""page_index"":1,""viewing_time"":34565},{""page_index"":2,""viewing_time"":45252},{""page_index"":3,""viewing_time"":26159}]",193
,,,,,,,,,,,,,168433,,,168435,,,instructions,"[{""page_index"":0,""viewing_time"":48128},{""page_index"":1,""viewing_time"":43983},{""page_index"":2,""viewing_time"":43808},{""page_index"":3,""viewing_time"":32512}]",194
,,,,,,,,,,,,,135590,,,135591,,,instructions,"[{""page_index"":0,""viewing_time"":39716},{""page_index"":1,""viewing_time"":30704},{""page_index"":2,""viewing_time"":35809},{""page_index"":3,""viewing_time"":29359}]",195
,,,,,,,,,,,,,136716,,,136717,,,instructions,"[{""page_index"":0,""viewing_time"":54268},{""page_index"":1,""viewing_time"":33175},{""page_index"":2,""viewing_time"":26312},{""page_index"":3,""viewing_time"":22960}]",196
,,,,,,,,,,,,,8683,,,174208,,,instructions,"[{""page_index"":0,""viewing_time"":3648},{""page_index"":1,""viewing_time"":1456},{""page_index"":2,""viewing_time"":1086},{""page_index"":3,""viewing_time"":2492}]",196
,,,,,,,,,,,,,274587,,,274589,,,instructions,"[{""page_index"":0,""viewing_time"":103666},{""page_index"":1,""viewing_time"":43632},{""page_index"":2,""viewing_time"":20504},{""page_index"":3,""viewing_time"":24675},{""page_index"":2,""viewing_time"":51737},{""page_index"":1,""viewing_time"":3128},{""page_index"":2,""viewing_time"":3260},{""page_index"":1,""viewing_time"":6205},{""page_index"":0,""viewing_time"":1875},{""page_index"":1,""viewing_time"":1368},{""page_index"":2,""viewing_time"":1288},{""page_index"":3,""viewing_time"":13249}]",197
,,,,,,,,,,,,,102796,,,102797,,,instructions,"[{""page_index"":0,""viewing_time"":56835},{""page_index"":1,""viewing_time"":4486},{""page_index"":2,""viewing_time"":4979},{""page_index"":1,""viewing_time"":12122},{""page_index"":2,""viewing_time"":4954},{""page_index"":3,""viewing_time"":19419}]",198
,,,,,,,,,,,,,172607,,,172608,,,instructions,"[{""page_index"":0,""viewing_time"":48179},{""page_index"":1,""viewing_time"":92460},{""page_index"":2,""viewing_time"":31968}]",199
,,,,,,,,,,,,,394640,,,394642,,,instructions,"[{""page_index"":0,""viewing_time"":44045},{""page_index"":1,""viewing_time"":161722},{""page_index"":2,""viewing_time"":43982},{""page_index"":3,""viewing_time"":144888}]",200
,,,,,,,,,,,,,22620,,,446624,,,instructions,"[{""page_index"":0,""viewing_time"":4186},{""page_index"":1,""viewing_time"":5752},{""page_index"":2,""viewing_time"":8977},{""page_index"":3,""viewing_time"":3704}]",200
,,,,,,,,,,,,,56751,,,530077,,,instructions,"[{""page_index"":0,""viewing_time"":7524},{""page_index"":1,""viewing_time"":22244},{""page_index"":2,""viewing_time"":19051},{""page_index"":3,""viewing_time"":7931}]",200
,,,,,,,,,,,,,149390,,,149392,,,instructions,"[{""page_index"":0,""viewing_time"":54138},{""page_index"":1,""viewing_time"":61526},{""page_index"":2,""viewing_time"":33725}]",201
,,,,,,,,,,,,,106347,,,106349,,,instructions,"[{""page_index"":0,""viewing_time"":36459},{""page_index"":1,""viewing_time"":35240},{""page_index"":2,""viewing_time"":34646}]",202
,,,,,,,,,,,,,145950,,,145951,,,instructions,"[{""page_index"":0,""viewing_time"":42707},{""page_index"":1,""viewing_time"":32416},{""page_index"":2,""viewing_time"":45444},{""page_index"":3,""viewing_time"":25383}]",203
,,,,,,,,,,,,,98939,,,98941,,,instructions,"[{""page_index"":0,""viewing_time"":1237},{""page_index"":1,""viewing_time"":22198},{""page_index"":2,""viewing_time"":75504}]",204
,,,,,,,,,,,,,35517,,,151616,,,instructions,"[{""page_index"":0,""viewing_time"":12824},{""page_index"":1,""viewing_time"":10801},{""page_index"":2,""viewing_time"":11891}]",204
,,,,,,,,,,,,,232143,,,232144,,,instructions,"[{""page_index"":0,""viewing_time"":173630},{""page_index"":1,""viewing_time"":36646},{""page_index"":2,""viewing_time"":21866}]",205
,,,,,,,,,,,,,74766,,,74768,,,instructions,"[{""page_index"":0,""viewing_time"":46545},{""page_index"":1,""viewing_time"":11326},{""page_index"":2,""viewing_time"":16894}]",206
,,,,,,,,,,,,,36948,,,140615,,,instructions,"[{""page_index"":0,""viewing_time"":26661},{""page_index"":1,""viewing_time"":7783},{""page_index"":2,""viewing_time"":2503}]",206
,,,,,,,,,,,,,28287,,,190357,,,instructions,"[{""page_index"":0,""viewing_time"":3513},{""page_index"":1,""viewing_time"":4308},{""page_index"":2,""viewing_time"":20465}]",206
,,,,,,,,,,,,,34559,,,248005,,,instructions,"[{""page_index"":0,""viewing_time"":17252},{""page_index"":1,""viewing_time"":7902},{""page_index"":2,""viewing_time"":9405}]",206
,,,,,,,,,,,,,32327,,,301103,,,instructions,"[{""page_index"":0,""viewing_time"":4631},{""page_index"":1,""viewing_time"":19645},{""page_index"":2,""viewing_time"":8050}]",206
,,,,,,,,,,,,,53113,,,53116,,,instructions,"[{""page_index"":0,""viewing_time"":12809},{""page_index"":1,""viewing_time"":30383},{""page_index"":2,""viewing_time"":4616},{""page_index"":3,""viewing_time"":5302}]",207
,,,,,,,,,,,,,98669,,,182175,,,instructions,"[{""page_index"":0,""viewing_time"":29662},{""page_index"":1,""viewing_time"":9907},{""page_index"":2,""viewing_time"":41889},{""page_index"":3,""viewing_time"":17209}]",207
,,,,,,,,,,,,,22407,,,225071,,,instructions,"[{""page_index"":0,""viewing_time"":6963},{""page_index"":1,""viewing_time"":7849},{""page_index"":2,""viewing_time"":4634},{""page_index"":3,""viewing_time"":2960}]",207
,,,,,,,,,,,,,12372,,,253414,,,instructions,"[{""page_index"":0,""viewing_time"":1794},{""page_index"":1,""viewing_time"":5649},{""page_index"":2,""viewing_time"":2436},{""page_index"":3,""viewing_time"":2492}]",207
,,,,,,,,,,,,,67082,,,67084,,,instructions,"[{""page_index"":0,""viewing_time"":6006},{""page_index"":1,""viewing_time"":9504},{""page_index"":2,""viewing_time"":7138},{""page_index"":3,""viewing_time"":16055},{""page_index"":2,""viewing_time"":839},{""page_index"":1,""viewing_time"":701},{""page_index"":0,""viewing_time"":665},{""page_index"":1,""viewing_time"":1245},{""page_index"":0,""viewing_time"":8665},{""page_index"":1,""viewing_time"":7477},{""page_index"":2,""viewing_time"":5746},{""page_index"":3,""viewing_time"":3038}]",208
,,,,,,,,,,,,,151532,,,151534,,,instructions,"[{""page_index"":0,""viewing_time"":64216},{""page_index"":1,""viewing_time"":54559},{""page_index"":2,""viewing_time"":32755}]",209
,,,,,,,,,,,,,229640,,,229642,,,instructions,"[{""page_index"":0,""viewing_time"":61007},{""page_index"":1,""viewing_time"":68393},{""page_index"":2,""viewing_time"":52658},{""page_index"":3,""viewing_time"":47581}]",210
,,,,,,,,,,,,,138702,,,138704,,,instructions,"[{""page_index"":0,""viewing_time"":52664},{""page_index"":1,""viewing_time"":33787},{""page_index"":2,""viewing_time"":25277},{""page_index"":3,""viewing_time"":26972}]",211
,,,,,,,,,,,,,100698,,,276563,,,instructions,"[{""page_index"":0,""viewing_time"":22338},{""page_index"":1,""viewing_time"":21365},{""page_index"":0,""viewing_time"":12118},{""page_index"":1,""viewing_time"":2035},{""page_index"":2,""viewing_time"":25788},{""page_index"":3,""viewing_time"":17052}]",211
,,,,,,,,,,,,,159561,,,159562,,,instructions,"[{""page_index"":0,""viewing_time"":45237},{""page_index"":1,""viewing_time"":48236},{""page_index"":2,""viewing_time"":41401},{""page_index"":3,""viewing_time"":24686}]",212
,,,,,,,,,,,,,8141,,,202550,,,instructions,"[{""page_index"":0,""viewing_time"":2094},{""page_index"":1,""viewing_time"":2047},{""page_index"":2,""viewing_time"":1913},{""page_index"":3,""viewing_time"":2087}]",212
,,,,,,,,,,,,,76119,,,76121,,,instructions,"[{""page_index"":0,""viewing_time"":39896},{""page_index"":1,""viewing_time"":21855},{""page_index"":2,""viewing_time"":14368}]",213
,,,,,,,,,,,,,48562,,,48562,,,instructions,"[{""page_index"":0,""viewing_time"":14168},{""page_index"":1,""viewing_time"":17716},{""page_index"":2,""viewing_time"":16678}]",214
,,,,,,,,,,,,,31940,,,113589,,,instructions,"[{""page_index"":0,""viewing_time"":9473},{""page_index"":1,""viewing_time"":14067},{""page_index"":2,""viewing_time"":8400}]",214
,,,,,,,,,,,,,8648,,,140148,,,instructions,"[{""page_index"":0,""viewing_time"":6450},{""page_index"":1,""viewing_time"":1455},{""page_index"":2,""viewing_time"":733}]",214
,,,,,,,,,,,,,307752,,,307753,,,instructions,"[{""page_index"":0,""viewing_time"":82931},{""page_index"":1,""viewing_time"":57386},{""page_index"":2,""viewing_time"":125771},{""page_index"":3,""viewing_time"":41662}]",215
,,,,,,,,,,,,,99117,,,99118,,,instructions,"[{""page_index"":0,""viewing_time"":39461},{""page_index"":1,""viewing_time"":17472},{""page_index"":2,""viewing_time"":28645},{""page_index"":3,""viewing_time"":13537}]",216
,,,,,,,,,,,,,128838,,,128839,,,instructions,"[{""page_index"":0,""viewing_time"":43632},{""page_index"":1,""viewing_time"":55654},{""page_index"":2,""viewing_time"":29551}]",217
,,,,,,,,,,,,,216092,,,216094,,,instructions,"[{""page_index"":0,""viewing_time"":85113},{""page_index"":1,""viewing_time"":57369},{""page_index"":2,""viewing_time"":34585},{""page_index"":3,""viewing_time"":39023}]",218
,,,,,,,,,,,,,73228,,,355712,,,instructions,"[{""page_index"":0,""viewing_time"":15090},{""page_index"":1,""viewing_time"":46330},{""page_index"":2,""viewing_time"":10975},{""page_index"":3,""viewing_time"":833}]",218
,,,,,,,,,,,,,111129,,,111131,,,instructions,"[{""page_index"":0,""viewing_time"":25985},{""page_index"":1,""viewing_time"":40827},{""page_index"":2,""viewing_time"":28355},{""page_index"":3,""viewing_time"":15960}]",219
,,,,,,,,,,,,,346768,,,346769,,,instructions,"[{""page_index"":0,""viewing_time"":35505},{""page_index"":1,""viewing_time"":37394},{""page_index"":0,""viewing_time"":152669},{""page_index"":1,""viewing_time"":46183},{""page_index"":2,""viewing_time"":75016}]",220
,,,,,,,,,,,,,16845,,,399153,,,instructions,"[{""page_index"":0,""viewing_time"":14469},{""page_index"":1,""viewing_time"":744},{""page_index"":2,""viewing_time"":1631}]",220
,,,,,,,,,,,,,65215,,,480505,,,instructions,"[{""page_index"":0,""viewing_time"":57200},{""page_index"":1,""viewing_time"":6847},{""page_index"":2,""viewing_time"":1168}]",220
,,,,,,,,,,,,,200884,,,200885,,,instructions,"[{""page_index"":0,""viewing_time"":73824},{""page_index"":1,""viewing_time"":71959},{""page_index"":2,""viewing_time"":55100}]",221
,,,,,,,,,,,,,107410,,,107411,,,instructions,"[{""page_index"":0,""viewing_time"":31342},{""page_index"":1,""viewing_time"":11635},{""page_index"":2,""viewing_time"":1183},{""page_index"":1,""viewing_time"":8079},{""page_index"":2,""viewing_time"":32336},{""page_index"":3,""viewing_time"":22835}]",222
,,,,,,,,,,,,,16253,,,165660,,,instructions,"[{""page_index"":0,""viewing_time"":8521},{""page_index"":1,""viewing_time"":4441},{""page_index"":2,""viewing_time"":1842},{""page_index"":3,""viewing_time"":1449}]",222
,,,,,,,,,,,,,249074,,,249077,,,instructions,"[{""page_index"":0,""viewing_time"":137057},{""page_index"":1,""viewing_time"":42064},{""page_index"":2,""viewing_time"":35665},{""page_index"":3,""viewing_time"":34284}]",223
,,,,,,,,,,,,,191028,,,593176,,,instructions,"[{""page_index"":0,""viewing_time"":152642},{""page_index"":1,""viewing_time"":3753},{""page_index"":2,""viewing_time"":22842},{""page_index"":3,""viewing_time"":11789}]",223
,,,,,,,,,,,,,203821,,,203821,,,instructions,"[{""page_index"":0,""viewing_time"":96052},{""page_index"":1,""viewing_time"":70724},{""page_index"":2,""viewing_time"":37044}]",224
,,,,,,,,,,,,,17886,,,279133,,,instructions,"[{""page_index"":0,""viewing_time"":13666},{""page_index"":1,""viewing_time"":1911},{""page_index"":2,""viewing_time"":2308}]",224
,,,,,,,,,,,,,92793,,,92794,,,instructions,"[{""page_index"":0,""viewing_time"":40389},{""page_index"":1,""viewing_time"":16551},{""page_index"":2,""viewing_time"":13504},{""page_index"":3,""viewing_time"":22349}]",225
,,,,,,,,,,,,,52565,,,52565,,,instructions,"[{""page_index"":0,""viewing_time"":15839},{""page_index"":1,""viewing_time"":18608},{""page_index"":2,""viewing_time"":18115}]",226
,,,,,,,,,,,,,128938,,,128940,,,instructions,"[{""page_index"":0,""viewing_time"":54904},{""page_index"":1,""viewing_time"":45465},{""page_index"":2,""viewing_time"":28567}]",227
,,,,,,,,,,,,,288411,,,288414,,,instructions,"[{""page_index"":0,""viewing_time"":103726},{""page_index"":1,""viewing_time"":87354},{""page_index"":2,""viewing_time"":59204},{""page_index"":3,""viewing_time"":38125}]",228
,,,,,,,,,,,,,106038,,,475059,,,instructions,"[{""page_index"":0,""viewing_time"":26873},{""page_index"":1,""viewing_time"":37656},{""page_index"":2,""viewing_time"":27407},{""page_index"":3,""viewing_time"":14101}]",228
,,,,,,,,,,,,,83747,,,591783,,,instructions,"[{""page_index"":0,""viewing_time"":43920},{""page_index"":1,""viewing_time"":19061},{""page_index"":2,""viewing_time"":8373},{""page_index"":3,""viewing_time"":12392}]",228
,,,,,,,,,,,,,158461,,,782879,,,instructions,"[{""page_index"":0,""viewing_time"":44189},{""page_index"":1,""viewing_time"":41281},{""page_index"":2,""viewing_time"":68981},{""page_index"":3,""viewing_time"":4009}]",228
,,,,,,,,,,,,,8336,,,8339,,,instructions,"[{""page_index"":0,""viewing_time"":5469},{""page_index"":1,""viewing_time"":1204},{""page_index"":2,""viewing_time"":874},{""page_index"":3,""viewing_time"":786}]",228
,,,,,,,,,,,,,7394,,,49365,,,instructions,"[{""page_index"":0,""viewing_time"":4687},{""page_index"":1,""viewing_time"":710},{""page_index"":2,""viewing_time"":906},{""page_index"":3,""viewing_time"":1090}]",228
,,,,,,,,,,,,,1614019,,,1614019,,,instructions,"[{""page_index"":0,""viewing_time"":1117742},{""page_index"":1,""viewing_time"":469917},{""page_index"":2,""viewing_time"":26359}]",229
,,,,,,,,,,,,,119483,,,119485,,,instructions,"[{""page_index"":0,""viewing_time"":50740},{""page_index"":1,""viewing_time"":38935},{""page_index"":2,""viewing_time"":29808}]",230
,,,,,,,,,,,,,67831,,,67832,,,instructions,"[{""page_index"":0,""viewing_time"":18823},{""page_index"":1,""viewing_time"":21963},{""page_index"":2,""viewing_time"":17084},{""page_index"":3,""viewing_time"":9961}]",231
,,,,,,,,,,,,,48234,,,48237,,,instructions,"[{""page_index"":0,""viewing_time"":26243},{""page_index"":1,""viewing_time"":9799},{""page_index"":2,""viewing_time"":5500},{""page_index"":3,""viewing_time"":6677}]",232
,,,,,,,,,,,,,84287,,,155561,,,instructions,"[{""page_index"":0,""viewing_time"":16328},{""page_index"":1,""viewing_time"":27743},{""page_index"":2,""viewing_time"":25168},{""page_index"":3,""viewing_time"":15048}]",232
,,,,,,,,,,,,,80252,,,80253,,,instructions,"[{""page_index"":0,""viewing_time"":18708},{""page_index"":1,""viewing_time"":14157},{""page_index"":2,""viewing_time"":22200},{""page_index"":3,""viewing_time"":25187}]",233
,,,,,,,,,,,,,342932,,,342934,,,instructions,"[{""page_index"":0,""viewing_time"":66300},{""page_index"":1,""viewing_time"":183946},{""page_index"":2,""viewing_time"":54190},{""page_index"":3,""viewing_time"":38495}]",234
,,,,,,,,,,,,,91284,,,91286,,,instructions,"[{""page_index"":0,""viewing_time"":31468},{""page_index"":1,""viewing_time"":21928},{""page_index"":2,""viewing_time"":17168},{""page_index"":3,""viewing_time"":20720}]",235
,,,,,,,,,,,,,30351,,,154533,,,instructions,"[{""page_index"":0,""viewing_time"":16087},{""page_index"":1,""viewing_time"":10384},{""page_index"":2,""viewing_time"":2592},{""page_index"":3,""viewing_time"":1288}]",235
,,,,,,,,,,,,,40534,,,211909,,,instructions,"[{""page_index"":0,""viewing_time"":11302},{""page_index"":1,""viewing_time"":7824},{""page_index"":2,""viewing_time"":12104},{""page_index"":3,""viewing_time"":9304}]",235
,,,,,,,,,,,,,209148,,,209149,,,instructions,"[{""page_index"":0,""viewing_time"":87005},{""page_index"":1,""viewing_time"":71103},{""page_index"":2,""viewing_time"":50959},{""page_index"":3,""viewing_time"":79}]",236
,,,,,,,,,,,,,141179,,,141181,,,instructions,"[{""page_index"":0,""viewing_time"":28133},{""page_index"":1,""viewing_time"":23926},{""page_index"":2,""viewing_time"":59138},{""page_index"":3,""viewing_time"":29981}]",237
,,,,,,,,,,,,,167105,,,167107,,,instructions,"[{""page_index"":0,""viewing_time"":42486},{""page_index"":1,""viewing_time"":23578},{""page_index"":0,""viewing_time"":11939},{""page_index"":1,""viewing_time"":855},{""page_index"":2,""viewing_time"":67770},{""page_index"":3,""viewing_time"":20475}]",238
,,,,,,,,,,,,,72496,,,292801,,,instructions,"[{""page_index"":0,""viewing_time"":41828},{""page_index"":1,""viewing_time"":12207},{""page_index"":2,""viewing_time"":15421},{""page_index"":3,""viewing_time"":3039}]",238
,,,,,,,,,,,,,102623,,,415837,,,instructions,"[{""page_index"":0,""viewing_time"":86577},{""page_index"":1,""viewing_time"":10827},{""page_index"":2,""viewing_time"":3830},{""page_index"":3,""viewing_time"":1388}]",238
,,,,,,,,,,,,,124076,,,124078,,,instructions,"[{""page_index"":0,""viewing_time"":72021},{""page_index"":1,""viewing_time"":27403},{""page_index"":2,""viewing_time"":24650}]",239
,,,,,,,,,,,,,50003,,,50004,,,instructions,"[{""page_index"":0,""viewing_time"":15475},{""page_index"":1,""viewing_time"":14390},{""page_index"":2,""viewing_time"":20137}]",240
,,,,,,,,,,,,,86955,,,161257,,,instructions,"[{""page_index"":0,""viewing_time"":25819},{""page_index"":1,""viewing_time"":57806},{""page_index"":2,""viewing_time"":3330}]",240
,,,,,,,,,,,,,69928,,,69929,,,instructions,"[{""page_index"":0,""viewing_time"":20376},{""page_index"":1,""viewing_time"":14807},{""page_index"":2,""viewing_time"":17455},{""page_index"":3,""viewing_time"":17289}]",241
,,,,,,,,,,,,,180379,,,180381,,,instructions,"[{""page_index"":0,""viewing_time"":33420},{""page_index"":1,""viewing_time"":50198},{""page_index"":2,""viewing_time"":82512},{""page_index"":3,""viewing_time"":14248}]",242
,,,,,,,,,,,,,89671,,,89671,,,instructions,"[{""page_index"":0,""viewing_time"":33250},{""page_index"":1,""viewing_time"":31484},{""page_index"":2,""viewing_time"":24936}]",243
,,,,,,,,,,,,,82513,,,82513,,,instructions,"[{""page_index"":0,""viewing_time"":32449},{""page_index"":1,""viewing_time"":23901},{""page_index"":2,""viewing_time"":10789},{""page_index"":3,""viewing_time"":15371}]",244
,,,,,,,,,,,,,83771,,,197132,,,instructions,"[{""page_index"":0,""viewing_time"":25853},{""page_index"":1,""viewing_time"":24966},{""page_index"":2,""viewing_time"":21699},{""page_index"":3,""viewing_time"":11250}]",244
,,,,,,,,,,,,,86272,,,315579,,,instructions,"[{""page_index"":0,""viewing_time"":44598},{""page_index"":1,""viewing_time"":16640},{""page_index"":2,""viewing_time"":15352},{""page_index"":3,""viewing_time"":9682}]",244
,,,,,,,,,,,,,187142,,,187143,,,instructions,"[{""page_index"":0,""viewing_time"":41891},{""page_index"":1,""viewing_time"":34290},{""page_index"":0,""viewing_time"":5040},{""page_index"":1,""viewing_time"":5960},{""page_index"":2,""viewing_time"":69056},{""page_index"":3,""viewing_time"":30903}]",245
,,,,,,,,,,,,,136309,,,136312,,,instructions,"[{""page_index"":0,""viewing_time"":75554},{""page_index"":1,""viewing_time"":25758},{""page_index"":0,""viewing_time"":19122},{""page_index"":1,""viewing_time"":2070},{""page_index"":2,""viewing_time"":11552},{""page_index"":1,""viewing_time"":1584},{""page_index"":2,""viewing_time"":656}]",246
,,,,,,,,,,,,,281903,,,479198,,,instructions,"[{""page_index"":0,""viewing_time"":60484},{""page_index"":1,""viewing_time"":1372},{""page_index"":0,""viewing_time"":2941},{""page_index"":1,""viewing_time"":112650},{""page_index"":2,""viewing_time"":104455}]",246
,,,,,,,,,,,,,115900,,,115902,,,instructions,"[{""page_index"":0,""viewing_time"":8936},{""page_index"":1,""viewing_time"":48035},{""page_index"":2,""viewing_time"":53613},{""page_index"":3,""viewing_time"":5315}]",247
,,,,,,,,,,,,,58060,,,261129,,,instructions,"[{""page_index"":0,""viewing_time"":3889},{""page_index"":1,""viewing_time"":10148},{""page_index"":2,""viewing_time"":13009},{""page_index"":3,""viewing_time"":31012}]",247
,,,,,,,,,,,,,166014,,,453431,,,instructions,"[{""page_index"":0,""viewing_time"":29234},{""page_index"":1,""viewing_time"":36342},{""page_index"":2,""viewing_time"":52844},{""page_index"":3,""viewing_time"":47593}]",247
,,,,,,,,,,,,,32356,,,556413,,,instructions,"[{""page_index"":0,""viewing_time"":7139},{""page_index"":1,""viewing_time"":11485},{""page_index"":2,""viewing_time"":5476},{""page_index"":3,""viewing_time"":8255}]",247
,,,,,,,,,,,,,203024,,,819484,,,instructions,"[{""page_index"":0,""viewing_time"":9261},{""page_index"":1,""viewing_time"":96301},{""page_index"":2,""viewing_time"":45028},{""page_index"":3,""viewing_time"":52433}]",247
,,,,,,,,,,,,,11745,,,885912,,,instructions,"[{""page_index"":0,""viewing_time"":4501},{""page_index"":1,""viewing_time"":3902},{""page_index"":2,""viewing_time"":2413},{""page_index"":3,""viewing_time"":929}]",247
,,,,,,,,,,,,,37944,,,981346,,,instructions,"[{""page_index"":0,""viewing_time"":19942},{""page_index"":1,""viewing_time"":2307},{""page_index"":2,""viewing_time"":1686},{""page_index"":3,""viewing_time"":14008}]",247
,,,,,,,,,,,,,158013,,,1171624,,,instructions,"[{""page_index"":0,""viewing_time"":19564},{""page_index"":1,""viewing_time"":94709},{""page_index"":2,""viewing_time"":23456},{""page_index"":3,""viewing_time"":20283}]",247
,,,,,,,,,,,,,67645,,,1299141,,,instructions,"[{""page_index"":0,""viewing_time"":58970},{""page_index"":1,""viewing_time"":6168},{""page_index"":2,""viewing_time"":1714},{""page_index"":3,""viewing_time"":792}]",247
,,,,,,,,,,,,,4634,,,1324470,,,instructions,"[{""page_index"":0,""viewing_time"":2095},{""page_index"":1,""viewing_time"":644},{""page_index"":2,""viewing_time"":1294},{""page_index"":3,""viewing_time"":600}]",247
,,,,,,,,,,,,,75906,,,1421617,,,instructions,"[{""page_index"":0,""viewing_time"":5238},{""page_index"":1,""viewing_time"":1803},{""page_index"":2,""viewing_time"":64443},{""page_index"":3,""viewing_time"":4421}]",247
,,,,,,,,,,,,,37480,,,37484,,,instructions,"[{""page_index"":0,""viewing_time"":8449},{""page_index"":1,""viewing_time"":10994},{""page_index"":2,""viewing_time"":18034}]",248
,,,,,,,,,,,,,226294,,,226294,,,instructions,"[{""page_index"":0,""viewing_time"":66918},{""page_index"":1,""viewing_time"":42160},{""page_index"":2,""viewing_time"":76375},{""page_index"":3,""viewing_time"":40840}]",249
,,,,,,,,,,,,,32893,,,306734,,,instructions,"[{""page_index"":0,""viewing_time"":2908},{""page_index"":1,""viewing_time"":14104},{""page_index"":2,""viewing_time"":15112},{""page_index"":3,""viewing_time"":768}]",249
,,,,,,,,,,,,,101048,,,101048,,,instructions,"[{""page_index"":0,""viewing_time"":31972},{""page_index"":1,""viewing_time"":44802},{""page_index"":2,""viewing_time"":24273}]",250
,,,,,,,,,,,,,380514,,,380514,,,instructions,"[{""page_index"":0,""viewing_time"":49842},{""page_index"":1,""viewing_time"":252515},{""page_index"":2,""viewing_time"":47093},{""page_index"":3,""viewing_time"":31063}]",251
,,,,,,,,,,,,,88397,,,88399,,,instructions,"[{""page_index"":0,""viewing_time"":34878},{""page_index"":1,""viewing_time"":28729},{""page_index"":2,""viewing_time"":24788}]",252
,,,,,,,,,,,,,69150,,,69151,,,instructions,"[{""page_index"":0,""viewing_time"":9436},{""page_index"":1,""viewing_time"":10865},{""page_index"":2,""viewing_time"":35725},{""page_index"":3,""viewing_time"":13123}]",253
,,,,,,,,,,,,,47396,,,149363,,,instructions,"[{""page_index"":0,""viewing_time"":3446},{""page_index"":1,""viewing_time"":24863},{""page_index"":2,""viewing_time"":12263},{""page_index"":3,""viewing_time"":6823}]",253
,,,,,,,,,,,,,248648,,,248650,,,instructions,"[{""page_index"":0,""viewing_time"":123996},{""page_index"":1,""viewing_time"":67817},{""page_index"":2,""viewing_time"":26463},{""page_index"":3,""viewing_time"":30370}]",254
,,,,,,,,,,,,,90912,,,378160,,,instructions,"[{""page_index"":0,""viewing_time"":13903},{""page_index"":1,""viewing_time"":13179},{""page_index"":2,""viewing_time"":42026},{""page_index"":3,""viewing_time"":21803}]",254
,,,,,,,,,,,,,198533,,,198535,,,instructions,"[{""page_index"":0,""viewing_time"":70593},{""page_index"":1,""viewing_time"":49893},{""page_index"":2,""viewing_time"":49301},{""page_index"":3,""viewing_time"":28744}]",255
,,,,,,,,,,,,,176374,,,176374,,,instructions,"[{""page_index"":0,""viewing_time"":53686},{""page_index"":1,""viewing_time"":46358},{""page_index"":2,""viewing_time"":51785},{""page_index"":3,""viewing_time"":24544}]",256
,,,,,,,,,,,,,190309,,,190311,,,instructions,"[{""page_index"":0,""viewing_time"":65861},{""page_index"":1,""viewing_time"":40124},{""page_index"":2,""viewing_time"":55715},{""page_index"":3,""viewing_time"":28607}]",257
,,,,,,,,,,,,,117290,,,117291,,,instructions,"[{""page_index"":0,""viewing_time"":32763},{""page_index"":1,""viewing_time"":39119},{""page_index"":2,""viewing_time"":28160},{""page_index"":3,""viewing_time"":17248}]",258
,,,,,,,,,,,,,42611,,,42614,,,instructions,"[{""page_index"":0,""viewing_time"":16618},{""page_index"":1,""viewing_time"":11017},{""page_index"":2,""viewing_time"":11751},{""page_index"":3,""viewing_time"":3223}]",259
,,,,,,,,,,,,,29647,,,92290,,,instructions,"[{""page_index"":0,""viewing_time"":4104},{""page_index"":1,""viewing_time"":5686},{""page_index"":2,""viewing_time"":14645},{""page_index"":3,""viewing_time"":5211}]",259
,,,,,,,,,,,,,228117,,,228120,,,instructions,"[{""page_index"":0,""viewing_time"":92209},{""page_index"":1,""viewing_time"":38616},{""page_index"":0,""viewing_time"":7727},{""page_index"":1,""viewing_time"":10693},{""page_index"":2,""viewing_time"":38365},{""page_index"":3,""viewing_time"":40507}]",260
,,,,,,,,,,,,,298071,,,298072,,,instructions,"[{""page_index"":0,""viewing_time"":177495},{""page_index"":1,""viewing_time"":69374},{""page_index"":2,""viewing_time"":51201}]",261
,,,,,,,,,,,,,70495,,,450229,,,instructions,"[{""page_index"":0,""viewing_time"":44319},{""page_index"":1,""viewing_time"":22682},{""page_index"":2,""viewing_time"":3494}]",261
,,,,,,,,,,,,,203596,,,203598,,,instructions,"[{""page_index"":0,""viewing_time"":120032},{""page_index"":1,""viewing_time"":33482},{""page_index"":2,""viewing_time"":27517},{""page_index"":3,""viewing_time"":22563}]",262
,,,,,,,,,,,,,40790,,,274409,,,instructions,"[{""page_index"":0,""viewing_time"":14690},{""page_index"":1,""viewing_time"":6745},{""page_index"":2,""viewing_time"":13886},{""page_index"":3,""viewing_time"":5467}]",262
,,,,,,,,,,,,,49029,,,378609,,,instructions,"[{""page_index"":0,""viewing_time"":16484},{""page_index"":1,""viewing_time"":24336},{""page_index"":2,""viewing_time"":5102},{""page_index"":3,""viewing_time"":3107}]",262
,,,,,,,,,,,,,74830,,,74832,,,instructions,"[{""page_index"":0,""viewing_time"":47550},{""page_index"":1,""viewing_time"":4552},{""page_index"":0,""viewing_time"":10888},{""page_index"":1,""viewing_time"":2056},{""page_index"":2,""viewing_time"":6072},{""page_index"":3,""viewing_time"":3711}]",263
