action_times,actions,button_pressed,correct,delays,information_used_correctly,key_press,path,planned_too_little,planned_too_much,queries,questions,responses,rt,score,stimulus,time_elapsed,trial_index,trial_i,trial_type,view_history,pid
"[109559, 133762, 140962]","[u'up', u'up', u'right']",,,"[6, 0, 0]",,,"[u'1', 3, 7, 13]",,,"{u'mouseover': {u'state': {u'target': [], u'time': []}, u'edge': {u'target': [], u'time': []}}, u'click': {u'state': {u'target': [u'4', u'3', u'7', u'13', u'12'], u'time': [2075, 7882, 124244, 138316, 139251]}, u'edge': {u'target': [], u'time': []}}, u'mouseout': {u'state': {u'target': [], u'time': []}, u'edge': {u'target': [], u'time': []}}}",,,"[109558, 16340, 6230]",1.95,,292947,1.0,5.0,mouselab-mdp,,0
"[12614, 25062, 27542]","[u'left', u'left', u'down']",,,"[9, 0, 3]",,,"[u'1', 4, 8, 15]",,,"{u'mouseover': {u'state': {u'target': [], u'time': []}, u'edge': {u'target': [], u'time': []}}, u'click': {u'state': {u'target': [u'3', u'12', u'15', u'10'], u'time': [2608, 4671, 7136, 10952]}, u'edge': {u'target': [], u'time': []}}, u'mouseout': {u'state': {u'target': [], u'time': []}, u'edge': {u'target': [], u'time': []}}}",,,"[12614, 1055, 1724]",6.96,,539797,2.0,6.0,mouselab-mdp,,0
"[5236, 12756, 14132]","[u'down', u'down', u'left']",,,"[4, 0, 1]",,,"[u'1', 5, 9, 16]",,,"{u'mouseover': {u'state': {u'target': [], u'time': []}, u'edge': {u'target': [], u'time': []}}, u'click': {u'state': {u'target': [u'5', u'16'], u'time': [2591, 2991]}, u'edge': {u'target': [], u'time': []}}, u'mouseout': {u'state': {u'target': [], u'time': []}, u'edge': {u'target': [], u'time': []}}}",,,"[5236, 962, 466]",41.98,,599827,3.0,9.0,mouselab-mdp,,0
"[18709, 32674, 33859]","[u'up', u'up', u'right']",,,"[9, 0, 0]",,,"[u'1', 3, 7, 13]",,,"{u'mouseover': {u'state': {u'target': [], u'time': []}, u'edge': {u'target': [], u'time': []}}, u'click': {u'state': {u'target': [u'2', u'10', u'5', u'17', u'3', u'12', u'13'], u'time': [4631, 5295, 7471, 8055, 12951, 13591, 14977]}, u'edge': {u'target': [], u'time': []}}, u'mouseout': {u'state': {u'target': [], u'time': []}, u'edge': {u'target': [], u'time': []}}}",,,"[18709, 1168, 369]",14.93,,722732,4.0,0.0,mouselab-mdp,,0
"[7281, 13265, 15409]","[u'down', u'down', u'left']",,,"[2, 0, 1]",,,"[u'1', 5, 9, 16]",,,"{u'mouseover': {u'state': {u'target': [], u'time': []}, u'edge': {u'target': [], u'time': []}}, u'click': {u'state': {u'target': [u'4', u'8', u'15', u'5', u'9', u'16'], u'time': [2083, 2635, 3139, 5003, 5339, 5724]}, u'edge': {u'target': [], u'time': []}}, u'mouseout': {u'state': {u'target': [], u'time': []}, u'edge': {u'target': [], u'time': []}}}",,,"[7281, 562, 1245]",33.94,,787081,5.0,7.0,mouselab-mdp,,0
"[8582, 17111, 23138]","[u'right', u'right', u'up']",,,"[5, 0, 0]",,,"[u'1', 2, 6, 10]",,,"{u'mouseover': {u'state': {u'target': [], u'time': []}, u'edge': {u'target': [], u'time': []}}, u'click': {u'state': {u'target': [u'2', u'6', u'11', u'10'], u'time': [5688, 6137, 6584, 7312]}, u'edge': {u'target': [], u'time': []}}, u'mouseout': {u'state': {u'target': [], u'time': []}, u'edge': {u'target': [], u'time': []}}}",,,"[8582, 844, 5231]",27.96,,849988,6.0,8.0,mouselab-mdp,,0
"[7511, 14326, 16566]","[u'right', u'right', u'up']",,,"[2, 0, 0]",,,"[u'1', 2, 6, 10]",,,"{u'mouseover': {u'state': {u'target': [], u'time': []}, u'edge': {u'target': [], u'time': []}}, u'click': {u'state': {u'target': [u'4', u'8', u'14', u'15', u'2', u'6', u'10', u'11'], u'time': [1617, 2040, 2512, 3256, 4096, 5031, 5360, 5897]}, u'edge': {u'target': [], u'time': []}}, u'mouseout': {u'state': {u'target': [], u'time': []}, u'edge': {u'target': [], u'time': []}}}",,,"[7511, 1609, 1531]",33.92,,914674,7.0,2.0,mouselab-mdp,,0
"[7458, 13315, 19118]","[u'down', u'down', u'right']",,,"[2, 0, 0]",,,"[u'1', 5, 9, 17]",,,"{u'mouseover': {u'state': {u'target': [], u'time': []}, u'edge': {u'target': [], u'time': []}}, u'click': {u'state': {u'target': [u'5', u'9', u'16', u'17', u'11', u'10', u'12', u'15'], u'time': [1284, 1564, 1924, 2348, 4212, 4744, 5540, 6276]}, u'edge': {u'target': [], u'time': []}}, u'mouseout': {u'state': {u'target': [], u'time': []}, u'edge': {u'target': [], u'time': []}}}",,,"[7458, 381, 5073]",41.92,,969358,8.0,4.0,mouselab-mdp,,0
"[8153, 13498, 15369]","[u'right', u'right', u'up']",,,"[2, 0, 0]",,,"[u'1', 2, 6, 10]",,,"{u'mouseover': {u'state': {u'target': [], u'time': []}, u'edge': {u'target': [], u'time': []}}, u'click': {u'state': {u'target': [u'4', u'2', u'10', u'6', u'11'], u'time': [3803, 4971, 5875, 6318, 6859]}, u'edge': {u'target': [], u'time': []}}, u'mouseout': {u'state': {u'target': [], u'time': []}, u'edge': {u'target': [], u'time': []}}}",,,"[8153, 328, 1033]",33.95,,1023436,9.0,3.0,mouselab-mdp,,0
"[8957, 14717, 16604]","[u'down', u'down', u'left']",,,"[0, 0, 0]",,,"[u'1', 5, 9, 16]",,,"{u'mouseover': {u'state': {u'target': [], u'time': []}, u'edge': {u'target': [], u'time': []}}, u'click': {u'state': {u'target': [u'4', u'2', u'5', u'3', u'13', u'12', u'7', u'9', u'17', u'16'], u'time': [1375, 2214, 2942, 3614, 4630, 5110, 5590, 6726, 7335, 7847]}, u'edge': {u'target': [], u'time': []}}, u'mouseout': {u'state': {u'target': [], u'time': []}, u'edge': {u'target': [], u'time': []}}}",,,"[8957, 1327, 1148]",45.9,,1089911,10.0,1.0,mouselab-mdp,,0
"[5076, 5684, 6580]","[u'up', u'up', u'left']",,,[],,,"[u'1', 3, 7, 12]",,,"{u'mouseover': {u'state': {u'target': [], u'time': []}, u'edge': {u'target': [], u'time': []}}, u'click': {u'state': {u'target': [u'5', u'3', u'13', u'7', u'12'], u'time': [854, 1725, 2806, 3541, 4062]}, u'edge': {u'target': [], u'time': []}}, u'mouseout': {u'state': {u'target': [], u'time': []}, u'edge': {u'target': [], u'time': []}}}",,,"[5076, 102, 381]",36.95,,1163316,11.0,12.0,mouselab-mdp,,0
"[13618, 14177, 14786]","[u'right', u'right', u'up']",,,[],,,"[u'1', 2, 6, 10]",,,"{u'mouseover': {u'state': {u'target': [], u'time': []}, u'edge': {u'target': [], u'time': []}}, u'click': {u'state': {u'target': [u'13', u'12', u'5', u'2', u'4', u'10', u'11', u'6', u'8', u'14', u'15'], u'time': [888, 1495, 2351, 2871, 3919, 4952, 5831, 6479, 7328, 7928, 8360]}, u'edge': {u'target': [], u'time': []}}, u'mouseout': {u'state': {u'target': [], u'time': []}, u'edge': {u'target': [], u'time': []}}}",,,"[13618, 38, 82]",21.89,,1211153,12.0,13.0,mouselab-mdp,,0
"[7348, 7924, 8613]","[u'up', u'up', u'right']",,,[],,,"[u'1', 3, 7, 13]",,,"{u'mouseover': {u'state': {u'target': [], u'time': []}, u'edge': {u'target': [], u'time': []}}, u'click': {u'state': {u'target': [u'4', u'2', u'3', u'5', u'9', u'17', u'16', u'7', u'13', u'12'], u'time': [1335, 1944, 2382, 2950, 3766, 4110, 4678, 5454, 5854, 6262]}, u'edge': {u'target': [], u'time': []}}, u'mouseout': {u'state': {u'target': [], u'time': []}, u'edge': {u'target': [], u'time': []}}}",,,"[7348, 62, 184]",38.9,,1260381,13.0,15.0,mouselab-mdp,,0
"[10088, 10714, 11528]","[u'right', u'right', u'down']",,,[],,,"[u'1', 2, 6, 11]",,,"{u'mouseover': {u'state': {u'target': [], u'time': []}, u'edge': {u'target': [], u'time': []}}, u'click': {u'state': {u'target': [u'5', u'2', u'4', u'3', u'6', u'10', u'11', u'9', u'16', u'17'], u'time': [1579, 2276, 3235, 3602, 4252, 4899, 5402, 7538, 8264, 8954]}, u'edge': {u'target': [], u'time': []}}, u'mouseout': {u'state': {u'target': [], u'time': []}, u'edge': {u'target': [], u'time': []}}}",,,"[10088, 115, 296]",37.9,,1314649,14.0,14.0,mouselab-mdp,,0
"[7789, 12044, 12578]","[u'up', u'up', u'right']",,,[],,,"[u'1', 3, 7, 13]",,,"{u'mouseover': {u'state': {u'target': [], u'time': []}, u'edge': {u'target': [], u'time': []}}, u'click': {u'state': {u'target': [u'5', u'2', u'4', u'3', u'16', u'17', u'14', u'15', u'8', u'12', u'13', u'7'], u'time': [1799, 2295, 2790, 3447, 4270, 4783, 5647, 6110, 6838, 10271, 10718, 11230]}, u'edge': {u'target': [], u'time': []}}, u'mouseout': {u'state': {u'target': [], u'time': []}, u'edge': {u'target': [], u'time': []}}}",,,"[7789, 3744, 28]",9.88,,1372358,15.0,10.0,mouselab-mdp,,0
"[7085, 7755, 8428]","[u'left', u'left', u'up']",,,[],,,"[u'1', 4, 8, 14]",,,"{u'mouseover': {u'state': {u'target': [], u'time': []}, u'edge': {u'target': [], u'time': []}}, u'click': {u'state': {u'target': [u'4', u'3', u'2', u'5', u'16', u'17', u'14', u'15', u'8'], u'time': [686, 1230, 1662, 2405, 3557, 4072, 5037, 5485, 5789]}, u'edge': {u'target': [], u'time': []}}, u'mouseout': {u'state': {u'target': [], u'time': []}, u'edge': {u'target': [], u'time': []}}}",,,"[7085, 149, 155]",39.91,,1444435,16.0,11.0,mouselab-mdp,,0
"[59792, 63662, 65065]","[u'right', u'right', u'up']",,,"[0, 0, 1]",,,"[u'1', 2, 6, 10]",,,"{u'mouseover': {u'state': {u'target': [], u'time': []}, u'edge': {u'target': [], u'time': []}}, u'click': {u'state': {u'target': [u'3', u'7', u'13', u'12', u'4', u'2', u'6', u'10', u'5', u'16', u'9', u'17', u'8', u'15', u'14', u'11'], u'time': [1842, 6662, 7836, 10452, 13142, 14261, 17046, 17851, 20721, 21739, 22981, 23468, 25131, 25911, 26671, 28055]}, u'edge': {u'target': [], u'time': []}}, u'mouseout': {u'state': {u'target': [], u'time': []}, u'edge': {u'target': [], u'time': []}}}",,,"[59792, 3, 885]",-27.0,,647242,1.0,6.0,mouselab-mdp,,1
"[8042, 25932, 26925]","[u'up', u'up', u'right']",,,"[13, 0, 0]",,,"[u'1', 3, 7, 13]",,,"{u'mouseover': {u'state': {u'target': [], u'time': []}, u'edge': {u'target': [], u'time': []}}, u'click': {u'state': {u'target': [u'12', u'7', u'13', u'3'], u'time': [2062, 3822, 5372, 6612]}, u'edge': {u'target': [], u'time': []}}, u'mouseout': {u'state': {u'target': [], u'time': []}, u'edge': {u'target': [], u'time': []}}}",,,"[8042, 2296, 207]",22.0,,712424,2.0,5.0,mouselab-mdp,,1
"[8159, 17978, 21433]","[u'right', u'right', u'down']",,,"[6, 0, 3]",,,"[u'1', 2, 6, 11]",,,"{u'mouseover': {u'state': {u'target': [], u'time': []}, u'edge': {u'target': [], u'time': []}}, u'click': {u'state': {u'target': [u'3', u'6', u'11'], u'time': [1399, 3992, 20368]}, u'edge': {u'target': [], u'time': []}}, u'mouseout': {u'state': {u'target': [], u'time': []}, u'edge': {u'target': [], u'time': []}}}",,,"[8159, 1529, 2585]",19.5,,773665,3.0,2.0,mouselab-mdp,,1
"[52855, 108255, 111169]","[u'up', u'up', u'right']",,,"[43, 0, 0]",,,"[u'1', 3, 7, 13]",,,"{u'mouseover': {u'state': {u'target': [], u'time': []}, u'edge': {u'target': [], u'time': []}}, u'click': {u'state': {u'target': [u'4', u'3', u'2', u'7', u'12', u'13', u'6', u'10', u'11', u'5', u'9', u'16', u'17', u'8', u'14', u'15'], u'time': [1659, 5646, 9556, 13026, 15726, 17673, 19945, 22153, 26753, 28453, 29634, 30482, 31785, 33907, 36223, 38066]}, u'edge': {u'target': [], u'time': []}}, u'mouseout': {u'state': {u'target': [], u'time': []}, u'edge': {u'target': [], u'time': []}}}",,,"[52855, 8536, 2416]",-17.0,,890449,4.0,7.0,mouselab-mdp,,1
"[18360, 42511, 44093]","[u'up', u'up', u'right']",,,"[20, 0, 0]",,,"[u'1', 3, 7, 13]",,,"{u'mouseover': {u'state': {u'target': [], u'time': []}, u'edge': {u'target': [], u'time': []}}, u'click': {u'state': {u'target': [u'3', u'7', u'12', u'13'], u'time': [4330, 9943, 11233, 14630]}, u'edge': {u'target': [], u'time': []}}, u'mouseout': {u'state': {u'target': [], u'time': []}, u'edge': {u'target': [], u'time': []}}}",,,"[18360, 1629, 780]",-6.0,,961210,5.0,4.0,mouselab-mdp,,1
"[1799, 3656, 5903]","[u'right', u'right', u'up']",,,"[0, 0, 0]",,,"[u'1', 2, 6, 10]",,,"{u'mouseover': {u'state': {u'target': [], u'time': []}, u'edge': {u'target': [], u'time': []}}, u'click': {u'state': {u'target': [], u'time': []}, u'edge': {u'target': [], u'time': []}}, u'mouseout': {u'state': {u'target': [], u'time': []}, u'edge': {u'target': [], u'time': []}}}",,,"[1799, 3, 1350]",14.0,,1010077,6.0,3.0,mouselab-mdp,,1
"[2437, 5270, 10236]","[u'left', u'left', u'down']",,,"[0, 0, 0]",,,"[u'1', 4, 8, 15]",,,"{u'mouseover': {u'state': {u'target': [], u'time': []}, u'edge': {u'target': [], u'time': []}}, u'click': {u'state': {u'target': [], u'time': []}, u'edge': {u'target': [], u'time': []}}, u'mouseout': {u'state': {u'target': [], u'time': []}, u'edge': {u'target': [], u'time': []}}}",,,"[2437, 1015, 4065]",30.0,,1061649,7.0,9.0,mouselab-mdp,,1
"[3981, 7141, 8883]","[u'up', u'up', u'right']",,,"[0, 0, 0]",,,"[u'1', 3, 7, 13]",,,"{u'mouseover': {u'state': {u'target': [], u'time': []}, u'edge': {u'target': [], u'time': []}}, u'click': {u'state': {u'target': [], u'time': []}, u'edge': {u'target': [], u'time': []}}, u'mouseout': {u'state': {u'target': [], u'time': []}, u'edge': {u'target': [], u'time': []}}}",,,"[3981, 1316, 883]",1.0,,1111536,8.0,8.0,mouselab-mdp,,1
"[3397, 8577, 10177]","[u'right', u'right', u'up']",,,"[0, 0, 0]",,,"[u'1', 2, 6, 10]",,,"{u'mouseover': {u'state': {u'target': [], u'time': []}, u'edge': {u'target': [], u'time': []}}, u'click': {u'state': {u'target': [], u'time': []}, u'edge': {u'target': [], u'time': []}}, u'mouseout': {u'state': {u'target': [], u'time': []}, u'edge': {u'target': [], u'time': []}}}",,,"[3396, 3367, 721]",8.0,,1161215,9.0,0.0,mouselab-mdp,,1
"[1442, 4524, 5972]","[u'left', u'left', u'down']",,,"[0, 0, 0]",,,"[u'1', 4, 8, 15]",,,"{u'mouseover': {u'state': {u'target': [], u'time': []}, u'edge': {u'target': [], u'time': []}}, u'click': {u'state': {u'target': [], u'time': []}, u'edge': {u'target': [], u'time': []}}, u'mouseout': {u'state': {u'target': [], u'time': []}, u'edge': {u'target': [], u'time': []}}}",,,"[1442, 1257, 559]",5.0,,1211328,10.0,1.0,mouselab-mdp,,1
"[2041, 4051, 6008]","[u'up', u'up', u'right']",,,[],,,"[u'1', 3, 7, 13]",,,"{u'mouseover': {u'state': {u'target': [], u'time': []}, u'edge': {u'target': [], u'time': []}}, u'click': {u'state': {u'target': [], u'time': []}, u'edge': {u'target': [], u'time': []}}, u'mouseout': {u'state': {u'target': [], u'time': []}, u'edge': {u'target': [], u'time': []}}}",,,"[2031, 1497, 1437]",13.0,,1268807,11.0,12.0,mouselab-mdp,,1
"[28348, 29495, 30595]","[u'left', u'left', u'up']",,,[],,,"[u'1', 4, 8, 14]",,,"{u'mouseover': {u'state': {u'target': [], u'time': []}, u'edge': {u'target': [], u'time': []}}, u'click': {u'state': {u'target': [u'3', u'13', u'4', u'11', u'17', u'15', u'12', u'6', u'14'], u'time': [3232, 6499, 8649, 11299, 14349, 16369, 18124, 20459, 22048]}, u'edge': {u'target': [], u'time': []}}, u'mouseout': {u'state': {u'target': [], u'time': []}, u'edge': {u'target': [], u'time': []}}}",,,"[28348, 650, 599]",-24.5,,1318271,12.0,14.0,mouselab-mdp,,1
"[1953, 4167, 5347]","[u'right', u'right', u'up']",,,[],,,"[u'1', 2, 6, 10]",,,"{u'mouseover': {u'state': {u'target': [], u'time': []}, u'edge': {u'target': [], u'time': []}}, u'click': {u'state': {u'target': [], u'time': []}, u'edge': {u'target': [], u'time': []}}, u'mouseout': {u'state': {u'target': [], u'time': []}, u'edge': {u'target': [], u'time': []}}}",,,"[1953, 1717, 680]",16.0,,1366647,13.0,11.0,mouselab-mdp,,1
"[2342, 3972, 10592]","[u'up', u'up', u'right']",,,[],,,"[u'1', 3, 7, 13]",,,"{u'mouseover': {u'state': {u'target': [], u'time': []}, u'edge': {u'target': [], u'time': []}}, u'click': {u'state': {u'target': [u'13'], u'time': [9412]}, u'edge': {u'target': [], u'time': []}}, u'mouseout': {u'state': {u'target': [], u'time': []}, u'edge': {u'target': [], u'time': []}}}",,,"[2342, 1133, 6102]",38.5,,1415646,14.0,10.0,mouselab-mdp,,1
"[3133, 14169, 16163]","[u'right', u'right', u'down']",,,[],,,"[u'1', 2, 6, 11]",,,"{u'mouseover': {u'state': {u'target': [], u'time': []}, u'edge': {u'target': [], u'time': []}}, u'click': {u'state': {u'target': [u'10', u'11'], u'time': [8273, 12083]}, u'edge': {u'target': [], u'time': []}}, u'mouseout': {u'state': {u'target': [], u'time': []}, u'edge': {u'target': [], u'time': []}}}",,,"[3133, 10512, 1490]",19.0,,1464163,15.0,15.0,mouselab-mdp,,1
"[2604, 14101, 15094]","[u'left', u'left', u'up']",,,[],,,"[u'1', 4, 8, 14]",,,"{u'mouseover': {u'state': {u'target': [], u'time': []}, u'edge': {u'target': [], u'time': []}}, u'click': {u'state': {u'target': [u'14', u'15'], u'time': [6291, 11964]}, u'edge': {u'target': [], u'time': []}}, u'mouseout': {u'state': {u'target': [], u'time': []}, u'edge': {u'target': [], u'time': []}}}",,,"[2604, 10987, 480]",24.0,,1512876,16.0,13.0,mouselab-mdp,,1
"[102535, 114504, 117727]","[u'right', u'right', u'up']",,,"[4, 0, 1]",,,"[u'1', 2, 6, 10]",,,"{u'mouseover': {u'state': {u'target': [], u'time': []}, u'edge': {u'target': [], u'time': []}}, u'click': {u'state': {u'target': [u'2', u'6', u'11', u'5', u'9', u'16', u'17', u'4', u'8', u'15', u'14', u'3', u'7', u'12', u'13'], u'time': [6360, 8609, 9449, 12706, 13448, 14133, 14982, 16029, 17258, 18371, 19463, 20552, 21519, 22573, 23396]}, u'edge': {u'target': [], u'time': []}}, u'mouseout': {u'state': {u'target': [], u'time': []}, u'edge': {u'target': [], u'time': []}}}",,,"[102533, 3835, 2555]",6.85,,520073,1.0,5.0,mouselab-mdp,,2
"[3145, 10180, 17333]","[u'left', u'left', u'up']",,,"[4, 0, 1]",,,"[u'1', 4, 8, 14]",,,"{u'mouseover': {u'state': {u'target': [], u'time': []}, u'edge': {u'target': [], u'time': []}}, u'click': {u'state': {u'target': [], u'time': []}, u'edge': {u'target': [], u'time': []}}, u'mouseout': {u'state': {u'target': [], u'time': []}, u'edge': {u'target': [], u'time': []}}}",,,"[3145, 1232, 6252]",4.0,,579572,2.0,3.0,mouselab-mdp,,2
"[1942, 8357, 11981]","[u'down', u'down', u'right']",,,"[4, 0, 1]",,,"[u'1', 5, 9, 17]",,,"{u'mouseover': {u'state': {u'target': [], u'time': []}, u'edge': {u'target': [], u'time': []}}, u'click': {u'state': {u'target': [], u'time': []}, u'edge': {u'target': [], u'time': []}}, u'mouseout': {u'state': {u'target': [], u'time': []}, u'edge': {u'target': [], u'time': []}}}",,,"[1942, 665, 2756]",11.0,,639219,3.0,0.0,mouselab-mdp,,2
"[2307, 9283, 12436]","[u'left', u'left', u'down']",,,"[4, 0, 1]",,,"[u'1', 4, 8, 15]",,,"{u'mouseover': {u'state': {u'target': [], u'time': []}, u'edge': {u'target': [], u'time': []}}, u'click': {u'state': {u'target': [], u'time': []}, u'edge': {u'target': [], u'time': []}}, u'mouseout': {u'state': {u'target': [], u'time': []}, u'edge': {u'target': [], u'time': []}}}",,,"[2307, 1262, 2270]",9.0,,700788,4.0,4.0,mouselab-mdp,,2
"[1242, 7419, 10160]","[u'up', u'up', u'right']",,,"[4, 0, 1]",,,"[u'1', 3, 7, 13]",,,"{u'mouseover': {u'state': {u'target': [], u'time': []}, u'edge': {u'target': [], u'time': []}}, u'click': {u'state': {u'target': [], u'time': []}, u'edge': {u'target': [], u'time': []}}, u'mouseout': {u'state': {u'target': [], u'time': []}, u'edge': {u'target': [], u'time': []}}}",,,"[1242, 437, 1886]",5.0,,756922,5.0,7.0,mouselab-mdp,,2
"[3006, 9532, 12406]","[u'down', u'down', u'left']",,,"[4, 0, 1]",,,"[u'1', 5, 9, 16]",,,"{u'mouseover': {u'state': {u'target': [], u'time': []}, u'edge': {u'target': [], u'time': []}}, u'click': {u'state': {u'target': [], u'time': []}, u'edge': {u'target': [], u'time': []}}, u'mouseout': {u'state': {u'target': [], u'time': []}, u'edge': {u'target': [], u'time': []}}}",,,"[3006, 850, 2037]",42.0,,816020,6.0,9.0,mouselab-mdp,,2
"[2045, 8309, 11160]","[u'up', u'up', u'left']",,,"[4, 0, 1]",,,"[u'1', 3, 7, 12]",,,"{u'mouseover': {u'state': {u'target': [], u'time': []}, u'edge': {u'target': [], u'time': []}}, u'click': {u'state': {u'target': [], u'time': []}, u'edge': {u'target': [], u'time': []}}, u'mouseout': {u'state': {u'target': [], u'time': []}, u'edge': {u'target': [], u'time': []}}}",,,"[2045, 540, 1942]",41.0,,873098,7.0,8.0,mouselab-mdp,,2
"[1977, 8286, 11842]","[u'right', u'right', u'down']",,,"[4, 0, 1]",,,"[u'1', 2, 6, 11]",,,"{u'mouseover': {u'state': {u'target': [], u'time': []}, u'edge': {u'target': [], u'time': []}}, u'click': {u'state': {u'target': [], u'time': []}, u'edge': {u'target': [], u'time': []}}, u'mouseout': {u'state': {u'target': [], u'time': []}, u'edge': {u'target': [], u'time': []}}}",,,"[1976, 553, 2676]",3.0,,952836,8.0,1.0,mouselab-mdp,,2
"[3368, 9625, 12633]","[u'left', u'left', u'down']",,,"[4, 0, 1]",,,"[u'1', 4, 8, 15]",,,"{u'mouseover': {u'state': {u'target': [], u'time': []}, u'edge': {u'target': [], u'time': []}}, u'click': {u'state': {u'target': [], u'time': []}, u'edge': {u'target': [], u'time': []}}, u'mouseout': {u'state': {u'target': [], u'time': []}, u'edge': {u'target': [], u'time': []}}}",,,"[3368, 511, 2173]",9.0,,1009503,9.0,2.0,mouselab-mdp,,2
"[2885, 9101, 12834]","[u'down', u'down', u'left']",,,"[4, 0, 1]",,,"[u'1', 5, 9, 16]",,,"{u'mouseover': {u'state': {u'target': [], u'time': []}, u'edge': {u'target': [], u'time': []}}, u'click': {u'state': {u'target': [], u'time': []}, u'edge': {u'target': [], u'time': []}}, u'mouseout': {u'state': {u'target': [], u'time': []}, u'edge': {u'target': [], u'time': []}}}",,,"[2884, 531, 2753]",13.0,,1064886,10.0,6.0,mouselab-mdp,,2
"[2661, 3975, 5682]","[u'down', u'down', u'right']",,,[],,,"[u'1', 5, 9, 17]",,,"{u'mouseover': {u'state': {u'target': [], u'time': []}, u'edge': {u'target': [], u'time': []}}, u'click': {u'state': {u'target': [], u'time': []}, u'edge': {u'target': [], u'time': []}}, u'mouseout': {u'state': {u'target': [], u'time': []}, u'edge': {u'target': [], u'time': []}}}",,,"[2661, 809, 1199]",6.0,,1115348,11.0,12.0,mouselab-mdp,,2
"[1679, 2696, 5248]","[u'right', u'right', u'down']",,,[],,,"[u'1', 2, 6, 11]",,,"{u'mouseover': {u'state': {u'target': [], u'time': []}, u'edge': {u'target': [], u'time': []}}, u'click': {u'state': {u'target': [], u'time': []}, u'edge': {u'target': [], u'time': []}}, u'mouseout': {u'state': {u'target': [], u'time': []}, u'edge': {u'target': [], u'time': []}}}",,,"[1679, 505, 2056]",38.0,,1165306,12.0,14.0,mouselab-mdp,,2
"[2661, 3814, 5751]","[u'up', u'up', u'left']",,,[],,,"[u'1', 3, 7, 12]",,,"{u'mouseover': {u'state': {u'target': [], u'time': []}, u'edge': {u'target': [], u'time': []}}, u'click': {u'state': {u'target': [], u'time': []}, u'edge': {u'target': [], u'time': []}}, u'mouseout': {u'state': {u'target': [], u'time': []}, u'edge': {u'target': [], u'time': []}}}",,,"[2661, 640, 1427]",15.0,,1225424,13.0,15.0,mouselab-mdp,,2
"[3037, 6606, 9214]","[u'left', u'left', u'down']",,,[],,,"[u'1', 4, 8, 15]",,,"{u'mouseover': {u'state': {u'target': [], u'time': []}, u'edge': {u'target': [], u'time': []}}, u'click': {u'state': {u'target': [], u'time': []}, u'edge': {u'target': [], u'time': []}}, u'mouseout': {u'state': {u'target': [], u'time': []}, u'edge': {u'target': [], u'time': []}}}",,,"[3037, 3055, 2113]",38.0,,1274492,14.0,10.0,mouselab-mdp,,2
"[2347, 3676, 5465]","[u'down', u'down', u'left']",,,[],,,"[u'1', 5, 9, 16]",,,"{u'mouseover': {u'state': {u'target': [], u'time': []}, u'edge': {u'target': [], u'time': []}}, u'click': {u'state': {u'target': [], u'time': []}, u'edge': {u'target': [], u'time': []}}, u'mouseout': {u'state': {u'target': [], u'time': []}, u'edge': {u'target': [], u'time': []}}}",,,"[2346, 832, 1270]",17.0,,1325281,15.0,11.0,mouselab-mdp,,2
"[3037, 4684, 7127]","[u'up', u'up', u'right']",,,[],,,"[u'1', 3, 7, 13]",,,"{u'mouseover': {u'state': {u'target': [], u'time': []}, u'edge': {u'target': [], u'time': []}}, u'click': {u'state': {u'target': [], u'time': []}, u'edge': {u'target': [], u'time': []}}, u'mouseout': {u'state': {u'target': [], u'time': []}, u'edge': {u'target': [], u'time': []}}}",,,"[3036, 1160, 1953]",4.0,,1383502,16.0,13.0,mouselab-mdp,,2
"[8089, 19350, 27439]","[u'right', u'right', u'up']",,,"[1, -1, 1]",,,"[u'1', 2, 6, 10]",,,"{u'mouseover': {u'state': {u'target': [], u'time': []}, u'edge': {u'target': [], u'time': []}}, u'click': {u'state': {u'target': [], u'time': []}, u'edge': {u'target': [], u'time': []}}, u'mouseout': {u'state': {u'target': [], u'time': []}, u'edge': {u'target': [], u'time': []}}}",,,"[8087, 8985, 7199]",28.0,,493108,1.0,5.0,mouselab-mdp,,3
"[6218, 11950, 58721]","[u'up', u'up', u'left']",,,"[4, -1, 6]",,,"[u'1', 3, 7, 12]",,,"{u'mouseover': {u'state': {u'target': [], u'time': []}, u'edge': {u'target': [], u'time': []}}, u'click': {u'state': {u'target': [], u'time': []}, u'edge': {u'target': [], u'time': []}}, u'mouseout': {u'state': {u'target': [], u'time': []}, u'edge': {u'target': [], u'time': []}}}",,,"[6218, 478, 45870]",17.0,,568379,2.0,3.0,mouselab-mdp,,3
"[5036, 14451, 38324]","[u'up', u'up', u'left']",,,"[6, -1, -1]",,,"[u'1', 3, 7, 12]",,,"{u'mouseover': {u'state': {u'target': [], u'time': []}, u'edge': {u'target': [], u'time': []}}, u'click': {u'state': {u'target': [], u'time': []}, u'edge': {u'target': [], u'time': []}}, u'mouseout': {u'state': {u'target': [], u'time': []}, u'edge': {u'target': [], u'time': []}}}",,,"[5036, 2152, 22958]",9.0,,629271,3.0,1.0,mouselab-mdp,,3
"[2441, 16512, 23920]","[u'right', u'right', u'down']",,,"[12, -1, 19]",,,"[u'1', 2, 6, 11]",,,"{u'mouseover': {u'state': {u'target': [], u'time': []}, u'edge': {u'target': [], u'time': []}}, u'click': {u'state': {u'target': [], u'time': []}, u'edge': {u'target': [], u'time': []}}, u'mouseout': {u'state': {u'target': [], u'time': []}, u'edge': {u'target': [], u'time': []}}}",,,"[2441, 799, 6519]",-5.0,,731020,4.0,7.0,mouselab-mdp,,3
"[3617, 12360, 33915]","[u'right', u'right', u'down']",,,"[1, -1, -1]",,,"[u'1', 2, 6, 11]",,,"{u'mouseover': {u'state': {u'target': [], u'time': []}, u'edge': {u'target': [], u'time': []}}, u'click': {u'state': {u'target': [], u'time': []}, u'edge': {u'target': [], u'time': []}}, u'mouseout': {u'state': {u'target': [], u'time': []}, u'edge': {u'target': [], u'time': []}}}",,,"[3617, 6505, 20665]",27.0,,784478,5.0,2.0,mouselab-mdp,,3
"[1250, 5860, 17624]","[u'down', u'down', u'left']",,,"[3, -1, -1]",,,"[u'1', 5, 9, 16]",,,"{u'mouseover': {u'state': {u'target': [], u'time': []}, u'edge': {u'target': [], u'time': []}}, u'click': {u'state': {u'target': [], u'time': []}, u'edge': {u'target': [], u'time': []}}, u'mouseout': {u'state': {u'target': [], u'time': []}, u'edge': {u'target': [], u'time': []}}}",,,"[1249, 365, 10873]",24.0,,838657,6.0,4.0,mouselab-mdp,,3
"[1434, 7291, 10737]","[u'down', u'down', u'left']",,,"[2, -1, -1]",,,"[u'1', 5, 9, 16]",,,"{u'mouseover': {u'state': {u'target': [], u'time': []}, u'edge': {u'target': [], u'time': []}}, u'click': {u'state': {u'target': [], u'time': []}, u'edge': {u'target': [], u'time': []}}, u'mouseout': {u'state': {u'target': [], u'time': []}, u'edge': {u'target': [], u'time': []}}}",,,"[1434, 2616, 2573]",12.0,,903514,7.0,6.0,mouselab-mdp,,3
"[1098, 10265, 15448]","[u'down', u'down', u'left']",,,"[3, -1, 1]",,,"[u'1', 5, 9, 16]",,,"{u'mouseover': {u'state': {u'target': [], u'time': []}, u'edge': {u'target': [], u'time': []}}, u'click': {u'state': {u'target': [], u'time': []}, u'edge': {u'target': [], u'time': []}}, u'mouseout': {u'state': {u'target': [], u'time': []}, u'edge': {u'target': [], u'time': []}}}",,,"[1098, 4913, 4294]",29.0,,969277,8.0,9.0,mouselab-mdp,,3
"[2305, 5939, 11035]","[u'right', u'right', u'up']",,,"[2, -1, -1]",,,"[u'1', 2, 6, 10]",,,"{u'mouseover': {u'state': {u'target': [], u'time': []}, u'edge': {u'target': [], u'time': []}}, u'click': {u'state': {u'target': [], u'time': []}, u'edge': {u'target': [], u'time': []}}, u'mouseout': {u'state': {u'target': [], u'time': []}, u'edge': {u'target': [], u'time': []}}}",,,"[2305, 402, 4211]",8.0,,1046577,9.0,0.0,mouselab-mdp,,3
"[4518, 10220, 13766]","[u'right', u'right', u'up']",,,"[-1, -1, -1]",,,"[u'1', 2, 6, 10]",,,"{u'mouseover': {u'state': {u'target': [], u'time': []}, u'edge': {u'target': [], u'time': []}}, u'click': {u'state': {u'target': [], u'time': []}, u'edge': {u'target': [], u'time': []}}, u'mouseout': {u'state': {u'target': [], u'time': []}, u'edge': {u'target': [], u'time': []}}}",,,"[4517, 4492, 2655]",16.0,,1106670,10.0,8.0,mouselab-mdp,,3
"[2841, 4001, 5205]","[u'down', u'down', u'right']",,,[],,,"[u'1', 5, 9, 17]",,,"{u'mouseover': {u'state': {u'target': [], u'time': []}, u'edge': {u'target': [], u'time': []}}, u'click': {u'state': {u'target': [], u'time': []}, u'edge': {u'target': [], u'time': []}}, u'mouseout': {u'state': {u'target': [], u'time': []}, u'edge': {u'target': [], u'time': []}}}",,,"[2841, 663, 697]",9.0,,1163779,11.0,12.0,mouselab-mdp,,3
"[3278, 4480, 5738]","[u'left', u'left', u'down']",,,[],,,"[u'1', 4, 8, 15]",,,"{u'mouseover': {u'state': {u'target': [], u'time': []}, u'edge': {u'target': [], u'time': []}}, u'click': {u'state': {u'target': [], u'time': []}, u'edge': {u'target': [], u'time': []}}, u'mouseout': {u'state': {u'target': [], u'time': []}, u'edge': {u'target': [], u'time': []}}}",,,"[3278, 707, 759]",-41.0,,1214038,12.0,14.0,mouselab-mdp,,3
"[4588, 5710, 8191]","[u'left', u'left', u'down']",,,[],,,"[u'1', 4, 8, 15]",,,"{u'mouseover': {u'state': {u'target': [], u'time': []}, u'edge': {u'target': [], u'time': []}}, u'click': {u'state': {u'target': [], u'time': []}, u'edge': {u'target': [], u'time': []}}, u'mouseout': {u'state': {u'target': [], u'time': []}, u'edge': {u'target': [], u'time': []}}}",,,"[4588, 627, 1987]",19.0,,1264319,13.0,13.0,mouselab-mdp,,3
"[831, 2069, 41749]","[u'up', u'up', u'right']",,,[],,,"[u'1', 3, 7, 13]",,,"{u'mouseover': {u'state': {u'target': [], u'time': []}, u'edge': {u'target': [], u'time': []}}, u'click': {u'state': {u'target': [], u'time': []}, u'edge': {u'target': [], u'time': []}}, u'mouseout': {u'state': {u'target': [], u'time': []}, u'edge': {u'target': [], u'time': []}}}",,,"[831, 739, 39180]",35.0,,1320397,14.0,15.0,mouselab-mdp,,3
"[4422, 5575, 8501]","[u'down', u'down', u'left']",,,[],,,"[u'1', 5, 9, 16]",,,"{u'mouseover': {u'state': {u'target': [], u'time': []}, u'edge': {u'target': [], u'time': []}}, u'click': {u'state': {u'target': [], u'time': []}, u'edge': {u'target': [], u'time': []}}, u'mouseout': {u'state': {u'target': [], u'time': []}, u'edge': {u'target': [], u'time': []}}}",,,"[4422, 660, 2432]",16.0,,1391137,15.0,11.0,mouselab-mdp,,3
"[2100, 3149, 5360]","[u'down', u'down', u'left']",,,[],,,"[u'1', 5, 9, 16]",,,"{u'mouseover': {u'state': {u'target': [], u'time': []}, u'edge': {u'target': [], u'time': []}}, u'click': {u'state': {u'target': [], u'time': []}, u'edge': {u'target': [], u'time': []}}, u'mouseout': {u'state': {u'target': [], u'time': []}, u'edge': {u'target': [], u'time': []}}}",,,"[2100, 552, 1708]",37.0,,1446684,16.0,10.0,mouselab-mdp,,3
"[48690, 57242, 60882]","[u'right', u'right', u'down']",,,"[3, 0, 1]","[True, True, True]",,"[u'1', 2, 6, 11]","[False, False, False]","[True, True, False]","{u'mouseover': {u'state': {u'target': [], u'time': []}, u'edge': {u'target': [], u'time': []}}, u'click': {u'state': {u'target': [u'4', u'2', u'3', u'5', u'9', u'17', u'16', u'6', u'10', u'11', u'7', u'13', u'12', u'14', u'8', u'15'], u'time': [6610, 8423, 11152, 12271, 13655, 14799, 18112, 27400, 31424, 33216, 36649, 38144, 39120, 41472, 42376, 43024]}, u'edge': {u'target': [], u'time': []}}, u'mouseout': {u'state': {u'target': [], u'time': []}, u'edge': {u'target': [], u'time': []}}}",,,"[48690, 1706, 3127]",42.0,,360198,1.0,8.0,mouselab-mdp,,4
"[12450, 20201, 22457]","[u'up', u'up', u'left']",,,"[3, 0, 1]","[True, True, True]",,"[u'1', 3, 7, 12]","[False, False, False]","[True, False, False]","{u'mouseover': {u'state': {u'target': [], u'time': []}, u'edge': {u'target': [], u'time': []}}, u'click': {u'state': {u'target': [u'2', u'4', u'5', u'3', u'7', u'13', u'12'], u'time': [1329, 3432, 4992, 6080, 7120, 8024, 9001]}, u'edge': {u'target': [], u'time': []}}, u'mouseout': {u'state': {u'target': [], u'time': []}, u'edge': {u'target': [], u'time': []}}}",,,"[12450, 1790, 1474]",42.0,,420030,2.0,15.0,mouselab-mdp,,4
"[32111, 39198, 42782]","[u'up', u'up', u'left']",,,"[3, 0, 1]","[True, True, True]",,"[u'1', 3, 7, 12]","[False, False, False]","[True, False, False]","{u'mouseover': {u'state': {u'target': [], u'time': []}, u'edge': {u'target': [], u'time': []}}, u'click': {u'state': {u'target': [u'3', u'7', u'13', u'12', u'5', u'4', u'2', u'8', u'14', u'15', u'6', u'10', u'11', u'9', u'17', u'16'], u'time': [2363, 3803, 4723, 5682, 9595, 11827, 14275, 15323, 16819, 17803, 25220, 26035, 27355, 28772, 29252, 29884]}, u'edge': {u'target': [], u'time': []}}, u'mouseout': {u'state': {u'target': [], u'time': []}, u'edge': {u'target': [], u'time': []}}}",,,"[32111, 702, 3070]",34.0,,479910,3.0,13.0,mouselab-mdp,,4
"[17375, 24504, 29424]","[u'up', u'up', u'left']",,,"[3, 0, 1]","[True, True, True]",,"[u'1', 3, 7, 12]","[False, False, False]","[True, False, False]","{u'mouseover': {u'state': {u'target': [], u'time': []}, u'edge': {u'target': [], u'time': []}}, u'click': {u'state': {u'target': [u'2', u'6', u'10', u'11', u'5', u'9', u'17', u'16', u'4', u'8', u'15', u'14', u'3', u'7', u'13', u'12'], u'time': [1871, 3093, 3862, 4998, 6326, 6934, 7397, 8206, 9525, 10253, 11445, 12557, 13573, 14254, 14901, 15629]}, u'edge': {u'target': [], u'time': []}}, u'mouseout': {u'state': {u'target': [], u'time': []}, u'edge': {u'target': [], u'time': []}}}",,,"[17375, 1185, 4401]",36.0,,536213,4.0,14.0,mouselab-mdp,,4
"[17640, 23760, 25343]","[u'up', u'up', u'left']",,,"[3, 0, 1]","[True, True, True]",,"[u'1', 3, 7, 12]","[False, False, False]","[True, False, False]","{u'mouseover': {u'state': {u'target': [], u'time': []}, u'edge': {u'target': [], u'time': []}}, u'click': {u'state': {u'target': [u'3', u'7', u'13', u'12', u'4'], u'time': [3262, 4061, 4893, 6037, 13501]}, u'edge': {u'target': [], u'time': []}}, u'mouseout': {u'state': {u'target': [], u'time': []}, u'edge': {u'target': [], u'time': []}}}",,,"[17640, 702, 818]",47.0,,592566,5.0,12.0,mouselab-mdp,,4
"[18170, 25218, 28513]","[u'right', u'right', u'down']",,,"[3, 0, 1]","[True, True, True]",,"[u'1', 2, 6, 11]","[False, False, False]","[True, False, False]","{u'mouseover': {u'state': {u'target': [], u'time': []}, u'edge': {u'target': [], u'time': []}}, u'click': {u'state': {u'target': [u'3', u'7', u'13', u'2', u'6', u'11', u'10', u'5', u'9', u'4', u'8'], u'time': [1584, 2536, 4008, 5711, 6599, 7487, 8488, 9831, 10951, 13120, 14088]}, u'edge': {u'target': [], u'time': []}}, u'mouseout': {u'state': {u'target': [], u'time': []}, u'edge': {u'target': [], u'time': []}}}",,,"[18170, 512, 2520]",17.0,,649053,6.0,11.0,mouselab-mdp,,4
"[16950, 23902, 25693]","[u'up', u'up', u'right']",,,"[3, 0, 1]","[True, True, True]",,"[u'1', 3, 7, 13]","[False, False, False]","[True, False, False]","{u'mouseover': {u'state': {u'target': [], u'time': []}, u'edge': {u'target': [], u'time': []}}, u'click': {u'state': {u'target': [u'2', u'5', u'9', u'3', u'7', u'12', u'13', u'4'], u'time': [1692, 3323, 5579, 6763, 7939, 9988, 11475, 13828]}, u'edge': {u'target': [], u'time': []}}, u'mouseout': {u'state': {u'target': [], u'time': []}, u'edge': {u'target': [], u'time': []}}}",,,"[16949, 1057, 1012]",32.0,,704180,7.0,1.0,mouselab-mdp,,4
"[12102, 18566, 20918]","[u'up', u'up', u'right']",,,"[3, 0, 1]","[True, True, True]",,"[u'1', 3, 7, 13]","[False, False, False]","[True, False, False]","{u'mouseover': {u'state': {u'target': [], u'time': []}, u'edge': {u'target': [], u'time': []}}, u'click': {u'state': {u'target': [u'5', u'3', u'7', u'13', u'12'], u'time': [4612, 5708, 6588, 7500, 8540]}, u'edge': {u'target': [], u'time': []}}, u'mouseout': {u'state': {u'target': [], u'time': []}, u'edge': {u'target': [], u'time': []}}}",,,"[12102, 992, 1571]",50.0,,760212,8.0,3.0,mouselab-mdp,,4
"[13705, 20458, 23225]","[u'left', u'left', u'up']",,,"[3, 0, 1]","[True, True, True]",,"[u'1', 4, 8, 14]","[False, False, False]","[True, False, False]","{u'mouseover': {u'state': {u'target': [], u'time': []}, u'edge': {u'target': [], u'time': []}}, u'click': {u'state': {u'target': [u'3', u'7', u'5', u'2', u'4', u'8', u'14', u'15'], u'time': [1311, 2342, 3447, 4671, 6783, 7606, 8463, 9367]}, u'edge': {u'target': [], u'time': []}}, u'mouseout': {u'state': {u'target': [], u'time': []}, u'edge': {u'target': [], u'time': []}}}",,,"[13704, 762, 1989]",54.0,,815083,9.0,0.0,mouselab-mdp,,4
"[11835, 18411, 20371]","[u'up', u'up', u'right']",,,"[3, 0, 1]","[True, True, True]",,"[u'1', 3, 7, 13]","[False, False, False]","[True, False, False]","{u'mouseover': {u'state': {u'target': [], u'time': []}, u'edge': {u'target': [], u'time': []}}, u'click': {u'state': {u'target': [u'4', u'8', u'2', u'6', u'3', u'7', u'13'], u'time': [2097, 3232, 5088, 6000, 7392, 8504, 9464]}, u'edge': {u'target': [], u'time': []}}, u'mouseout': {u'state': {u'target': [], u'time': []}, u'edge': {u'target': [], u'time': []}}}",,,"[11835, 631, 1120]",48.0,,875011,10.0,4.0,mouselab-mdp,,4
"[9345, 11089, 12833]","[u'up', u'up', u'right']",,,[],[],,"[u'1', 3, 7, 13]",[],[],"{u'mouseover': {u'state': {u'target': [], u'time': []}, u'edge': {u'target': [], u'time': []}}, u'click': {u'state': {u'target': [u'3', u'7', u'13'], u'time': [1807, 2974, 4191]}, u'edge': {u'target': [], u'time': []}}, u'mouseout': {u'state': {u'target': [], u'time': []}, u'edge': {u'target': [], u'time': []}}}",,,"[9345, 1229, 1239]",52.0,,926138,11.0,2.0,mouselab-mdp,,4
"[18889, 21114, 23001]","[u'right', u'right', u'down']",,,[],[],,"[u'1', 2, 6, 11]",[],[],"{u'mouseover': {u'state': {u'target': [], u'time': []}, u'edge': {u'target': [], u'time': []}}, u'click': {u'state': {u'target': [u'3', u'7', u'13', u'12', u'5', u'9', u'16', u'17', u'2', u'6', u'11'], u'time': [4720, 6039, 6999, 7999, 9943, 10831, 11816, 12439, 13376, 14295, 14967]}, u'edge': {u'target': [], u'time': []}}, u'mouseout': {u'state': {u'target': [], u'time': []}, u'edge': {u'target': [], u'time': []}}}",,,"[18889, 1715, 1369]",46.0,,975746,12.0,6.0,mouselab-mdp,,4
"[15727, 18095, 23326]","[u'down', u'down', u'right']",,,[],[],,"[u'1', 5, 9, 17]",[],[],"{u'mouseover': {u'state': {u'target': [], u'time': []}, u'edge': {u'target': [], u'time': []}}, u'click': {u'state': {u'target': [u'3', u'7', u'2', u'5', u'9', u'16', u'4', u'8', u'17'], u'time': [2892, 3963, 5267, 6291, 7323, 8532, 11868, 12611, 20932]}, u'edge': {u'target': [], u'time': []}}, u'mouseout': {u'state': {u'target': [], u'time': []}, u'edge': {u'target': [], u'time': []}}}",,,"[15727, 1853, 4718]",42.0,,1025618,13.0,9.0,mouselab-mdp,,4
"[12957, 14396, 16188]","[u'up', u'up', u'left']",,,[],[],,"[u'1', 3, 7, 12]",[],[],"{u'mouseover': {u'state': {u'target': [], u'time': []}, u'edge': {u'target': [], u'time': []}}, u'click': {u'state': {u'target': [u'5', u'9', u'4', u'8', u'2', u'6', u'3', u'7', u'13', u'12'], u'time': [2283, 3539, 5067, 5875, 6786, 7402, 8547, 9379, 10218, 11186]}, u'edge': {u'target': [], u'time': []}}, u'mouseout': {u'state': {u'target': [], u'time': []}, u'edge': {u'target': [], u'time': []}}}",,,"[12956, 921, 1279]",37.0,,1074824,14.0,5.0,mouselab-mdp,,4
"[11014, 12357, 13941]","[u'left', u'left', u'up']",,,[],[],,"[u'1', 4, 8, 14]",[],[],"{u'mouseover': {u'state': {u'target': [], u'time': []}, u'edge': {u'target': [], u'time': []}}, u'click': {u'state': {u'target': [u'3', u'2', u'6', u'5', u'4', u'8', u'14', u'15'], u'time': [1171, 2179, 3108, 4308, 5835, 6683, 7651, 8380]}, u'edge': {u'target': [], u'time': []}}, u'mouseout': {u'state': {u'target': [], u'time': []}, u'edge': {u'target': [], u'time': []}}}",,,"[11014, 832, 1066]",20.0,,1123729,15.0,7.0,mouselab-mdp,,4
"[11522, 12938, 14666]","[u'right', u'right', u'up']",,,[],[],,"[u'1', 2, 6, 10]",[],[],"{u'mouseover': {u'state': {u'target': [], u'time': []}, u'edge': {u'target': [], u'time': []}}, u'click': {u'state': {u'target': [u'4', u'8', u'3', u'2', u'6', u'10', u'11'], u'time': [2448, 3199, 4127, 5503, 6167, 7320, 8553]}, u'edge': {u'target': [], u'time': []}}, u'mouseout': {u'state': {u'target': [], u'time': []}, u'edge': {u'target': [], u'time': []}}}",,,"[11522, 907, 1218]",46.0,,1174185,16.0,10.0,mouselab-mdp,,4
"[1706, 26369, 27347]","[u'right', u'right', u'up']",,,"[22, 0, 8]",,,"[u'1', 2, 6, 10]",,,"{u'mouseover': {u'state': {u'target': [], u'time': []}, u'edge': {u'target': [], u'time': []}}, u'click': {u'state': {u'target': [], u'time': []}, u'edge': {u'target': [], u'time': []}}, u'mouseout': {u'state': {u'target': [], u'time': []}, u'edge': {u'target': [], u'time': []}}}",,,"[1706, 540, 4]",9.0,,150603,1.0,0.0,mouselab-mdp,,5
"[26725, 43573, 47195]","[u'up', u'up', u'right']",,,"[7, 0, 0]","[False, True, True]",,"[u'1', 3, 7, 13]","[True, False, False]","[False, False, False]","{u'mouseover': {u'state': {u'target': [], u'time': []}, u'edge': {u'target': [], u'time': []}}, u'click': {u'state': {u'target': [u'3', u'2', u'5', u'4', u'12', u'13', u'16', u'17', u'7', u'9'], u'time': [2512, 3656, 4887, 6061, 11995, 13123, 15287, 16224, 21100, 22165]}, u'edge': {u'target': [], u'time': []}}, u'mouseout': {u'state': {u'target': [], u'time': []}, u'edge': {u'target': [], u'time': []}}}",,,"[26725, 5025, 2865]",11.0,,292029,1.0,6.0,mouselab-mdp,,6
"[16428, 21500, 23812]","[u'left', u'left', u'up']",,,"[0, 0, 0]","[True, True, True]",,"[u'1', 4, 8, 14]","[False, False, False]","[True, False, False]","{u'mouseover': {u'state': {u'target': [], u'time': []}, u'edge': {u'target': [], u'time': []}}, u'click': {u'state': {u'target': [u'3', u'4', u'5', u'2', u'7', u'12', u'13', u'10', u'6', u'11', u'17', u'9', u'16', u'15', u'8', u'14'], u'time': [1340, 2097, 2688, 3256, 4079, 4534, 5307, 5918, 6468, 7096, 7644, 8092, 8568, 9080, 9578, 9996]}, u'edge': {u'target': [], u'time': []}}, u'mouseout': {u'state': {u'target': [], u'time': []}, u'edge': {u'target': [], u'time': []}}}",,,"[16428, 2, 1823]",46.0,,347957,2.0,0.0,mouselab-mdp,,6
"[16107, 22446, 24292]","[u'right', u'right', u'down']",,,"[0, 0, 0]","[True, True, True]",,"[u'1', 2, 6, 11]","[False, False, False]","[True, False, False]","{u'mouseover': {u'state': {u'target': [], u'time': []}, u'edge': {u'target': [], u'time': []}}, u'click': {u'state': {u'target': [u'12', u'7', u'13', u'10', u'6', u'11', u'17', u'9', u'16', u'15', u'8', u'14', u'4', u'2', u'5', u'3'], u'time': [1286, 1826, 2304, 3748, 4299, 4816, 5519, 6164, 7012, 7839, 8448, 9032, 9749, 10630, 11657, 13607]}, u'edge': {u'target': [], u'time': []}}, u'mouseout': {u'state': {u'target': [], u'time': []}, u'edge': {u'target': [], u'time': []}}}",,,"[16106, 6, 1337]",42.0,,406728,3.0,8.0,mouselab-mdp,,6
"[7269, 42560, 49540]","[u'down', u'down', u'left']",,,"[23, 3, 7]","[False, True, True]",,"[u'1', 5, 9, 16]","[False, False, True]","[False, True, False]","{u'mouseover': {u'state': {u'target': [], u'time': []}, u'edge': {u'target': [], u'time': []}}, u'click': {u'state': {u'target': [u'3', u'7', u'13', u'9', u'16'], u'time': [1624, 2531, 3417, 38586, 39447]}, u'edge': {u'target': [], u'time': []}}, u'mouseout': {u'state': {u'target': [], u'time': []}, u'edge': {u'target': [], u'time': []}}}",,,"[7269, 8669, 2085]",18.0,,493167,4.0,4.0,mouselab-mdp,,6
"[12874, 17768, 20125]","[u'up', u'up', u'right']",,,"[0, 0, 0]","[True, True, True]",,"[u'1', 3, 7, 13]","[False, False, False]","[True, False, False]","{u'mouseover': {u'state': {u'target': [], u'time': []}, u'edge': {u'target': [], u'time': []}}, u'click': {u'state': {u'target': [u'2', u'6', u'4', u'5', u'3', u'7', u'13'], u'time': [2341, 4270, 6016, 6826, 7556, 8748, 9396]}, u'edge': {u'target': [], u'time': []}}, u'mouseout': {u'state': {u'target': [], u'time': []}, u'edge': {u'target': [], u'time': []}}}",,,"[12874, 2, 1286]",48.0,,547534,5.0,3.0,mouselab-mdp,,6
"[13649, 18312, 19726]","[u'down', u'down', u'right']",,,"[0, 0, 0]","[True, True, True]",,"[u'1', 5, 9, 17]","[False, False, False]","[True, False, False]","{u'mouseover': {u'state': {u'target': [], u'time': []}, u'edge': {u'target': [], u'time': []}}, u'click': {u'state': {u'target': [u'2', u'4', u'8', u'14', u'15', u'5', u'9', u'16', u'17'], u'time': [2139, 3120, 4750, 5499, 6330, 7264, 7839, 8697, 9385]}, u'edge': {u'target': [], u'time': []}}, u'mouseout': {u'state': {u'target': [], u'time': []}, u'edge': {u'target': [], u'time': []}}}",,,"[13649, 3, 632]",42.0,,599849,6.0,9.0,mouselab-mdp,,6
"[9051, 12664, 14403]","[u'up', u'up', u'left']",,,"[0, 0, 0]","[True, True, True]",,"[u'1', 3, 7, 12]","[False, False, False]","[False, False, False]","{u'mouseover': {u'state': {u'target': [], u'time': []}, u'edge': {u'target': [], u'time': []}}, u'click': {u'state': {u'target': [u'3', u'7', u'13', u'12'], u'time': [1362, 2216, 2920, 4100]}, u'edge': {u'target': [], u'time': []}}, u'mouseout': {u'state': {u'target': [], u'time': []}, u'edge': {u'target': [], u'time': []}}}",,,"[9051, 4, 827]",48.0,,651336,7.0,12.0,mouselab-mdp,,6
"[14830, 20028, 22527]","[u'up', u'up', u'right']",,,"[0, 0, 0]","[True, True, True]",,"[u'1', 3, 7, 13]","[False, False, False]","[True, False, False]","{u'mouseover': {u'state': {u'target': [], u'time': []}, u'edge': {u'target': [], u'time': []}}, u'click': {u'state': {u'target': [u'3', u'12', u'13', u'7', u'5', u'9', u'16', u'17', u'2', u'4'], u'time': [1195, 2960, 3664, 4690, 6106, 6746, 7534, 8466, 9452, 10091]}, u'edge': {u'target': [], u'time': []}}, u'mouseout': {u'state': {u'target': [], u'time': []}, u'edge': {u'target': [], u'time': []}}}",,,"[14830, 635, 1709]",30.0,,704215,8.0,1.0,mouselab-mdp,,6
"[10255, 14513, 15971]","[u'up', u'up', u'left']",,,"[0, 0, 0]","[True, True, True]",,"[u'1', 3, 7, 12]","[False, False, False]","[False, False, False]","{u'mouseover': {u'state': {u'target': [], u'time': []}, u'edge': {u'target': [], u'time': []}}, u'click': {u'state': {u'target': [u'5', u'9', u'16', u'17', u'3', u'7', u'13', u'12'], u'time': [1038, 1859, 2660, 3608, 4864, 5536, 6270, 6990]}, u'edge': {u'target': [], u'time': []}}, u'mouseout': {u'state': {u'target': [], u'time': []}, u'edge': {u'target': [], u'time': []}}}",,,"[10255, 3, 668]",41.0,,756101,9.0,15.0,mouselab-mdp,,6
"[13692, 18802, 21633]","[u'up', u'up', u'left']",,,"[0, 0, 0]","[True, True, True]",,"[u'1', 3, 7, 12]","[False, False, False]","[True, False, False]","{u'mouseover': {u'state': {u'target': [], u'time': []}, u'edge': {u'target': [], u'time': []}}, u'click': {u'state': {u'target': [u'4', u'8', u'14', u'15', u'2', u'6', u'5', u'3', u'7', u'12', u'13'], u'time': [1933, 2573, 3201, 3969, 5165, 5678, 6515, 7511, 8651, 9125, 9863]}, u'edge': {u'target': [], u'time': []}}, u'mouseout': {u'state': {u'target': [], u'time': []}, u'edge': {u'target': [], u'time': []}}}",,,"[13692, 3, 2036]",39.0,,808096,10.0,13.0,mouselab-mdp,,6
"[9899, 13312, 15894]","[u'up', u'up', u'left']",,,[],[],,"[u'1', 3, 7, 12]",[],[],"{u'mouseover': {u'state': {u'target': [], u'time': []}, u'edge': {u'target': [], u'time': []}}, u'click': {u'state': {u'target': [u'3', u'4', u'5', u'2', u'12', u'13'], u'time': [1160, 2872, 3542, 4212, 5700, 6622]}, u'edge': {u'target': [], u'time': []}}, u'mouseout': {u'state': {u'target': [], u'time': []}, u'edge': {u'target': [], u'time': []}}}",,,"[9899, 2918, 2096]",46.0,,866123,11.0,14.0,mouselab-mdp,,6
"[14264, 14995, 15877]","[u'up', u'up', u'right']",,,[],[],,"[u'1', 3, 7, 13]",[],[],"{u'mouseover': {u'state': {u'target': [], u'time': []}, u'edge': {u'target': [], u'time': []}}, u'click': {u'state': {u'target': [u'3', u'5', u'4', u'2', u'10', u'11', u'6', u'7', u'12', u'13'], u'time': [1446, 3158, 3939, 4768, 6517, 7365, 8127, 9106, 9701, 10581]}, u'edge': {u'target': [], u'time': []}}, u'mouseout': {u'state': {u'target': [], u'time': []}, u'edge': {u'target': [], u'time': []}}}",,,"[14264, 240, 355]",45.0,,914305,12.0,2.0,mouselab-mdp,,6
"[14949, 15562, 16681]","[u'right', u'right', u'up']",,,[],[],,"[u'1', 2, 6, 10]",[],[],"{u'mouseover': {u'state': {u'target': [], u'time': []}, u'edge': {u'target': [], u'time': []}}, u'click': {u'state': {u'target': [u'3', u'2', u'5', u'4', u'8', u'6', u'10', u'11'], u'time': [1064, 1918, 2624, 3538, 6084, 7038, 8586, 9582]}, u'edge': {u'target': [], u'time': []}}, u'mouseout': {u'state': {u'target': [], u'time': []}, u'edge': {u'target': [], u'time': []}}}",,,"[14948, 113, 631]",45.0,,964546,13.0,10.0,mouselab-mdp,,6
"[27186, 28249, 29606]","[u'right', u'right', u'down']",,,[],[],,"[u'1', 2, 6, 11]",[],[],"{u'mouseover': {u'state': {u'target': [], u'time': []}, u'edge': {u'target': [], u'time': []}}, u'click': {u'state': {u'target': [u'2', u'5', u'4', u'3', u'9', u'7', u'6', u'8', u'13', u'12', u'10', u'11', u'17', u'16', u'15', u'14'], u'time': [2157, 2994, 3904, 4650, 7734, 8838, 9808, 10852, 13944, 15011, 15942, 16855, 17817, 18849, 22537, 23259]}, u'edge': {u'target': [], u'time': []}}, u'mouseout': {u'state': {u'target': [], u'time': []}, u'edge': {u'target': [], u'time': []}}}",,,"[27186, 562, 851]",12.0,,1015585,14.0,11.0,mouselab-mdp,,6
"[9585, 10438, 11302]","[u'up', u'up', u'left']",,,[],[],,"[u'1', 3, 7, 12]",[],[],"{u'mouseover': {u'state': {u'target': [], u'time': []}, u'edge': {u'target': [], u'time': []}}, u'click': {u'state': {u'target': [u'3', u'7', u'12', u'13'], u'time': [2601, 3745, 4481, 5217]}, u'edge': {u'target': [], u'time': []}}, u'mouseout': {u'state': {u'target': [], u'time': []}, u'edge': {u'target': [], u'time': []}}}",,,"[9585, 363, 376]",43.0,,1075407,15.0,5.0,mouselab-mdp,,6
"[11101, 11701, 13272]","[u'left', u'left', u'up']",,,[],[],,"[u'1', 4, 8, 14]",[],[],"{u'mouseover': {u'state': {u'target': [], u'time': []}, u'edge': {u'target': [], u'time': []}}, u'click': {u'state': {u'target': [u'3', u'2', u'5', u'4', u'6', u'10', u'11', u'8', u'14', u'15'], u'time': [1686, 2435, 3081, 3665, 4690, 5353, 5999, 6687, 7240, 8182]}, u'edge': {u'target': [], u'time': []}}, u'mouseout': {u'state': {u'target': [], u'time': []}, u'edge': {u'target': [], u'time': []}}}",,,"[11101, 105, 1075]",18.0,,1128884,16.0,7.0,mouselab-mdp,,6
"[24111, 25581, 26297]","[u'up', u'up', u'right']",,,"[-1, -1, -1]",,,"[u'1', 3, 7, 13]",,,"{u'mouseover': {u'state': {u'target': [], u'time': []}, u'edge': {u'target': [], u'time': []}}, u'click': {u'state': {u'target': [u'2', u'5', u'4', u'3', u'9', u'16', u'17', u'7', u'12', u'13', u'8', u'15', u'14', u'6', u'11', u'10'], u'time': [2656, 3818, 4779, 6365, 8013, 10393, 11718, 13483, 14355, 15331, 18223, 18864, 19630, 20599, 21434, 22330]}, u'edge': {u'target': [], u'time': []}}, u'mouseout': {u'state': {u'target': [], u'time': []}, u'edge': {u'target': [], u'time': []}}}",,,"[24111, 220, 226]",24.0,,1151217,1.0,1.0,mouselab-mdp,,7
"[9045, 10602, 11757]","[u'up', u'up', u'left']",,,"[-1, -1, -1]",,,"[u'1', 3, 7, 12]",,,"{u'mouseover': {u'state': {u'target': [], u'time': []}, u'edge': {u'target': [], u'time': []}}, u'click': {u'state': {u'target': [u'3', u'7', u'13', u'12'], u'time': [2262, 4346, 6047, 7258]}, u'edge': {u'target': [], u'time': []}}, u'mouseout': {u'state': {u'target': [], u'time': []}, u'edge': {u'target': [], u'time': []}}}",,,"[9045, 526, 501]",43.0,,1201572,2.0,5.0,mouselab-mdp,,7
"[19705, 20997, 22153]","[u'left', u'left', u'up']",,,"[-1, -1, -1]",,,"[u'1', 4, 8, 14]",,,"{u'mouseover': {u'state': {u'target': [], u'time': []}, u'edge': {u'target': [], u'time': []}}, u'click': {u'state': {u'target': [u'3', u'5', u'4', u'2', u'6', u'8', u'11', u'14', u'15'], u'time': [2349, 3474, 4299, 6566, 7621, 9432, 11231, 12416, 18383]}, u'edge': {u'target': [], u'time': []}}, u'mouseout': {u'state': {u'target': [], u'time': []}, u'edge': {u'target': [], u'time': []}}}",,,"[19705, 3, 490]",19.0,,1259202,3.0,7.0,mouselab-mdp,,7
"[8991, 10122, 10881]","[u'up', u'up', u'right']",,,"[-1, -1, -1]",,,"[u'1', 3, 7, 13]",,,"{u'mouseover': {u'state': {u'target': [], u'time': []}, u'edge': {u'target': [], u'time': []}}, u'click': {u'state': {u'target': [u'3', u'5', u'7', u'13', u'12'], u'time': [2295, 3367, 5145, 6303, 8194]}, u'edge': {u'target': [], u'time': []}}, u'mouseout': {u'state': {u'target': [], u'time': []}, u'edge': {u'target': [], u'time': []}}}",,,"[8991, 5, 85]",50.0,,1308496,4.0,4.0,mouselab-mdp,,7
"[7780, 8860, 9660]","[u'down', u'down', u'right']",,,"[-1, -1, -1]",,,"[u'1', 5, 9, 17]",,,"{u'mouseover': {u'state': {u'target': [], u'time': []}, u'edge': {u'target': [], u'time': []}}, u'click': {u'state': {u'target': [u'3', u'5', u'9', u'16', u'17'], u'time': [1358, 2374, 3986, 5042, 5991]}, u'edge': {u'target': [], u'time': []}}, u'mouseout': {u'state': {u'target': [], u'time': []}, u'edge': {u'target': [], u'time': []}}}",,,"[7780, 2, 126]",46.0,,1379904,5.0,9.0,mouselab-mdp,,7
"[22321, 23473, 24216]","[u'right', u'right', u'down']",,,"[-1, -1, -1]",,,"[u'1', 2, 6, 11]",,,"{u'mouseover': {u'state': {u'target': [], u'time': []}, u'edge': {u'target': [], u'time': []}}, u'click': {u'state': {u'target': [u'3', u'7', u'13', u'12', u'5', u'9', u'16', u'17', u'4', u'2', u'6', u'10', u'11'], u'time': [2332, 3990, 5997, 7420, 10168, 11343, 13081, 13996, 15514, 16499, 18087, 19854, 20808]}, u'edge': {u'target': [], u'time': []}}, u'mouseout': {u'state': {u'target': [], u'time': []}, u'edge': {u'target': [], u'time': []}}}",,,"[22320, 3, 173]",44.0,,1430376,6.0,6.0,mouselab-mdp,,7
"[24798, 26070, 26823]","[u'up', u'up', u'right']",,,"[-1, -1, -1]",,,"[u'1', 3, 7, 13]",,,"{u'mouseover': {u'state': {u'target': [], u'time': []}, u'edge': {u'target': [], u'time': []}}, u'click': {u'state': {u'target': [u'14', u'15', u'3', u'4', u'8', u'2', u'6', u'5', u'7', u'12', u'13'], u'time': [3727, 4697, 8954, 11002, 12726, 14319, 15995, 17778, 19141, 22640, 23444]}, u'edge': {u'target': [], u'time': []}}, u'mouseout': {u'state': {u'target': [], u'time': []}, u'edge': {u'target': [], u'time': []}}}",,,"[24798, 4, 137]",44.0,,1477559,7.0,3.0,mouselab-mdp,,7
"[17522, 18901, 19577]","[u'up', u'up', u'right']",,,"[-1, -1, -1]",,,"[u'1', 3, 7, 13]",,,"{u'mouseover': {u'state': {u'target': [], u'time': []}, u'edge': {u'target': [], u'time': []}}, u'click': {u'state': {u'target': [u'3', u'4', u'5', u'2', u'7', u'6', u'12', u'13', u'8'], u'time': [1765, 4033, 5921, 7146, 9466, 10612, 11911, 12761, 15882]}, u'edge': {u'target': [], u'time': []}}, u'mouseout': {u'state': {u'target': [], u'time': []}, u'edge': {u'target': [], u'time': []}}}",,,"[17522, 14, 3]",46.0,,1528013,8.0,2.0,mouselab-mdp,,7
"[13392, 14649, 15272]","[u'right', u'right', u'down']",,,"[-1, -1, -1]",,,"[u'1', 2, 6, 11]",,,"{u'mouseover': {u'state': {u'target': [], u'time': []}, u'edge': {u'target': [], u'time': []}}, u'click': {u'state': {u'target': [u'3', u'4', u'2', u'5', u'9', u'16', u'17', u'6', u'10', u'11'], u'time': [1643, 2725, 3791, 4644, 7090, 7810, 8721, 9946, 10900, 11718]}, u'edge': {u'target': [], u'time': []}}, u'mouseout': {u'state': {u'target': [], u'time': []}, u'edge': {u'target': [], u'time': []}}}",,,"[13392, 3, 3]",48.0,,1577617,9.0,8.0,mouselab-mdp,,7
"[8841, 9948, 10618]","[u'left', u'left', u'up']",,,"[-1, -1, -1]",,,"[u'1', 4, 8, 14]",,,"{u'mouseover': {u'state': {u'target': [], u'time': []}, u'edge': {u'target': [], u'time': []}}, u'click': {u'state': {u'target': [u'3', u'4', u'8', u'15', u'14'], u'time': [1362, 2588, 4788, 6838, 7809]}, u'edge': {u'target': [], u'time': []}}, u'mouseout': {u'state': {u'target': [], u'time': []}, u'edge': {u'target': [], u'time': []}}}",,,"[8841, 4, 3]",57.0,,1638967,10.0,0.0,mouselab-mdp,,7
"[16610, 17981, 18698]","[u'right', u'right', u'down']",,,[],,,"[u'1', 2, 6, 11]",,,"{u'mouseover': {u'state': {u'target': [], u'time': []}, u'edge': {u'target': [], u'time': []}}, u'click': {u'state': {u'target': [u'3', u'4', u'5', u'2', u'9', u'7', u'6', u'10', u'11', u'12'], u'time': [1516, 3955, 4778, 5599, 8278, 9391, 10388, 13035, 13815, 15459]}, u'edge': {u'target': [], u'time': []}}, u'mouseout': {u'state': {u'target': [], u'time': []}, u'edge': {u'target': [], u'time': []}}}",,,"[16609, 869, 203]",18.0,,1698241,11.0,11.0,mouselab-mdp,,7
"[6401, 6970, 7588]","[u'up', u'up', u'left']",,,[],,,"[u'1', 3, 7, 12]",,,"{u'mouseover': {u'state': {u'target': [], u'time': []}, u'edge': {u'target': [], u'time': []}}, u'click': {u'state': {u'target': [u'3', u'7', u'13', u'12'], u'time': [1053, 2391, 4170, 5289]}, u'edge': {u'target': [], u'time': []}}, u'mouseout': {u'state': {u'target': [], u'time': []}, u'edge': {u'target': [], u'time': []}}}",,,"[6400, 74, 124]",48.0,,1791751,12.0,12.0,mouselab-mdp,,7
"[5014, 5881, 6530]","[u'up', u'up', u'left']",,,[],,,"[u'1', 3, 7, 12]",,,"{u'mouseover': {u'state': {u'target': [], u'time': []}, u'edge': {u'target': [], u'time': []}}, u'click': {u'state': {u'target': [u'3', u'7', u'13', u'12'], u'time': [1348, 2695, 3416, 4226]}, u'edge': {u'target': [], u'time': []}}, u'mouseout': {u'state': {u'target': [], u'time': []}, u'edge': {u'target': [], u'time': []}}}",,,"[5014, 369, 151]",46.0,,1838731,13.0,13.0,mouselab-mdp,,7
"[13323, 14144, 15056]","[u'up', u'up', u'left']",,,[],,,"[u'1', 3, 7, 12]",,,"{u'mouseover': {u'state': {u'target': [], u'time': []}, u'edge': {u'target': [], u'time': []}}, u'click': {u'state': {u'target': [u'3', u'7', u'5', u'4', u'8', u'14', u'15', u'12', u'13'], u'time': [1121, 2220, 3947, 4941, 6908, 8809, 9986, 11000, 12636]}, u'edge': {u'target': [], u'time': []}}, u'mouseout': {u'state': {u'target': [], u'time': []}, u'edge': {u'target': [], u'time': []}}}",,,"[13323, 327, 423]",43.0,,1886452,14.0,14.0,mouselab-mdp,,7
"[14656, 15161, 15788]","[u'right', u'right', u'up']",,,[],,,"[u'1', 2, 6, 10]",,,"{u'mouseover': {u'state': {u'target': [], u'time': []}, u'edge': {u'target': [], u'time': []}}, u'click': {u'state': {u'target': [u'3', u'5', u'4', u'8', u'9', u'17', u'16', u'14', u'2', u'6', u'11', u'10'], u'time': [1374, 2215, 3009, 4411, 5322, 6629, 7551, 9381, 10559, 11394, 12620, 13764]}, u'edge': {u'target': [], u'time': []}}, u'mouseout': {u'state': {u'target': [], u'time': []}, u'edge': {u'target': [], u'time': []}}}",,,"[14656, 3, 112]",41.0,,1937708,15.0,10.0,mouselab-mdp,,7
"[6423, 6945, 7567]","[u'up', u'up', u'left']",,,[],,,"[u'1', 3, 7, 12]",,,"{u'mouseover': {u'state': {u'target': [], u'time': []}, u'edge': {u'target': [], u'time': []}}, u'click': {u'state': {u'target': [u'3', u'7', u'12', u'13'], u'time': [994, 2115, 3447, 5774]}, u'edge': {u'target': [], u'time': []}}, u'mouseout': {u'state': {u'target': [], u'time': []}, u'edge': {u'target': [], u'time': []}}}",,,"[6423, 24, 130]",45.0,,2029954,16.0,15.0,mouselab-mdp,,7
"[9155, 32716, 57597]","[u'right', u'right', u'down']",,,"[15, 0, 3]",,,"[u'1', 2, 6, 11]",,,"{u'mouseover': {u'state': {u'target': [], u'time': []}, u'edge': {u'target': [], u'time': []}}, u'click': {u'state': {u'target': [u'2', u'6', u'11', u'10'], u'time': [7225, 29626, 38541, 43442]}, u'edge': {u'target': [], u'time': []}}, u'mouseout': {u'state': {u'target': [], u'time': []}, u'edge': {u'target': [], u'time': []}}}",,,"[9153, 6464, 23775]",17.0,,245647,1.0,4.0,mouselab-mdp,,8
"[12896, 37121, 44240]","[u'left', u'left', u'down']",,,"[15, 0, 3]",,,"[u'1', 4, 8, 15]",,,"{u'mouseover': {u'state': {u'target': [], u'time': []}, u'edge': {u'target': [], u'time': []}}, u'click': {u'state': {u'target': [u'4', u'5', u'3', u'2', u'8', u'14', u'15'], u'time': [3619, 5890, 7177, 9921, 35056, 40245, 42606]}, u'edge': {u'target': [], u'time': []}}, u'mouseout': {u'state': {u'target': [], u'time': []}, u'edge': {u'target': [], u'time': []}}}",,,"[12896, 6686, 6051]",11.5,,319402,2.0,5.0,mouselab-mdp,,8
"[11759, 32688, 36473]","[u'right', u'right', u'down']",,,"[15, 0, 3]",,,"[u'1', 2, 6, 11]",,,"{u'mouseover': {u'state': {u'target': [], u'time': []}, u'edge': {u'target': [], u'time': []}}, u'click': {u'state': {u'target': [u'4', u'3', u'2', u'5', u'6', u'11'], u'time': [2445, 4623, 6275, 7978, 30892, 34865]}, u'edge': {u'target': [], u'time': []}}, u'mouseout': {u'state': {u'target': [], u'time': []}, u'edge': {u'target': [], u'time': []}}}",,,"[11758, 3400, 2687]",12.0,,401904,3.0,2.0,mouselab-mdp,,8
"[5165, 64586, 68108]","[u'up', u'up', u'right']",,,"[15, 0, 3]",,,"[u'1', 3, 7, 13]",,,"{u'mouseover': {u'state': {u'target': [], u'time': []}, u'edge': {u'target': [], u'time': []}}, u'click': {u'state': {u'target': [u'3', u'7', u'13'], u'time': [2701, 62323, 67228]}, u'edge': {u'target': [], u'time': []}}, u'mouseout': {u'state': {u'target': [], u'time': []}, u'edge': {u'target': [], u'time': []}}}",,,"[5165, 42271, 2397]",15.5,,478658,4.0,7.0,mouselab-mdp,,8
"[9739, 31507, 45426]","[u'left', u'left', u'down']",,,"[15, 0, 3]",,,"[u'1', 4, 8, 15]",,,"{u'mouseover': {u'state': {u'target': [], u'time': []}, u'edge': {u'target': [], u'time': []}}, u'click': {u'state': {u'target': [u'3', u'4', u'8', u'14', u'15'], u'time': [5477, 8418, 29984, 38177, 39565]}, u'edge': {u'target': [], u'time': []}}, u'mouseout': {u'state': {u'target': [], u'time': []}, u'edge': {u'target': [], u'time': []}}}",,,"[9739, 4450, 12831]",0.5,,552023,5.0,8.0,mouselab-mdp,,8
"[9947, 46542, 52977]","[u'right', u'right', u'down']",,,"[15, 0, 3]",,,"[u'1', 2, 6, 11]",,,"{u'mouseover': {u'state': {u'target': [], u'time': []}, u'edge': {u'target': [], u'time': []}}, u'click': {u'state': {u'target': [u'5', u'2', u'3', u'6', u'10', u'11'], u'time': [2925, 4401, 40978, 44969, 48601, 50897]}, u'edge': {u'target': [], u'time': []}}, u'mouseout': {u'state': {u'target': [], u'time': []}, u'edge': {u'target': [], u'time': []}}}",,,"[9947, 19376, 4988]",-1.0,,621120,6.0,6.0,mouselab-mdp,,8
"[12307, 33511, 37479]","[u'left', u'left', u'up']",,,"[15, 0, 3]",,,"[u'1', 4, 8, 14]",,,"{u'mouseover': {u'state': {u'target': [], u'time': []}, u'edge': {u'target': [], u'time': []}}, u'click': {u'state': {u'target': [u'5', u'3', u'2', u'4', u'8', u'14'], u'time': [6872, 8702, 9767, 10685, 31198, 35888]}, u'edge': {u'target': [], u'time': []}}, u'mouseout': {u'state': {u'target': [], u'time': []}, u'edge': {u'target': [], u'time': []}}}",,,"[12307, 3656, 2834]",10.0,,693949,7.0,3.0,mouselab-mdp,,8
"[13081, 33296, 54090]","[u'down', u'down', u'left']",,,"[15, 0, 3]",,,"[u'1', 5, 9, 16]",,,"{u'mouseover': {u'state': {u'target': [], u'time': []}, u'edge': {u'target': [], u'time': []}}, u'click': {u'state': {u'target': [u'2', u'5', u'4', u'3', u'9', u'17', u'16'], u'time': [5497, 7117, 9120, 10538, 32063, 37167, 40409]}, u'edge': {u'target': [], u'time': []}}, u'mouseout': {u'state': {u'target': [], u'time': []}, u'edge': {u'target': [], u'time': []}}}",,,"[13081, 2649, 19697]",-15.5,,764522,8.0,0.0,mouselab-mdp,,8
"[6659, 58858, 63647]","[u'down', u'down', u'left']",,,"[15, 0, 3]",,,"[u'1', 5, 9, 16]",,,"{u'mouseover': {u'state': {u'target': [], u'time': []}, u'edge': {u'target': [], u'time': []}}, u'click': {u'state': {u'target': [u'3', u'5', u'9', u'16'], u'time': [3190, 4494, 56287, 61708]}, u'edge': {u'target': [], u'time': []}}, u'mouseout': {u'state': {u'target': [], u'time': []}, u'edge': {u'target': [], u'time': []}}}",,,"[6659, 34926, 3632]",19.0,,838319,9.0,9.0,mouselab-mdp,,8
"[4946, 25224, 32698]","[u'right', u'right', u'down']",,,"[15, 0, 3]",,,"[u'1', 2, 6, 11]",,,"{u'mouseover': {u'state': {u'target': [], u'time': []}, u'edge': {u'target': [], u'time': []}}, u'click': {u'state': {u'target': [u'2', u'6', u'10', u'11'], u'time': [2319, 23554, 29142, 31087]}, u'edge': {u'target': [], u'time': []}}, u'mouseout': {u'state': {u'target': [], u'time': []}, u'edge': {u'target': [], u'time': []}}}",,,"[4946, 3107, 6350]",-3.0,,926812,10.0,1.0,mouselab-mdp,,8
"[8635, 11500, 16293]","[u'up', u'up', u'left']",,,[],,,"[u'1', 3, 7, 12]",,,"{u'mouseover': {u'state': {u'target': [], u'time': []}, u'edge': {u'target': [], u'time': []}}, u'click': {u'state': {u'target': [u'3', u'5', u'2', u'4', u'7', u'13', u'12'], u'time': [2313, 3746, 4476, 5187, 10046, 13777, 15110]}, u'edge': {u'target': [], u'time': []}}, u'mouseout': {u'state': {u'target': [], u'time': []}, u'edge': {u'target': [], u'time': []}}}",,,"[8635, 2343, 4289]",-3.5,,980347,11.0,14.0,mouselab-mdp,,8
"[2856, 5944, 10883]","[u'up', u'up', u'right']",,,[],,,"[u'1', 3, 7, 13]",,,"{u'mouseover': {u'state': {u'target': [], u'time': []}, u'edge': {u'target': [], u'time': []}}, u'click': {u'state': {u'target': [u'3', u'7', u'13', u'12'], u'time': [1411, 4879, 8040, 10007]}, u'edge': {u'target': [], u'time': []}}, u'mouseout': {u'state': {u'target': [], u'time': []}, u'edge': {u'target': [], u'time': []}}}",,,"[2856, 2577, 4433]",25.0,,1030068,12.0,15.0,mouselab-mdp,,8
"[9655, 18154, 24464]","[u'down', u'down', u'left']",,,[],,,"[u'1', 5, 9, 16]",,,"{u'mouseover': {u'state': {u'target': [], u'time': []}, u'edge': {u'target': [], u'time': []}}, u'click': {u'state': {u'target': [u'4', u'5', u'3', u'2', u'9', u'16'], u'time': [4905, 7786, 12706, 13858, 16616, 22178]}, u'edge': {u'target': [], u'time': []}}, u'mouseout': {u'state': {u'target': [], u'time': []}, u'edge': {u'target': [], u'time': []}}}",,,"[9655, 7984, 5795]",22.0,,1079697,13.0,10.0,mouselab-mdp,,8
"[9481, 12795, 17267]","[u'left', u'left', u'up']",,,[],,,"[u'1', 4, 8, 14]",,,"{u'mouseover': {u'state': {u'target': [], u'time': []}, u'edge': {u'target': [], u'time': []}}, u'click': {u'state': {u'target': [u'5', u'4', u'8', u'14'], u'time': [3664, 6745, 11334, 15742]}, u'edge': {u'target': [], u'time': []}}, u'mouseout': {u'state': {u'target': [], u'time': []}, u'edge': {u'target': [], u'time': []}}}",,,"[9481, 2807, 3964]",19.0,,1130834,14.0,13.0,mouselab-mdp,,8
"[7682, 10787, 15839]","[u'down', u'down', u'right']",,,[],,,"[u'1', 5, 9, 17]",,,"{u'mouseover': {u'state': {u'target': [], u'time': []}, u'edge': {u'target': [], u'time': []}}, u'click': {u'state': {u'target': [u'3', u'5', u'9', u'17', u'16'], u'time': [2833, 5011, 9891, 12744, 14342]}, u'edge': {u'target': [], u'time': []}}, u'mouseout': {u'state': {u'target': [], u'time': []}, u'edge': {u'target': [], u'time': []}}}",,,"[7682, 2587, 4539]",7.5,,1180862,15.0,11.0,mouselab-mdp,,8
"[10108, 13693, 234119]","[u'down', u'down', u'left']",,,[],,,"[u'1', 5, 9, 16]",,,"{u'mouseover': {u'state': {u'target': [], u'time': []}, u'edge': {u'target': [], u'time': []}}, u'click': {u'state': {u'target': [u'2', u'4', u'5', u'3', u'9', u'17', u'16'], u'time': [4051, 5919, 6916, 7959, 12442, 231824, 232810]}, u'edge': {u'target': [], u'time': []}}, u'mouseout': {u'state': {u'target': [], u'time': []}, u'edge': {u'target': [], u'time': []}}}",,,"[10108, 3063, 219907]",-0.5,,1425419,16.0,12.0,mouselab-mdp,,8
"[22334, 54806, 59941]","[u'down', u'down', u'left']",,,"[3, 0, 1]",,,"[u'1', 5, 9, 16]",,,"{u'mouseover': {u'state': {u'target': [], u'time': []}, u'edge': {u'target': [], u'time': []}}, u'click': {u'state': {u'target': [u'5', u'17'], u'time': [7245, 13515]}, u'edge': {u'target': [], u'time': []}}, u'mouseout': {u'state': {u'target': [], u'time': []}, u'edge': {u'target': [], u'time': []}}}",,,"[22330, 7379, 700]",4.0,,431067,1.0,5.0,mouselab-mdp,,9
"[9428, 37092, 48439]","[u'left', u'left', u'up']",,,"[3, 0, 1]",,,"[u'1', 4, 8, 14]",,,"{u'mouseover': {u'state': {u'target': [], u'time': []}, u'edge': {u'target': [], u'time': []}}, u'click': {u'state': {u'target': [u'4', u'14'], u'time': [4936, 6893]}, u'edge': {u'target': [], u'time': []}}, u'mouseout': {u'state': {u'target': [], u'time': []}, u'edge': {u'target': [], u'time': []}}}",,,"[9427, 2250, 7230]",26.0,,519511,2.0,7.0,mouselab-mdp,,9
"[10420, 35943, 51696]","[u'up', u'up', u'right']",,,"[3, 0, 1]",,,"[u'1', 3, 7, 13]",,,"{u'mouseover': {u'state': {u'target': [], u'time': []}, u'edge': {u'target': [], u'time': []}}, u'click': {u'state': {u'target': [u'3', u'13'], u'time': [6500, 8182]}, u'edge': {u'target': [], u'time': []}}, u'mouseout': {u'state': {u'target': [], u'time': []}, u'edge': {u'target': [], u'time': []}}}",,,"[10419, 3303, 11800]",53.0,,602295,3.0,2.0,mouselab-mdp,,9
"[25868, 53411, 66924]","[u'down', u'down', u'right']",,,"[3, 0, 1]",,,"[u'1', 5, 9, 17]",,,"{u'mouseover': {u'state': {u'target': [], u'time': []}, u'edge': {u'target': [], u'time': []}}, u'click': {u'state': {u'target': [u'2', u'5', u'16', u'17'], u'time': [13560, 20743, 23468, 65312]}, u'edge': {u'target': [], u'time': []}}, u'mouseout': {u'state': {u'target': [], u'time': []}, u'edge': {u'target': [], u'time': []}}}",,,"[25868, 3180, 8128]",-3.0,,689699,4.0,1.0,mouselab-mdp,,9
"[6683, 30407, 38575]","[u'up', u'up', u'right']",,,"[3, 0, 1]",,,"[u'1', 3, 7, 13]",,,"{u'mouseover': {u'state': {u'target': [], u'time': []}, u'edge': {u'target': [], u'time': []}}, u'click': {u'state': {u'target': [u'3', u'13'], u'time': [2435, 4757]}, u'edge': {u'target': [], u'time': []}}, u'mouseout': {u'state': {u'target': [], u'time': []}, u'edge': {u'target': [], u'time': []}}}",,,"[6681, 1468, 4071]",53.0,,817473,5.0,3.0,mouselab-mdp,,9
"[12197, 39240, 47846]","[u'left', u'left', u'up']",,,"[3, 0, 1]",,,"[u'1', 4, 8, 14]",,,"{u'mouseover': {u'state': {u'target': [], u'time': []}, u'edge': {u'target': [], u'time': []}}, u'click': {u'state': {u'target': [u'4', u'14'], u'time': [5407, 10299]}, u'edge': {u'target': [], u'time': []}}, u'mouseout': {u'state': {u'target': [], u'time': []}, u'edge': {u'target': [], u'time': []}}}",,,"[12197, 5326, 4724]",11.0,,901060,6.0,8.0,mouselab-mdp,,9
"[10572, 35915, 46070]","[u'left', u'left', u'down']",,,"[3, 0, 1]",,,"[u'1', 4, 8, 15]",,,"{u'mouseover': {u'state': {u'target': [], u'time': []}, u'edge': {u'target': [], u'time': []}}, u'click': {u'state': {u'target': [u'4', u'15'], u'time': [5532, 6777]}, u'edge': {u'target': [], u'time': []}}, u'mouseout': {u'state': {u'target': [], u'time': []}, u'edge': {u'target': [], u'time': []}}}",,,"[10572, 4761, 6263]",2.0,,981193,7.0,6.0,mouselab-mdp,,9
"[17820, 43704, 57862]","[u'up', u'up', u'left']",,,"[3, 0, 1]",,,"[u'1', 3, 7, 12]",,,"{u'mouseover': {u'state': {u'target': [], u'time': []}, u'edge': {u'target': [], u'time': []}}, u'click': {u'state': {u'target': [u'2', u'3', u'12', u'13'], u'time': [5557, 13715, 15839, 56434]}, u'edge': {u'target': [], u'time': []}}, u'mouseout': {u'state': {u'target': [], u'time': []}, u'edge': {u'target': [], u'time': []}}}",,,"[17818, 2341, 9736]",-5.0,,1063272,8.0,9.0,mouselab-mdp,,9
"[11892, 54827, 70144]","[u'right', u'right', u'down']",,,"[3, 0, 1]",,,"[u'1', 2, 6, 11]",,,"{u'mouseover': {u'state': {u'target': [], u'time': []}, u'edge': {u'target': [], u'time': []}}, u'click': {u'state': {u'target': [u'2', u'11'], u'time': [6378, 8365]}, u'edge': {u'target': [], u'time': []}}, u'mouseout': {u'state': {u'target': [], u'time': []}, u'edge': {u'target': [], u'time': []}}}",,,"[11891, 6948, 11578]",6.0,,1158268,9.0,4.0,mouselab-mdp,,9
"[15822, 43257, 52799]","[u'left', u'left', u'up']",,,"[3, 0, 1]",,,"[u'1', 4, 8, 14]",,,"{u'mouseover': {u'state': {u'target': [], u'time': []}, u'edge': {u'target': [], u'time': []}}, u'click': {u'state': {u'target': [u'4', u'14'], u'time': [11675, 13605]}, u'edge': {u'target': [], u'time': []}}, u'mouseout': {u'state': {u'target': [], u'time': []}, u'edge': {u'target': [], u'time': []}}}",,,"[15821, 5240, 5423]",60.0,,1240594,10.0,0.0,mouselab-mdp,,9
"[15004, 22326, 31362]","[u'left', u'left', u'up']",,,[],,,"[u'1', 4, 8, 14]",,,"{u'mouseover': {u'state': {u'target': [], u'time': []}, u'edge': {u'target': [], u'time': []}}, u'click': {u'state': {u'target': [u'5', u'4', u'15', u'14'], u'time': [5556, 11240, 12400, 29553]}, u'edge': {u'target': [], u'time': []}}, u'mouseout': {u'state': {u'target': [], u'time': []}, u'edge': {u'target': [], u'time': []}}}",,,"[15004, 6760, 8497]",16.0,,1300903,11.0,13.0,mouselab-mdp,,9
"[9843, 14792, 20501]","[u'up', u'up', u'right']",,,[],,,"[u'1', 3, 7, 13]",,,"{u'mouseover': {u'state': {u'target': [], u'time': []}, u'edge': {u'target': [], u'time': []}}, u'click': {u'state': {u'target': [u'2', u'3', u'13'], u'time': [4527, 6531, 8551]}, u'edge': {u'target': [], u'time': []}}, u'mouseout': {u'state': {u'target': [], u'time': []}, u'edge': {u'target': [], u'time': []}}}",,,"[9842, 4422, 5187]",39.0,,1352582,12.0,12.0,mouselab-mdp,,9
"[11634, 16474, 24715]","[u'left', u'left', u'down']",,,[],,,"[u'1', 4, 8, 15]",,,"{u'mouseover': {u'state': {u'target': [], u'time': []}, u'edge': {u'target': [], u'time': []}}, u'click': {u'state': {u'target': [u'4', u'15', u'14'], u'time': [7186, 9333, 23597]}, u'edge': {u'target': [], u'time': []}}, u'mouseout': {u'state': {u'target': [], u'time': []}, u'edge': {u'target': [], u'time': []}}}",,,"[11633, 4284, 7703]",8.0,,1415106,13.0,15.0,mouselab-mdp,,9
"[9696, 17136, 20072]","[u'up', u'up', u'right']",,,[],,,"[u'1', 3, 7, 13]",,,"{u'mouseover': {u'state': {u'target': [], u'time': []}, u'edge': {u'target': [], u'time': []}}, u'click': {u'state': {u'target': [u'3', u'13'], u'time': [6692, 8170]}, u'edge': {u'target': [], u'time': []}}, u'mouseout': {u'state': {u'target': [], u'time': []}, u'edge': {u'target': [], u'time': []}}}",,,"[9694, 6896, 2393]",34.0,,1474044,14.0,14.0,mouselab-mdp,,9
"[12859, 19089, 22438]","[u'down', u'down', u'left']",,,[],,,"[u'1', 5, 9, 16]",,,"{u'mouseover': {u'state': {u'target': [], u'time': []}, u'edge': {u'target': [], u'time': []}}, u'click': {u'state': {u'target': [u'3', u'12', u'5', u'17'], u'time': [4660, 5843, 10549, 17014]}, u'edge': {u'target': [], u'time': []}}, u'mouseout': {u'state': {u'target': [], u'time': []}, u'edge': {u'target': [], u'time': []}}}",,,"[12857, 5667, 2801]",-13.0,,1532035,15.0,11.0,mouselab-mdp,,9
"[8537, 11674, 16693]","[u'right', u'right', u'up']",,,[],,,"[u'1', 2, 6, 10]",,,"{u'mouseover': {u'state': {u'target': [], u'time': []}, u'edge': {u'target': [], u'time': []}}, u'click': {u'state': {u'target': [u'3', u'2', u'11', u'10'], u'time': [2544, 5650, 7257, 15318]}, u'edge': {u'target': [], u'time': []}}, u'mouseout': {u'state': {u'target': [], u'time': []}, u'edge': {u'target': [], u'time': []}}}",,,"[8536, 2595, 4465]",49.0,,1583544,16.0,10.0,mouselab-mdp,,9
"[5772, 12716, 15015]","[u'right', u'right', u'down']",,,"[-1, -1, 1]",,,"[u'1', 2, 6, 11]",,,"{u'mouseover': {u'state': {u'target': [], u'time': []}, u'edge': {u'target': [], u'time': []}}, u'click': {u'state': {u'target': [], u'time': []}, u'edge': {u'target': [], u'time': []}}, u'mouseout': {u'state': {u'target': [], u'time': []}, u'edge': {u'target': [], u'time': []}}}",,,"[5772, 5749, 1524]",14.0,,286613,1.0,8.0,mouselab-mdp,,10
"[2495, 4766, 7848]","[u'down', u'down', u'left']",,,"[-1, -1, -1]",,,"[u'1', 5, 9, 16]",,,"{u'mouseover': {u'state': {u'target': [], u'time': []}, u'edge': {u'target': [], u'time': []}}, u'click': {u'state': {u'target': [], u'time': []}, u'edge': {u'target': [], u'time': []}}, u'mouseout': {u'state': {u'target': [], u'time': []}, u'edge': {u'target': [], u'time': []}}}",,,"[2495, 1228, 2304]",27.0,,337667,2.0,3.0,mouselab-mdp,,10
"[3382, 5792, 8082]","[u'right', u'right', u'up']",,,"[-1, -1, -1]",,,"[u'1', 2, 6, 10]",,,"{u'mouseover': {u'state': {u'target': [], u'time': []}, u'edge': {u'target': [], u'time': []}}, u'click': {u'state': {u'target': [], u'time': []}, u'edge': {u'target': [], u'time': []}}, u'mouseout': {u'state': {u'target': [], u'time': []}, u'edge': {u'target': [], u'time': []}}}",,,"[3382, 1355, 1490]",27.0,,390837,3.0,4.0,mouselab-mdp,,10
"[1318, 11521, 14590]","[u'up', u'up', u'left']",,,"[7, -1, 13]",,,"[u'1', 3, 7, 12]",,,"{u'mouseover': {u'state': {u'target': [], u'time': []}, u'edge': {u'target': [], u'time': []}}, u'click': {u'state': {u'target': [], u'time': []}, u'edge': {u'target': [], u'time': []}}, u'mouseout': {u'state': {u'target': [], u'time': []}, u'edge': {u'target': [], u'time': []}}}",,,"[1318, 2138, 2270]",0.0,,463142,4.0,9.0,mouselab-mdp,,10
"[3384, 7458, 9138]","[u'left', u'left', u'up']",,,"[2, -1, 5]",,,"[u'1', 4, 8, 14]",,,"{u'mouseover': {u'state': {u'target': [], u'time': []}, u'edge': {u'target': [], u'time': []}}, u'click': {u'state': {u'target': [], u'time': []}, u'edge': {u'target': [], u'time': []}}, u'mouseout': {u'state': {u'target': [], u'time': []}, u'edge': {u'target': [], u'time': []}}}",,,"[3384, 1014, 898]",15.0,,523782,5.0,5.0,mouselab-mdp,,10
"[1299, 2575, 5260]","[u'down', u'down', u'left']",,,"[-1, -1, 26]",,,"[u'1', 5, 9, 16]",,,"{u'mouseover': {u'state': {u'target': [], u'time': []}, u'edge': {u'target': [], u'time': []}}, u'click': {u'state': {u'target': [], u'time': []}, u'edge': {u'target': [], u'time': []}}, u'mouseout': {u'state': {u'target': [], u'time': []}, u'edge': {u'target': [], u'time': []}}}",,,"[1299, 245, 1887]",-9.0,,598534,6.0,1.0,mouselab-mdp,,10
"[1537, 5597, 8353]","[u'right', u'right', u'up']",,,"[2, -1, -1]",,,"[u'1', 2, 6, 10]",,,"{u'mouseover': {u'state': {u'target': [], u'time': []}, u'edge': {u'target': [], u'time': []}}, u'click': {u'state': {u'target': [], u'time': []}, u'edge': {u'target': [], u'time': []}}, u'mouseout': {u'state': {u'target': [], u'time': []}, u'edge': {u'target': [], u'time': []}}}",,,"[1537, 1029, 1961]",8.0,,650242,7.0,0.0,mouselab-mdp,,10
"[13007, 35482, 39996]","[u'down', u'down', u'right']",,,"[-1, -1, 1]",,,"[u'1', 5, 9, 17]",,,"{u'mouseover': {u'state': {u'target': [], u'time': []}, u'edge': {u'target': [], u'time': []}}, u'click': {u'state': {u'target': [], u'time': []}, u'edge': {u'target': [], u'time': []}}, u'mouseout': {u'state': {u'target': [], u'time': []}, u'edge': {u'target': [], u'time': []}}}",,,"[13007, 21449, 3740]",27.0,,701190,8.0,2.0,mouselab-mdp,,10
"[28158, 38273, 41042]","[u'up', u'up', u'right']",,,"[1, -1, 14]",,,"[u'1', 3, 7, 13]",,,"{u'mouseover': {u'state': {u'target': [], u'time': []}, u'edge': {u'target': [], u'time': []}}, u'click': {u'state': {u'target': [], u'time': []}, u'edge': {u'target': [], u'time': []}}, u'mouseout': {u'state': {u'target': [], u'time': []}, u'edge': {u'target': [], u'time': []}}}",,,"[28158, 8062, 1986]",0.0,,764866,9.0,6.0,mouselab-mdp,,10
"[19290, 33530, 42361]","[u'down', u'down', u'left']",,,"[3, -1, -1]",,,"[u'1', 5, 9, 16]",,,"{u'mouseover': {u'state': {u'target': [], u'time': []}, u'edge': {u'target': [], u'time': []}}, u'click': {u'state': {u'target': [], u'time': []}, u'edge': {u'target': [], u'time': []}}, u'mouseout': {u'state': {u'target': [], u'time': []}, u'edge': {u'target': [], u'time': []}}}",,,"[19290, 10199, 8044]",20.0,,817206,10.0,7.0,mouselab-mdp,,10
"[3685, 36641, 40462]","[u'left', u'left', u'up']",,,[],,,"[u'1', 4, 8, 14]",,,"{u'mouseover': {u'state': {u'target': [], u'time': []}, u'edge': {u'target': [], u'time': []}}, u'click': {u'state': {u'target': [], u'time': []}, u'edge': {u'target': [], u'time': []}}, u'mouseout': {u'state': {u'target': [], u'time': []}, u'edge': {u'target': [], u'time': []}}}",,,"[3685, 32464, 3326]",26.0,,876683,11.0,12.0,mouselab-mdp,,10
"[5404, 36379, 40659]","[u'right', u'right', u'up']",,,[],,,"[u'1', 2, 6, 10]",,,"{u'mouseover': {u'state': {u'target': [], u'time': []}, u'edge': {u'target': [], u'time': []}}, u'click': {u'state': {u'target': [], u'time': []}, u'edge': {u'target': [], u'time': []}}, u'mouseout': {u'state': {u'target': [], u'time': []}, u'edge': {u'target': [], u'time': []}}}",,,"[5403, 30477, 3778]",6.0,,925096,12.0,13.0,mouselab-mdp,,10
"[20234, 36343, 43867]","[u'down', u'down', u'right']",,,[],,,"[u'1', 5, 9, 17]",,,"{u'mouseover': {u'state': {u'target': [], u'time': []}, u'edge': {u'target': [], u'time': []}}, u'click': {u'state': {u'target': [], u'time': []}, u'edge': {u'target': [], u'time': []}}, u'mouseout': {u'state': {u'target': [], u'time': []}, u'edge': {u'target': [], u'time': []}}}",,,"[20234, 15612, 7032]",13.0,,974601,13.0,10.0,mouselab-mdp,,10
"[32191, 36590, 40396]","[u'left', u'left', u'up']",,,[],,,"[u'1', 4, 8, 14]",,,"{u'mouseover': {u'state': {u'target': [], u'time': []}, u'edge': {u'target': [], u'time': []}}, u'click': {u'state': {u'target': [], u'time': []}, u'edge': {u'target': [], u'time': []}}, u'mouseout': {u'state': {u'target': [], u'time': []}, u'edge': {u'target': [], u'time': []}}}",,,"[32191, 3906, 3312]",-2.0,,1022543,14.0,14.0,mouselab-mdp,,10
"[7608, 37809, 44254]","[u'up', u'up', u'left']",,,[],,,"[u'1', 3, 7, 12]",,,"{u'mouseover': {u'state': {u'target': [], u'time': []}, u'edge': {u'target': [], u'time': []}}, u'click': {u'state': {u'target': [], u'time': []}, u'edge': {u'target': [], u'time': []}}, u'mouseout': {u'state': {u'target': [], u'time': []}, u'edge': {u'target': [], u'time': []}}}",,,"[7608, 29702, 5952]",28.0,,1073204,15.0,15.0,mouselab-mdp,,10
"[5085, 27349, 40373]","[u'up', u'up', u'right']",,,[],,,"[u'1', 3, 7, 13]",,,"{u'mouseover': {u'state': {u'target': [], u'time': []}, u'edge': {u'target': [], u'time': []}}, u'click': {u'state': {u'target': [], u'time': []}, u'edge': {u'target': [], u'time': []}}, u'mouseout': {u'state': {u'target': [], u'time': []}, u'edge': {u'target': [], u'time': []}}}",,,"[5085, 21762, 12524]",4.0,,1123489,16.0,11.0,mouselab-mdp,,10
"[16809, 24692, 32881]","[u'left', u'left', u'up']",,,"[-1, -1, -1]",,,"[u'1', 4, 8, 14]",,,"{u'mouseover': {u'state': {u'target': [], u'time': []}, u'edge': {u'target': [], u'time': []}}, u'click': {u'state': {u'target': [u'3', u'12', u'4', u'8', u'14'], u'time': [3184, 6413, 8200, 22521, 31659]}, u'edge': {u'target': [], u'time': []}}, u'mouseout': {u'state': {u'target': [], u'time': []}, u'edge': {u'target': [], u'time': []}}}",,,"[16808, 2274, 5469]",24.5,,498079,1.0,9.0,mouselab-mdp,,11
"[10284, 86473, 91630]","[u'right', u'right', u'up']",,,"[8, -1, 7]",,,"[u'1', 2, 6, 10]",,,"{u'mouseover': {u'state': {u'target': [], u'time': []}, u'edge': {u'target': [], u'time': []}}, u'click': {u'state': {u'target': [u'2', u'3', u'4', u'5', u'9', u'16', u'17', u'8', u'14', u'15', u'13', u'12', u'7'], u'time': [3210, 5557, 6434, 7561, 34981, 36452, 37548, 56561, 60854, 63642, 67893, 71584, 74340]}, u'edge': {u'target': [], u'time': []}}, u'mouseout': {u'state': {u'target': [], u'time': []}, u'edge': {u'target': [], u'time': []}}}",,,"[10284, 61920, 38]",-32.5,,602262,2.0,1.0,mouselab-mdp,,11
"[11981, 17880, 22294]","[u'down', u'down', u'left']",,,"[-1, -1, -1]",,,"[u'1', 5, 9, 16]",,,"{u'mouseover': {u'state': {u'target': [], u'time': []}, u'edge': {u'target': [], u'time': []}}, u'click': {u'state': {u'target': [u'2', u'3', u'4', u'5'], u'time': [3888, 5285, 7375, 9109]}, u'edge': {u'target': [], u'time': []}}, u'mouseout': {u'state': {u'target': [], u'time': []}, u'edge': {u'target': [], u'time': []}}}",,,"[11981, 36, 2250]",18.0,,663562,3.0,2.0,mouselab-mdp,,11
"[6355, 10496, 12803]","[u'right', u'right', u'up']",,,"[-1, -1, 1]",,,"[u'1', 2, 6, 10]",,,"{u'mouseover': {u'state': {u'target': [], u'time': []}, u'edge': {u'target': [], u'time': []}}, u'click': {u'state': {u'target': [u'2'], u'time': [3231]}, u'edge': {u'target': [], u'time': []}}, u'mouseout': {u'state': {u'target': [], u'time': []}, u'edge': {u'target': [], u'time': []}}}",,,"[6355, 38, 14]",10.5,,722568,4.0,6.0,mouselab-mdp,,11
"[13273, 48213, 50530]","[u'right', u'right', u'up']",,,"[12, -1, -1]",,,"[u'1', 2, 6, 10]",,,"{u'mouseover': {u'state': {u'target': [], u'time': []}, u'edge': {u'target': [], u'time': []}}, u'click': {u'state': {u'target': [u'3', u'2', u'4', u'5'], u'time': [2548, 3641, 4648, 5560]}, u'edge': {u'target': [], u'time': []}}, u'mouseout': {u'state': {u'target': [], u'time': []}, u'edge': {u'target': [], u'time': []}}}",,,"[13273, 16978, 72]",2.0,,816196,5.0,7.0,mouselab-mdp,,11
"[9378, 44532, 47625]","[u'left', u'left', u'down']",,,"[2, -1, -1]",,,"[u'1', 4, 8, 15]",,,"{u'mouseover': {u'state': {u'target': [], u'time': []}, u'edge': {u'target': [], u'time': []}}, u'click': {u'state': {u'target': [u'3', u'2', u'4', u'5'], u'time': [1834, 3096, 4077, 5031]}, u'edge': {u'target': [], u'time': []}}, u'mouseout': {u'state': {u'target': [], u'time': []}, u'edge': {u'target': [], u'time': []}}}",,,"[9377, 27518, 898]",19.0,,884191,6.0,5.0,mouselab-mdp,,11
"[10488, 18664, 21065]","[u'left', u'left', u'down']",,,"[1, -1, -1]",,,"[u'1', 4, 8, 15]",,,"{u'mouseover': {u'state': {u'target': [], u'time': []}, u'edge': {u'target': [], u'time': []}}, u'click': {u'state': {u'target': [u'3', u'4', u'5', u'2'], u'time': [6338, 7005, 7682, 8502]}, u'edge': {u'target': [], u'time': []}}, u'mouseout': {u'state': {u'target': [], u'time': []}, u'edge': {u'target': [], u'time': []}}}",,,"[10488, 1286, 3]",16.0,,959509,7.0,3.0,mouselab-mdp,,11
"[10545, 16689, 21011]","[u'right', u'right', u'up']",,,"[-1, -1, -1]",,,"[u'1', 2, 6, 10]",,,"{u'mouseover': {u'state': {u'target': [], u'time': []}, u'edge': {u'target': [], u'time': []}}, u'click': {u'state': {u'target': [u'3', u'2', u'5', u'4'], u'time': [2389, 4455, 5261, 6269]}, u'edge': {u'target': [], u'time': []}}, u'mouseout': {u'state': {u'target': [], u'time': []}, u'edge': {u'target': [], u'time': []}}}",,,"[10545, 36, 1979]",17.0,,1040871,8.0,4.0,mouselab-mdp,,11
"[21327, 34985, 36861]","[u'left', u'left', u'up']",,,"[1, -1, 2]",,,"[u'1', 4, 8, 14]",,,"{u'mouseover': {u'state': {u'target': [], u'time': []}, u'edge': {u'target': [], u'time': []}}, u'click': {u'state': {u'target': [u'2', u'3', u'4', u'5', u'13', u'7', u'12', u'9', u'16'], u'time': [1721, 2533, 3237, 4157, 7928, 8630, 9363, 14035, 18364]}, u'edge': {u'target': [], u'time': []}}, u'mouseout': {u'state': {u'target': [], u'time': []}, u'edge': {u'target': [], u'time': []}}}",,,"[21327, 5068, 2]",-14.5,,1124003,9.0,8.0,mouselab-mdp,,11
"[33268, 53295, 55060]","[u'up', u'up', u'left']",,,"[1, -1, -1]",,,"[u'1', 3, 7, 12]",,,"{u'mouseover': {u'state': {u'target': [], u'time': []}, u'edge': {u'target': [], u'time': []}}, u'click': {u'state': {u'target': [u'3', u'2', u'5', u'4', u'6', u'8', u'14', u'9', u'7', u'12', u'13', u'17'], u'time': [2750, 3485, 4200, 4874, 8084, 12872, 14895, 18548, 22238, 23038, 24420, 30128]}, u'edge': {u'target': [], u'time': []}}, u'mouseout': {u'state': {u'target': [], u'time': []}, u'edge': {u'target': [], u'time': []}}}",,,"[33268, 9938, 2]",-21.0,,1234208,10.0,0.0,mouselab-mdp,,11
"[6809, 21208, 22330]","[u'up', u'up', u'right']",,,[],,,"[u'1', 3, 7, 13]",,,"{u'mouseover': {u'state': {u'target': [], u'time': []}, u'edge': {u'target': [], u'time': []}}, u'click': {u'state': {u'target': [u'2', u'3', u'4', u'5', u'13', u'7', u'12'], u'time': [2122, 2726, 3548, 4592, 9424, 10604, 11267]}, u'edge': {u'target': [], u'time': []}}, u'mouseout': {u'state': {u'target': [], u'time': []}, u'edge': {u'target': [], u'time': []}}}",,,"[6809, 13816, 609]",-4.5,,1314869,11.0,12.0,mouselab-mdp,,11
"[16528, 17368, 18191]","[u'up', u'up', u'right']",,,[],,,"[u'1', 3, 7, 13]",,,"{u'mouseover': {u'state': {u'target': [], u'time': []}, u'edge': {u'target': [], u'time': []}}, u'click': {u'state': {u'target': [u'3', u'2', u'4', u'5', u'7', u'12', u'13'], u'time': [1760, 2854, 8155, 9389, 11551, 13847, 14636]}, u'edge': {u'target': [], u'time': []}}, u'mouseout': {u'state': {u'target': [], u'time': []}, u'edge': {u'target': [], u'time': []}}}",,,"[16527, 314, 294]",17.5,,1373599,12.0,15.0,mouselab-mdp,,11
"[17356, 18514, 22749]","[u'down', u'down', u'right']",,,[],,,"[u'1', 5, 9, 17]",,,"{u'mouseover': {u'state': {u'target': [], u'time': []}, u'edge': {u'target': [], u'time': []}}, u'click': {u'state': {u'target': [u'3', u'2', u'5', u'4', u'9', u'16', u'6', u'7', u'8', u'17'], u'time': [1915, 2636, 3356, 4127, 6908, 7761, 9513, 12047, 13459, 21302]}, u'edge': {u'target': [], u'time': []}}, u'mouseout': {u'state': {u'target': [], u'time': []}, u'edge': {u'target': [], u'time': []}}}",,,"[17355, 631, 3714]",-5.0,,1430009,13.0,11.0,mouselab-mdp,,11
"[12065, 13065, 54581]","[u'down', u'down', u'right']",,,[],,,"[u'1', 5, 9, 17]",,,"{u'mouseover': {u'state': {u'target': [], u'time': []}, u'edge': {u'target': [], u'time': []}}, u'click': {u'state': {u'target': [u'3', u'2', u'5', u'4', u'6', u'7', u'9', u'17', u'16'], u'time': [2879, 3471, 4258, 4995, 6806, 7832, 8979, 15474, 16406]}, u'edge': {u'target': [], u'time': []}}, u'mouseout': {u'state': {u'target': [], u'time': []}, u'edge': {u'target': [], u'time': []}}}",,,"[12065, 408, 40991]",-12.5,,1490623,14.0,14.0,mouselab-mdp,,11
"[12101, 13213, 13866]","[u'right', u'right', u'up']",,,[],,,"[u'1', 2, 6, 10]",,,"{u'mouseover': {u'state': {u'target': [], u'time': []}, u'edge': {u'target': [], u'time': []}}, u'click': {u'state': {u'target': [u'2', u'3', u'4', u'5', u'6', u'10', u'11'], u'time': [2062, 2820, 3830, 4499, 5221, 6034, 7605]}, u'edge': {u'target': [], u'time': []}}, u'mouseout': {u'state': {u'target': [], u'time': []}, u'edge': {u'target': [], u'time': []}}}",,,"[12101, 593, 127]",24.5,,1581124,15.0,10.0,mouselab-mdp,,11
"[21853, 22736, 23513]","[u'left', u'left', u'up']",,,[],,,"[u'1', 4, 8, 14]",,,"{u'mouseover': {u'state': {u'target': [], u'time': []}, u'edge': {u'target': [], u'time': []}}, u'click': {u'state': {u'target': [u'2', u'3', u'4', u'5', u'8', u'14', u'15', u'9', u'16', u'17'], u'time': [4922, 5757, 6371, 7086, 8518, 9610, 10532, 17746, 18539, 20375]}, u'edge': {u'target': [], u'time': []}}, u'mouseout': {u'state': {u'target': [], u'time': []}, u'edge': {u'target': [], u'time': []}}}",,,"[21853, 370, 263]",4.0,,1634402,16.0,13.0,mouselab-mdp,,11
"[7010, 22850, 27687]","[u'right', u'right', u'down']",,,"[-1, -1, -1]",,,"[u'1', 2, 6, 11]",,,"{u'mouseover': {u'state': {u'target': [], u'time': []}, u'edge': {u'target': [], u'time': []}}, u'click': {u'state': {u'target': [u'2', u'11'], u'time': [4779, 26238]}, u'edge': {u'target': [], u'time': []}}, u'mouseout': {u'state': {u'target': [], u'time': []}, u'edge': {u'target': [], u'time': []}}}",,,"[7008, 15050, 4185]",55.0,,248023,1.0,6.0,mouselab-mdp,,12
"[3564, 6636, 8730]","[u'up', u'up', u'right']",,,"[-1, -1, -1]",,,"[u'1', 3, 7, 13]",,,"{u'mouseover': {u'state': {u'target': [], u'time': []}, u'edge': {u'target': [], u'time': []}}, u'click': {u'state': {u'target': [u'3', u'12'], u'time': [2172, 7762]}, u'edge': {u'target': [], u'time': []}}, u'mouseout': {u'state': {u'target': [], u'time': []}, u'edge': {u'target': [], u'time': []}}}",,,"[3564, 2108, 1368]",53.0,,299541,2.0,3.0,mouselab-mdp,,12
"[3373, 18527, 21279]","[u'left', u'left', u'up']",,,"[10, -1, -1]",,,"[u'1', 4, 8, 14]",,,"{u'mouseover': {u'state': {u'target': [], u'time': []}, u'edge': {u'target': [], u'time': []}}, u'click': {u'state': {u'target': [u'4', u'15'], u'time': [1984, 20130]}, u'edge': {u'target': [], u'time': []}}, u'mouseout': {u'state': {u'target': [], u'time': []}, u'edge': {u'target': [], u'time': []}}}",,,"[3373, 4372, 2122]",12.0,,358491,3.0,9.0,mouselab-mdp,,12
"[9299, 22915, 25327]","[u'right', u'right', u'down']",,,"[10, -1, -1]",,,"[u'1', 2, 6, 11]",,,"{u'mouseover': {u'state': {u'target': [], u'time': []}, u'edge': {u'target': [], u'time': []}}, u'click': {u'state': {u'target': [u'5', u'2', u'3', u'4', u'10'], u'time': [3477, 5685, 7353, 7976, 24111]}, u'edge': {u'target': [], u'time': []}}, u'mouseout': {u'state': {u'target': [], u'time': []}, u'edge': {u'target': [], u'time': []}}}",,,"[9299, 2745, 1762]",3.0,,416884,4.0,4.0,mouselab-mdp,,12
"[9823, 161158, 164990]","[u'down', u'down', u'right']",,,"[43, -1, -1]",,,"[u'1', 5, 9, 17]",,,"{u'mouseover': {u'state': {u'target': [], u'time': []}, u'edge': {u'target': [], u'time': []}}, u'click': {u'state': {u'target': [u'2', u'5', u'4', u'3', u'16'], u'time': [5654, 6640, 7665, 8375, 163492]}, u'edge': {u'target': [], u'time': []}}, u'mouseout': {u'state': {u'target': [], u'time': []}, u'edge': {u'target': [], u'time': []}}}",,,"[9823, 107466, 3200]",-4.0,,586303,5.0,1.0,mouselab-mdp,,12
"[6781, 9526, 12904]","[u'left', u'left', u'up']",,,"[-1, -1, -1]",,,"[u'1', 4, 8, 14]",,,"{u'mouseover': {u'state': {u'target': [], u'time': []}, u'edge': {u'target': [], u'time': []}}, u'click': {u'state': {u'target': [u'5', u'2', u'3', u'4', u'14'], u'time': [2370, 3688, 4657, 5485, 10808]}, u'edge': {u'target': [], u'time': []}}, u'mouseout': {u'state': {u'target': [], u'time': []}, u'edge': {u'target': [], u'time': []}}}",,,"[6781, 1877, 2718]",57.0,,710789,6.0,0.0,mouselab-mdp,,12
"[5123, 23088, 25869]","[u'right', u'right', u'down']",,,"[14, -1, -1]",,,"[u'1', 2, 6, 11]",,,"{u'mouseover': {u'state': {u'target': [], u'time': []}, u'edge': {u'target': [], u'time': []}}, u'click': {u'state': {u'target': [u'3', u'4', u'5', u'2', u'10'], u'time': [1784, 2549, 3234, 4047, 24765]}, u'edge': {u'target': [], u'time': []}}, u'mouseout': {u'state': {u'target': [], u'time': []}, u'edge': {u'target': [], u'time': []}}}",,,"[5123, 3078, 2143]",-17.0,,772176,7.0,7.0,mouselab-mdp,,12
"[5366, 32150, 35063]","[u'right', u'right', u'down']",,,"[10, -1, -1]",,,"[u'1', 2, 6, 11]",,,"{u'mouseover': {u'state': {u'target': [], u'time': []}, u'edge': {u'target': [], u'time': []}}, u'click': {u'state': {u'target': [u'2', u'5', u'3', u'4', u'10'], u'time': [1110, 2126, 3167, 3881, 34216]}, u'edge': {u'target': [], u'time': []}}, u'mouseout': {u'state': {u'target': [], u'time': []}, u'edge': {u'target': [], u'time': []}}}",,,"[5365, 15930, 2272]",3.0,,831972,8.0,2.0,mouselab-mdp,,12
"[6319, 42348, 44967]","[u'down', u'down', u'right']",,,"[6, -1, 2]",,,"[u'1', 5, 9, 17]",,,"{u'mouseover': {u'state': {u'target': [], u'time': []}, u'edge': {u'target': [], u'time': []}}, u'click': {u'state': {u'target': [u'3', u'5', u'2', u'4', u'16'], u'time': [2441, 3135, 3899, 4901, 43987]}, u'edge': {u'target': [], u'time': []}}, u'mouseout': {u'state': {u'target': [], u'time': []}, u'edge': {u'target': [], u'time': []}}}",,,"[6319, 29170, 1982]",7.0,,891736,9.0,8.0,mouselab-mdp,,12
"[7920, 36501, 38949]","[u'down', u'down', u'right']",,,"[23, -1, 2]",,,"[u'1', 5, 9, 17]",,,"{u'mouseover': {u'state': {u'target': [], u'time': []}, u'edge': {u'target': [], u'time': []}}, u'click': {u'state': {u'target': [u'4', u'2', u'5', u'3', u'16'], u'time': [2296, 4362, 5187, 6055, 37787]}, u'edge': {u'target': [], u'time': []}}, u'mouseout': {u'state': {u'target': [], u'time': []}, u'edge': {u'target': [], u'time': []}}}",,,"[7919, 4730, 1792]",-4.0,,964149,10.0,5.0,mouselab-mdp,,12
"[4874, 6773, 10171]","[u'down', u'down', u'right']",,,[],,,"[u'1', 5, 9, 17]",,,"{u'mouseover': {u'state': {u'target': [], u'time': []}, u'edge': {u'target': [], u'time': []}}, u'click': {u'state': {u'target': [u'3', u'2', u'5', u'4', u'16', u'17'], u'time': [1455, 2078, 2733, 3466, 7997, 9030]}, u'edge': {u'target': [], u'time': []}}, u'mouseout': {u'state': {u'target': [], u'time': []}, u'edge': {u'target': [], u'time': []}}}",,,"[4874, 1378, 2875]",15.0,,1022240,11.0,15.0,mouselab-mdp,,12
"[5467, 6991, 11628]","[u'up', u'up', u'left']",,,[],,,"[u'1', 3, 7, 12]",,,"{u'mouseover': {u'state': {u'target': [], u'time': []}, u'edge': {u'target': [], u'time': []}}, u'click': {u'state': {u'target': [u'2', u'5', u'4', u'3', u'13', u'12'], u'time': [712, 1437, 3165, 4075, 8085, 10294]}, u'edge': {u'target': [], u'time': []}}, u'mouseout': {u'state': {u'target': [], u'time': []}, u'edge': {u'target': [], u'time': []}}}",,,"[5467, 1004, 4125]",46.0,,1071839,12.0,14.0,mouselab-mdp,,12
"[5090, 5897, 11122]","[u'down', u'down', u'left']",,,[],,,"[u'1', 5, 9, 16]",,,"{u'mouseover': {u'state': {u'target': [], u'time': []}, u'edge': {u'target': [], u'time': []}}, u'click': {u'state': {u'target': [u'3', u'4', u'5', u'2', u'17', u'16'], u'time': [1102, 1827, 2703, 3453, 7258, 8779]}, u'edge': {u'target': [], u'time': []}}, u'mouseout': {u'state': {u'target': [], u'time': []}, u'edge': {u'target': [], u'time': []}}}",,,"[5090, 282, 4707]",-15.0,,1124984,13.0,11.0,mouselab-mdp,,12
"[6024, 7516, 12351]","[u'right', u'right', u'up']",,,[],,,"[u'1', 2, 6, 10]",,,"{u'mouseover': {u'state': {u'target': [], u'time': []}, u'edge': {u'target': [], u'time': []}}, u'click': {u'state': {u'target': [u'2', u'5', u'4', u'3', u'10', u'11'], u'time': [1308, 2080, 2797, 3499, 10186, 10902]}, u'edge': {u'target': [], u'time': []}}, u'mouseout': {u'state': {u'target': [], u'time': []}, u'edge': {u'target': [], u'time': []}}}",,,"[6024, 980, 4315]",47.0,,1173580,14.0,10.0,mouselab-mdp,,12
"[5859, 7142, 10430]","[u'left', u'left', u'down']",,,[],,,"[u'1', 4, 8, 15]",,,"{u'mouseover': {u'state': {u'target': [], u'time': []}, u'edge': {u'target': [], u'time': []}}, u'click': {u'state': {u'target': [u'2', u'5', u'4', u'3', u'14'], u'time': [1260, 1986, 3342, 4462, 8915]}, u'edge': {u'target': [], u'time': []}}, u'mouseout': {u'state': {u'target': [], u'time': []}, u'edge': {u'target': [], u'time': []}}}",,,"[5858, 769, 2770]",13.0,,1227962,15.0,13.0,mouselab-mdp,,12
"[12253, 14081, 17120]","[u'left', u'left', u'down']",,,[],,,"[u'1', 4, 8, 15]",,,"{u'mouseover': {u'state': {u'target': [], u'time': []}, u'edge': {u'target': [], u'time': []}}, u'click': {u'state': {u'target': [u'4', u'3', u'2', u'5', u'14'], u'time': [2564, 3695, 4585, 5627, 16134]}, u'edge': {u'target': [], u'time': []}}, u'mouseout': {u'state': {u'target': [], u'time': []}, u'edge': {u'target': [], u'time': []}}}",,,"[12253, 1304, 2525]",17.0,,1292416,16.0,12.0,mouselab-mdp,,12
"[23082, 35600, 39380]","[u'up', u'up', u'left']",,,"[-1, -1, -1]",,,"[u'1', 3, 7, 12]",,,"{u'mouseover': {u'state': {u'target': [], u'time': []}, u'edge': {u'target': [], u'time': []}}, u'click': {u'state': {u'target': [u'2', u'3', u'4', u'5', u'9', u'7', u'8', u'6', u'13', u'12'], u'time': [2041, 5172, 6331, 7252, 11265, 13680, 15368, 16603, 19762, 20615]}, u'edge': {u'target': [], u'time': []}}, u'mouseout': {u'state': {u'target': [], u'time': []}, u'edge': {u'target': [], u'time': []}}}",,,"[23081, 15, 850]",37.0,,294786,1.0,5.0,mouselab-mdp,,13
"[13907, 24528, 27797]","[u'up', u'up', u'right']",,,"[-1, -1, -1]",,,"[u'1', 3, 7, 13]",,,"{u'mouseover': {u'state': {u'target': [], u'time': []}, u'edge': {u'target': [], u'time': []}}, u'click': {u'state': {u'target': [u'4', u'3', u'2', u'5', u'7', u'13', u'12', u'9', u'17', u'16'], u'time': [1768, 2577, 3249, 3872, 5502, 6943, 7614, 9146, 9862, 10683]}, u'edge': {u'target': [], u'time': []}}, u'mouseout': {u'state': {u'target': [], u'time': []}, u'edge': {u'target': [], u'time': []}}}",,,"[13907, 18, 1187]",30.0,,358878,2.0,1.0,mouselab-mdp,,13
"[20417, 30510, 32024]","[u'left', u'left', u'up']",,,"[-1, -1, -1]",,,"[u'1', 4, 8, 14]",,,"{u'mouseover': {u'state': {u'target': [], u'time': []}, u'edge': {u'target': [], u'time': []}}, u'click': {u'state': {u'target': [u'3', u'2', u'5', u'4', u'6', u'10', u'11', u'8', u'14', u'15', u'7', u'12', u'13', u'9', u'16', u'17'], u'time': [2264, 3026, 3684, 4375, 5916, 6744, 7427, 8308, 8943, 9733, 14547, 15527, 16119, 17244, 17770, 18451]}, u'edge': {u'target': [], u'time': []}}, u'mouseout': {u'state': {u'target': [], u'time': []}, u'edge': {u'target': [], u'time': []}}}",,,"[20417, 11, 964]",12.0,,419601,3.0,7.0,mouselab-mdp,,13
"[15820, 28590, 30813]","[u'left', u'left', u'up']",,,"[-1, -1, -1]",,,"[u'1', 4, 8, 14]",,,"{u'mouseover': {u'state': {u'target': [], u'time': []}, u'edge': {u'target': [], u'time': []}}, u'click': {u'state': {u'target': [u'2', u'4', u'3', u'5', u'8', u'14', u'15', u'7', u'12', u'13', u'6', u'10', u'11'], u'time': [1434, 2211, 2920, 3749, 4827, 6485, 7179, 7999, 8712, 9322, 11412, 12257, 13084]}, u'edge': {u'target': [], u'time': []}}, u'mouseout': {u'state': {u'target': [], u'time': []}, u'edge': {u'target': [], u'time': []}}}",,,"[15819, 1710, 641]",49.0,,492015,4.0,0.0,mouselab-mdp,,13
"[23285, 33616, 35277]","[u'right', u'right', u'down']",,,"[-1, -1, -1]",,,"[u'1', 2, 6, 11]",,,"{u'mouseover': {u'state': {u'target': [], u'time': []}, u'edge': {u'target': [], u'time': []}}, u'click': {u'state': {u'target': [u'2', u'4', u'3', u'5', u'7', u'13', u'12', u'9', u'16', u'17', u'6', u'10', u'11', u'8', u'14', u'15'], u'time': [908, 1816, 2499, 3420, 4764, 5491, 6082, 7627, 8354, 8969, 14977, 16316, 16971, 18413, 18990, 19652]}, u'edge': {u'target': [], u'time': []}}, u'mouseout': {u'state': {u'target': [], u'time': []}, u'edge': {u'target': [], u'time': []}}}",,,"[23284, 833, 1139]",41.0,,552586,5.0,6.0,mouselab-mdp,,13
"[13546, 24507, 27149]","[u'down', u'down', u'right']",,,"[-1, -1, -1]",,,"[u'1', 5, 9, 17]",,,"{u'mouseover': {u'state': {u'target': [], u'time': []}, u'edge': {u'target': [], u'time': []}}, u'click': {u'state': {u'target': [u'2', u'3', u'4', u'5', u'8', u'14', u'15', u'9', u'16', u'17'], u'time': [4561, 5505, 6191, 6865, 7864, 8593, 9280, 10344, 11026, 11779]}, u'edge': {u'target': [], u'time': []}}, u'mouseout': {u'state': {u'target': [], u'time': []}, u'edge': {u'target': [], u'time': []}}}",,,"[13545, 13, 385]",41.0,,613416,6.0,9.0,mouselab-mdp,,13
