action_times,actions,button_pressed,correct,delays,key_press,path,queries,questions,responses,rt,score,stimulus,time_elapsed,trial_index,trial_i,trial_type,view_history,pid
,,,"[True, True, True, True, True]",,,,,"[""True or false: The hidden values will change each time I start a new round."",""How much does it cost to observe each hidden value?"",""How many hidden values am I allowed to observe in each round?"",""How is your bonus determined?"",""What does the feedback teach you?""]","[""True"",""$0.01"",""As many or as few as I wish"",""5 cents for every $10 I earn in each round"",""All of the above.""]",17433,,,146452,,,survey-multi-choice,,0
,,,"[False, True, True, True, True]",,,,,"[""True or false: The hidden values will change each time I start a new round."",""How much does it cost to observe each hidden value?"",""How many hidden values am I allowed to observe in each round?"",""How is your bonus determined?"",""What does the feedback teach you?""]","[""False"",""$2.50"",""As many or as few as I wish"",""5 cents for every $10 I earn in each round"",""All of the above.""]",38602,,,398648,,,survey-multi-choice,,1
,,,"[True, True, True, True, True]",,,,,"[""True or false: The hidden values will change each time I start a new round."",""How much does it cost to observe each hidden value?"",""How many hidden values am I allowed to observe in each round?"",""How is your bonus determined?"",""What does the feedback teach you?""]","[""True"",""$2.50"",""As many or as few as I wish"",""5 cents for every $10 I earn in each round"",""All of the above.""]",22975,,,574250,,,survey-multi-choice,,1
,,,"[True, False, False, False]",,,,,"[""True or false: The hidden values will change each time I start a new round."",""How much does it cost to observe each hidden value?"",""How many hidden values am I allowed to observe in each round?"",""How is your bonus determined?""]","[""True"",""$0.05"",""At most 10"",""10% of my best score on any round""]",33189,,,129604,,,survey-multi-choice,,2
,,,"[True, True, True, True]",,,,,"[""True or false: The hidden values will change each time I start a new round."",""How much does it cost to observe each hidden value?"",""How many hidden values am I allowed to observe in each round?"",""How is your bonus determined?""]","[""True"",""$0.01"",""As many or as few as I wish"",""5 cents for every $10 I earn in each round""]",32143,,,397402,,,survey-multi-choice,,2
,,,"[True, True, False, True, True]",,,,,"[""True or false: The hidden values will change each time I start a new round."",""How much does it cost to observe each hidden value?"",""How many hidden values am I allowed to observe in each round?"",""How is your bonus determined?"",""What does the feedback teach you?""]","[""True"",""$2.50"",""At most 1"",""5 cents for every $10 I earn in each round"",""All of the above.""]",41008,,,289484,,,survey-multi-choice,,3
,,,"[True, True, True, True, True]",,,,,"[""True or false: The hidden values will change each time I start a new round."",""How much does it cost to observe each hidden value?"",""How many hidden values am I allowed to observe in each round?"",""How is your bonus determined?"",""What does the feedback teach you?""]","[""True"",""$2.50"",""As many or as few as I wish"",""5 cents for every $10 I earn in each round"",""All of the above.""]",25736,,,435927,,,survey-multi-choice,,3
,,,"[True, True, True, True, True]",,,,,"[""True or false: The hidden values will change each time I start a new round."",""How much does it cost to observe each hidden value?"",""How many hidden values am I allowed to observe in each round?"",""How is your bonus determined?"",""What does the feedback teach you?""]","[""True"",""$0.01"",""As many or as few as I wish"",""5 cents for every $10 I earn in each round"",""All of the above.""]",13311,,,61298,,,survey-multi-choice,,4
,,,"[True, False, False, True, False]",,,,,"[""True or false: The hidden values will change each time I start a new round."",""How much does it cost to observe each hidden value?"",""How many hidden values am I allowed to observe in each round?"",""How is your bonus determined?"",""What does the feedback teach you?""]","[""True"",""$0.05"",""At most 5"",""5 cents for every $10 I earn in each round"",""Whether I chose the move that was best.""]",18980,,,827122,,,survey-multi-choice,,5
,,,"[True, True, True, True, True]",,,,,"[""True or false: The hidden values will change each time I start a new round."",""How much does it cost to observe each hidden value?"",""How many hidden values am I allowed to observe in each round?"",""How is your bonus determined?"",""What does the feedback teach you?""]","[""True"",""$1.00"",""As many or as few as I wish"",""5 cents for every $10 I earn in each round"",""All of the above.""]",23946,,,1100123,,,survey-multi-choice,,5
,,,"[True, True, True, True]",,,,,"[""True or false: The hidden values will change each time I start a new round."",""How much does it cost to observe each hidden value?"",""How many hidden values am I allowed to observe in each round?"",""How is your bonus determined?""]","[""True"",""$2.50"",""As many or as few as I wish"",""5 cents for every $10 I earn in each round""]",22309,,,172968,,,survey-multi-choice,,6
,,,"[True, True, True, True]",,,,,"[""True or false: The hidden values will change each time I start a new round."",""How much does it cost to observe each hidden value?"",""How many hidden values am I allowed to observe in each round?"",""How is your bonus determined?""]","[""True"",""$1.00"",""As many or as few as I wish"",""5 cents for every $10 I earn in each round""]",80418,,,338206,,,survey-multi-choice,,7
,,,"[True, True, False, True, True]",,,,,"[""True or false: The hidden values will change each time I start a new round."",""How much does it cost to observe each hidden value?"",""How many hidden values am I allowed to observe in each round?"",""How is your bonus determined?"",""What does the feedback teach you?""]","[""True"",""$2.50"",""At most 10"",""5 cents for every $10 I earn in each round"",""All of the above.""]",37904,,,188856,,,survey-multi-choice,,8
,,,"[True, True, True, True, True]",,,,,"[""True or false: The hidden values will change each time I start a new round."",""How much does it cost to observe each hidden value?"",""How many hidden values am I allowed to observe in each round?"",""How is your bonus determined?"",""What does the feedback teach you?""]","[""True"",""$2.50"",""As many or as few as I wish"",""5 cents for every $10 I earn in each round"",""All of the above.""]",16747,,,234930,,,survey-multi-choice,,8
,,,"[True, True, True, True, True]",,,,,"[""True or false: The hidden values will change each time I start a new round."",""How much does it cost to observe each hidden value?"",""How many hidden values am I allowed to observe in each round?"",""How is your bonus determined?"",""What does the feedback teach you?""]","[""True"",""$2.50"",""As many or as few as I wish"",""5 cents for every $10 I earn in each round"",""All of the above.""]",43571,,,434283,,,survey-multi-choice,,9
,,,"[False, True, True, True, True]",,,,,"[""True or false: The hidden values will change each time I start a new round."",""How much does it cost to observe each hidden value?"",""How many hidden values am I allowed to observe in each round?"",""How is your bonus determined?"",""What does the feedback teach you?""]","[""False"",""$1.00"",""As many or as few as I wish"",""5 cents for every $10 I earn in each round"",""All of the above.""]",23593,,,144564,,,survey-multi-choice,,10
,,,"[True, True, True, True, True]",,,,,"[""True or false: The hidden values will change each time I start a new round."",""How much does it cost to observe each hidden value?"",""How many hidden values am I allowed to observe in each round?"",""How is your bonus determined?"",""What does the feedback teach you?""]","[""True"",""$1.00"",""As many or as few as I wish"",""5 cents for every $10 I earn in each round"",""All of the above.""]",15191,,,187475,,,survey-multi-choice,,10
,,,"[True, True, True, True, True]",,,,,"[""True or false: The hidden values will change each time I start a new round."",""How much does it cost to observe each hidden value?"",""How many hidden values am I allowed to observe in each round?"",""How is your bonus determined?"",""What does the feedback teach you?""]","[""True"",""$1.00"",""As many or as few as I wish"",""5 cents for every $10 I earn in each round"",""All of the above.""]",26251,,,218020,,,survey-multi-choice,,11
,,,"[True, True, True, True]",,,,,"[""True or false: The hidden values will change each time I start a new round."",""How much does it cost to observe each hidden value?"",""How many hidden values am I allowed to observe in each round?"",""How is your bonus determined?""]","[""True"",""$1.00"",""As many or as few as I wish"",""5 cents for every $10 I earn in each round""]",15642,,,202446,,,survey-multi-choice,,12
,,,"[True, True, True, True]",,,,,"[""True or false: The hidden values will change each time I start a new round."",""How much does it cost to observe each hidden value?"",""How many hidden values am I allowed to observe in each round?"",""How is your bonus determined?""]","[""True"",""$1.00"",""As many or as few as I wish"",""5 cents for every $10 I earn in each round""]",7933,,,44791,,,survey-multi-choice,,13
,,,"[True, True, True, True, True]",,,,,"[""True or false: The hidden values will change each time I start a new round."",""How much does it cost to observe each hidden value?"",""How many hidden values am I allowed to observe in each round?"",""How is your bonus determined?"",""What does the feedback teach you?""]","[""True"",""$0.01"",""As many or as few as I wish"",""5 cents for every $10 I earn in each round"",""All of the above.""]",43941,,,169742,,,survey-multi-choice,,14
,,,"[True, True, True, True]",,,,,"[""True or false: The hidden values will change each time I start a new round."",""How much does it cost to observe each hidden value?"",""How many hidden values am I allowed to observe in each round?"",""How is your bonus determined?""]","[""True"",""$2.50"",""As many or as few as I wish"",""5 cents for every $10 I earn in each round""]",17459,,,117052,,,survey-multi-choice,,15
,,,"[True, True, True, True, True]",,,,,"[""True or false: The hidden values will change each time I start a new round."",""How much does it cost to observe each hidden value?"",""How many hidden values am I allowed to observe in each round?"",""How is your bonus determined?"",""What does the feedback teach you?""]","[""True"",""$0.01"",""As many or as few as I wish"",""5 cents for every $10 I earn in each round"",""All of the above.""]",39858,,,236877,,,survey-multi-choice,,16
,,,"[True, True, True, True]",,,,,"[""True or false: The hidden values will change each time I start a new round."",""How much does it cost to observe each hidden value?"",""How many hidden values am I allowed to observe in each round?"",""How is your bonus determined?""]","[""True"",""$0.01"",""As many or as few as I wish"",""5 cents for every $10 I earn in each round""]",15236,,,108314,,,survey-multi-choice,,17
,,,"[True, True, True, True]",,,,,"[""True or false: The hidden values will change each time I start a new round."",""How much does it cost to observe each hidden value?"",""How many hidden values am I allowed to observe in each round?"",""How is your bonus determined?""]","[""True"",""$1.00"",""As many or as few as I wish"",""5 cents for every $10 I earn in each round""]",17175,,,396658,,,survey-multi-choice,,18
,,,"[True, False, False, True]",,,,,"[""True or false: The hidden values will change each time I start a new round."",""How much does it cost to observe each hidden value?"",""How many hidden values am I allowed to observe in each round?"",""How is your bonus determined?""]","[""True"",""$1.00"",""At most 10"",""5 cents for every $10 I earn in each round""]",24025,,,66773,,,survey-multi-choice,,19
,,,"[True, True, True, True]",,,,,"[""True or false: The hidden values will change each time I start a new round."",""How much does it cost to observe each hidden value?"",""How many hidden values am I allowed to observe in each round?"",""How is your bonus determined?""]","[""True"",""$0.01"",""As many or as few as I wish"",""5 cents for every $10 I earn in each round""]",12803,,,117342,,,survey-multi-choice,,19
,,,"[True, True, True, True]",,,,,"[""True or false: The hidden values will change each time I start a new round."",""How much does it cost to observe each hidden value?"",""How many hidden values am I allowed to observe in each round?"",""How is your bonus determined?""]","[""True"",""$1.00"",""As many or as few as I wish"",""5 cents for every $10 I earn in each round""]",30319,,,125822,,,survey-multi-choice,,20
,,,"[True, True, True, True, True]",,,,,"[""True or false: The hidden values will change each time I start a new round."",""How much does it cost to observe each hidden value?"",""How many hidden values am I allowed to observe in each round?"",""How is your bonus determined?"",""What does the feedback teach you?""]","[""True"",""$0.01"",""As many or as few as I wish"",""5 cents for every $10 I earn in each round"",""All of the above.""]",122752,,,355674,,,survey-multi-choice,,21
,,,"[True, True, True, True, True]",,,,,"[""True or false: The hidden values will change each time I start a new round."",""How much does it cost to observe each hidden value?"",""How many hidden values am I allowed to observe in each round?"",""How is your bonus determined?"",""What does the feedback teach you?""]","[""True"",""$1.00"",""As many or as few as I wish"",""5 cents for every $10 I earn in each round"",""All of the above.""]",25790,,,134999,,,survey-multi-choice,,22
,,,"[True, True, True, True]",,,,,"[""True or false: The hidden values will change each time I start a new round."",""How much does it cost to observe each hidden value?"",""How many hidden values am I allowed to observe in each round?"",""How is your bonus determined?""]","[""True"",""$2.50"",""As many or as few as I wish"",""5 cents for every $10 I earn in each round""]",15256,,,85645,,,survey-multi-choice,,23
,,,"[True, True, True, True]",,,,,"[""True or false: The hidden values will change each time I start a new round."",""How much does it cost to observe each hidden value?"",""How many hidden values am I allowed to observe in each round?"",""How is your bonus determined?""]","[""True"",""$2.50"",""As many or as few as I wish"",""5 cents for every $10 I earn in each round""]",15967,,,88299,,,survey-multi-choice,,24
,,,"[True, True, True, True]",,,,,"[""True or false: The hidden values will change each time I start a new round."",""How much does it cost to observe each hidden value?"",""How many hidden values am I allowed to observe in each round?"",""How is your bonus determined?""]","[""True"",""$0.01"",""As many or as few as I wish"",""5 cents for every $10 I earn in each round""]",10877,,,87803,,,survey-multi-choice,,25
,,,"[True, False, False, True, True]",,,,,"[""True or false: The hidden values will change each time I start a new round."",""How much does it cost to observe each hidden value?"",""How many hidden values am I allowed to observe in each round?"",""How is your bonus determined?"",""What does the feedback teach you?""]","[""True"",""$0.05"",""At most 5"",""5 cents for every $10 I earn in each round"",""All of the above.""]",46671,,,153639,,,survey-multi-choice,,26
,,,"[True, True, True, True, True]",,,,,"[""True or false: The hidden values will change each time I start a new round."",""How much does it cost to observe each hidden value?"",""How many hidden values am I allowed to observe in each round?"",""How is your bonus determined?"",""What does the feedback teach you?""]","[""True"",""$2.50"",""As many or as few as I wish"",""5 cents for every $10 I earn in each round"",""All of the above.""]",20889,,,226792,,,survey-multi-choice,,26
,,,"[True, True, True, True, False]",,,,,"[""True or false: The hidden values will change each time I start a new round."",""How much does it cost to observe each hidden value?"",""How many hidden values am I allowed to observe in each round?"",""How is your bonus determined?"",""What does the feedback teach you?""]","[""True"",""$0.01"",""As many or as few as I wish"",""5 cents for every $10 I earn in each round"",""Whether I chose the move that was best.""]",35998,,,180942,,,survey-multi-choice,,27
,,,"[True, True, True, True, True]",,,,,"[""True or false: The hidden values will change each time I start a new round."",""How much does it cost to observe each hidden value?"",""How many hidden values am I allowed to observe in each round?"",""How is your bonus determined?"",""What does the feedback teach you?""]","[""True"",""$0.01"",""As many or as few as I wish"",""5 cents for every $10 I earn in each round"",""All of the above.""]",32280,,,341855,,,survey-multi-choice,,27
,,,"[True, True, True, True, True]",,,,,"[""True or false: The hidden values will change each time I start a new round."",""How much does it cost to observe each hidden value?"",""How many hidden values am I allowed to observe in each round?"",""How is your bonus determined?"",""What does the feedback teach you?""]","[""True"",""$2.50"",""As many or as few as I wish"",""5 cents for every $10 I earn in each round"",""All of the above.""]",34817,,,255605,,,survey-multi-choice,,28
,,,"[True, True, True, True, False]",,,,,"[""True or false: The hidden values will change each time I start a new round."",""How much does it cost to observe each hidden value?"",""How many hidden values am I allowed to observe in each round?"",""How is your bonus determined?"",""What does the feedback teach you?""]","[""True"",""$0.01"",""As many or as few as I wish"",""5 cents for every $10 I earn in each round"",""Whether I chose the move that was best according to the information I had.""]",31723,,,220506,,,survey-multi-choice,,29
,,,"[True, True, True, True, True]",,,,,"[""True or false: The hidden values will change each time I start a new round."",""How much does it cost to observe each hidden value?"",""How many hidden values am I allowed to observe in each round?"",""How is your bonus determined?"",""What does the feedback teach you?""]","[""True"",""$0.01"",""As many or as few as I wish"",""5 cents for every $10 I earn in each round"",""All of the above.""]",11738,,,274684,,,survey-multi-choice,,29
,,,"[True, True, True, True, True]",,,,,"[""True or false: The hidden values will change each time I start a new round."",""How much does it cost to observe each hidden value?"",""How many hidden values am I allowed to observe in each round?"",""How is your bonus determined?"",""What does the feedback teach you?""]","[""True"",""$2.50"",""As many or as few as I wish"",""5 cents for every $10 I earn in each round"",""All of the above.""]",14723,,,182414,,,survey-multi-choice,,30
,,,"[True, True, True, True, False]",,,,,"[""True or false: The hidden values will change each time I start a new round."",""How much does it cost to observe each hidden value?"",""How many hidden values am I allowed to observe in each round?"",""How is your bonus determined?"",""What does the feedback teach you?""]","[""True"",""$0.01"",""As many or as few as I wish"",""5 cents for every $10 I earn in each round"",""Whether I chose the move that was best.""]",38633,,,198563,,,survey-multi-choice,,31
,,,"[True, True, True, True, True]",,,,,"[""True or false: The hidden values will change each time I start a new round."",""How much does it cost to observe each hidden value?"",""How many hidden values am I allowed to observe in each round?"",""How is your bonus determined?"",""What does the feedback teach you?""]","[""True"",""$0.01"",""As many or as few as I wish"",""5 cents for every $10 I earn in each round"",""All of the above.""]",28773,,,359621,,,survey-multi-choice,,31
,,,"[True, True, True, True]",,,,,"[""True or false: The hidden values will change each time I start a new round."",""How much does it cost to observe each hidden value?"",""How many hidden values am I allowed to observe in each round?"",""How is your bonus determined?""]","[""True"",""$1.00"",""As many or as few as I wish"",""5 cents for every $10 I earn in each round""]",11760,,,157060,,,survey-multi-choice,,32
,,,"[True, False, True, True]",,,,,"[""True or false: The hidden values will change each time I start a new round."",""How much does it cost to observe each hidden value?"",""How many hidden values am I allowed to observe in each round?"",""How is your bonus determined?""]","[""True"",""$0.05"",""As many or as few as I wish"",""5 cents for every $10 I earn in each round""]",21385,,,88243,,,survey-multi-choice,,33
,,,"[True, True, True, True]",,,,,"[""True or false: The hidden values will change each time I start a new round."",""How much does it cost to observe each hidden value?"",""How many hidden values am I allowed to observe in each round?"",""How is your bonus determined?""]","[""True"",""$2.50"",""As many or as few as I wish"",""5 cents for every $10 I earn in each round""]",7357,,,136014,,,survey-multi-choice,,33
,,,"[True, True, True, True, True]",,,,,"[""True or false: The hidden values will change each time I start a new round."",""How much does it cost to observe each hidden value?"",""How many hidden values am I allowed to observe in each round?"",""How is your bonus determined?"",""What does the feedback teach you?""]","[""True"",""$1.00"",""As many or as few as I wish"",""5 cents for every $10 I earn in each round"",""All of the above.""]",39067,,,224269,,,survey-multi-choice,,34
,,,"[True, True, True, True, True]",,,,,"[""True or false: The hidden values will change each time I start a new round."",""How much does it cost to observe each hidden value?"",""How many hidden values am I allowed to observe in each round?"",""How is your bonus determined?"",""What does the feedback teach you?""]","[""True"",""$2.50"",""As many or as few as I wish"",""5 cents for every $10 I earn in each round"",""All of the above.""]",18265,,,153227,,,survey-multi-choice,,35
,,,"[True, True, True, True]",,,,,"[""True or false: The hidden values will change each time I start a new round."",""How much does it cost to observe each hidden value?"",""How many hidden values am I allowed to observe in each round?"",""How is your bonus determined?""]","[""True"",""$1.00"",""As many or as few as I wish"",""5 cents for every $10 I earn in each round""]",16327,,,149722,,,survey-multi-choice,,36
,,,"[True, True, True, True, False]",,,,,"[""True or false: The hidden values will change each time I start a new round."",""How much does it cost to observe each hidden value?"",""How many hidden values am I allowed to observe in each round?"",""How is your bonus determined?"",""What does the feedback teach you?""]","[""True"",""$1.00"",""As many or as few as I wish"",""5 cents for every $10 I earn in each round"",""Whether I observed the rewards of relevant locations.""]",33088,,,222563,,,survey-multi-choice,,37
,,,"[True, True, True, True, True]",,,,,"[""True or false: The hidden values will change each time I start a new round."",""How much does it cost to observe each hidden value?"",""How many hidden values am I allowed to observe in each round?"",""How is your bonus determined?"",""What does the feedback teach you?""]","[""True"",""$1.00"",""As many or as few as I wish"",""5 cents for every $10 I earn in each round"",""All of the above.""]",50865,,,411391,,,survey-multi-choice,,37
,,,"[True, True, True, True, True]",,,,,"[""True or false: The hidden values will change each time I start a new round."",""How much does it cost to observe each hidden value?"",""How many hidden values am I allowed to observe in each round?"",""How is your bonus determined?"",""What does the feedback teach you?""]","[""True"",""$2.50"",""As many or as few as I wish"",""5 cents for every $10 I earn in each round"",""All of the above.""]",27427,,,163644,,,survey-multi-choice,,38
,,,"[True, True, True, True, True]",,,,,"[""True or false: The hidden values will change each time I start a new round."",""How much does it cost to observe each hidden value?"",""How many hidden values am I allowed to observe in each round?"",""How is your bonus determined?"",""What does the feedback teach you?""]","[""True"",""$2.50"",""As many or as few as I wish"",""5 cents for every $10 I earn in each round"",""All of the above.""]",57623,,,105710,,,survey-multi-choice,,39
,,,"[True, True, True, True, True]",,,,,"[""True or false: The hidden values will change each time I start a new round."",""How much does it cost to observe each hidden value?"",""How many hidden values am I allowed to observe in each round?"",""How is your bonus determined?"",""What does the feedback teach you?""]","[""True"",""$0.01"",""As many or as few as I wish"",""5 cents for every $10 I earn in each round"",""All of the above.""]",22840,,,174209,,,survey-multi-choice,,40
,,,"[True, True, True, True, True]",,,,,"[""True or false: The hidden values will change each time I start a new round."",""How much does it cost to observe each hidden value?"",""How many hidden values am I allowed to observe in each round?"",""How is your bonus determined?"",""What does the feedback teach you?""]","[""True"",""$0.01"",""As many or as few as I wish"",""5 cents for every $10 I earn in each round"",""All of the above.""]",29349,,,1911913,,,survey-multi-choice,,41
,,,"[True, True, True, True, True]",,,,,"[""True or false: The hidden values will change each time I start a new round."",""How much does it cost to observe each hidden value?"",""How many hidden values am I allowed to observe in each round?"",""How is your bonus determined?"",""What does the feedback teach you?""]","[""True"",""$1.00"",""As many or as few as I wish"",""5 cents for every $10 I earn in each round"",""All of the above.""]",72087,,,319187,,,survey-multi-choice,,42
,,,"[True, True, True, True]",,,,,"[""True or false: The hidden values will change each time I start a new round."",""How much does it cost to observe each hidden value?"",""How many hidden values am I allowed to observe in each round?"",""How is your bonus determined?""]","[""True"",""$2.50"",""As many or as few as I wish"",""5 cents for every $10 I earn in each round""]",25592,,,97823,,,survey-multi-choice,,43
,,,"[True, True, True, True]",,,,,"[""True or false: The hidden values will change each time I start a new round."",""How much does it cost to observe each hidden value?"",""How many hidden values am I allowed to observe in each round?"",""How is your bonus determined?""]","[""True"",""$1.00"",""As many or as few as I wish"",""5 cents for every $10 I earn in each round""]",16006,,,144514,,,survey-multi-choice,,44
,,,"[True, False, True, True, True]",,,,,"[""True or false: The hidden values will change each time I start a new round."",""How much does it cost to observe each hidden value?"",""How many hidden values am I allowed to observe in each round?"",""How is your bonus determined?"",""What does the feedback teach you?""]","[""True"",""$1.00"",""As many or as few as I wish"",""5 cents for every $10 I earn in each round"",""All of the above.""]",80463,,,110727,,,survey-multi-choice,,45
,,,"[True, True, True, True, True]",,,,,"[""True or false: The hidden values will change each time I start a new round."",""How much does it cost to observe each hidden value?"",""How many hidden values am I allowed to observe in each round?"",""How is your bonus determined?"",""What does the feedback teach you?""]","[""True"",""$0.01"",""As many or as few as I wish"",""5 cents for every $10 I earn in each round"",""All of the above.""]",57907,,,330833,,,survey-multi-choice,,45
,,,"[True, False, True, True]",,,,,"[""True or false: The hidden values will change each time I start a new round."",""How much does it cost to observe each hidden value?"",""How many hidden values am I allowed to observe in each round?"",""How is your bonus determined?""]","[""True"",""$0.05"",""As many or as few as I wish"",""5 cents for every $10 I earn in each round""]",13713,,,43287,,,survey-multi-choice,,46
,,,"[True, True, True, True]",,,,,"[""True or false: The hidden values will change each time I start a new round."",""How much does it cost to observe each hidden value?"",""How many hidden values am I allowed to observe in each round?"",""How is your bonus determined?""]","[""True"",""$0.01"",""As many or as few as I wish"",""5 cents for every $10 I earn in each round""]",11712,,,98290,,,survey-multi-choice,,46
,,,"[True, True, True, True]",,,,,"[""True or false: The hidden values will change each time I start a new round."",""How much does it cost to observe each hidden value?"",""How many hidden values am I allowed to observe in each round?"",""How is your bonus determined?""]","[""True"",""$0.01"",""As many or as few as I wish"",""5 cents for every $10 I earn in each round""]",15955,,,111119,,,survey-multi-choice,,47
,,,"[True, True, True, True, True]",,,,,"[""True or false: The hidden values will change each time I start a new round."",""How much does it cost to observe each hidden value?"",""How many hidden values am I allowed to observe in each round?"",""How is your bonus determined?"",""What does the feedback teach you?""]","[""True"",""$0.01"",""As many or as few as I wish"",""5 cents for every $10 I earn in each round"",""All of the above.""]",31710,,,141818,,,survey-multi-choice,,48
,,,"[True, True, False, True, True]",,,,,"[""True or false: The hidden values will change each time I start a new round."",""How much does it cost to observe each hidden value?"",""How many hidden values am I allowed to observe in each round?"",""How is your bonus determined?"",""What does the feedback teach you?""]","[""True"",""$2.50"",""At most 5"",""5 cents for every $10 I earn in each round"",""All of the above.""]",33883,,,156113,,,survey-multi-choice,,49
,,,"[False, False, True, True, True]",,,,,"[""True or false: The hidden values will change each time I start a new round."",""How much does it cost to observe each hidden value?"",""How many hidden values am I allowed to observe in each round?"",""How is your bonus determined?"",""What does the feedback teach you?""]","[""False"",""$0.05"",""As many or as few as I wish"",""5 cents for every $10 I earn in each round"",""All of the above.""]",26821,,,264643,,,survey-multi-choice,,49
,,,"[True, False, False, True, False]",,,,,"[""True or false: The hidden values will change each time I start a new round."",""How much does it cost to observe each hidden value?"",""How many hidden values am I allowed to observe in each round?"",""How is your bonus determined?"",""What does the feedback teach you?""]","[""True"",""$0.05"",""At most 5"",""5 cents for every $10 I earn in each round"",""The length of the delay is based on how much more money I could have earned.""]",14111,,,290463,,,survey-multi-choice,,49
,,,"[True, False, False, True, False]",,,,,"[""True or false: The hidden values will change each time I start a new round."",""How much does it cost to observe each hidden value?"",""How many hidden values am I allowed to observe in each round?"",""How is your bonus determined?"",""What does the feedback teach you?""]","[""True"",""$0.01"",""At most 1"",""5 cents for every $10 I earn in each round"",""Whether I chose the move that was best.""]",9796,,,309035,,,survey-multi-choice,,49
,,,"[True, True, True, True, True]",,,,,"[""True or false: The hidden values will change each time I start a new round."",""How much does it cost to observe each hidden value?"",""How many hidden values am I allowed to observe in each round?"",""How is your bonus determined?"",""What does the feedback teach you?""]","[""True"",""$2.50"",""As many or as few as I wish"",""5 cents for every $10 I earn in each round"",""All of the above.""]",53171,,,695503,,,survey-multi-choice,,49
,,,"[True, True, True, True]",,,,,"[""True or false: The hidden values will change each time I start a new round."",""How much does it cost to observe each hidden value?"",""How many hidden values am I allowed to observe in each round?"",""How is your bonus determined?""]","[""True"",""$1.00"",""As many or as few as I wish"",""5 cents for every $10 I earn in each round""]",21472,,,302797,,,survey-multi-choice,,50
,,,"[True, True, True, False, True]",,,,,"[""True or false: The hidden values will change each time I start a new round."",""How much does it cost to observe each hidden value?"",""How many hidden values am I allowed to observe in each round?"",""How is your bonus determined?"",""What does the feedback teach you?""]","[""True"",""$0.01"",""As many or as few as I wish"",""10% of my score on a random round"",""All of the above.""]",33305,,,163106,,,survey-multi-choice,,51
,,,"[True, True, True, True, True]",,,,,"[""True or false: The hidden values will change each time I start a new round."",""How much does it cost to observe each hidden value?"",""How many hidden values am I allowed to observe in each round?"",""How is your bonus determined?"",""What does the feedback teach you?""]","[""True"",""$0.01"",""As many or as few as I wish"",""5 cents for every $10 I earn in each round"",""All of the above.""]",9565,,,199039,,,survey-multi-choice,,51
,,,"[True, True, True, True, True]",,,,,"[""True or false: The hidden values will change each time I start a new round."",""How much does it cost to observe each hidden value?"",""How many hidden values am I allowed to observe in each round?"",""How is your bonus determined?"",""What does the feedback teach you?""]","[""True"",""$1.00"",""As many or as few as I wish"",""5 cents for every $10 I earn in each round"",""All of the above.""]",58926,,,212036,,,survey-multi-choice,,52
,,,"[True, True, True, True, False]",,,,,"[""True or false: The hidden values will change each time I start a new round."",""How much does it cost to observe each hidden value?"",""How many hidden values am I allowed to observe in each round?"",""How is your bonus determined?"",""What does the feedback teach you?""]","[""True"",""$1.00"",""As many or as few as I wish"",""5 cents for every $10 I earn in each round"",""Whether I chose the move that was best.""]",22309,,,106548,,,survey-multi-choice,,53
,,,"[True, True, True, True, True]",,,,,"[""True or false: The hidden values will change each time I start a new round."",""How much does it cost to observe each hidden value?"",""How many hidden values am I allowed to observe in each round?"",""How is your bonus determined?"",""What does the feedback teach you?""]","[""True"",""$1.00"",""As many or as few as I wish"",""5 cents for every $10 I earn in each round"",""All of the above.""]",7765,,,119581,,,survey-multi-choice,,53
,,,"[True, False, True, True]",,,,,"[""True or false: The hidden values will change each time I start a new round."",""How much does it cost to observe each hidden value?"",""How many hidden values am I allowed to observe in each round?"",""How is your bonus determined?""]","[""True"",""$0.01"",""As many or as few as I wish"",""5 cents for every $10 I earn in each round""]",23845,,,118094,,,survey-multi-choice,,54
,,,"[True, True, True, True]",,,,,"[""True or false: The hidden values will change each time I start a new round."",""How much does it cost to observe each hidden value?"",""How many hidden values am I allowed to observe in each round?"",""How is your bonus determined?""]","[""True"",""$2.50"",""As many or as few as I wish"",""5 cents for every $10 I earn in each round""]",15175,,,200709,,,survey-multi-choice,,54
,,,"[True, True, True, True, True]",,,,,"[""True or false: The hidden values will change each time I start a new round."",""How much does it cost to observe each hidden value?"",""How many hidden values am I allowed to observe in each round?"",""How is your bonus determined?"",""What does the feedback teach you?""]","[""True"",""$0.01"",""As many or as few as I wish"",""5 cents for every $10 I earn in each round"",""All of the above.""]",78228,,,144741,,,survey-multi-choice,,55
,,,"[True, True, True, True]",,,,,"[""True or false: The hidden values will change each time I start a new round."",""How much does it cost to observe each hidden value?"",""How many hidden values am I allowed to observe in each round?"",""How is your bonus determined?""]","[""True"",""$1.00"",""As many or as few as I wish"",""5 cents for every $10 I earn in each round""]",20751,,,159373,,,survey-multi-choice,,56
,,,"[True, True, True, True, False]",,,,,"[""True or false: The hidden values will change each time I start a new round."",""How much does it cost to observe each hidden value?"",""How many hidden values am I allowed to observe in each round?"",""How is your bonus determined?"",""What does the feedback teach you?""]","[""True"",""$1.00"",""As many or as few as I wish"",""5 cents for every $10 I earn in each round"",""The length of the delay is based on how much more money I could have earned by planning and deciding better.""]",65420,,,288493,,,survey-multi-choice,,57
,,,"[True, True, True, True, False]",,,,,"[""True or false: The hidden values will change each time I start a new round."",""How much does it cost to observe each hidden value?"",""How many hidden values am I allowed to observe in each round?"",""How is your bonus determined?"",""What does the feedback teach you?""]","[""True"",""$1.00"",""As many or as few as I wish"",""5 cents for every $10 I earn in each round"",""The length of the delay is based on how much more money I could have earned by planning and deciding better.""]",29514,,,361605,,,survey-multi-choice,,57
,,,"[True, True, True, True, True]",,,,,"[""True or false: The hidden values will change each time I start a new round."",""How much does it cost to observe each hidden value?"",""How many hidden values am I allowed to observe in each round?"",""How is your bonus determined?"",""What does the feedback teach you?""]","[""True"",""$1.00"",""As many or as few as I wish"",""5 cents for every $10 I earn in each round"",""All of the above.""]",9109,,,385040,,,survey-multi-choice,,57
,,,"[True, True, True, True, True]",,,,,"[""True or false: The hidden values will change each time I start a new round."",""How much does it cost to observe each hidden value?"",""How many hidden values am I allowed to observe in each round?"",""How is your bonus determined?"",""What does the feedback teach you?""]","[""True"",""$0.01"",""As many or as few as I wish"",""5 cents for every $10 I earn in each round"",""All of the above.""]",21406,,,111514,,,survey-multi-choice,,58
,,,"[True, True, True, True]",,,,,"[""True or false: The hidden values will change each time I start a new round."",""How much does it cost to observe each hidden value?"",""How many hidden values am I allowed to observe in each round?"",""How is your bonus determined?""]","[""True"",""$0.01"",""As many or as few as I wish"",""5 cents for every $10 I earn in each round""]",19684,,,138818,,,survey-multi-choice,,59
,,,"[True, True, True, True]",,,,,"[""True or false: The hidden values will change each time I start a new round."",""How much does it cost to observe each hidden value?"",""How many hidden values am I allowed to observe in each round?"",""How is your bonus determined?""]","[""True"",""$2.50"",""As many or as few as I wish"",""5 cents for every $10 I earn in each round""]",20597,,,65013,,,survey-multi-choice,,60
,,,"[True, True, True, True, True]",,,,,"[""True or false: The hidden values will change each time I start a new round."",""How much does it cost to observe each hidden value?"",""How many hidden values am I allowed to observe in each round?"",""How is your bonus determined?"",""What does the feedback teach you?""]","[""True"",""$1.00"",""As many or as few as I wish"",""5 cents for every $10 I earn in each round"",""All of the above.""]",23337,,,156840,,,survey-multi-choice,,61
,,,"[True, True, True, True, True]",,,,,"[""True or false: The hidden values will change each time I start a new round."",""How much does it cost to observe each hidden value?"",""How many hidden values am I allowed to observe in each round?"",""How is your bonus determined?"",""What does the feedback teach you?""]","[""True"",""$1.00"",""As many or as few as I wish"",""5 cents for every $10 I earn in each round"",""All of the above.""]",35266,,,149866,,,survey-multi-choice,,62
,,,"[True, True, True, True, True]",,,,,"[""True or false: The hidden values will change each time I start a new round."",""How much does it cost to observe each hidden value?"",""How many hidden values am I allowed to observe in each round?"",""How is your bonus determined?"",""What does the feedback teach you?""]","[""True"",""$1.00"",""As many or as few as I wish"",""5 cents for every $10 I earn in each round"",""All of the above.""]",27834,,,167728,,,survey-multi-choice,,63
,,,"[True, True, True, True]",,,,,"[""True or false: The hidden values will change each time I start a new round."",""How much does it cost to observe each hidden value?"",""How many hidden values am I allowed to observe in each round?"",""How is your bonus determined?""]","[""True"",""$1.00"",""As many or as few as I wish"",""5 cents for every $10 I earn in each round""]",21101,,,115554,,,survey-multi-choice,,64
,,,"[True, True, True, True]",,,,,"[""True or false: The hidden values will change each time I start a new round."",""How much does it cost to observe each hidden value?"",""How many hidden values am I allowed to observe in each round?"",""How is your bonus determined?""]","[""True"",""$2.50"",""As many or as few as I wish"",""5 cents for every $10 I earn in each round""]",24556,,,135790,,,survey-multi-choice,,65
,,,"[True, True, True, True, False]",,,,,"[""True or false: The hidden values will change each time I start a new round."",""How much does it cost to observe each hidden value?"",""How many hidden values am I allowed to observe in each round?"",""How is your bonus determined?"",""What does the feedback teach you?""]","[""True"",""$2.50"",""As many or as few as I wish"",""5 cents for every $10 I earn in each round"",""Whether I chose the move that was best.""]",51949,,,208863,,,survey-multi-choice,,66
,,,"[True, True, True, True, False]",,,,,"[""True or false: The hidden values will change each time I start a new round."",""How much does it cost to observe each hidden value?"",""How many hidden values am I allowed to observe in each round?"",""How is your bonus determined?"",""What does the feedback teach you?""]","[""True"",""$2.50"",""As many or as few as I wish"",""5 cents for every $10 I earn in each round"",""The length of the delay is based on how much more money I could have earned.""]",14495,,,228930,,,survey-multi-choice,,66
,,,"[True, True, True, True, True]",,,,,"[""True or false: The hidden values will change each time I start a new round."",""How much does it cost to observe each hidden value?"",""How many hidden values am I allowed to observe in each round?"",""How is your bonus determined?"",""What does the feedback teach you?""]","[""True"",""$2.50"",""As many or as few as I wish"",""5 cents for every $10 I earn in each round"",""All of the above.""]",13225,,,286705,,,survey-multi-choice,,66
,,,"[True, True, True, True]",,,,,"[""True or false: The hidden values will change each time I start a new round."",""How much does it cost to observe each hidden value?"",""How many hidden values am I allowed to observe in each round?"",""How is your bonus determined?""]","[""True"",""$2.50"",""As many or as few as I wish"",""5 cents for every $10 I earn in each round""]",23508,,,94239,,,survey-multi-choice,,67
,,,"[True, True, True, True, True]",,,,,"[""True or false: The hidden values will change each time I start a new round."",""How much does it cost to observe each hidden value?"",""How many hidden values am I allowed to observe in each round?"",""How is your bonus determined?"",""What does the feedback teach you?""]","[""True"",""$1.00"",""As many or as few as I wish"",""5 cents for every $10 I earn in each round"",""All of the above.""]",19849,,,98572,,,survey-multi-choice,,68
,,,"[True, False, True, True, False]",,,,,"[""True or false: The hidden values will change each time I start a new round."",""How much does it cost to observe each hidden value?"",""How many hidden values am I allowed to observe in each round?"",""How is your bonus determined?"",""What does the feedback teach you?""]","[""True"",""$0.05"",""As many or as few as I wish"",""5 cents for every $10 I earn in each round"",""Whether I chose the move that was best.""]",48681,,,249924,,,survey-multi-choice,,69
,,,"[True, True, True, True, False]",,,,,"[""True or false: The hidden values will change each time I start a new round."",""How much does it cost to observe each hidden value?"",""How many hidden values am I allowed to observe in each round?"",""How is your bonus determined?"",""What does the feedback teach you?""]","[""True"",""$1.00"",""As many or as few as I wish"",""5 cents for every $10 I earn in each round"",""Whether I chose the move that was best.""]",20376,,,309742,,,survey-multi-choice,,69
,,,"[False, True, True, True, False]",,,,,"[""True or false: The hidden values will change each time I start a new round."",""How much does it cost to observe each hidden value?"",""How many hidden values am I allowed to observe in each round?"",""How is your bonus determined?"",""What does the feedback teach you?""]","[""False"",""$1.00"",""As many or as few as I wish"",""5 cents for every $10 I earn in each round"",""Whether I chose the move that was best.""]",15729,,,401266,,,survey-multi-choice,,69
,,,"[True, True, True, True, True]",,,,,"[""True or false: The hidden values will change each time I start a new round."",""How much does it cost to observe each hidden value?"",""How many hidden values am I allowed to observe in each round?"",""How is your bonus determined?"",""What does the feedback teach you?""]","[""True"",""$1.00"",""As many or as few as I wish"",""5 cents for every $10 I earn in each round"",""All of the above.""]",25451,,,486917,,,survey-multi-choice,,69
,,,"[True, True, False, True]",,,,,"[""True or false: The hidden values will change each time I start a new round."",""How much does it cost to observe each hidden value?"",""How many hidden values am I allowed to observe in each round?"",""How is your bonus determined?""]","[""True"",""$0.01"",""At most 1"",""5 cents for every $10 I earn in each round""]",9675,,,27169,,,survey-multi-choice,,70
,,,"[True, True, True, True]",,,,,"[""True or false: The hidden values will change each time I start a new round."",""How much does it cost to observe each hidden value?"",""How many hidden values am I allowed to observe in each round?"",""How is your bonus determined?""]","[""True"",""$0.01"",""As many or as few as I wish"",""5 cents for every $10 I earn in each round""]",7483,,,48370,,,survey-multi-choice,,70
,,,"[True, True, True, True, True]",,,,,"[""True or false: The hidden values will change each time I start a new round."",""How much does it cost to observe each hidden value?"",""How many hidden values am I allowed to observe in each round?"",""How is your bonus determined?"",""What does the feedback teach you?""]","[""True"",""$2.50"",""As many or as few as I wish"",""5 cents for every $10 I earn in each round"",""All of the above.""]",103495,,,501284,,,survey-multi-choice,,71
,,,"[True, True, True, True, False]",,,,,"[""True or false: The hidden values will change each time I start a new round."",""How much does it cost to observe each hidden value?"",""How many hidden values am I allowed to observe in each round?"",""How is your bonus determined?"",""What does the feedback teach you?""]","[""True"",""$1.00"",""As many or as few as I wish"",""5 cents for every $10 I earn in each round"",""The length of the delay is based on how much more money I could have earned by planning and deciding better.""]",45805,,,410509,,,survey-multi-choice,,72
,,,"[True, True, True, True, True]",,,,,"[""True or false: The hidden values will change each time I start a new round."",""How much does it cost to observe each hidden value?"",""How many hidden values am I allowed to observe in each round?"",""How is your bonus determined?"",""What does the feedback teach you?""]","[""True"",""$1.00"",""As many or as few as I wish"",""5 cents for every $10 I earn in each round"",""All of the above.""]",10844,,,430422,,,survey-multi-choice,,72
,,,"[True, True, True, True, True]",,,,,"[""True or false: The hidden values will change each time I start a new round."",""How much does it cost to observe each hidden value?"",""How many hidden values am I allowed to observe in each round?"",""How is your bonus determined?"",""What does the feedback teach you?""]","[""True"",""$2.50"",""As many or as few as I wish"",""5 cents for every $10 I earn in each round"",""All of the above.""]",38453,,,247841,,,survey-multi-choice,,73
,,,"[True, True, True, True, True]",,,,,"[""True or false: The hidden values will change each time I start a new round."",""How much does it cost to observe each hidden value?"",""How many hidden values am I allowed to observe in each round?"",""How is your bonus determined?"",""What does the feedback teach you?""]","[""True"",""$2.50"",""As many or as few as I wish"",""5 cents for every $10 I earn in each round"",""All of the above.""]",39393,,,196996,,,survey-multi-choice,,74
,,,"[False, True, True, True]",,,,,"[""True or false: The hidden values will change each time I start a new round."",""How much does it cost to observe each hidden value?"",""How many hidden values am I allowed to observe in each round?"",""How is your bonus determined?""]","[""False"",""$2.50"",""As many or as few as I wish"",""5 cents for every $10 I earn in each round""]",15519,,,131493,,,survey-multi-choice,,75
,,,"[True, True, True, True]",,,,,"[""True or false: The hidden values will change each time I start a new round."",""How much does it cost to observe each hidden value?"",""How many hidden values am I allowed to observe in each round?"",""How is your bonus determined?""]","[""True"",""$2.50"",""As many or as few as I wish"",""5 cents for every $10 I earn in each round""]",8095,,,174023,,,survey-multi-choice,,75
,,,"[True, False, False, True]",,,,,"[""True or false: The hidden values will change each time I start a new round."",""How much does it cost to observe each hidden value?"",""How many hidden values am I allowed to observe in each round?"",""How is your bonus determined?""]","[""True"",""$0.05"",""At most 5"",""5 cents for every $10 I earn in each round""]",41912,,,192362,,,survey-multi-choice,,76
,,,"[True, True, False, True]",,,,,"[""True or false: The hidden values will change each time I start a new round."",""How much does it cost to observe each hidden value?"",""How many hidden values am I allowed to observe in each round?"",""How is your bonus determined?""]","[""True"",""$0.01"",""At most 5"",""5 cents for every $10 I earn in each round""]",67510,,,385889,,,survey-multi-choice,,76
,,,"[True, True, False, True]",,,,,"[""True or false: The hidden values will change each time I start a new round."",""How much does it cost to observe each hidden value?"",""How many hidden values am I allowed to observe in each round?"",""How is your bonus determined?""]","[""True"",""$0.01"",""At most 1"",""5 cents for every $10 I earn in each round""]",16599,,,416136,,,survey-multi-choice,,76
,,,"[True, True, True, True]",,,,,"[""True or false: The hidden values will change each time I start a new round."",""How much does it cost to observe each hidden value?"",""How many hidden values am I allowed to observe in each round?"",""How is your bonus determined?""]","[""True"",""$0.01"",""As many or as few as I wish"",""5 cents for every $10 I earn in each round""]",26971,,,458538,,,survey-multi-choice,,76
,,,"[True, True, False, True, True]",,,,,"[""True or false: The hidden values will change each time I start a new round."",""How much does it cost to observe each hidden value?"",""How many hidden values am I allowed to observe in each round?"",""How is your bonus determined?"",""What does the feedback teach you?""]","[""True"",""$2.50"",""At most 15"",""5 cents for every $10 I earn in each round"",""All of the above.""]",42129,,,170686,,,survey-multi-choice,,77
,,,"[True, True, True, True, True]",,,,,"[""True or false: The hidden values will change each time I start a new round."",""How much does it cost to observe each hidden value?"",""How many hidden values am I allowed to observe in each round?"",""How is your bonus determined?"",""What does the feedback teach you?""]","[""True"",""$2.50"",""As many or as few as I wish"",""5 cents for every $10 I earn in each round"",""All of the above.""]",25756,,,335534,,,survey-multi-choice,,77
,,,"[True, True, True, True, True]",,,,,"[""True or false: The hidden values will change each time I start a new round."",""How much does it cost to observe each hidden value?"",""How many hidden values am I allowed to observe in each round?"",""How is your bonus determined?"",""What does the feedback teach you?""]","[""True"",""$1.00"",""As many or as few as I wish"",""5 cents for every $10 I earn in each round"",""All of the above.""]",55117,,,318170,,,survey-multi-choice,,78
,,,"[True, True, True, True, True]",,,,,"[""True or false: The hidden values will change each time I start a new round."",""How much does it cost to observe each hidden value?"",""How many hidden values am I allowed to observe in each round?"",""How is your bonus determined?"",""What does the feedback teach you?""]","[""True"",""$1.00"",""As many or as few as I wish"",""5 cents for every $10 I earn in each round"",""All of the above.""]",15753,,,400544,,,survey-multi-choice,,79
,,,"[True, True, True, True, False]",,,,,"[""True or false: The hidden values will change each time I start a new round."",""How much does it cost to observe each hidden value?"",""How many hidden values am I allowed to observe in each round?"",""How is your bonus determined?"",""What does the feedback teach you?""]","[""True"",""$2.50"",""As many or as few as I wish"",""5 cents for every $10 I earn in each round"",""Whether I chose the move that was best.""]",41952,,,221529,,,survey-multi-choice,,80
,,,"[True, True, True, True, True]",,,,,"[""True or false: The hidden values will change each time I start a new round."",""How much does it cost to observe each hidden value?"",""How many hidden values am I allowed to observe in each round?"",""How is your bonus determined?"",""What does the feedback teach you?""]","[""True"",""$2.50"",""As many or as few as I wish"",""5 cents for every $10 I earn in each round"",""All of the above.""]",16020,,,345573,,,survey-multi-choice,,80
,,,"[True, False, True, True, True]",,,,,"[""True or false: The hidden values will change each time I start a new round."",""How much does it cost to observe each hidden value?"",""How many hidden values am I allowed to observe in each round?"",""How is your bonus determined?"",""What does the feedback teach you?""]","[""True"",""$0.05"",""As many or as few as I wish"",""5 cents for every $10 I earn in each round"",""All of the above.""]",29226,,,136140,,,survey-multi-choice,,81
,,,"[True, True, True, True, True]",,,,,"[""True or false: The hidden values will change each time I start a new round."",""How much does it cost to observe each hidden value?"",""How many hidden values am I allowed to observe in each round?"",""How is your bonus determined?"",""What does the feedback teach you?""]","[""True"",""$1.00"",""As many or as few as I wish"",""5 cents for every $10 I earn in each round"",""All of the above.""]",13153,,,186397,,,survey-multi-choice,,81
,,,"[True, True, True, True, True]",,,,,"[""True or false: The hidden values will change each time I start a new round."",""How much does it cost to observe each hidden value?"",""How many hidden values am I allowed to observe in each round?"",""How is your bonus determined?"",""What does the feedback teach you?""]","[""True"",""$1.00"",""As many or as few as I wish"",""5 cents for every $10 I earn in each round"",""All of the above.""]",56990,,,303274,,,survey-multi-choice,,82
,,,"[True, False, True, True, False]",,,,,"[""True or false: The hidden values will change each time I start a new round."",""How much does it cost to observe each hidden value?"",""How many hidden values am I allowed to observe in each round?"",""How is your bonus determined?"",""What does the feedback teach you?""]","[""True"",""$1.00"",""As many or as few as I wish"",""5 cents for every $10 I earn in each round"",""Whether I chose the move that was best.""]",14186,,,64865,,,survey-multi-choice,,83
,,,"[True, False, True, True, True]",,,,,"[""True or false: The hidden values will change each time I start a new round."",""How much does it cost to observe each hidden value?"",""How many hidden values am I allowed to observe in each round?"",""How is your bonus determined?"",""What does the feedback teach you?""]","[""True"",""$1.00"",""As many or as few as I wish"",""5 cents for every $10 I earn in each round"",""All of the above.""]",14589,,,92041,,,survey-multi-choice,,83
,,,"[True, False, True, True, True]",,,,,"[""True or false: The hidden values will change each time I start a new round."",""How much does it cost to observe each hidden value?"",""How many hidden values am I allowed to observe in each round?"",""How is your bonus determined?"",""What does the feedback teach you?""]","[""True"",""$1.00"",""As many or as few as I wish"",""5 cents for every $10 I earn in each round"",""All of the above.""]",13638,,,145080,,,survey-multi-choice,,83
,,,"[True, True, True, True, True]",,,,,"[""True or false: The hidden values will change each time I start a new round."",""How much does it cost to observe each hidden value?"",""How many hidden values am I allowed to observe in each round?"",""How is your bonus determined?"",""What does the feedback teach you?""]","[""True"",""$2.50"",""As many or as few as I wish"",""5 cents for every $10 I earn in each round"",""All of the above.""]",12659,,,173377,,,survey-multi-choice,,83
,,,"[True, True, True, True]",,,,,"[""True or false: The hidden values will change each time I start a new round."",""How much does it cost to observe each hidden value?"",""How many hidden values am I allowed to observe in each round?"",""How is your bonus determined?""]","[""True"",""$0.01"",""As many or as few as I wish"",""5 cents for every $10 I earn in each round""]",15127,,,112860,,,survey-multi-choice,,84
,,,"[True, False, False, True]",,,,,"[""True or false: The hidden values will change each time I start a new round."",""How much does it cost to observe each hidden value?"",""How many hidden values am I allowed to observe in each round?"",""How is your bonus determined?""]","[""True"",""$0.01"",""At most 5"",""5 cents for every $10 I earn in each round""]",32506,,,295807,,,survey-multi-choice,,85
,,,"[True, True, False, True]",,,,,"[""True or false: The hidden values will change each time I start a new round."",""How much does it cost to observe each hidden value?"",""How many hidden values am I allowed to observe in each round?"",""How is your bonus determined?""]","[""True"",""$2.50"",""At most 1"",""5 cents for every $10 I earn in each round""]",11487,,,336760,,,survey-multi-choice,,85
,,,"[True, True, True, True]",,,,,"[""True or false: The hidden values will change each time I start a new round."",""How much does it cost to observe each hidden value?"",""How many hidden values am I allowed to observe in each round?"",""How is your bonus determined?""]","[""True"",""$2.50"",""As many or as few as I wish"",""5 cents for every $10 I earn in each round""]",6366,,,351222,,,survey-multi-choice,,85
,,,"[True, True, True, True, True]",,,,,"[""True or false: The hidden values will change each time I start a new round."",""How much does it cost to observe each hidden value?"",""How many hidden values am I allowed to observe in each round?"",""How is your bonus determined?"",""What does the feedback teach you?""]","[""True"",""$1.00"",""As many or as few as I wish"",""5 cents for every $10 I earn in each round"",""All of the above.""]",160709,,,485183,,,survey-multi-choice,,86
,,,"[True, False, True, False]",,,,,"[""True or false: The hidden values will change each time I start a new round."",""How much does it cost to observe each hidden value?"",""How many hidden values am I allowed to observe in each round?"",""How is your bonus determined?""]","[""True"",""$0.05"",""As many or as few as I wish"",""10% of my best score on any round""]",18942,,,56536,,,survey-multi-choice,,87
,,,"[True, True, True, True]",,,,,"[""True or false: The hidden values will change each time I start a new round."",""How much does it cost to observe each hidden value?"",""How many hidden values am I allowed to observe in each round?"",""How is your bonus determined?""]","[""True"",""$1.00"",""As many or as few as I wish"",""5 cents for every $10 I earn in each round""]",7055,,,89802,,,survey-multi-choice,,87
,,,"[True, True, True, True, True]",,,,,"[""True or false: The hidden values will change each time I start a new round."",""How much does it cost to observe each hidden value?"",""How many hidden values am I allowed to observe in each round?"",""How is your bonus determined?"",""What does the feedback teach you?""]","[""True"",""$0.01"",""As many or as few as I wish"",""5 cents for every $10 I earn in each round"",""All of the above.""]",29545,,,231339,,,survey-multi-choice,,88
,,,"[True, True, True, True, False]",,,,,"[""True or false: The hidden values will change each time I start a new round."",""How much does it cost to observe each hidden value?"",""How many hidden values am I allowed to observe in each round?"",""How is your bonus determined?"",""What does the feedback teach you?""]","[""True"",""$2.50"",""As many or as few as I wish"",""5 cents for every $10 I earn in each round"",""Whether I chose the move that was best.""]",53335,,,491065,,,survey-multi-choice,,89
,,,"[True, True, True, True, True]",,,,,"[""True or false: The hidden values will change each time I start a new round."",""How much does it cost to observe each hidden value?"",""How many hidden values am I allowed to observe in each round?"",""How is your bonus determined?"",""What does the feedback teach you?""]","[""True"",""$2.50"",""As many or as few as I wish"",""5 cents for every $10 I earn in each round"",""All of the above.""]",24462,,,562071,,,survey-multi-choice,,89
,,,"[True, True, True, True, True]",,,,,"[""True or false: The hidden values will change each time I start a new round."",""How much does it cost to observe each hidden value?"",""How many hidden values am I allowed to observe in each round?"",""How is your bonus determined?"",""What does the feedback teach you?""]","[""True"",""$1.00"",""As many or as few as I wish"",""5 cents for every $10 I earn in each round"",""All of the above.""]",33236,,,274719,,,survey-multi-choice,,90
,,,"[True, True, True, True, True]",,,,,"[""True or false: The hidden values will change each time I start a new round."",""How much does it cost to observe each hidden value?"",""How many hidden values am I allowed to observe in each round?"",""How is your bonus determined?"",""What does the feedback teach you?""]","[""True"",""$0.01"",""As many or as few as I wish"",""5 cents for every $10 I earn in each round"",""All of the above.""]",23705,,,255595,,,survey-multi-choice,,91
,,,"[True, True, True, True, True]",,,,,"[""True or false: The hidden values will change each time I start a new round."",""How much does it cost to observe each hidden value?"",""How many hidden values am I allowed to observe in each round?"",""How is your bonus determined?"",""What does the feedback teach you?""]","[""True"",""$1.00"",""As many or as few as I wish"",""5 cents for every $10 I earn in each round"",""All of the above.""]",28084,,,206429,,,survey-multi-choice,,92
,,,"[True, True, True, True]",,,,,"[""True or false: The hidden values will change each time I start a new round."",""How much does it cost to observe each hidden value?"",""How many hidden values am I allowed to observe in each round?"",""How is your bonus determined?""]","[""True"",""$0.01"",""As many or as few as I wish"",""5 cents for every $10 I earn in each round""]",29398,,,1824835,,,survey-multi-choice,,93
,,,"[False, True, True, True, False]",,,,,"[""True or false: The hidden values will change each time I start a new round."",""How much does it cost to observe each hidden value?"",""How many hidden values am I allowed to observe in each round?"",""How is your bonus determined?"",""What does the feedback teach you?""]","[""False"",""$2.50"",""As many or as few as I wish"",""5 cents for every $10 I earn in each round"",""Whether I chose the move that was best.""]",53023,,,269076,,,survey-multi-choice,,94
,,,"[True, True, True, True, False]",,,,,"[""True or false: The hidden values will change each time I start a new round."",""How much does it cost to observe each hidden value?"",""How many hidden values am I allowed to observe in each round?"",""How is your bonus determined?"",""What does the feedback teach you?""]","[""True"",""$2.50"",""As many or as few as I wish"",""5 cents for every $10 I earn in each round"",""Whether I chose the move that was best.""]",17583,,,343071,,,survey-multi-choice,,94
,,,"[True, True, True, True, False]",,,,,"[""True or false: The hidden values will change each time I start a new round."",""How much does it cost to observe each hidden value?"",""How many hidden values am I allowed to observe in each round?"",""How is your bonus determined?"",""What does the feedback teach you?""]","[""True"",""$2.50"",""As many or as few as I wish"",""5 cents for every $10 I earn in each round"",""Whether I chose the move that was best.""]",18949,,,415059,,,survey-multi-choice,,94
,,,"[True, True, True, True, True]",,,,,"[""True or false: The hidden values will change each time I start a new round."",""How much does it cost to observe each hidden value?"",""How many hidden values am I allowed to observe in each round?"",""How is your bonus determined?"",""What does the feedback teach you?""]","[""True"",""$2.50"",""As many or as few as I wish"",""5 cents for every $10 I earn in each round"",""All of the above.""]",19898,,,473893,,,survey-multi-choice,,94
,,,"[True, False, False, True, True]",,,,,"[""True or false: The hidden values will change each time I start a new round."",""How much does it cost to observe each hidden value?"",""How many hidden values am I allowed to observe in each round?"",""How is your bonus determined?"",""What does the feedback teach you?""]","[""True"",""$0.05"",""At most 5"",""5 cents for every $10 I earn in each round"",""All of the above.""]",37443,,,135236,,,survey-multi-choice,,95
,,,"[True, True, True, True, True]",,,,,"[""True or false: The hidden values will change each time I start a new round."",""How much does it cost to observe each hidden value?"",""How many hidden values am I allowed to observe in each round?"",""How is your bonus determined?"",""What does the feedback teach you?""]","[""True"",""$2.50"",""As many or as few as I wish"",""5 cents for every $10 I earn in each round"",""All of the above.""]",13735,,,187345,,,survey-multi-choice,,95
,,,"[True, False, True, True, True]",,,,,"[""True or false: The hidden values will change each time I start a new round."",""How much does it cost to observe each hidden value?"",""How many hidden values am I allowed to observe in each round?"",""How is your bonus determined?"",""What does the feedback teach you?""]","[""True"",""$0.01"",""As many or as few as I wish"",""5 cents for every $10 I earn in each round"",""All of the above.""]",28425,,,137943,,,survey-multi-choice,,96
,,,"[True, True, True, True, False]",,,,,"[""True or false: The hidden values will change each time I start a new round."",""How much does it cost to observe each hidden value?"",""How many hidden values am I allowed to observe in each round?"",""How is your bonus determined?"",""What does the feedback teach you?""]","[""True"",""$1.00"",""As many or as few as I wish"",""5 cents for every $10 I earn in each round"",""Whether I observed the rewards of relevant locations.""]",47267,,,236889,,,survey-multi-choice,,96
,,,"[True, True, True, True, True]",,,,,"[""True or false: The hidden values will change each time I start a new round."",""How much does it cost to observe each hidden value?"",""How many hidden values am I allowed to observe in each round?"",""How is your bonus determined?"",""What does the feedback teach you?""]","[""True"",""$1.00"",""As many or as few as I wish"",""5 cents for every $10 I earn in each round"",""All of the above.""]",9788,,,253347,,,survey-multi-choice,,96
,,,"[True, True, True, True]",,,,,"[""True or false: The hidden values will change each time I start a new round."",""How much does it cost to observe each hidden value?"",""How many hidden values am I allowed to observe in each round?"",""How is your bonus determined?""]","[""True"",""$0.01"",""As many or as few as I wish"",""5 cents for every $10 I earn in each round""]",18646,,,298387,,,survey-multi-choice,,97
,,,"[True, True, True, True]",,,,,"[""True or false: The hidden values will change each time I start a new round."",""How much does it cost to observe each hidden value?"",""How many hidden values am I allowed to observe in each round?"",""How is your bonus determined?""]","[""True"",""$1.00"",""As many or as few as I wish"",""5 cents for every $10 I earn in each round""]",15320,,,37611,,,survey-multi-choice,,98
,,,"[True, True, True, True, False]",,,,,"[""True or false: The hidden values will change each time I start a new round."",""How much does it cost to observe each hidden value?"",""How many hidden values am I allowed to observe in each round?"",""How is your bonus determined?"",""What does the feedback teach you?""]","[""True"",""$2.50"",""As many or as few as I wish"",""5 cents for every $10 I earn in each round"",""The length of the delay is based on how much more money I could have earned.""]",28034,,,208454,,,survey-multi-choice,,99
,,,"[True, True, True, True, True]",,,,,"[""True or false: The hidden values will change each time I start a new round."",""How much does it cost to observe each hidden value?"",""How many hidden values am I allowed to observe in each round?"",""How is your bonus determined?"",""What does the feedback teach you?""]","[""True"",""$2.50"",""As many or as few as I wish"",""5 cents for every $10 I earn in each round"",""All of the above.""]",13694,,,248831,,,survey-multi-choice,,99
,,,"[True, True, True, True, True]",,,,,"[""True or false: The hidden values will change each time I start a new round."",""How much does it cost to observe each hidden value?"",""How many hidden values am I allowed to observe in each round?"",""How is your bonus determined?"",""What does the feedback teach you?""]","[""True"",""$2.50"",""As many or as few as I wish"",""5 cents for every $10 I earn in each round"",""All of the above.""]",20870,,,138347,,,survey-multi-choice,,100
,,,"[False, True, True, True, True]",,,,,"[""True or false: The hidden values will change each time I start a new round."",""How much does it cost to observe each hidden value?"",""How many hidden values am I allowed to observe in each round?"",""How is your bonus determined?"",""What does the feedback teach you?""]","[""False"",""$1.00"",""As many or as few as I wish"",""5 cents for every $10 I earn in each round"",""All of the above.""]",14518,,,105983,,,survey-multi-choice,,101
,,,"[True, True, True, True, True]",,,,,"[""True or false: The hidden values will change each time I start a new round."",""How much does it cost to observe each hidden value?"",""How many hidden values am I allowed to observe in each round?"",""How is your bonus determined?"",""What does the feedback teach you?""]","[""True"",""$1.00"",""As many or as few as I wish"",""5 cents for every $10 I earn in each round"",""All of the above.""]",16212,,,179920,,,survey-multi-choice,,101
,,,"[True, True, True, True]",,,,,"[""True or false: The hidden values will change each time I start a new round."",""How much does it cost to observe each hidden value?"",""How many hidden values am I allowed to observe in each round?"",""How is your bonus determined?""]","[""True"",""$1.00"",""As many or as few as I wish"",""5 cents for every $10 I earn in each round""]",144170,,,237468,,,survey-multi-choice,,102
,,,"[True, True, True, True, True]",,,,,"[""True or false: The hidden values will change each time I start a new round."",""How much does it cost to observe each hidden value?"",""How many hidden values am I allowed to observe in each round?"",""How is your bonus determined?"",""What does the feedback teach you?""]","[""True"",""$1.00"",""As many or as few as I wish"",""5 cents for every $10 I earn in each round"",""All of the above.""]",63462,,,196132,,,survey-multi-choice,,103
,,,"[True, True, True, True, True]",,,,,"[""True or false: The hidden values will change each time I start a new round."",""How much does it cost to observe each hidden value?"",""How many hidden values am I allowed to observe in each round?"",""How is your bonus determined?"",""What does the feedback teach you?""]","[""True"",""$2.50"",""As many or as few as I wish"",""5 cents for every $10 I earn in each round"",""All of the above.""]",38447,,,298677,,,survey-multi-choice,,104
,,,"[True, True, False, True]",,,,,"[""True or false: The hidden values will change each time I start a new round."",""How much does it cost to observe each hidden value?"",""How many hidden values am I allowed to observe in each round?"",""How is your bonus determined?""]","[""True"",""$2.50"",""At most 5"",""5 cents for every $10 I earn in each round""]",45232,,,298873,,,survey-multi-choice,,105
,,,"[True, True, True, True]",,,,,"[""True or false: The hidden values will change each time I start a new round."",""How much does it cost to observe each hidden value?"",""How many hidden values am I allowed to observe in each round?"",""How is your bonus determined?""]","[""True"",""$2.50"",""As many or as few as I wish"",""5 cents for every $10 I earn in each round""]",7189,,,366994,,,survey-multi-choice,,105
,,,"[True, False, False, False, True]",,,,,"[""True or false: The hidden values will change each time I start a new round."",""How much does it cost to observe each hidden value?"",""How many hidden values am I allowed to observe in each round?"",""How is your bonus determined?"",""What does the feedback teach you?""]","[""True"",""$0.05"",""At most 15"",""1% of my best score on any round"",""All of the above.""]",46160,,,127449,,,survey-multi-choice,,106
,,,"[True, True, True, True, True]",,,,,"[""True or false: The hidden values will change each time I start a new round."",""How much does it cost to observe each hidden value?"",""How many hidden values am I allowed to observe in each round?"",""How is your bonus determined?"",""What does the feedback teach you?""]","[""True"",""$0.01"",""As many or as few as I wish"",""5 cents for every $10 I earn in each round"",""All of the above.""]",12046,,,184914,,,survey-multi-choice,,106
,,,"[True, True, True, True, True]",,,,,"[""True or false: The hidden values will change each time I start a new round."",""How much does it cost to observe each hidden value?"",""How many hidden values am I allowed to observe in each round?"",""How is your bonus determined?"",""What does the feedback teach you?""]","[""True"",""$2.50"",""As many or as few as I wish"",""5 cents for every $10 I earn in each round"",""All of the above.""]",165839,,,214457,,,survey-multi-choice,,107
,,,"[True, True, True, True, False]",,,,,"[""True or false: The hidden values will change each time I start a new round."",""How much does it cost to observe each hidden value?"",""How many hidden values am I allowed to observe in each round?"",""How is your bonus determined?"",""What does the feedback teach you?""]","[""True"",""$2.50"",""As many or as few as I wish"",""5 cents for every $10 I earn in each round"",""The length of the delay is based on how much more money I could have earned by planning and deciding better.""]",20803,,,111123,,,survey-multi-choice,,108
,,,"[True, True, True, True, False]",,,,,"[""True or false: The hidden values will change each time I start a new round."",""How much does it cost to observe each hidden value?"",""How many hidden values am I allowed to observe in each round?"",""How is your bonus determined?"",""What does the feedback teach you?""]","[""True"",""$2.50"",""As many or as few as I wish"",""5 cents for every $10 I earn in each round"",""The length of the delay is based on how much more money I could have earned by planning and deciding better.""]",21517,,,145128,,,survey-multi-choice,,108
,,,"[True, True, True, True, True]",,,,,"[""True or false: The hidden values will change each time I start a new round."",""How much does it cost to observe each hidden value?"",""How many hidden values am I allowed to observe in each round?"",""How is your bonus determined?"",""What does the feedback teach you?""]","[""True"",""$2.50"",""As many or as few as I wish"",""5 cents for every $10 I earn in each round"",""All of the above.""]",10319,,,196769,,,survey-multi-choice,,108
,,,"[True, True, True, True, False]",,,,,"[""True or false: The hidden values will change each time I start a new round."",""How much does it cost to observe each hidden value?"",""How many hidden values am I allowed to observe in each round?"",""How is your bonus determined?"",""What does the feedback teach you?""]","[""True"",""$1.00"",""As many or as few as I wish"",""5 cents for every $10 I earn in each round"",""Whether I chose the move that was best.""]",24799,,,149356,,,survey-multi-choice,,109
,,,"[True, True, True, True, True]",,,,,"[""True or false: The hidden values will change each time I start a new round."",""How much does it cost to observe each hidden value?"",""How many hidden values am I allowed to observe in each round?"",""How is your bonus determined?"",""What does the feedback teach you?""]","[""True"",""$1.00"",""As many or as few as I wish"",""5 cents for every $10 I earn in each round"",""All of the above.""]",29084,,,234659,,,survey-multi-choice,,109
,,,"[True, True, True, True, True]",,,,,"[""True or false: The hidden values will change each time I start a new round."",""How much does it cost to observe each hidden value?"",""How many hidden values am I allowed to observe in each round?"",""How is your bonus determined?"",""What does the feedback teach you?""]","[""True"",""$1.00"",""As many or as few as I wish"",""5 cents for every $10 I earn in each round"",""All of the above.""]",44083,,,317714,,,survey-multi-choice,,110
,,,"[True, False, True, False]",,,,,"[""True or false: The hidden values will change each time I start a new round."",""How much does it cost to observe each hidden value?"",""How many hidden values am I allowed to observe in each round?"",""How is your bonus determined?""]","[""True"",""$0.05"",""As many or as few as I wish"",""1% of my best score on any round""]",11680,,,89102,,,survey-multi-choice,,111
,,,"[True, True, False, True]",,,,,"[""True or false: The hidden values will change each time I start a new round."",""How much does it cost to observe each hidden value?"",""How many hidden values am I allowed to observe in each round?"",""How is your bonus determined?""]","[""True"",""$2.50"",""At most 1"",""5 cents for every $10 I earn in each round""]",20320,,,221148,,,survey-multi-choice,,111
,,,"[True, True, True, True]",,,,,"[""True or false: The hidden values will change each time I start a new round."",""How much does it cost to observe each hidden value?"",""How many hidden values am I allowed to observe in each round?"",""How is your bonus determined?""]","[""True"",""$2.50"",""As many or as few as I wish"",""5 cents for every $10 I earn in each round""]",13120,,,309069,,,survey-multi-choice,,111
,,,"[True, True, True, True]",,,,,"[""True or false: The hidden values will change each time I start a new round."",""How much does it cost to observe each hidden value?"",""How many hidden values am I allowed to observe in each round?"",""How is your bonus determined?""]","[""True"",""$2.50"",""As many or as few as I wish"",""5 cents for every $10 I earn in each round""]",25141,,,169992,,,survey-multi-choice,,112
,,,"[True, True, True, True, False]",,,,,"[""True or false: The hidden values will change each time I start a new round."",""How much does it cost to observe each hidden value?"",""How many hidden values am I allowed to observe in each round?"",""How is your bonus determined?"",""What does the feedback teach you?""]","[""True"",""$1.00"",""As many or as few as I wish"",""5 cents for every $10 I earn in each round"",""Whether I chose the move that was best.""]",35763,,,216341,,,survey-multi-choice,,113
,,,"[True, True, True, True, True]",,,,,"[""True or false: The hidden values will change each time I start a new round."",""How much does it cost to observe each hidden value?"",""How many hidden values am I allowed to observe in each round?"",""How is your bonus determined?"",""What does the feedback teach you?""]","[""True"",""$1.00"",""As many or as few as I wish"",""5 cents for every $10 I earn in each round"",""All of the above.""]",13129,,,293944,,,survey-multi-choice,,113
,,,"[True, False, True, True, True]",,,,,"[""True or false: The hidden values will change each time I start a new round."",""How much does it cost to observe each hidden value?"",""How many hidden values am I allowed to observe in each round?"",""How is your bonus determined?"",""What does the feedback teach you?""]","[""True"",""$0.01"",""As many or as few as I wish"",""5 cents for every $10 I earn in each round"",""All of the above.""]",43490,,,299613,,,survey-multi-choice,,114
,,,"[True, True, True, True, False]",,,,,"[""True or false: The hidden values will change each time I start a new round."",""How much does it cost to observe each hidden value?"",""How many hidden values am I allowed to observe in each round?"",""How is your bonus determined?"",""What does the feedback teach you?""]","[""True"",""$1.00"",""As many or as few as I wish"",""5 cents for every $10 I earn in each round"",""Whether I observed the rewards of relevant locations.""]",19979,,,382436,,,survey-multi-choice,,114
,,,"[True, True, True, True, False]",,,,,"[""True or false: The hidden values will change each time I start a new round."",""How much does it cost to observe each hidden value?"",""How many hidden values am I allowed to observe in each round?"",""How is your bonus determined?"",""What does the feedback teach you?""]","[""True"",""$1.00"",""As many or as few as I wish"",""5 cents for every $10 I earn in each round"",""Whether I chose the move that was best according to the information I had.""]",19494,,,444381,,,survey-multi-choice,,114
,,,"[True, True, True, True, False]",,,,,"[""True or false: The hidden values will change each time I start a new round."",""How much does it cost to observe each hidden value?"",""How many hidden values am I allowed to observe in each round?"",""How is your bonus determined?"",""What does the feedback teach you?""]","[""True"",""$1.00"",""As many or as few as I wish"",""5 cents for every $10 I earn in each round"",""Whether I observed the rewards of relevant locations.""]",16471,,,470622,,,survey-multi-choice,,114
,,,"[True, True, True, True, False]",,,,,"[""True or false: The hidden values will change each time I start a new round."",""How much does it cost to observe each hidden value?"",""How many hidden values am I allowed to observe in each round?"",""How is your bonus determined?"",""What does the feedback teach you?""]","[""True"",""$1.00"",""As many or as few as I wish"",""5 cents for every $10 I earn in each round"",""The length of the delay is based on how much more money I could have earned by planning and deciding better.""]",7540,,,504293,,,survey-multi-choice,,114
,,,"[True, True, True, True, False]",,,,,"[""True or false: The hidden values will change each time I start a new round."",""How much does it cost to observe each hidden value?"",""How many hidden values am I allowed to observe in each round?"",""How is your bonus determined?"",""What does the feedback teach you?""]","[""True"",""$1.00"",""As many or as few as I wish"",""5 cents for every $10 I earn in each round"",""The length of the delay is based on how much more money I could have earned by planning and deciding better.""]",17597,,,529788,,,survey-multi-choice,,114
,,,"[True, True, True, True, False]",,,,,"[""True or false: The hidden values will change each time I start a new round."",""How much does it cost to observe each hidden value?"",""How many hidden values am I allowed to observe in each round?"",""How is your bonus determined?"",""What does the feedback teach you?""]","[""True"",""$1.00"",""As many or as few as I wish"",""5 cents for every $10 I earn in each round"",""Whether I observed the rewards of relevant locations.""]",27253,,,563796,,,survey-multi-choice,,114
,,,"[True, True, True, True, False]",,,,,"[""True or false: The hidden values will change each time I start a new round."",""How much does it cost to observe each hidden value?"",""How many hidden values am I allowed to observe in each round?"",""How is your bonus determined?"",""What does the feedback teach you?""]","[""True"",""$1.00"",""As many or as few as I wish"",""5 cents for every $10 I earn in each round"",""Whether I observed the rewards of relevant locations.""]",10037,,,603469,,,survey-multi-choice,,114
,,,"[True, True, True, True, True]",,,,,"[""True or false: The hidden values will change each time I start a new round."",""How much does it cost to observe each hidden value?"",""How many hidden values am I allowed to observe in each round?"",""How is your bonus determined?"",""What does the feedback teach you?""]","[""True"",""$1.00"",""As many or as few as I wish"",""5 cents for every $10 I earn in each round"",""All of the above.""]",15502,,,642430,,,survey-multi-choice,,114
,,,"[True, True, True, True]",,,,,"[""True or false: The hidden values will change each time I start a new round."",""How much does it cost to observe each hidden value?"",""How many hidden values am I allowed to observe in each round?"",""How is your bonus determined?""]","[""True"",""$2.50"",""As many or as few as I wish"",""5 cents for every $10 I earn in each round""]",11992,,,187199,,,survey-multi-choice,,115
,,,"[False, False, True, True]",,,,,"[""True or false: The hidden values will change each time I start a new round."",""How much does it cost to observe each hidden value?"",""How many hidden values am I allowed to observe in each round?"",""How is your bonus determined?""]","[""False"",""$0.01"",""As many or as few as I wish"",""5 cents for every $10 I earn in each round""]",159053,,,189822,,,survey-multi-choice,,116
,,,"[True, True, True, True]",,,,,"[""True or false: The hidden values will change each time I start a new round."",""How much does it cost to observe each hidden value?"",""How many hidden values am I allowed to observe in each round?"",""How is your bonus determined?""]","[""True"",""$2.50"",""As many or as few as I wish"",""5 cents for every $10 I earn in each round""]",7937,,,216999,,,survey-multi-choice,,116
,,,"[True, True, True, True]",,,,,"[""True or false: The hidden values will change each time I start a new round."",""How much does it cost to observe each hidden value?"",""How many hidden values am I allowed to observe in each round?"",""How is your bonus determined?""]","[""True"",""$0.01"",""As many or as few as I wish"",""5 cents for every $10 I earn in each round""]",17503,,,132000,,,survey-multi-choice,,117
,,,"[True, True, True, True, False]",,,,,"[""True or false: The hidden values will change each time I start a new round."",""How much does it cost to observe each hidden value?"",""How many hidden values am I allowed to observe in each round?"",""How is your bonus determined?"",""What does the feedback teach you?""]","[""True"",""$0.01"",""As many or as few as I wish"",""5 cents for every $10 I earn in each round"",""Whether I chose the move that was best.""]",25778,,,107152,,,survey-multi-choice,,118
,,,"[True, True, False, True, False]",,,,,"[""True or false: The hidden values will change each time I start a new round."",""How much does it cost to observe each hidden value?"",""How many hidden values am I allowed to observe in each round?"",""How is your bonus determined?"",""What does the feedback teach you?""]","[""True"",""$0.01"",""At most 5"",""5 cents for every $10 I earn in each round"",""Whether I chose the move that was best.""]",33141,,,174468,,,survey-multi-choice,,118
,,,"[True, True, True, True, True]",,,,,"[""True or false: The hidden values will change each time I start a new round."",""How much does it cost to observe each hidden value?"",""How many hidden values am I allowed to observe in each round?"",""How is your bonus determined?"",""What does the feedback teach you?""]","[""True"",""$0.01"",""As many or as few as I wish"",""5 cents for every $10 I earn in each round"",""All of the above.""]",12611,,,246215,,,survey-multi-choice,,118
,,,"[True, False, True, True]",,,,,"[""True or false: The hidden values will change each time I start a new round."",""How much does it cost to observe each hidden value?"",""How many hidden values am I allowed to observe in each round?"",""How is your bonus determined?""]","[""True"",""$0.05"",""As many or as few as I wish"",""5 cents for every $10 I earn in each round""]",11884,,,45984,,,survey-multi-choice,,119
,,,"[True, True, True, True]",,,,,"[""True or false: The hidden values will change each time I start a new round."",""How much does it cost to observe each hidden value?"",""How many hidden values am I allowed to observe in each round?"",""How is your bonus determined?""]","[""True"",""$2.50"",""As many or as few as I wish"",""5 cents for every $10 I earn in each round""]",11006,,,91644,,,survey-multi-choice,,119
,,,"[True, True, True, True]",,,,,"[""True or false: The hidden values will change each time I start a new round."",""How much does it cost to observe each hidden value?"",""How many hidden values am I allowed to observe in each round?"",""How is your bonus determined?""]","[""True"",""$2.50"",""As many or as few as I wish"",""5 cents for every $10 I earn in each round""]",24178,,,97080,,,survey-multi-choice,,120
,,,"[True, True, True, True, True]",,,,,"[""True or false: The hidden values will change each time I start a new round."",""How much does it cost to observe each hidden value?"",""How many hidden values am I allowed to observe in each round?"",""How is your bonus determined?"",""What does the feedback teach you?""]","[""True"",""$0.01"",""As many or as few as I wish"",""5 cents for every $10 I earn in each round"",""All of the above.""]",31757,,,119636,,,survey-multi-choice,,121
,,,"[True, False, False, True]",,,,,"[""True or false: The hidden values will change each time I start a new round."",""How much does it cost to observe each hidden value?"",""How many hidden values am I allowed to observe in each round?"",""How is your bonus determined?""]","[""True"",""$0.05"",""At most 1"",""5 cents for every $10 I earn in each round""]",15021,,,50199,,,survey-multi-choice,,122
,,,"[True, True, False, True]",,,,,"[""True or false: The hidden values will change each time I start a new round."",""How much does it cost to observe each hidden value?"",""How many hidden values am I allowed to observe in each round?"",""How is your bonus determined?""]","[""True"",""$2.50"",""At most 1"",""5 cents for every $10 I earn in each round""]",15241,,,99414,,,survey-multi-choice,,122
,,,"[True, True, True, True]",,,,,"[""True or false: The hidden values will change each time I start a new round."",""How much does it cost to observe each hidden value?"",""How many hidden values am I allowed to observe in each round?"",""How is your bonus determined?""]","[""True"",""$2.50"",""As many or as few as I wish"",""5 cents for every $10 I earn in each round""]",11893,,,181463,,,survey-multi-choice,,122
,,,"[True, True, True, True, False]",,,,,"[""True or false: The hidden values will change each time I start a new round."",""How much does it cost to observe each hidden value?"",""How many hidden values am I allowed to observe in each round?"",""How is your bonus determined?"",""What does the feedback teach you?""]","[""True"",""$0.01"",""As many or as few as I wish"",""5 cents for every $10 I earn in each round"",""Whether I chose the move that was best.""]",24018,,,89844,,,survey-multi-choice,,123
,,,"[False, True, True, True, True]",,,,,"[""True or false: The hidden values will change each time I start a new round."",""How much does it cost to observe each hidden value?"",""How many hidden values am I allowed to observe in each round?"",""How is your bonus determined?"",""What does the feedback teach you?""]","[""False"",""$0.01"",""As many or as few as I wish"",""5 cents for every $10 I earn in each round"",""All of the above.""]",17505,,,157432,,,survey-multi-choice,,123
,,,"[True, True, True, True, True]",,,,,"[""True or false: The hidden values will change each time I start a new round."",""How much does it cost to observe each hidden value?"",""How many hidden values am I allowed to observe in each round?"",""How is your bonus determined?"",""What does the feedback teach you?""]","[""True"",""$0.01"",""As many or as few as I wish"",""5 cents for every $10 I earn in each round"",""All of the above.""]",7040,,,178702,,,survey-multi-choice,,123
,,,"[True, False, True, False, True]",,,,,"[""True or false: The hidden values will change each time I start a new round."",""How much does it cost to observe each hidden value?"",""How many hidden values am I allowed to observe in each round?"",""How is your bonus determined?"",""What does the feedback teach you?""]","[""True"",""$0.05"",""As many or as few as I wish"",""10% of my best score on any round"",""All of the above.""]",30282,,,82019,,,survey-multi-choice,,124
,,,"[True, True, True, True, True]",,,,,"[""True or false: The hidden values will change each time I start a new round."",""How much does it cost to observe each hidden value?"",""How many hidden values am I allowed to observe in each round?"",""How is your bonus determined?"",""What does the feedback teach you?""]","[""True"",""$2.50"",""As many or as few as I wish"",""5 cents for every $10 I earn in each round"",""All of the above.""]",15056,,,145481,,,survey-multi-choice,,124
,,,"[True, True, False, True, True]",,,,,"[""True or false: The hidden values will change each time I start a new round."",""How much does it cost to observe each hidden value?"",""How many hidden values am I allowed to observe in each round?"",""How is your bonus determined?"",""What does the feedback teach you?""]","[""True"",""$2.50"",""At most 10"",""5 cents for every $10 I earn in each round"",""All of the above.""]",21190,,,63702,,,survey-multi-choice,,125
,,,"[True, True, True, True, True]",,,,,"[""True or false: The hidden values will change each time I start a new round."",""How much does it cost to observe each hidden value?"",""How many hidden values am I allowed to observe in each round?"",""How is your bonus determined?"",""What does the feedback teach you?""]","[""True"",""$2.50"",""As many or as few as I wish"",""5 cents for every $10 I earn in each round"",""All of the above.""]",10445,,,99510,,,survey-multi-choice,,125
,,,"[True, True, True, True, False]",,,,,"[""True or false: The hidden values will change each time I start a new round."",""How much does it cost to observe each hidden value?"",""How many hidden values am I allowed to observe in each round?"",""How is your bonus determined?"",""What does the feedback teach you?""]","[""True"",""$0.01"",""As many or as few as I wish"",""5 cents for every $10 I earn in each round"",""Whether I chose the move that was best.""]",25883,,,179617,,,survey-multi-choice,,126
,,,"[True, True, True, True, True]",,,,,"[""True or false: The hidden values will change each time I start a new round."",""How much does it cost to observe each hidden value?"",""How many hidden values am I allowed to observe in each round?"",""How is your bonus determined?"",""What does the feedback teach you?""]","[""True"",""$0.01"",""As many or as few as I wish"",""5 cents for every $10 I earn in each round"",""All of the above.""]",11701,,,273675,,,survey-multi-choice,,126
,,,"[True, True, True, False, True]",,,,,"[""True or false: The hidden values will change each time I start a new round."",""How much does it cost to observe each hidden value?"",""How many hidden values am I allowed to observe in each round?"",""How is your bonus determined?"",""What does the feedback teach you?""]","[""True"",""$0.01"",""As many or as few as I wish"",""1% of my best score on any round"",""All of the above.""]",44321,,,184215,,,survey-multi-choice,,127
,,,"[True, True, True, True, False]",,,,,"[""True or false: The hidden values will change each time I start a new round."",""How much does it cost to observe each hidden value?"",""How many hidden values am I allowed to observe in each round?"",""How is your bonus determined?"",""What does the feedback teach you?""]","[""True"",""$0.01"",""As many or as few as I wish"",""5 cents for every $10 I earn in each round"",""Whether I chose the move that was best according to the information I had.""]",49343,,,373822,,,survey-multi-choice,,127
,,,"[True, True, True, False, False]",,,,,"[""True or false: The hidden values will change each time I start a new round."",""How much does it cost to observe each hidden value?"",""How many hidden values am I allowed to observe in each round?"",""How is your bonus determined?"",""What does the feedback teach you?""]","[""True"",""$0.01"",""As many or as few as I wish"",""10% of my best score on any round"",""Whether I chose the move that was best according to the information I had.""]",46354,,,526127,,,survey-multi-choice,,127
,,,"[True, True, True, True, False]",,,,,"[""True or false: The hidden values will change each time I start a new round."",""How much does it cost to observe each hidden value?"",""How many hidden values am I allowed to observe in each round?"",""How is your bonus determined?"",""What does the feedback teach you?""]","[""True"",""$0.01"",""As many or as few as I wish"",""5 cents for every $10 I earn in each round"",""Whether I chose the move that was best according to the information I had.""]",33483,,,722549,,,survey-multi-choice,,127
,,,"[True, True, True, True, True]",,,,,"[""True or false: The hidden values will change each time I start a new round."",""How much does it cost to observe each hidden value?"",""How many hidden values am I allowed to observe in each round?"",""How is your bonus determined?"",""What does the feedback teach you?""]","[""True"",""$0.01"",""As many or as few as I wish"",""5 cents for every $10 I earn in each round"",""All of the above.""]",34605,,,833649,,,survey-multi-choice,,127
