action_times,actions,block,button_pressed,key_press,path,queries,responses,rewards,rt,score,simulation_mode,stimulus,time_elapsed,trial_index,trial_id,trial_type,pid
"[19758, 21059, 21939]","[u'up', u'right', u'right']",train_basic,,,"[u'0', u'1', u'2', u'3']","{u'mouseover': {u'state': {u'target': [], u'time': []}, u'edge': {u'target': [], u'time': []}}, u'click': {u'state': {u'target': [], u'time': []}, u'edge': {u'target': [], u'time': []}}, u'mouseout': {u'state': {u'target': [], u'time': []}, u'edge': {u'target': [], u'time': []}}}",,"[2, 2, 2]","[19747, 799, 347]",6.0,"[None, None, None]",,23962,0.0,33291001.0,mouselab-mdp,0
"[3584, 5224, 6110]","[u'up', u'left', u'left']",train_basic,,,"[u'0', u'1', u'4', u'5']","{u'mouseover': {u'state': {u'target': [], u'time': []}, u'edge': {u'target': [], u'time': []}}, u'click': {u'state': {u'target': [], u'time': []}, u'edge': {u'target': [], u'time': []}}, u'mouseout': {u'state': {u'target': [], u'time': []}, u'edge': {u'target': [], u'time': []}}}",,"[7, 7, -2]","[3577, 1110, 365]",12.0,"[None, None, None]",,32646,1.0,77739385.0,mouselab-mdp,0
"[3292, 4486, 7174]","[u'up', u'right', u'right']",train_basic,,,"[u'0', u'1', u'2', u'3']","{u'mouseover': {u'state': {u'target': [], u'time': []}, u'edge': {u'target': [], u'time': []}}, u'click': {u'state': {u'target': [], u'time': []}, u'edge': {u'target': [], u'time': []}}, u'mouseout': {u'state': {u'target': [], u'time': []}, u'edge': {u'target': [], u'time': []}}}",,"[-12, 7, 7]","[3286, 664, 1511]",2.0,"[None, None, None]",,43058,2.0,60035304.0,mouselab-mdp,0
"[7951, 9616, 10549]","[u'up', u'right', u'right']",train_basic,,,"[u'0', u'1', u'2', u'3']","{u'mouseover': {u'state': {u'target': [], u'time': []}, u'edge': {u'target': [], u'time': []}}, u'click': {u'state': {u'target': [], u'time': []}, u'edge': {u'target': [], u'time': []}}, u'mouseout': {u'state': {u'target': [], u'time': []}, u'edge': {u'target': [], u'time': []}}}",,"[-7, 2, 2]","[7943, 1159, 409]",-3.0,"[None, None, None]",,59024,3.0,61580530.0,mouselab-mdp,0
"[6862, 8058, 9050]","[u'up', u'left', u'left']",train_basic,,,"[u'0', u'1', u'4', u'5']","{u'mouseover': {u'state': {u'target': [], u'time': []}, u'edge': {u'target': [], u'time': []}}, u'click': {u'state': {u'target': [], u'time': []}, u'edge': {u'target': [], u'time': []}}, u'mouseout': {u'state': {u'target': [], u'time': []}, u'edge': {u'target': [], u'time': []}}}",,"[-2, 7, 7]","[6855, 680, 475]",12.0,"[None, None, None]",,71305,4.0,66498465.0,mouselab-mdp,0
"[14062, 15883, 18384]","[u'up', u'right', u'right']",train_basic,,,"[u'0', u'1', u'2', u'3']","{u'mouseover': {u'state': {u'target': [], u'time': []}, u'edge': {u'target': [], u'time': []}}, u'click': {u'state': {u'target': [], u'time': []}, u'edge': {u'target': [], u'time': []}}, u'mouseout': {u'state': {u'target': [], u'time': []}, u'edge': {u'target': [], u'time': []}}}",,"[-7, 2, -7]","[14055, 1320, 1376]",-12.0,"[None, None, None]",,93029,5.0,54324908.0,mouselab-mdp,0
"[3397, 5508, 6839]","[u'down', u'right', u'right']",train_basic,,,"[u'0', u'6', u'7', u'8']","{u'mouseover': {u'state': {u'target': [], u'time': []}, u'edge': {u'target': [], u'time': []}}, u'click': {u'state': {u'target': [], u'time': []}, u'edge': {u'target': [], u'time': []}}, u'mouseout': {u'state': {u'target': [], u'time': []}, u'edge': {u'target': [], u'time': []}}}",,"[-2, None, None]","[3392, 1594, 810]",,"[None, None, None]",,103100,6.0,65431907.0,mouselab-mdp,0
"[5246, 9091, 9891]","[u'down', u'left', u'left']",train_basic,,,"[u'0', u'6', u'9', u'10']","{u'mouseover': {u'state': {u'target': [], u'time': []}, u'edge': {u'target': [], u'time': []}}, u'click': {u'state': {u'target': [], u'time': []}, u'edge': {u'target': [], u'time': []}}, u'mouseout': {u'state': {u'target': [], u'time': []}, u'edge': {u'target': [], u'time': []}}}",,"[-2, None, None]","[5213, 3314, 274]",,"[None, None, None]",,116005,7.0,95503653.0,mouselab-mdp,0
"[3706, 5319, 6158]","[u'down', u'right', u'right']",train_basic,,,"[u'0', u'6', u'7', u'8']","{u'mouseover': {u'state': {u'target': [], u'time': []}, u'edge': {u'target': [], u'time': []}}, u'click': {u'state': {u'target': [], u'time': []}, u'edge': {u'target': [], u'time': []}}, u'mouseout': {u'state': {u'target': [], u'time': []}, u'edge': {u'target': [], u'time': []}}}",,"[2, None, None]","[3695, 1095, 318]",,"[None, None, None]",,125341,8.0,41054870.0,mouselab-mdp,0
"[2492, 4380, 5531]","[u'up', u'left', u'left']",train_basic,,,"[u'0', u'1', u'4', u'5']","{u'mouseover': {u'state': {u'target': [], u'time': []}, u'edge': {u'target': [], u'time': []}}, u'click': {u'state': {u'target': [], u'time': []}, u'edge': {u'target': [], u'time': []}}, u'mouseout': {u'state': {u'target': [], u'time': []}, u'edge': {u'target': [], u'time': []}}}",,"[-2, 12, -7]","[2488, 1361, 631]",3.0,"[None, None, None]",,133899,9.0,66744768.0,mouselab-mdp,0
"[12705, 14742, 16235]","[u'up', u'right', u'right']",train_hidden,,,"[u'0', u'1', u'2', u'3']","{u'mouseover': {u'state': {u'target': [], u'time': []}, u'edge': {u'target': [], u'time': []}}, u'click': {u'state': {u'target': [], u'time': []}, u'edge': {u'target': [], u'time': []}}, u'mouseout': {u'state': {u'target': [], u'time': []}, u'edge': {u'target': [], u'time': []}}}",,"[-2, 7, -7]","[12700, 1522, 966]",-2.0,"[None, None, None]",,156414,10.0,59860607.0,mouselab-mdp,0
"[1622, 3587, 4967]","[u'up', u'left', u'left']",train_hidden,,,"[u'0', u'1', u'4', u'5']","{u'mouseover': {u'state': {u'target': [], u'time': []}, u'edge': {u'target': [], u'time': []}}, u'click': {u'state': {u'target': [], u'time': []}, u'edge': {u'target': [], u'time': []}}, u'mouseout': {u'state': {u'target': [], u'time': []}, u'edge': {u'target': [], u'time': []}}}",,"[-2, -7, -7]","[1616, 1433, 853]",-16.0,"[None, None, None]",,164775,11.0,63415027.0,mouselab-mdp,0
"[1811, 3473, 4596]","[u'down', u'right', u'right']",train_hidden,,,"[u'0', u'6', u'7', u'8']","{u'mouseover': {u'state': {u'target': [], u'time': []}, u'edge': {u'target': [], u'time': []}}, u'click': {u'state': {u'target': [], u'time': []}, u'edge': {u'target': [], u'time': []}}, u'mouseout': {u'state': {u'target': [], u'time': []}, u'edge': {u'target': [], u'time': []}}}",,"[-2, None, None]","[1804, 1134, 611]",,"[None, None, None]",,172355,12.0,13727825.0,mouselab-mdp,0
"[1484, 3340, 4669]","[u'up', u'right', u'right']",train_hidden,,,"[u'0', u'1', u'2', u'3']","{u'mouseover': {u'state': {u'target': [], u'time': []}, u'edge': {u'target': [], u'time': []}}, u'click': {u'state': {u'target': [], u'time': []}, u'edge': {u'target': [], u'time': []}}, u'mouseout': {u'state': {u'target': [], u'time': []}, u'edge': {u'target': [], u'time': []}}}",,"[-2, 2, 2]","[1480, 1338, 804]",2.0,"[None, None, None]",,180239,13.0,5571118.0,mouselab-mdp,0
"[1424, 2986, 3900]","[u'down', u'right', u'right']",train_hidden,,,"[u'0', u'6', u'7', u'8']","{u'mouseover': {u'state': {u'target': [], u'time': []}, u'edge': {u'target': [], u'time': []}}, u'click': {u'state': {u'target': [], u'time': []}, u'edge': {u'target': [], u'time': []}}, u'mouseout': {u'state': {u'target': [], u'time': []}, u'edge': {u'target': [], u'time': []}}}",,"[2, None, None]","[1419, 1030, 396]",,"[None, None, None]",,187350,14.0,18766202.0,mouselab-mdp,0
"[14189, 15784, 16809]","[u'up', u'left', u'left']",train_inspector,,,"[u'0', u'1', u'4', u'5']","{u'mouseover': {u'state': {u'target': [], u'time': []}, u'edge': {u'target': [], u'time': []}}, u'click': {u'state': {u'target': [u'4', u'2', u'6'], u'time': [5598, 8390, 12154]}, u'edge': {u'target': [], u'time': []}}, u'mouseout': {u'state': {u'target': [], u'time': []}, u'edge': {u'target': [], u'time': []}}}",,"[-12, 7, 2]","[14182, 1075, 504]",-3.0,"[None, None, None]",,209853,15.0,16915536.0,mouselab-mdp,0
"[13895, 15541, 16490]","[u'up', u'left', u'left']",train_inspector,,,"[u'0', u'1', u'4', u'5']","{u'mouseover': {u'state': {u'target': [], u'time': []}, u'edge': {u'target': [], u'time': []}}, u'click': {u'state': {u'target': [u'4', u'2', u'7', u'6'], u'time': [6512, 7983, 9424, 12202]}, u'edge': {u'target': [], u'time': []}}, u'mouseout': {u'state': {u'target': [], u'time': []}, u'edge': {u'target': [], u'time': []}}}",,"[2, 7, 2]","[13890, 1134, 436]",11.0,"[None, None, None]",,229292,16.0,33214205.0,mouselab-mdp,0
"[7986, 9259, 10244]","[u'up', u'right', u'right']",train_inspector,,,"[u'0', u'1', u'2', u'3']","{u'mouseover': {u'state': {u'target': [], u'time': []}, u'edge': {u'target': [], u'time': []}}, u'click': {u'state': {u'target': [u'4', u'2', u'1'], u'time': [3215, 5341, 6681]}, u'edge': {u'target': [], u'time': []}}, u'mouseout': {u'state': {u'target': [], u'time': []}, u'edge': {u'target': [], u'time': []}}}",,"[2, 2, -7]","[7980, 749, 469]",-3.0,"[None, None, None]",,243054,17.0,64788184.0,mouselab-mdp,0
"[13673, 15301, 16183]","[u'up', u'left', u'left']",train_inspector,,,"[u'0', u'1', u'4', u'5']","{u'mouseover': {u'state': {u'target': [], u'time': []}, u'edge': {u'target': [], u'time': []}}, u'click': {u'state': {u'target': [u'4', u'2', u'1'], u'time': [3462, 5693, 7177]}, u'edge': {u'target': [], u'time': []}}, u'mouseout': {u'state': {u'target': [], u'time': []}, u'edge': {u'target': [], u'time': []}}}",,"[-2, 2, -2]","[13666, 1100, 352]",-2.0,"[None, None, None]",,262300,18.0,35599115.0,mouselab-mdp,0
"[13830, 14907, 15949]","[u'up', u'left', u'left']",train_inspector,,,"[u'0', u'1', u'4', u'5']","{u'mouseover': {u'state': {u'target': [], u'time': []}, u'edge': {u'target': [], u'time': []}}, u'click': {u'state': {u'target': [u'1', u'6', u'2'], u'time': [3806, 6022, 11282]}, u'edge': {u'target': [], u'time': []}}, u'mouseout': {u'state': {u'target': [], u'time': []}, u'edge': {u'target': [], u'time': []}}}",,"[-2, -12, -2]","[13824, 557, 518]",-16.0,"[None, None, None]",,281217,19.0,85007048.0,mouselab-mdp,0
"[15545, 17281, 18141]","[u'up', u'right', u'right']",train_inspect_cost,,,"[u'0', u'1', u'2', u'3']","{u'mouseover': {u'state': {u'target': [], u'time': []}, u'edge': {u'target': [], u'time': []}}, u'click': {u'state': {u'target': [u'4', u'2'], u'time': [11686, 13315]}, u'edge': {u'target': [], u'time': []}}, u'mouseout': {u'state': {u'target': [], u'time': []}, u'edge': {u'target': [], u'time': []}}}",,"[2, -2, 2]","[15541, 1216, 327]",0.0,"[None, None, None]",,305086,20.0,45415485.0,mouselab-mdp,0
"[10608, 12026, 13116]","[u'up', u'right', u'right']",train_inspect_cost,,,"[u'0', u'1', u'2', u'3']","{u'mouseover': {u'state': {u'target': [], u'time': []}, u'edge': {u'target': [], u'time': []}}, u'click': {u'state': {u'target': [u'1'], u'time': [8024]}, u'edge': {u'target': [], u'time': []}}, u'mouseout': {u'state': {u'target': [], u'time': []}, u'edge': {u'target': [], u'time': []}}}",,"[-2, -2, 2]","[10601, 907, 563]",-3.0,"[None, None, None]",,321707,21.0,77181628.0,mouselab-mdp,0
"[12100, 13399, 14368]","[u'up', u'right', u'right']",train_inspect_cost,,,"[u'0', u'1', u'2', u'3']","{u'mouseover': {u'state': {u'target': [], u'time': []}, u'edge': {u'target': [], u'time': []}}, u'click': {u'state': {u'target': [u'1', u'6'], u'time': [6490, 10391]}, u'edge': {u'target': [], u'time': []}}, u'mouseout': {u'state': {u'target': [], u'time': []}, u'edge': {u'target': [], u'time': []}}}",,"[2, 2, 2]","[12089, 778, 449]",4.0,"[None, None, None]",,340371,22.0,4121793.0,mouselab-mdp,0
"[6031, 8376, 9514]","[u'up', u'right', u'right']",train_inspect_cost,,,"[u'0', u'1', u'2', u'3']","{u'mouseover': {u'state': {u'target': [], u'time': []}, u'edge': {u'target': [], u'time': []}}, u'click': {u'state': {u'target': [u'1'], u'time': [3265]}, u'edge': {u'target': [], u'time': []}}, u'mouseout': {u'state': {u'target': [], u'time': []}, u'edge': {u'target': [], u'time': []}}}",,"[7, 7, 7]","[6025, 1825, 617]",20.0,"[None, None, None]",,353316,23.0,49810276.0,mouselab-mdp,0
"[8205, 9456, 10574]","[u'up', u'right', u'right']",train_inspect_cost,,,"[u'0', u'1', u'2', u'3']","{u'mouseover': {u'state': {u'target': [], u'time': []}, u'edge': {u'target': [], u'time': []}}, u'click': {u'state': {u'target': [u'1'], u'time': [5563]}, u'edge': {u'target': [], u'time': []}}, u'mouseout': {u'state': {u'target': [], u'time': []}, u'edge': {u'target': [], u'time': []}}}",,"[2, -7, 2]","[8199, 737, 590]",-4.0,"[None, None, None]",,367359,24.0,56363315.0,mouselab-mdp,0
"[20779, 22543, 23590]","[u'up', u'right', u'right']",train_final,,,"[u'0', u'1', u'2', u'3']","{u'mouseover': {u'state': {u'target': [], u'time': []}, u'edge': {u'target': [], u'time': []}}, u'click': {u'state': {u'target': [], u'time': []}, u'edge': {u'target': [], u'time': []}}, u'mouseout': {u'state': {u'target': [], u'time': []}, u'edge': {u'target': [], u'time': []}}}",,"[7, -7, -2]","[20774, 1250, 531]",-2.0,"[None, None, None]",,396524,25.0,18660144.0,mouselab-mdp,0
"[1906, 3267, 4502]","[u'up', u'left', u'left']",train_final,,,"[u'0', u'1', u'4', u'5']","{u'mouseover': {u'state': {u'target': [], u'time': []}, u'edge': {u'target': [], u'time': []}}, u'click': {u'state': {u'target': [], u'time': []}, u'edge': {u'target': [], u'time': []}}, u'mouseout': {u'state': {u'target': [], u'time': []}, u'edge': {u'target': [], u'time': []}}}",,"[2, 2, 2]","[1902, 848, 709]",6.0,"[None, None, None]",,404912,26.0,4064887.0,mouselab-mdp,0
"[1449, 3356, 4447]","[u'up', u'right', u'right']",train_final,,,"[u'0', u'1', u'2', u'3']","{u'mouseover': {u'state': {u'target': [], u'time': []}, u'edge': {u'target': [], u'time': []}}, u'click': {u'state': {u'target': [], u'time': []}, u'edge': {u'target': [], u'time': []}}, u'mouseout': {u'state': {u'target': [], u'time': []}, u'edge': {u'target': [], u'time': []}}}",,"[2, 2, 2]","[1442, 1392, 552]",6.0,"[None, None, None]",,412959,27.0,11505595.0,mouselab-mdp,0
"[4091, 6157, 7170]","[u'up', u'left', u'left']",train_final,,,"[u'0', u'1', u'4', u'5']","{u'mouseover': {u'state': {u'target': [], u'time': []}, u'edge': {u'target': [], u'time': []}}, u'click': {u'state': {u'target': [], u'time': []}, u'edge': {u'target': [], u'time': []}}, u'mouseout': {u'state': {u'target': [], u'time': []}, u'edge': {u'target': [], u'time': []}}}",,"[-2, 2, 2]","[4087, 1550, 496]",2.0,"[None, None, None]",,423904,28.0,25539865.0,mouselab-mdp,0
"[5339, 6923, 8029]","[u'up', u'right', u'right']",train_final,,,"[u'0', u'1', u'2', u'3']","{u'mouseover': {u'state': {u'target': [], u'time': []}, u'edge': {u'target': [], u'time': []}}, u'click': {u'state': {u'target': [], u'time': []}, u'edge': {u'target': [], u'time': []}}, u'mouseout': {u'state': {u'target': [], u'time': []}, u'edge': {u'target': [], u'time': []}}}",,"[2, -2, -2]","[5329, 1069, 579]",-2.0,"[None, None, None]",,435007,29.0,18971787.0,mouselab-mdp,0
"[8387, 10169, 11628]","[u'down', u'right', u'right']",test,,,"[u'0', u'6', u'7', u'8']","{u'mouseover': {u'state': {u'target': [], u'time': []}, u'edge': {u'target': [], u'time': []}}, u'click': {u'state': {u'target': [u'1', u'6'], u'time': [4323, 6321]}, u'edge': {u'target': [], u'time': []}}, u'mouseout': {u'state': {u'target': [], u'time': []}, u'edge': {u'target': [], u'time': []}}}",,"[12, None, None]","[8382, 1258, 937]",,"[None, None, None]",,457369,30.0,65970450.0,mouselab-mdp,0
"[6699, 8531, 9559]","[u'up', u'right', u'right']",test,,,"[u'0', u'1', u'2', u'3']","{u'mouseover': {u'state': {u'target': [], u'time': []}, u'edge': {u'target': [], u'time': []}}, u'click': {u'state': {u'target': [], u'time': []}, u'edge': {u'target': [], u'time': []}}, u'mouseout': {u'state': {u'target': [], u'time': []}, u'edge': {u'target': [], u'time': []}}}",,"[-7, -2, -7]","[6693, 1308, 505]",-16.0,"[None, None, None]",,469604,31.0,40780064.0,mouselab-mdp,0
"[3577, 5236, 6253]","[u'up', u'left', u'left']",test,,,"[u'0', u'1', u'4', u'5']","{u'mouseover': {u'state': {u'target': [], u'time': []}, u'edge': {u'target': [], u'time': []}}, u'click': {u'state': {u'target': [], u'time': []}, u'edge': {u'target': [], u'time': []}}, u'mouseout': {u'state': {u'target': [], u'time': []}, u'edge': {u'target': [], u'time': []}}}",,"[7, -2, -2]","[3572, 1145, 501]",3.0,"[None, None, None]",,479096,32.0,34130348.0,mouselab-mdp,0
"[1375, 3138, 4647]","[u'up', u'right', u'right']",test,,,"[u'0', u'1', u'2', u'3']","{u'mouseover': {u'state': {u'target': [], u'time': []}, u'edge': {u'target': [], u'time': []}}, u'click': {u'state': {u'target': [], u'time': []}, u'edge': {u'target': [], u'time': []}}, u'mouseout': {u'state': {u'target': [], u'time': []}, u'edge': {u'target': [], u'time': []}}}",,"[-2, -12, -12]","[1364, 1246, 991]",-26.0,"[None, None, None]",,486353,33.0,71169772.0,mouselab-mdp,0
"[1350, 2916, 3972]","[u'up', u'left', u'left']",test,,,"[u'0', u'1', u'4', u'5']","{u'mouseover': {u'state': {u'target': [], u'time': []}, u'edge': {u'target': [], u'time': []}}, u'click': {u'state': {u'target': [], u'time': []}, u'edge': {u'target': [], u'time': []}}, u'mouseout': {u'state': {u'target': [], u'time': []}, u'edge': {u'target': [], u'time': []}}}",,"[-2, 7, 7]","[1344, 1038, 527]",12.0,"[None, None, None]",,494127,34.0,55396361.0,mouselab-mdp,0
"[1319, 3312, 4452]","[u'up', u'right', u'right']",test,,,"[u'0', u'1', u'2', u'3']","{u'mouseover': {u'state': {u'target': [], u'time': []}, u'edge': {u'target': [], u'time': []}}, u'click': {u'state': {u'target': [], u'time': []}, u'edge': {u'target': [], u'time': []}}, u'mouseout': {u'state': {u'target': [], u'time': []}, u'edge': {u'target': [], u'time': []}}}",,"[7, 2, 2]","[1314, 1464, 598]",11.0,"[None, None, None]",,501804,35.0,7346379.0,mouselab-mdp,0
"[1331, 3386, 4509]","[u'up', u'left', u'left']",test,,,"[u'0', u'1', u'4', u'5']","{u'mouseover': {u'state': {u'target': [], u'time': []}, u'edge': {u'target': [], u'time': []}}, u'click': {u'state': {u'target': [], u'time': []}, u'edge': {u'target': [], u'time': []}}, u'mouseout': {u'state': {u'target': [], u'time': []}, u'edge': {u'target': [], u'time': []}}}",,"[2, -7, 2]","[1326, 1544, 603]",-3.0,"[None, None, None]",,509422,36.0,41451651.0,mouselab-mdp,0
"[1169, 2259, 3273]","[u'up', u'right', u'right']",test,,,"[u'0', u'1', u'2', u'3']","{u'mouseover': {u'state': {u'target': [], u'time': []}, u'edge': {u'target': [], u'time': []}}, u'click': {u'state': {u'target': [], u'time': []}, u'edge': {u'target': [], u'time': []}}, u'mouseout': {u'state': {u'target': [], u'time': []}, u'edge': {u'target': [], u'time': []}}}",,"[2, -2, 2]","[1162, 565, 497]",2.0,"[None, None, None]",,515837,37.0,61285433.0,mouselab-mdp,0
"[1444, 2796, 3927]","[u'up', u'left', u'left']",test,,,"[u'0', u'1', u'4', u'5']","{u'mouseover': {u'state': {u'target': [], u'time': []}, u'edge': {u'target': [], u'time': []}}, u'click': {u'state': {u'target': [], u'time': []}, u'edge': {u'target': [], u'time': []}}, u'mouseout': {u'state': {u'target': [], u'time': []}, u'edge': {u'target': [], u'time': []}}}",,"[2, -7, -2]","[1438, 832, 615]",-7.0,"[None, None, None]",,525528,38.0,58302841.0,mouselab-mdp,0
"[1034, 3116, 4019]","[u'up', u'right', u'right']",test,,,"[u'0', u'1', u'2', u'3']","{u'mouseover': {u'state': {u'target': [], u'time': []}, u'edge': {u'target': [], u'time': []}}, u'click': {u'state': {u'target': [], u'time': []}, u'edge': {u'target': [], u'time': []}}, u'mouseout': {u'state': {u'target': [], u'time': []}, u'edge': {u'target': [], u'time': []}}}",,"[-7, -2, 2]","[1029, 1555, 371]",-7.0,"[None, None, None]",,532292,39.0,6747905.0,mouselab-mdp,0
"[2497, 3675, 4634]","[u'up', u'left', u'left']",test,,,"[u'0', u'1', u'4', u'5']","{u'mouseover': {u'state': {u'target': [], u'time': []}, u'edge': {u'target': [], u'time': []}}, u'click': {u'state': {u'target': [], u'time': []}, u'edge': {u'target': [], u'time': []}}, u'mouseout': {u'state': {u'target': [], u'time': []}, u'edge': {u'target': [], u'time': []}}}",,"[-7, 2, 2]","[2492, 651, 446]",-3.0,"[None, None, None]",,540174,40.0,22848043.0,mouselab-mdp,0
"[669, 2686, 3620]","[u'up', u'right', u'right']",test,,,"[u'0', u'1', u'2', u'3']","{u'mouseover': {u'state': {u'target': [], u'time': []}, u'edge': {u'target': [], u'time': []}}, u'click': {u'state': {u'target': [], u'time': []}, u'edge': {u'target': [], u'time': []}}, u'mouseout': {u'state': {u'target': [], u'time': []}, u'edge': {u'target': [], u'time': []}}}",,"[2, -2, 7]","[664, 1494, 418]",7.0,"[None, None, None]",,546743,41.0,36643483.0,mouselab-mdp,0
"[1276, 2578, 3621]","[u'up', u'left', u'left']",test,,,"[u'0', u'1', u'4', u'5']","{u'mouseover': {u'state': {u'target': [], u'time': []}, u'edge': {u'target': [], u'time': []}}, u'click': {u'state': {u'target': [], u'time': []}, u'edge': {u'target': [], u'time': []}}, u'mouseout': {u'state': {u'target': [], u'time': []}, u'edge': {u'target': [], u'time': []}}}",,"[-7, -12, -2]","[1270, 783, 521]",-21.0,"[None, None, None]",,553269,42.0,24036236.0,mouselab-mdp,0
"[1280, 2915, 3939]","[u'up', u'right', u'right']",test,,,"[u'0', u'1', u'2', u'3']","{u'mouseover': {u'state': {u'target': [], u'time': []}, u'edge': {u'target': [], u'time': []}}, u'click': {u'state': {u'target': [], u'time': []}, u'edge': {u'target': [], u'time': []}}, u'mouseout': {u'state': {u'target': [], u'time': []}, u'edge': {u'target': [], u'time': []}}}",,"[12, 12, 12]","[1275, 1096, 502]",36.0,"[None, None, None]",,560371,43.0,74621568.0,mouselab-mdp,0
"[1339, 3063, 4037]","[u'up', u'left', u'left']",test,,,"[u'0', u'1', u'4', u'5']","{u'mouseover': {u'state': {u'target': [], u'time': []}, u'edge': {u'target': [], u'time': []}}, u'click': {u'state': {u'target': [], u'time': []}, u'edge': {u'target': [], u'time': []}}, u'mouseout': {u'state': {u'target': [], u'time': []}, u'edge': {u'target': [], u'time': []}}}",,"[-2, 2, -2]","[1333, 1202, 462]",-2.0,"[None, None, None]",,567298,44.0,44468674.0,mouselab-mdp,0
"[1882, 2902, 3767]","[u'up', u'right', u'right']",test,,,"[u'0', u'1', u'2', u'3']","{u'mouseover': {u'state': {u'target': [], u'time': []}, u'edge': {u'target': [], u'time': []}}, u'click': {u'state': {u'target': [], u'time': []}, u'edge': {u'target': [], u'time': []}}, u'mouseout': {u'state': {u'target': [], u'time': []}, u'edge': {u'target': [], u'time': []}}}",,"[-12, -7, 2]","[1875, 506, 339]",-17.0,"[None, None, None]",,574096,45.0,87237541.0,mouselab-mdp,0
"[1147, 2278, 3730]","[u'up', u'left', u'left']",test,,,"[u'0', u'1', u'4', u'5']","{u'mouseover': {u'state': {u'target': [], u'time': []}, u'edge': {u'target': [], u'time': []}}, u'click': {u'state': {u'target': [], u'time': []}, u'edge': {u'target': [], u'time': []}}, u'mouseout': {u'state': {u'target': [], u'time': []}, u'edge': {u'target': [], u'time': []}}}",,"[2, -7, -7]","[1138, 619, 940]",-12.0,"[None, None, None]",,581061,46.0,4509892.0,mouselab-mdp,0
"[1070, 1951, 3057]","[u'up', u'right', u'right']",test,,,"[u'0', u'1', u'2', u'3']","{u'mouseover': {u'state': {u'target': [], u'time': []}, u'edge': {u'target': [], u'time': []}}, u'click': {u'state': {u'target': [], u'time': []}, u'edge': {u'target': [], u'time': []}}, u'mouseout': {u'state': {u'target': [], u'time': []}, u'edge': {u'target': [], u'time': []}}}",,"[7, 12, 2]","[1060, 366, 589]",21.0,"[None, None, None]",,587172,47.0,46269963.0,mouselab-mdp,0
"[1203, 3259, 4250]","[u'up', u'left', u'left']",test,,,"[u'0', u'1', u'4', u'5']","{u'mouseover': {u'state': {u'target': [], u'time': []}, u'edge': {u'target': [], u'time': []}}, u'click': {u'state': {u'target': [], u'time': []}, u'edge': {u'target': [], u'time': []}}, u'mouseout': {u'state': {u'target': [], u'time': []}, u'edge': {u'target': [], u'time': []}}}",,"[2, -7, -2]","[1197, 1537, 467]",-7.0,"[None, None, None]",,594035,48.0,68111657.0,mouselab-mdp,0
"[1280, 2845, 3817]","[u'up', u'right', u'right']",test,,,"[u'0', u'1', u'2', u'3']","{u'mouseover': {u'state': {u'target': [], u'time': []}, u'edge': {u'target': [], u'time': []}}, u'click': {u'state': {u'target': [], u'time': []}, u'edge': {u'target': [], u'time': []}}, u'mouseout': {u'state': {u'target': [], u'time': []}, u'edge': {u'target': [], u'time': []}}}",,"[-7, 2, 7]","[1274, 1034, 455]",2.0,"[None, None, None]",,601241,49.0,92431391.0,mouselab-mdp,0
"[14071, 14910, 16078]","[u'up', u'left', u'left']",train_basic,,,"[u'0', u'1', u'4', u'5']","{u'mouseover': {u'state': {u'target': [], u'time': []}, u'edge': {u'target': [], u'time': []}}, u'click': {u'state': {u'target': [], u'time': []}, u'edge': {u'target': [], u'time': []}}, u'mouseout': {u'state': {u'target': [], u'time': []}, u'edge': {u'target': [], u'time': []}}}",,"[2, 7, 12]","[14068, 288, 640]",21.0,"[None, None, None]",,18429,0.0,187219.0,mouselab-mdp,1
"[9613, 10909, 11669]","[u'up', u'right', u'right']",train_basic,,,"[u'0', u'1', u'2', u'3']","{u'mouseover': {u'state': {u'target': [], u'time': []}, u'edge': {u'target': [], u'time': []}}, u'click': {u'state': {u'target': [], u'time': []}, u'edge': {u'target': [], u'time': []}}, u'mouseout': {u'state': {u'target': [], u'time': []}, u'edge': {u'target': [], u'time': []}}}",,"[7, 2, -7]","[9611, 772, 231]",2.0,"[None, None, None]",,33095,1.0,10307992.0,mouselab-mdp,1
"[5365, 6069, 6598]","[u'up', u'left', u'left']",train_basic,,,"[u'0', u'1', u'4', u'5']","{u'mouseover': {u'state': {u'target': [], u'time': []}, u'edge': {u'target': [], u'time': []}}, u'click': {u'state': {u'target': [], u'time': []}, u'edge': {u'target': [], u'time': []}}, u'mouseout': {u'state': {u'target': [], u'time': []}, u'edge': {u'target': [], u'time': []}}}",,"[-2, 7, 2]","[5363, 183, 12]",7.0,"[None, None, None]",,42737,2.0,94486010.0,mouselab-mdp,1
"[8984, 9992, 10545]","[u'down', u'right', u'right']",train_basic,,,"[u'0', u'6', u'7', u'8']","{u'mouseover': {u'state': {u'target': [], u'time': []}, u'edge': {u'target': [], u'time': []}}, u'click': {u'state': {u'target': [], u'time': []}, u'edge': {u'target': [], u'time': []}}, u'mouseout': {u'state': {u'target': [], u'time': []}, u'edge': {u'target': [], u'time': []}}}",,"[2, None, None]","[8982, 474, 10]",,"[None, None, None]",,61442,3.0,93425404.0,mouselab-mdp,1
"[2097, 2825, 3873]","[u'down', u'left', u'left']",train_basic,,,"[u'0', u'6', u'9', u'10']","{u'mouseover': {u'state': {u'target': [], u'time': []}, u'edge': {u'target': [], u'time': []}}, u'click': {u'state': {u'target': [], u'time': []}, u'edge': {u'target': [], u'time': []}}, u'mouseout': {u'state': {u'target': [], u'time': []}, u'edge': {u'target': [], u'time': []}}}",,"[2, None, None]","[2095, 213, 528]",,"[None, None, None]",,68287,4.0,55396069.0,mouselab-mdp,1
"[2642, 3179, 3705]","[u'up', u'left', u'left']",train_basic,,,"[u'0', u'1', u'4', u'5']","{u'mouseover': {u'state': {u'target': [], u'time': []}, u'edge': {u'target': [], u'time': []}}, u'click': {u'state': {u'target': [], u'time': []}, u'edge': {u'target': [], u'time': []}}, u'mouseout': {u'state': {u'target': [], u'time': []}, u'edge': {u'target': [], u'time': []}}}",,"[2, 2, 2]","[2639, 7, 17]",6.0,"[None, None, None]",,74676,5.0,17233297.0,mouselab-mdp,1
"[4165, 5244, 5949]","[u'up', u'right', u'right']",train_basic,,,"[u'0', u'1', u'2', u'3']","{u'mouseover': {u'state': {u'target': [], u'time': []}, u'edge': {u'target': [], u'time': []}}, u'click': {u'state': {u'target': [], u'time': []}, u'edge': {u'target': [], u'time': []}}, u'mouseout': {u'state': {u'target': [], u'time': []}, u'edge': {u'target': [], u'time': []}}}",,"[2, 12, -2]","[4162, 558, 178]",12.0,"[None, None, None]",,82985,6.0,549135.0,mouselab-mdp,1
"[11353, 12089, 12681]","[u'up', u'right', u'right']",train_basic,,,"[u'0', u'1', u'2', u'3']","{u'mouseover': {u'state': {u'target': [], u'time': []}, u'edge': {u'target': [], u'time': []}}, u'click': {u'state': {u'target': [], u'time': []}, u'edge': {u'target': [], u'time': []}}, u'mouseout': {u'state': {u'target': [], u'time': []}, u'edge': {u'target': [], u'time': []}}}",,"[12, -2, -2]","[11351, 207, 58]",8.0,"[None, None, None]",,98264,7.0,65312910.0,mouselab-mdp,1
"[5326, 5942, 6502]","[u'up', u'left', u'left']",train_basic,,,"[u'0', u'1', u'4', u'5']","{u'mouseover': {u'state': {u'target': [], u'time': []}, u'edge': {u'target': [], u'time': []}}, u'click': {u'state': {u'target': [], u'time': []}, u'edge': {u'target': [], u'time': []}}, u'mouseout': {u'state': {u'target': [], u'time': []}, u'edge': {u'target': [], u'time': []}}}",,"[-2, 7, -2]","[5324, 97, 41]",3.0,"[None, None, None]",,107585,8.0,54823460.0,mouselab-mdp,1
"[2614, 3630, 4262]","[u'up', u'left', u'left']",train_basic,,,"[u'0', u'1', u'4', u'5']","{u'mouseover': {u'state': {u'target': [], u'time': []}, u'edge': {u'target': [], u'time': []}}, u'click': {u'state': {u'target': [], u'time': []}, u'edge': {u'target': [], u'time': []}}, u'mouseout': {u'state': {u'target': [], u'time': []}, u'edge': {u'target': [], u'time': []}}}",,"[-7, 2, 7]","[2613, 484, 114]",2.0,"[None, None, None]",,114309,9.0,84158874.0,mouselab-mdp,1
"[8413, 10877, 12037]","[u'up', u'left', u'left']",train_hidden,,,"[u'0', u'1', u'4', u'5']","{u'mouseover': {u'state': {u'target': [], u'time': []}, u'edge': {u'target': [], u'time': []}}, u'click': {u'state': {u'target': [], u'time': []}, u'edge': {u'target': [], u'time': []}}, u'mouseout': {u'state': {u'target': [], u'time': []}, u'edge': {u'target': [], u'time': []}}}",,"[2, 12, 2]","[8411, 1932, 641]",16.0,"[None, None, None]",,131321,10.0,20979290.0,mouselab-mdp,1
"[1128, 2144, 3103]","[u'up', u'left', u'left']",train_hidden,,,"[u'0', u'1', u'4', u'5']","{u'mouseover': {u'state': {u'target': [], u'time': []}, u'edge': {u'target': [], u'time': []}}, u'click': {u'state': {u'target': [], u'time': []}, u'edge': {u'target': [], u'time': []}}, u'mouseout': {u'state': {u'target': [], u'time': []}, u'edge': {u'target': [], u'time': []}}}",,"[2, -7, -2]","[1126, 492, 439]",-7.0,"[None, None, None]",,137161,11.0,52796472.0,mouselab-mdp,1
"[729, 2193, 3041]","[u'up', u'right', u'right']",train_hidden,,,"[u'0', u'1', u'2', u'3']","{u'mouseover': {u'state': {u'target': [], u'time': []}, u'edge': {u'target': [], u'time': []}}, u'click': {u'state': {u'target': [], u'time': []}, u'edge': {u'target': [], u'time': []}}, u'mouseout': {u'state': {u'target': [], u'time': []}, u'edge': {u'target': [], u'time': []}}}",,"[2, 2, -2]","[727, 929, 327]",2.0,"[None, None, None]",,142841,12.0,14267615.0,mouselab-mdp,1
"[474, 1770, 2474]","[u'up', u'left', u'left']",train_hidden,,,"[u'0', u'1', u'4', u'5']","{u'mouseover': {u'state': {u'target': [], u'time': []}, u'edge': {u'target': [], u'time': []}}, u'click': {u'state': {u'target': [], u'time': []}, u'edge': {u'target': [], u'time': []}}, u'mouseout': {u'state': {u'target': [], u'time': []}, u'edge': {u'target': [], u'time': []}}}",,"[2, -2, -2]","[472, 754, 174]",-2.0,"[None, None, None]",,147849,13.0,45374391.0,mouselab-mdp,1
"[516, 1274, 2026]","[u'up', u'right', u'right']",train_hidden,,,"[u'0', u'1', u'2', u'3']","{u'mouseover': {u'state': {u'target': [], u'time': []}, u'edge': {u'target': [], u'time': []}}, u'click': {u'state': {u'target': [], u'time': []}, u'edge': {u'target': [], u'time': []}}, u'mouseout': {u'state': {u'target': [], u'time': []}, u'edge': {u'target': [], u'time': []}}}",,"[12, -2, -2]","[508, 226, 228]",8.0,"[None, None, None]",,152265,14.0,6255626.0,mouselab-mdp,1
"[22050, 22690, 23298]","[u'up', u'left', u'left']",train_inspector,,,"[u'0', u'1', u'4', u'5']","{u'mouseover': {u'state': {u'target': [], u'time': []}, u'edge': {u'target': [], u'time': []}}, u'click': {u'state': {u'target': [u'1', u'5', u'2'], u'time': [14809, 16659, 20593]}, u'edge': {u'target': [], u'time': []}}, u'mouseout': {u'state': {u'target': [], u'time': []}, u'edge': {u'target': [], u'time': []}}}",,"[7, -2, 2]","[22047, 111, 85]",7.0,"[None, None, None]",,180335,15.0,82610551.0,mouselab-mdp,1
"[11180, 12156, 12852]","[u'down', u'left', u'left']",train_inspector,,,"[u'0', u'6', u'9', u'10']","{u'mouseover': {u'state': {u'target': [], u'time': []}, u'edge': {u'target': [], u'time': []}}, u'click': {u'state': {u'target': [u'5', u'3', u'2'], u'time': [4275, 5917, 8213]}, u'edge': {u'target': [], u'time': []}}, u'mouseout': {u'state': {u'target': [], u'time': []}, u'edge': {u'target': [], u'time': []}}}",,"[2, None, None]","[11177, 459, 172]",,"[None, None, None]",,195975,16.0,14787109.0,mouselab-mdp,1
"[17178, 17738, 18290]","[u'up', u'right', u'right']",train_inspector,,,"[u'0', u'1', u'2', u'3']","{u'mouseover': {u'state': {u'target': [], u'time': []}, u'edge': {u'target': [], u'time': []}}, u'click': {u'state': {u'target': [u'5', u'9', u'9', u'2', u'1', u'4', u'3', u'10', u'9', u'6', u'7', u'8'], u'time': [3572, 4969, 6092, 7300, 8979, 10166, 11808, 13469, 14029, 14536, 15184, 15778]}, u'edge': {u'target': [], u'time': []}}, u'mouseout': {u'state': {u'target': [], u'time': []}, u'edge': {u'target': [], u'time': []}}}",,"[7, -2, 7]","[17176, 45, 30]",12.0,"[None, None, None]",,216959,17.0,56130015.0,mouselab-mdp,1
"[10996, 11804, 12699]","[u'up', u'right', u'right']",train_inspector,,,"[u'0', u'1', u'2', u'3']","{u'mouseover': {u'state': {u'target': [], u'time': []}, u'edge': {u'target': [], u'time': []}}, u'click': {u'state': {u'target': [u'5', u'4', u'2', u'6', u'9', u'10', u'8'], u'time': [2095, 4491, 5267, 6609, 7179, 7739, 8829]}, u'edge': {u'target': [], u'time': []}}, u'mouseout': {u'state': {u'target': [], u'time': []}, u'edge': {u'target': [], u'time': []}}}",,"[-7, 12, 2]","[10993, 287, 368]",7.0,"[None, None, None]",,232288,18.0,26530940.0,mouselab-mdp,1
"[13479, 14032, 15032]","[u'up', u'right', u'right']",train_inspector,,,"[u'0', u'1', u'2', u'3']","{u'mouseover': {u'state': {u'target': [], u'time': []}, u'edge': {u'target': [], u'time': []}}, u'click': {u'state': {u'target': [u'5', u'4', u'1', u'2', u'3', u'9', u'6', u'7', u'8'], u'time': [2185, 2763, 3323, 3929, 4489, 5923, 6515, 7029, 7597]}, u'edge': {u'target': [], u'time': []}}, u'mouseout': {u'state': {u'target': [], u'time': []}, u'edge': {u'target': [], u'time': []}}}",,"[-7, -2, 2]","[13477, 28, 479]",-7.0,"[None, None, None]",,250528,19.0,3663078.0,mouselab-mdp,1
"[14202, 15258, 16114]","[u'up', u'left', u'left']",train_inspect_cost,,,"[u'0', u'1', u'4', u'5']","{u'mouseover': {u'state': {u'target': [], u'time': []}, u'edge': {u'target': [], u'time': []}}, u'click': {u'state': {u'target': [], u'time': []}, u'edge': {u'target': [], u'time': []}}, u'mouseout': {u'state': {u'target': [], u'time': []}, u'edge': {u'target': [], u'time': []}}}",,"[7, -2, 2]","[14200, 534, 323]",7.0,"[None, None, None]",,271394,20.0,91500450.0,mouselab-mdp,1
"[3182, 4686, 5622]","[u'up', u'left', u'left']",train_inspect_cost,,,"[u'0', u'1', u'4', u'5']","{u'mouseover': {u'state': {u'target': [], u'time': []}, u'edge': {u'target': [], u'time': []}}, u'click': {u'state': {u'target': [], u'time': []}, u'edge': {u'target': [], u'time': []}}, u'mouseout': {u'state': {u'target': [], u'time': []}, u'edge': {u'target': [], u'time': []}}}",,"[2, -2, 2]","[3179, 964, 415]",2.0,"[None, None, None]",,279789,21.0,20615107.0,mouselab-mdp,1
"[2978, 3618, 4202]","[u'up', u'right', u'right']",train_inspect_cost,,,"[u'0', u'1', u'2', u'3']","{u'mouseover': {u'state': {u'target': [], u'time': []}, u'edge': {u'target': [], u'time': []}}, u'click': {u'state': {u'target': [u'3', u'5'], u'time': [919, 1933]}, u'edge': {u'target': [], u'time': []}}, u'mouseout': {u'state': {u'target': [], u'time': []}, u'edge': {u'target': [], u'time': []}}}",,"[-2, -2, 2]","[2966, 121, 59]",-4.0,"[None, None, None]",,287022,22.0,7527742.0,mouselab-mdp,1
"[5890, 6610, 7402]","[u'up', u'right', u'right']",train_inspect_cost,,,"[u'0', u'1', u'2', u'3']","{u'mouseover': {u'state': {u'target': [], u'time': []}, u'edge': {u'target': [], u'time': []}}, u'click': {u'state': {u'target': [u'5', u'3'], u'time': [1467, 3266]}, u'edge': {u'target': [], u'time': []}}, u'mouseout': {u'state': {u'target': [], u'time': []}, u'edge': {u'target': [], u'time': []}}}",,"[-2, 2, -2]","[5888, 191, 266]",-4.0,"[None, None, None]",,296998,23.0,11522314.0,mouselab-mdp,1
"[2266, 2850, 3410]","[u'up', u'left', u'left']",train_inspect_cost,,,"[u'0', u'1', u'4', u'5']","{u'mouseover': {u'state': {u'target': [], u'time': []}, u'edge': {u'target': [], u'time': []}}, u'click': {u'state': {u'target': [u'5', u'3'], u'time': [675, 1396]}, u'edge': {u'target': [], u'time': []}}, u'mouseout': {u'state': {u'target': [], u'time': []}, u'edge': {u'target': [], u'time': []}}}",,"[-2, 7, 7]","[2263, 62, 38]",10.0,"[None, None, None]",,302942,24.0,55396361.0,mouselab-mdp,1
"[16636, 17708, 18588]","[u'up', u'left', u'left']",train_final,,,"[u'0', u'1', u'4', u'5']","{u'mouseover': {u'state': {u'target': [], u'time': []}, u'edge': {u'target': [], u'time': []}}, u'click': {u'state': {u'target': [u'5'], u'time': [1775]}, u'edge': {u'target': [], u'time': []}}, u'mouseout': {u'state': {u'target': [], u'time': []}, u'edge': {u'target': [], u'time': []}}}",,"[-7, 7, 2]","[16632, 550, 364]",1.0,"[None, None, None]",,326213,25.0,50503311.0,mouselab-mdp,1
"[7591, 8199, 8815]","[u'up', u'left', u'left']",train_final,,,"[u'0', u'1', u'4', u'5']","{u'mouseover': {u'state': {u'target': [], u'time': []}, u'edge': {u'target': [], u'time': []}}, u'click': {u'state': {u'target': [u'3', u'5'], u'time': [6048, 6812]}, u'edge': {u'target': [], u'time': []}}, u'mouseout': {u'state': {u'target': [], u'time': []}, u'edge': {u'target': [], u'time': []}}}",,"[-2, -2, 7]","[7589, 76, 109]",1.0,"[None, None, None]",,338239,26.0,19265559.0,mouselab-mdp,1
"[7383, 7983, 8559]","[u'up', u'left', u'left']",train_final,,,"[u'0', u'1', u'4', u'5']","{u'mouseover': {u'state': {u'target': [], u'time': []}, u'edge': {u'target': [], u'time': []}}, u'click': {u'state': {u'target': [u'10', u'8', u'3', u'1'], u'time': [919, 2024, 3630, 5835]}, u'edge': {u'target': [], u'time': []}}, u'mouseout': {u'state': {u'target': [], u'time': []}, u'edge': {u'target': [], u'time': []}}}",,"[-7, -7, 2]","[7380, 72, 63]",-16.0,"[None, None, None]",,349460,27.0,14533103.0,mouselab-mdp,1
"[2957, 3573, 4157]","[u'up', u'left', u'left']",train_final,,,"[u'0', u'1', u'4', u'5']","{u'mouseover': {u'state': {u'target': [], u'time': []}, u'edge': {u'target': [], u'time': []}}, u'click': {u'state': {u'target': [], u'time': []}, u'edge': {u'target': [], u'time': []}}, u'mouseout': {u'state': {u'target': [], u'time': []}, u'edge': {u'target': [], u'time': []}}}",,"[-2, -2, -7]","[2954, 86, 69]",-11.0,"[None, None, None]",,356377,28.0,3735508.0,mouselab-mdp,1
"[349, 1229, 1853]","[u'up', u'right', u'right']",train_final,,,"[u'0', u'1', u'2', u'3']","{u'mouseover': {u'state': {u'target': [], u'time': []}, u'edge': {u'target': [], u'time': []}}, u'click': {u'state': {u'target': [], u'time': []}, u'edge': {u'target': [], u'time': []}}, u'mouseout': {u'state': {u'target': [], u'time': []}, u'edge': {u'target': [], u'time': []}}}",,"[7, 7, -12]","[346, 351, 107]",2.0,"[None, None, None]",,360857,29.0,26330822.0,mouselab-mdp,1
"[8430, 9326, 10271]","[u'up', u'left', u'left']",test,,,"[u'0', u'1', u'4', u'5']","{u'mouseover': {u'state': {u'target': [], u'time': []}, u'edge': {u'target': [], u'time': []}}, u'click': {u'state': {u'target': [u'5', u'3'], u'time': [5974, 7436]}, u'edge': {u'target': [], u'time': []}}, u'mouseout': {u'state': {u'target': [], u'time': []}, u'edge': {u'target': [], u'time': []}}}",,"[7, -2, 7]","[8428, 359, 420]",10.0,"[None, None, None]",,380060,30.0,18628783.0,mouselab-mdp,1
"[2386, 3322, 4218]","[u'up', u'left', u'left']",test,,,"[u'0', u'1', u'4', u'5']","{u'mouseover': {u'state': {u'target': [], u'time': []}, u'edge': {u'target': [], u'time': []}}, u'click': {u'state': {u'target': [u'5', u'3'], u'time': [783, 1567]}, u'edge': {u'target': [], u'time': []}}, u'mouseout': {u'state': {u'target': [], u'time': []}, u'edge': {u'target': [], u'time': []}}}",,"[2, 2, -2]","[2383, 407, 369]",0.0,"[None, None, None]",,386756,31.0,41718736.0,mouselab-mdp,1
"[2469, 3189, 3869]","[u'up', u'left', u'left']",test,,,"[u'0', u'1', u'4', u'5']","{u'mouseover': {u'state': {u'target': [], u'time': []}, u'edge': {u'target': [], u'time': []}}, u'click': {u'state': {u'target': [u'5', u'3'], u'time': [702, 1704]}, u'edge': {u'target': [], u'time': []}}, u'mouseout': {u'state': {u'target': [], u'time': []}, u'edge': {u'target': [], u'time': []}}}",,"[12, -2, 7]","[2467, 200, 162]",15.0,"[None, None, None]",,393093,32.0,30566367.0,mouselab-mdp,1
"[1347, 1986, 2611]","[u'up', u'right', u'right']",test,,,"[u'0', u'1', u'2', u'3']","{u'mouseover': {u'state': {u'target': [], u'time': []}, u'edge': {u'target': [], u'time': []}}, u'click': {u'state': {u'target': [u'5'], u'time': [524]}, u'edge': {u'target': [], u'time': []}}, u'mouseout': {u'state': {u'target': [], u'time': []}, u'edge': {u'target': [], u'time': []}}}",,"[7, 2, -7]","[1345, 114, 104]",1.0,"[None, None, None]",,398605,33.0,36111948.0,mouselab-mdp,1
"[2163, 3307, 3891]","[u'up', u'left', u'left']",test,,,"[u'0', u'1', u'4', u'5']","{u'mouseover': {u'state': {u'target': [], u'time': []}, u'edge': {u'target': [], u'time': []}}, u'click': {u'state': {u'target': [u'5'], u'time': [1018]}, u'edge': {u'target': [], u'time': []}}, u'mouseout': {u'state': {u'target': [], u'time': []}, u'edge': {u'target': [], u'time': []}}}",,"[2, 7, 12]","[2161, 621, 54]",20.0,"[None, None, None]",,405005,34.0,60806670.0,mouselab-mdp,1
"[3967, 4527, 5071]","[u'up', u'left', u'left']",test,,,"[u'0', u'1', u'4', u'5']","{u'mouseover': {u'state': {u'target': [], u'time': []}, u'edge': {u'target': [], u'time': []}}, u'click': {u'state': {u'target': [u'5', u'3'], u'time': [651, 3126]}, u'edge': {u'target': [], u'time': []}}, u'mouseout': {u'state': {u'target': [], u'time': []}, u'edge': {u'target': [], u'time': []}}}",,"[7, -2, -2]","[3965, 33, 26]",1.0,"[None, None, None]",,412517,35.0,10238530.0,mouselab-mdp,1
"[2276, 2868, 3412]","[u'up', u'left', u'left']",test,,,"[u'0', u'1', u'4', u'5']","{u'mouseover': {u'state': {u'target': [], u'time': []}, u'edge': {u'target': [], u'time': []}}, u'click': {u'state': {u'target': [u'5', u'3'], u'time': [664, 1664]}, u'edge': {u'target': [], u'time': []}}, u'mouseout': {u'state': {u'target': [], u'time': []}, u'edge': {u'target': [], u'time': []}}}",,"[-12, -7, -2]","[2271, 72, 32]",-23.0,"[None, None, None]",,418373,36.0,58314511.0,mouselab-mdp,1
"[6252, 8016, 8716]","[u'up', u'right', u'right']",test,,,"[u'0', u'1', u'2', u'3']","{u'mouseover': {u'state': {u'target': [], u'time': []}, u'edge': {u'target': [], u'time': []}}, u'click': {u'state': {u'target': [u'5', u'3', u'4'], u'time': [658, 1634, 4086]}, u'edge': {u'target': [], u'time': []}}, u'mouseout': {u'state': {u'target': [], u'time': []}, u'edge': {u'target': [], u'time': []}}}",,"[-2, 12, 2]","[6250, 1235, 176]",9.0,"[None, None, None]",,429429,37.0,6122234.0,mouselab-mdp,1
"[1906, 2474, 2996]","[u'up', u'left', u'left']",test,,,"[u'0', u'1', u'4', u'5']","{u'mouseover': {u'state': {u'target': [], u'time': []}, u'edge': {u'target': [], u'time': []}}, u'click': {u'state': {u'target': [u'5', u'3'], u'time': [488, 1266]}, u'edge': {u'target': [], u'time': []}}, u'mouseout': {u'state': {u'target': [], u'time': []}, u'edge': {u'target': [], u'time': []}}}",,"[2, 7, 12]","[1904, 40, 10]",19.0,"[None, None, None]",,434797,38.0,94051310.0,mouselab-mdp,1
"[1733, 2669, 3277]","[u'up', u'left', u'left']",test,,,"[u'0', u'1', u'4', u'5']","{u'mouseover': {u'state': {u'target': [], u'time': []}, u'edge': {u'target': [], u'time': []}}, u'click': {u'state': {u'target': [u'5'], u'time': [488]}, u'edge': {u'target': [], u'time': []}}, u'mouseout': {u'state': {u'target': [], u'time': []}, u'edge': {u'target': [], u'time': []}}}",,"[-2, -7, 7]","[1730, 406, 80]",-3.0,"[None, None, None]",,440597,39.0,87976537.0,mouselab-mdp,1
"[1379, 2067, 2675]","[u'up', u'right', u'right']",test,,,"[u'0', u'1', u'2', u'3']","{u'mouseover': {u'state': {u'target': [], u'time': []}, u'edge': {u'target': [], u'time': []}}, u'click': {u'state': {u'target': [u'5'], u'time': [418]}, u'edge': {u'target': [], u'time': []}}, u'mouseout': {u'state': {u'target': [], u'time': []}, u'edge': {u'target': [], u'time': []}}}",,"[7, -2, -2]","[1376, 160, 85]",2.0,"[None, None, None]",,445686,40.0,28110053.0,mouselab-mdp,1
"[1152, 1704, 2248]","[u'up', u'left', u'left']",test,,,"[u'0', u'1', u'4', u'5']","{u'mouseover': {u'state': {u'target': [], u'time': []}, u'edge': {u'target': [], u'time': []}}, u'click': {u'state': {u'target': [u'5'], u'time': [549]}, u'edge': {u'target': [], u'time': []}}, u'mouseout': {u'state': {u'target': [], u'time': []}, u'edge': {u'target': [], u'time': []}}}",,"[7, -2, 7]","[1150, 21, 32]",11.0,"[None, None, None]",,450334,41.0,27060078.0,mouselab-mdp,1
"[1043, 1643, 2203]","[u'up', u'left', u'left']",test,,,"[u'0', u'1', u'4', u'5']","{u'mouseover': {u'state': {u'target': [], u'time': []}, u'edge': {u'target': [], u'time': []}}, u'click': {u'state': {u'target': [u'5'], u'time': [468]}, u'edge': {u'target': [], u'time': []}}, u'mouseout': {u'state': {u'target': [], u'time': []}, u'edge': {u'target': [], u'time': []}}}",,"[-7, -7, 7]","[1041, 77, 37]",-8.0,"[None, None, None]",,455134,42.0,32264986.0,mouselab-mdp,1
"[2525, 3101, 3653]","[u'up', u'right', u'right']",test,,,"[u'0', u'1', u'2', u'3']","{u'mouseover': {u'state': {u'target': [], u'time': []}, u'edge': {u'target': [], u'time': []}}, u'click': {u'state': {u'target': [u'5', u'3'], u'time': [640, 1602]}, u'edge': {u'target': [], u'time': []}}, u'mouseout': {u'state': {u'target': [], u'time': []}, u'edge': {u'target': [], u'time': []}}}",,"[-2, -2, 2]","[2524, 48, 33]",-4.0,"[None, None, None]",,461366,43.0,5159355.0,mouselab-mdp,1
"[1958, 2574, 3166]","[u'up', u'right', u'right']",test,,,"[u'0', u'1', u'2', u'3']","{u'mouseover': {u'state': {u'target': [], u'time': []}, u'edge': {u'target': [], u'time': []}}, u'click': {u'state': {u'target': [u'5', u'3'], u'time': [446, 1383]}, u'edge': {u'target': [], u'time': []}}, u'mouseout': {u'state': {u'target': [], u'time': []}, u'edge': {u'target': [], u'time': []}}}",,"[-7, -12, 2]","[1956, 97, 73]",-19.0,"[None, None, None]",,466910,44.0,1112738.0,mouselab-mdp,1
"[2442, 3106, 3682]","[u'up', u'left', u'left']",test,,,"[u'0', u'1', u'4', u'5']","{u'mouseover': {u'state': {u'target': [], u'time': []}, u'edge': {u'target': [], u'time': []}}, u'click': {u'state': {u'target': [u'4', u'2'], u'time': [667, 1734]}, u'edge': {u'target': [], u'time': []}}, u'mouseout': {u'state': {u'target': [], u'time': []}, u'edge': {u'target': [], u'time': []}}}",,"[-2, -2, 7]","[2439, 134, 45]",1.0,"[None, None, None]",,473038,45.0,78200990.0,mouselab-mdp,1
"[1632, 2192, 2752]","[u'up', u'right', u'right']",test,,,"[u'0', u'1', u'2', u'3']","{u'mouseover': {u'state': {u'target': [], u'time': []}, u'edge': {u'target': [], u'time': []}}, u'click': {u'state': {u'target': [u'5'], u'time': [362]}, u'edge': {u'target': [], u'time': []}}, u'mouseout': {u'state': {u'target': [], u'time': []}, u'edge': {u'target': [], u'time': []}}}",,"[-12, -2, -2]","[1630, 30, 39]",-17.0,"[None, None, None]",,478382,46.0,27793219.0,mouselab-mdp,1
"[4335, 4856, 5384]","[u'up', u'right', u'right']",test,,,"[u'0', u'1', u'2', u'3']","{u'mouseover': {u'state': {u'target': [], u'time': []}, u'edge': {u'target': [], u'time': []}}, u'click': {u'state': {u'target': [u'3'], u'time': [3491]}, u'edge': {u'target': [], u'time': []}}, u'mouseout': {u'state': {u'target': [], u'time': []}, u'edge': {u'target': [], u'time': []}}}",,"[-7, 12, 7]","[4333, 3, 13]",11.0,"[None, None, None]",,486103,47.0,1933767.0,mouselab-mdp,1
"[1300, 1900, 2453]","[u'up', u'left', u'left']",test,,,"[u'0', u'1', u'4', u'5']","{u'mouseover': {u'state': {u'target': [], u'time': []}, u'edge': {u'target': [], u'time': []}}, u'click': {u'state': {u'target': [u'3'], u'time': [462]}, u'edge': {u'target': [], u'time': []}}, u'mouseout': {u'state': {u'target': [], u'time': []}, u'edge': {u'target': [], u'time': []}}}",,"[-7, 2, 7]","[1298, 66, 35]",1.0,"[None, None, None]",,491022,48.0,50807457.0,mouselab-mdp,1
"[1384, 1968, 2536]","[u'up', u'right', u'right']",test,,,"[u'0', u'1', u'2', u'3']","{u'mouseover': {u'state': {u'target': [], u'time': []}, u'edge': {u'target': [], u'time': []}}, u'click': {u'state': {u'target': [u'5'], u'time': [455]}, u'edge': {u'target': [], u'time': []}}, u'mouseout': {u'state': {u'target': [], u'time': []}, u'edge': {u'target': [], u'time': []}}}",,"[-12, -7, 2]","[1380, 58, 59]",-18.0,"[None, None, None]",,496807,49.0,36504556.0,mouselab-mdp,1
"[26404, 28066, 30015]","[u'up', u'right', u'right']",train_basic,,,"[u'0', u'1', u'2', u'3']","{u'mouseover': {u'state': {u'target': [], u'time': []}, u'edge': {u'target': [], u'time': []}}, u'click': {u'state': {u'target': [], u'time': []}, u'edge': {u'target': [], u'time': []}}, u'mouseout': {u'state': {u'target': [], u'time': []}, u'edge': {u'target': [], u'time': []}}}",,"[7, 12, 2]","[26400, 1161, 1454]",21.0,"[None, None, None]",,34634,0.0,34130348.0,mouselab-mdp,2
"[2679, 9029, 11992]","[u'down', u'left', u'left']",train_basic,,,"[u'0', u'6', u'9', u'10']","{u'mouseover': {u'state': {u'target': [], u'time': []}, u'edge': {u'target': [], u'time': []}}, u'click': {u'state': {u'target': [], u'time': []}, u'edge': {u'target': [], u'time': []}}, u'mouseout': {u'state': {u'target': [], u'time': []}, u'edge': {u'target': [], u'time': []}}}",,"[2, None, None]","[2676, 5844, 2457]",,"[None, None, None]",,50341,1.0,41054870.0,mouselab-mdp,2
"[2072, 7734, 8527]","[u'up', u'right', u'right']",train_basic,,,"[u'0', u'1', u'2', u'3']","{u'mouseover': {u'state': {u'target': [], u'time': []}, u'edge': {u'target': [], u'time': []}}, u'click': {u'state': {u'target': [], u'time': []}, u'edge': {u'target': [], u'time': []}}, u'mouseout': {u'state': {u'target': [], u'time': []}, u'edge': {u'target': [], u'time': []}}}",,"[2, 7, 2]","[2070, 5164, 293]",11.0,"[None, None, None]",,62228,2.0,3820821.0,mouselab-mdp,2
"[5274, 6985, 8248]","[u'down', u'right', u'right']",train_basic,,,"[u'0', u'6', u'7', u'8']","{u'mouseover': {u'state': {u'target': [], u'time': []}, u'edge': {u'target': [], u'time': []}}, u'click': {u'state': {u'target': [], u'time': []}, u'edge': {u'target': [], u'time': []}}, u'mouseout': {u'state': {u'target': [], u'time': []}, u'edge': {u'target': [], u'time': []}}}",,"[2, None, None]","[5272, 1208, 766]",,"[None, None, None]",,73572,3.0,24922504.0,mouselab-mdp,2
"[1608, 3932, 4603]","[u'down', u'left', u'left']",train_basic,,,"[u'0', u'6', u'9', u'10']","{u'mouseover': {u'state': {u'target': [], u'time': []}, u'edge': {u'target': [], u'time': []}}, u'click': {u'state': {u'target': [], u'time': []}, u'edge': {u'target': [], u'time': []}}, u'mouseout': {u'state': {u'target': [], u'time': []}, u'edge': {u'target': [], u'time': []}}}",,"[2, None, None]","[1606, 1816, 167]",,"[None, None, None]",,80986,4.0,98206447.0,mouselab-mdp,2
"[5557, 6954, 7997]","[u'up', u'left', u'left']",train_basic,,,"[u'0', u'1', u'4', u'5']","{u'mouseover': {u'state': {u'target': [], u'time': []}, u'edge': {u'target': [], u'time': []}}, u'click': {u'state': {u'target': [], u'time': []}, u'edge': {u'target': [], u'time': []}}, u'mouseout': {u'state': {u'target': [], u'time': []}, u'edge': {u'target': [], u'time': []}}}",,"[-2, 7, -2]","[5555, 907, 546]",3.0,"[None, None, None]",,91939,5.0,32304405.0,mouselab-mdp,2
"[7369, 9060, 10017]","[u'up', u'right', u'right']",train_basic,,,"[u'0', u'1', u'2', u'3']","{u'mouseover': {u'state': {u'target': [], u'time': []}, u'edge': {u'target': [], u'time': []}}, u'click': {u'state': {u'target': [], u'time': []}, u'edge': {u'target': [], u'time': []}}, u'mouseout': {u'state': {u'target': [], u'time': []}, u'edge': {u'target': [], u'time': []}}}",,"[-12, 2, -2]","[7367, 1197, 465]",-12.0,"[None, None, None]",,106477,6.0,16187928.0,mouselab-mdp,2
"[2545, 3837, 4599]","[u'up', u'right', u'right']",train_basic,,,"[u'0', u'1', u'2', u'3']","{u'mouseover': {u'state': {u'target': [], u'time': []}, u'edge': {u'target': [], u'time': []}}, u'click': {u'state': {u'target': [], u'time': []}, u'edge': {u'target': [], u'time': []}}, u'mouseout': {u'state': {u'target': [], u'time': []}, u'edge': {u'target': [], u'time': []}}}",,"[12, -2, -2]","[2544, 791, 266]",8.0,"[None, None, None]",,115723,7.0,89362368.0,mouselab-mdp,2
"[1411, 2189, 3411]","[u'up', u'right', u'right']",train_basic,,,"[u'0', u'1', u'2', u'3']","{u'mouseover': {u'state': {u'target': [], u'time': []}, u'edge': {u'target': [], u'time': []}}, u'click': {u'state': {u'target': [], u'time': []}, u'edge': {u'target': [], u'time': []}}, u'mouseout': {u'state': {u'target': [], u'time': []}, u'edge': {u'target': [], u'time': []}}}",,"[7, 2, -2]","[1409, 272, 725]",7.0,"[None, None, None]",,121909,8.0,50814922.0,mouselab-mdp,2
"[2563, 3565, 4639]","[u'up', u'left', u'left']",train_basic,,,"[u'0', u'1', u'4', u'5']","{u'mouseover': {u'state': {u'target': [], u'time': []}, u'edge': {u'target': [], u'time': []}}, u'click': {u'state': {u'target': [], u'time': []}, u'edge': {u'target': [], u'time': []}}, u'mouseout': {u'state': {u'target': [], u'time': []}, u'edge': {u'target': [], u'time': []}}}",,"[2, -2, 7]","[2561, 513, 583]",7.0,"[None, None, None]",,132800,9.0,42945737.0,mouselab-mdp,2
"[8260, 9170, 10430]","[u'up', u'left', u'left']",train_hidden,,,"[u'0', u'1', u'4', u'5']","{u'mouseover': {u'state': {u'target': [], u'time': []}, u'edge': {u'target': [], u'time': []}}, u'click': {u'state': {u'target': [], u'time': []}, u'edge': {u'target': [], u'time': []}}, u'mouseout': {u'state': {u'target': [], u'time': []}, u'edge': {u'target': [], u'time': []}}}",,"[2, 7, 7]","[8258, 407, 764]",16.0,"[None, None, None]",,148792,10.0,62637027.0,mouselab-mdp,2
"[840, 2276, 4048]","[u'down', u'right', u'right']",train_hidden,,,"[u'0', u'6', u'7', u'8']","{u'mouseover': {u'state': {u'target': [], u'time': []}, u'edge': {u'target': [], u'time': []}}, u'click': {u'state': {u'target': [], u'time': []}, u'edge': {u'target': [], u'time': []}}, u'mouseout': {u'state': {u'target': [], u'time': []}, u'edge': {u'target': [], u'time': []}}}",,"[7, None, None]","[838, 932, 1270]",,"[None, None, None]",,155505,11.0,43913732.0,mouselab-mdp,2
"[1158, 2180, 3130]","[u'up', u'right', u'right']",train_hidden,,,"[u'0', u'1', u'2', u'3']","{u'mouseover': {u'state': {u'target': [], u'time': []}, u'edge': {u'target': [], u'time': []}}, u'click': {u'state': {u'target': [], u'time': []}, u'edge': {u'target': [], u'time': []}}, u'mouseout': {u'state': {u'target': [], u'time': []}, u'edge': {u'target': [], u'time': []}}}",,"[12, 2, 2]","[1156, 526, 455]",16.0,"[None, None, None]",,161729,12.0,72459510.0,mouselab-mdp,2
"[2373, 3259, 4183]","[u'up', u'left', u'left']",train_hidden,,,"[u'0', u'1', u'4', u'5']","{u'mouseover': {u'state': {u'target': [], u'time': []}, u'edge': {u'target': [], u'time': []}}, u'click': {u'state': {u'target': [], u'time': []}, u'edge': {u'target': [], u'time': []}}, u'mouseout': {u'state': {u'target': [], u'time': []}, u'edge': {u'target': [], u'time': []}}}",,"[-2, 2, 7]","[2371, 381, 422]",7.0,"[None, None, None]",,168699,13.0,44652079.0,mouselab-mdp,2
"[841, 1662, 2418]","[u'up', u'left', u'left']",train_hidden,,,"[u'0', u'1', u'4', u'5']","{u'mouseover': {u'state': {u'target': [], u'time': []}, u'edge': {u'target': [], u'time': []}}, u'click': {u'state': {u'target': [], u'time': []}, u'edge': {u'target': [], u'time': []}}, u'mouseout': {u'state': {u'target': [], u'time': []}, u'edge': {u'target': [], u'time': []}}}",,"[-2, -7, -2]","[840, 316, 254]",-11.0,"[None, None, None]",,173740,14.0,21350516.0,mouselab-mdp,2
"[37115, 38212, 39117]","[u'up', u'right', u'right']",train_inspector,,,"[u'0', u'1', u'2', u'3']","{u'mouseover': {u'state': {u'target': [], u'time': []}, u'edge': {u'target': [], u'time': []}}, u'click': {u'state': {u'target': [u'5', u'4', u'1', u'3', u'2', u'6', u'7', u'7', u'9', u'9', u'9', u'10', u'10', u'10', u'10'], u'time': [15440, 21449, 22970, 24588, 25752, 27441, 29256, 29326, 31932, 32033, 32267, 33689, 33830, 34231, 34319]}, u'edge': {u'target': [], u'time': []}}, u'mouseout': {u'state': {u'target': [], u'time': []}, u'edge': {u'target': [], u'time': []}}}",,"[-7, 2, -2]","[37114, 594, 414]",-7.0,"[None, None, None]",,217683,15.0,5896551.0,mouselab-mdp,2
"[10680, 11541, 12315]","[u'up', u'right', u'right']",train_inspector,,,"[u'0', u'1', u'2', u'3']","{u'mouseover': {u'state': {u'target': [], u'time': []}, u'edge': {u'target': [], u'time': []}}, u'click': {u'state': {u'target': [u'1', u'4', u'5', u'2', u'3', u'8', u'7', u'6'], u'time': [1755, 2769, 3790, 5171, 6309, 7667, 8672, 9747]}, u'edge': {u'target': [], u'time': []}}, u'mouseout': {u'state': {u'target': [], u'time': []}, u'edge': {u'target': [], u'time': []}}}",,"[-2, -7, 7]","[10678, 365, 272]",-2.0,"[None, None, None]",,233410,16.0,46535663.0,mouselab-mdp,2
"[13285, 15401, 17621]","[u'up', u'right', u'right']",train_inspector,,,"[u'0', u'1', u'2', u'3']","{u'mouseover': {u'state': {u'target': [], u'time': []}, u'edge': {u'target': [], u'time': []}}, u'click': {u'state': {u'target': [u'1', u'5', u'4', u'2', u'3', u'8', u'7', u'9', u'10'], u'time': [2225, 3779, 4721, 5788, 6693, 7837, 8761, 10211, 11806]}, u'edge': {u'target': [], u'time': []}}, u'mouseout': {u'state': {u'target': [], u'time': []}, u'edge': {u'target': [], u'time': []}}}",,"[-2, 12, -7]","[13283, 1624, 1721]",3.0,"[None, None, None]",,254352,17.0,76383308.0,mouselab-mdp,2
"[15386, 16696, 18013]","[u'up', u'right', u'right']",train_inspector,,,"[u'0', u'1', u'2', u'3']","{u'mouseover': {u'state': {u'target': [], u'time': []}, u'edge': {u'target': [], u'time': []}}, u'click': {u'state': {u'target': [u'1', u'4', u'5', u'2', u'3', u'6', u'7', u'9', u'9', u'9'], u'time': [4054, 5789, 7062, 8622, 9904, 11524, 12621, 14456, 14583, 14810]}, u'edge': {u'target': [], u'time': []}}, u'mouseout': {u'state': {u'target': [], u'time': []}, u'edge': {u'target': [], u'time': []}}}",,"[-2, 7, 2]","[15385, 813, 827]",7.0,"[None, None, None]",,275760,18.0,5096791.0,mouselab-mdp,2
"[11245, 12008, 12872]","[u'up', u'right', u'right']",train_inspector,,,"[u'0', u'1', u'2', u'3']","{u'mouseover': {u'state': {u'target': [], u'time': []}, u'edge': {u'target': [], u'time': []}}, u'click': {u'state': {u'target': [u'5', u'4', u'1', u'2', u'3', u'8', u'7', u'6', u'9', u'10'], u'time': [1914, 3051, 3969, 4909, 5802, 6855, 7735, 8600, 9477, 10347]}, u'edge': {u'target': [], u'time': []}}, u'mouseout': {u'state': {u'target': [], u'time': []}, u'edge': {u'target': [], u'time': []}}}",,"[2, -7, 2]","[11244, 272, 367]",-3.0,"[None, None, None]",,291628,19.0,43481056.0,mouselab-mdp,2
"[10044, 12561, 13394]","[u'up', u'right', u'right']",train_inspect_cost,,,"[u'0', u'1', u'2', u'3']","{u'mouseover': {u'state': {u'target': [], u'time': []}, u'edge': {u'target': [], u'time': []}}, u'click': {u'state': {u'target': [], u'time': []}, u'edge': {u'target': [], u'time': []}}, u'mouseout': {u'state': {u'target': [], u'time': []}, u'edge': {u'target': [], u'time': []}}}",,"[2, 2, 2]","[10041, 2016, 342]",6.0,"[None, None, None]",,309905,20.0,28032132.0,mouselab-mdp,2
"[9427, 11094, 12110]","[u'up', u'left', u'left']",train_inspect_cost,,,"[u'0', u'1', u'4', u'5']","{u'mouseover': {u'state': {u'target': [], u'time': []}, u'edge': {u'target': [], u'time': []}}, u'click': {u'state': {u'target': [u'4'], u'time': [4207]}, u'edge': {u'target': [], u'time': []}}, u'mouseout': {u'state': {u'target': [], u'time': []}, u'edge': {u'target': [], u'time': []}}}",,"[-7, 7, 2]","[9425, 1161, 524]",1.0,"[None, None, None]",,325917,21.0,92551833.0,mouselab-mdp,2
"[5120, 6428, 7524]","[u'up', u'left', u'left']",train_inspect_cost,,,"[u'0', u'1', u'4', u'5']","{u'mouseover': {u'state': {u'target': [], u'time': []}, u'edge': {u'target': [], u'time': []}}, u'click': {u'state': {u'target': [u'2', u'4'], u'time': [2562, 4527]}, u'edge': {u'target': [], u'time': []}}, u'mouseout': {u'state': {u'target': [], u'time': []}, u'edge': {u'target': [], u'time': []}}}",,"[2, 2, 7]","[5119, 812, 605]",9.0,"[None, None, None]",,336938,22.0,47273490.0,mouselab-mdp,2
"[5040, 6083, 7039]","[u'up', u'left', u'left']",train_inspect_cost,,,"[u'0', u'1', u'4', u'5']","{u'mouseover': {u'state': {u'target': [], u'time': []}, u'edge': {u'target': [], u'time': []}}, u'click': {u'state': {u'target': [u'2', u'4'], u'time': [2462, 4307]}, u'edge': {u'target': [], u'time': []}}, u'mouseout': {u'state': {u'target': [], u'time': []}, u'edge': {u'target': [], u'time': []}}}",,"[2, 7, -2]","[5039, 537, 457]",5.0,"[None, None, None]",,347139,23.0,67052857.0,mouselab-mdp,2
"[10800, 11649, 12962]","[u'up', u'left', u'left']",train_inspect_cost,,,"[u'0', u'1', u'4', u'5']","{u'mouseover': {u'state': {u'target': [], u'time': []}, u'edge': {u'target': [], u'time': []}}, u'click': {u'state': {u'target': [u'2', u'4'], u'time': [8100, 9751]}, u'edge': {u'target': [], u'time': []}}, u'mouseout': {u'state': {u'target': [], u'time': []}, u'edge': {u'target': [], u'time': []}}}",,"[-2, 12, -7]","[10799, 346, 806]",1.0,"[None, None, None]",,363344,24.0,83763680.0,mouselab-mdp,2
"[22838, 23763, 24906]","[u'up', u'left', u'left']",train_final,,,"[u'0', u'1', u'4', u'5']","{u'mouseover': {u'state': {u'target': [], u'time': []}, u'edge': {u'target': [], u'time': []}}, u'click': {u'state': {u'target': [u'4'], u'time': [18679]}, u'edge': {u'target': [], u'time': []}}, u'mouseout': {u'state': {u'target': [], u'time': []}, u'edge': {u'target': [], u'time': []}}}",,"[2, 7, -2]","[22837, 422, 646]",6.0,"[None, None, None]",,397226,25.0,48241612.0,mouselab-mdp,2
"[6368, 7394, 8409]","[u'up', u'right', u'right']",train_final,,,"[u'0', u'1', u'2', u'3']","{u'mouseover': {u'state': {u'target': [], u'time': []}, u'edge': {u'target': [], u'time': []}}, u'click': {u'state': {u'target': [u'4', u'2'], u'time': [2439, 5214]}, u'edge': {u'target': [], u'time': []}}, u'mouseout': {u'state': {u'target': [], u'time': []}, u'edge': {u'target': [], u'time': []}}}",,"[2, 7, 7]","[6367, 522, 517]",14.0,"[None, None, None]",,408683,26.0,125489.0,mouselab-mdp,2
"[3834, 4728, 6859]","[u'up', u'right', u'right']",train_final,,,"[u'0', u'1', u'2', u'3']","{u'mouseover': {u'state': {u'target': [], u'time': []}, u'edge': {u'target': [], u'time': []}}, u'click': {u'state': {u'target': [u'4', u'2'], u'time': [1517, 2925]}, u'edge': {u'target': [], u'time': []}}, u'mouseout': {u'state': {u'target': [], u'time': []}, u'edge': {u'target': [], u'time': []}}}",,"[7, 2, -2]","[3833, 400, 1629]",5.0,"[None, None, None]",,418812,27.0,32642478.0,mouselab-mdp,2
"[11115, 12090, 13207]","[u'up', u'left', u'left']",train_final,,,"[u'0', u'1', u'4', u'5']","{u'mouseover': {u'state': {u'target': [], u'time': []}, u'edge': {u'target': [], u'time': []}}, u'click': {u'state': {u'target': [u'4', u'2', u'5', u'3'], u'time': [2588, 4279, 8463, 10448]}, u'edge': {u'target': [], u'time': []}}, u'mouseout': {u'state': {u'target': [], u'time': []}, u'edge': {u'target': [], u'time': []}}}",,"[12, -2, 7]","[11114, 478, 625]",13.0,"[None, None, None]",,434628,28.0,30566367.0,mouselab-mdp,2
"[5241, 6010, 6937]","[u'up', u'left', u'left']",train_final,,,"[u'0', u'1', u'4', u'5']","{u'mouseover': {u'state': {u'target': [], u'time': []}, u'edge': {u'target': [], u'time': []}}, u'click': {u'state': {u'target': [u'4', u'2'], u'time': [2710, 4276]}, u'edge': {u'target': [], u'time': []}}, u'mouseout': {u'state': {u'target': [], u'time': []}, u'edge': {u'target': [], u'time': []}}}",,"[-2, 2, -7]","[5240, 271, 429]",-9.0,"[None, None, None]",,444438,29.0,38346514.0,mouselab-mdp,2
"[5200, 6062, 7026]","[u'up', u'left', u'left']",test,,,"[u'0', u'1', u'4', u'5']","{u'mouseover': {u'state': {u'target': [], u'time': []}, u'edge': {u'target': [], u'time': []}}, u'click': {u'state': {u'target': [u'2', u'4'], u'time': [3018, 4573]}, u'edge': {u'target': [], u'time': []}}, u'mouseout': {u'state': {u'target': [], u'time': []}, u'edge': {u'target': [], u'time': []}}}",,"[-7, 2, 2]","[5197, 349, 460]",-5.0,"[None, None, None]",,464239,30.0,93779005.0,mouselab-mdp,2
"[10414, 11666, 13199]","[u'up', u'left', u'left']",test,,,"[u'0', u'1', u'4', u'5']","{u'mouseover': {u'state': {u'target': [], u'time': []}, u'edge': {u'target': [], u'time': []}}, u'click': {u'state': {u'target': [u'2'], u'time': [2942]}, u'edge': {u'target': [], u'time': []}}, u'mouseout': {u'state': {u'target': [], u'time': []}, u'edge': {u'target': [], u'time': []}}}",,"[7, -12, 7]","[10411, 744, 1041]",1.0,"[None, None, None]",,481751,31.0,11009119.0,mouselab-mdp,2
"[3383, 4277, 5270]","[u'up', u'right', u'right']",test,,,"[u'0', u'1', u'2', u'3']","{u'mouseover': {u'state': {u'target': [], u'time': []}, u'edge': {u'target': [], u'time': []}}, u'click': {u'state': {u'target': [u'2'], u'time': [1784]}, u'edge': {u'target': [], u'time': []}}, u'mouseout': {u'state': {u'target': [], u'time': []}, u'edge': {u'target': [], u'time': []}}}",,"[-12, 7, 2]","[3381, 400, 489]",-4.0,"[None, None, None]",,489845,32.0,9507809.0,mouselab-mdp,2
"[3848, 4812, 5698]","[u'up', u'left', u'left']",test,,,"[u'0', u'1', u'4', u'5']","{u'mouseover': {u'state': {u'target': [], u'time': []}, u'edge': {u'target': [], u'time': []}}, u'click': {u'state': {u'target': [u'2', u'4'], u'time': [1648, 2984]}, u'edge': {u'target': [], u'time': []}}, u'mouseout': {u'state': {u'target': [], u'time': []}, u'edge': {u'target': [], u'time': []}}}",,"[-2, 7, -2]","[3846, 455, 389]",1.0,"[None, None, None]",,498439,33.0,72864550.0,mouselab-mdp,2
"[9564, 10268, 10965]","[u'up', u'left', u'left']",test,,,"[u'0', u'1', u'4', u'5']","{u'mouseover': {u'state': {u'target': [], u'time': []}, u'edge': {u'target': [], u'time': []}}, u'click': {u'state': {u'target': [u'7', u'7', u'7', u'7', u'7', u'7', u'1', u'4'], u'time': [1960, 2791, 2883, 3199, 3793, 3903, 6917, 9103]}, u'edge': {u'target': [], u'time': []}}, u'mouseout': {u'state': {u'target': [], u'time': []}, u'edge': {u'target': [], u'time': []}}}",,"[-2, 2, -2]","[9562, 202, 196]",-10.0,"[None, None, None]",,512250,34.0,35455760.0,mouselab-mdp,2
"[3873, 4490, 5282]","[u'up', u'left', u'left']",test,,,"[u'0', u'1', u'4', u'5']","{u'mouseover': {u'state': {u'target': [], u'time': []}, u'edge': {u'target': [], u'time': []}}, u'click': {u'state': {u'target': [u'2', u'4'], u'time': [1378, 3161]}, u'edge': {u'target': [], u'time': []}}, u'mouseout': {u'state': {u'target': [], u'time': []}, u'edge': {u'target': [], u'time': []}}}",,"[-2, 7, -2]","[3871, 116, 289]",1.0,"[None, None, None]",,520667,35.0,24775129.0,mouselab-mdp,2
"[4497, 5399, 6110]","[u'up', u'left', u'left']",test,,,"[u'0', u'1', u'4', u'5']","{u'mouseover': {u'state': {u'target': [], u'time': []}, u'edge': {u'target': [], u'time': []}}, u'click': {u'state': {u'target': [u'2', u'4'], u'time': [1951, 3220]}, u'edge': {u'target': [], u'time': []}}, u'mouseout': {u'state': {u'target': [], u'time': []}, u'edge': {u'target': [], u'time': []}}}",,"[-2, -2, 2]","[4496, 398, 207]",-4.0,"[None, None, None]",,530003,36.0,67890317.0,mouselab-mdp,2
"[5980, 6757, 7494]","[u'up', u'left', u'left']",test,,,"[u'0', u'1', u'4', u'5']","{u'mouseover': {u'state': {u'target': [], u'time': []}, u'edge': {u'target': [], u'time': []}}, u'click': {u'state': {u'target': [u'2', u'4'], u'time': [1295, 2592]}, u'edge': {u'target': [], u'time': []}}, u'mouseout': {u'state': {u'target': [], u'time': []}, u'edge': {u'target': [], u'time': []}}}",,"[-2, 2, -2]","[5979, 274, 243]",-4.0,"[None, None, None]",,539669,37.0,2669478.0,mouselab-mdp,2
"[1220, 2015, 2851]","[u'up', u'right', u'right']",test,,,"[u'0', u'1', u'2', u'3']","{u'mouseover': {u'state': {u'target': [], u'time': []}, u'edge': {u'target': [], u'time': []}}, u'click': {u'state': {u'target': [], u'time': []}, u'edge': {u'target': [], u'time': []}}, u'mouseout': {u'state': {u'target': [], u'time': []}, u'edge': {u'target': [], u'time': []}}}",,"[-7, 2, -2]","[1218, 288, 339]",-7.0,"[None, None, None]",,544579,38.0,75526234.0,mouselab-mdp,2
"[672, 1522, 2433]","[u'up', u'left', u'left']",test,,,"[u'0', u'1', u'4', u'5']","{u'mouseover': {u'state': {u'target': [], u'time': []}, u'edge': {u'target': [], u'time': []}}, u'click': {u'state': {u'target': [], u'time': []}, u'edge': {u'target': [], u'time': []}}, u'mouseout': {u'state': {u'target': [], u'time': []}, u'edge': {u'target': [], u'time': []}}}",,"[-2, 2, -2]","[671, 350, 409]",-2.0,"[None, None, None]",,549250,39.0,59860607.0,mouselab-mdp,2
"[513, 1525, 2267]","[u'up', u'left', u'left']",test,,,"[u'0', u'1', u'4', u'5']","{u'mouseover': {u'state': {u'target': [], u'time': []}, u'edge': {u'target': [], u'time': []}}, u'click': {u'state': {u'target': [], u'time': []}, u'edge': {u'target': [], u'time': []}}, u'mouseout': {u'state': {u'target': [], u'time': []}, u'edge': {u'target': [], u'time': []}}}",,"[2, -2, 2]","[511, 506, 247]",2.0,"[None, None, None]",,553409,40.0,62434631.0,mouselab-mdp,2
"[446, 1287, 2004]","[u'up', u'left', u'left']",test,,,"[u'0', u'1', u'4', u'5']","{u'mouseover': {u'state': {u'target': [], u'time': []}, u'edge': {u'target': [], u'time': []}}, u'click': {u'state': {u'target': [], u'time': []}, u'edge': {u'target': [], u'time': []}}, u'mouseout': {u'state': {u'target': [], u'time': []}, u'edge': {u'target': [], u'time': []}}}",,"[-12, 12, 2]","[442, 338, 222]",2.0,"[None, None, None]",,557681,41.0,86493311.0,mouselab-mdp,2
"[643, 1485, 2115]","[u'up', u'left', u'left']",test,,,"[u'0', u'1', u'4', u'5']","{u'mouseover': {u'state': {u'target': [], u'time': []}, u'edge': {u'target': [], u'time': []}}, u'click': {u'state': {u'target': [], u'time': []}, u'edge': {u'target': [], u'time': []}}, u'mouseout': {u'state': {u'target': [], u'time': []}, u'edge': {u'target': [], u'time': []}}}",,"[2, -7, -12]","[642, 337, 134]",-17.0,"[None, None, None]",,561656,42.0,55471091.0,mouselab-mdp,2
"[425, 1224, 2098]","[u'up', u'left', u'left']",test,,,"[u'0', u'1', u'4', u'5']","{u'mouseover': {u'state': {u'target': [], u'time': []}, u'edge': {u'target': [], u'time': []}}, u'click': {u'state': {u'target': [], u'time': []}, u'edge': {u'target': [], u'time': []}}, u'mouseout': {u'state': {u'target': [], u'time': []}, u'edge': {u'target': [], u'time': []}}}",,"[-2, 7, 2]","[424, 297, 369]",7.0,"[None, None, None]",,565896,43.0,27136159.0,mouselab-mdp,2
"[658, 1335, 1957]","[u'up', u'right', u'right']",test,,,"[u'0', u'1', u'2', u'3']","{u'mouseover': {u'state': {u'target': [], u'time': []}, u'edge': {u'target': [], u'time': []}}, u'click': {u'state': {u'target': [], u'time': []}, u'edge': {u'target': [], u'time': []}}, u'mouseout': {u'state': {u'target': [], u'time': []}, u'edge': {u'target': [], u'time': []}}}",,"[2, -7, -7]","[657, 181, 118]",-12.0,"[None, None, None]",,570201,44.0,72698287.0,mouselab-mdp,2
"[470, 1137, 1839]","[u'up', u'left', u'left']",test,,,"[u'0', u'1', u'4', u'5']","{u'mouseover': {u'state': {u'target': [], u'time': []}, u'edge': {u'target': [], u'time': []}}, u'click': {u'state': {u'target': [], u'time': []}, u'edge': {u'target': [], u'time': []}}, u'mouseout': {u'state': {u'target': [], u'time': []}, u'edge': {u'target': [], u'time': []}}}",,"[2, 2, -2]","[469, 159, 206]",2.0,"[None, None, None]",,574088,45.0,7579507.0,mouselab-mdp,2
"[444, 1338, 2024]","[u'up', u'left', u'left']",test,,,"[u'0', u'1', u'4', u'5']","{u'mouseover': {u'state': {u'target': [], u'time': []}, u'edge': {u'target': [], u'time': []}}, u'click': {u'state': {u'target': [], u'time': []}, u'edge': {u'target': [], u'time': []}}, u'mouseout': {u'state': {u'target': [], u'time': []}, u'edge': {u'target': [], u'time': []}}}",,"[-2, -2, 7]","[442, 391, 190]",3.0,"[None, None, None]",,577997,46.0,40578657.0,mouselab-mdp,2
"[426, 1030, 1622]","[u'up', u'left', u'left']",test,,,"[u'0', u'1', u'4', u'5']","{u'mouseover': {u'state': {u'target': [], u'time': []}, u'edge': {u'target': [], u'time': []}}, u'click': {u'state': {u'target': [], u'time': []}, u'edge': {u'target': [], u'time': []}}, u'mouseout': {u'state': {u'target': [], u'time': []}, u'edge': {u'target': [], u'time': []}}}",,"[2, -2, -2]","[423, 102, 93]",-2.0,"[None, None, None]",,581674,47.0,99122561.0,mouselab-mdp,2
"[415, 1006, 2176]","[u'up', u'left', u'left']",test,,,"[u'0', u'1', u'4', u'5']","{u'mouseover': {u'state': {u'target': [], u'time': []}, u'edge': {u'target': [], u'time': []}}, u'click': {u'state': {u'target': [], u'time': []}, u'edge': {u'target': [], u'time': []}}, u'mouseout': {u'state': {u'target': [], u'time': []}, u'edge': {u'target': [], u'time': []}}}",,"[2, -7, 2]","[414, 92, 679]",-3.0,"[None, None, None]",,585690,48.0,29966056.0,mouselab-mdp,2
"[525, 1147, 1799]","[u'up', u'left', u'left']",test,,,"[u'0', u'1', u'4', u'5']","{u'mouseover': {u'state': {u'target': [], u'time': []}, u'edge': {u'target': [], u'time': []}}, u'click': {u'state': {u'target': [], u'time': []}, u'edge': {u'target': [], u'time': []}}, u'mouseout': {u'state': {u'target': [], u'time': []}, u'edge': {u'target': [], u'time': []}}}",,"[2, 7, -2]","[523, 118, 157]",7.0,"[None, None, None]",,589422,49.0,48605196.0,mouselab-mdp,2
