p_rdata,action_times,actions,beliefs,correct,delays,information_used_correctly,meta_actions,path,planned_too_little,planned_too_much,queries,questions,responses,rt,score,time_elapsed,trial_index,trial_id,trial_type,view_history,pid
"[{u'Q': 20, u'action': u'__TERM_ACTION__', u'Qs': {u'1': 20, u'9': 4, u'13': -28, u'5': 20}, u'state': [0, 12, u'__', u'__', u'__', u'__', u'__', u'__', u'__', u'__', u'__', u'__', u'__', u'__', u'__', u'__', u'__'], u'V': 20}]","[11219, 28273, 34591]","[u'0', u'0', u'3']","[[0, u'__', u'__', u'__', u'__', u'__', u'__', u'__', u'__', u'__', u'__', u'__', u'__', u'__', u'__', u'__', u'__'], [0, 12, u'__', u'__', u'__', u'__', u'__', u'__', u'__', u'__', u'__', u'__', u'__', u'__', u'__', u'__', u'__']]",,[15],[True],"[1, u'__TERM_ACTION__']","[0, 1, 2, 4]",[False],[False],"{u'mouseover': {u'state': {u'target': [], u'time': []}, u'edge': {u'target': [], u'time': []}}, u'click': {u'state': {u'target': [1], u'time': [2869]}, u'edge': {u'target': [], u'time': []}}, u'mouseout': {u'state': {u'target': [], u'time': []}, u'edge': {u'target': [], u'time': []}}}",,,"[11219, 1535, 5801]",10.75,205438,1.0,8969.0,mouselab-mdp,,0
"[{u'Q': 20, u'action': u'__TERM_ACTION__', u'Qs': {u'1': -4, u'9': 20, u'13': 4, u'5': 12}, u'state': [0, 4, u'__', u'__', u'__', 4, u'__', u'__', u'__', 20, u'__', u'__', u'__', u'__', u'__', u'__', u'__'], u'V': 20}]","[13147, 32672, 35775]","[u'2', u'2', u'1']","[[0, u'__', u'__', u'__', u'__', u'__', u'__', u'__', u'__', u'__', u'__', u'__', u'__', u'__', u'__', u'__', u'__'], [0, u'__', u'__', u'__', u'__', 4, u'__', u'__', u'__', u'__', u'__', u'__', u'__', u'__', u'__', u'__', u'__'], [0, u'__', u'__', u'__', u'__', 4, u'__', u'__', u'__', 20, u'__', u'__', u'__', u'__', u'__', u'__', u'__'], [0, 4, u'__', u'__', u'__', 4, u'__', u'__', u'__', 20, u'__', u'__', u'__', u'__', u'__', u'__', u'__']]",,[15],[True],"[5, 9, 1, u'__TERM_ACTION__']","[0, 9, 10, 12]",[False],[False],"{u'mouseover': {u'state': {u'target': [], u'time': []}, u'edge': {u'target': [], u'time': []}}, u'click': {u'state': {u'target': [5, 9, 1], u'time': [1998, 4708, 11014]}, u'edge': {u'target': [], u'time': []}}, u'mouseout': {u'state': {u'target': [], u'time': []}, u'edge': {u'target': [], u'time': []}}}",,,"[13146, 4008, 2584]",0.25,285588,2.0,9359.0,mouselab-mdp,,0
"[{u'Q': 20, u'action': u'__TERM_ACTION__', u'Qs': {u'1': -20, u'9': 20, u'13': 20, u'5': 12}, u'state': [0, u'__', u'__', u'__', u'__', u'__', u'__', u'__', u'__', 4, u'__', 4, -12, u'__', u'__', -4, 4], u'V': 20}]","[14037, 37723, 38677]","[u'2', u'2', u'3']","[[0, u'__', u'__', u'__', u'__', u'__', u'__', u'__', u'__', u'__', u'__', u'__', u'__', u'__', u'__', u'__', u'__'], [0, u'__', u'__', u'__', u'__', u'__', u'__', u'__', u'__', 4, u'__', u'__', u'__', u'__', u'__', u'__', u'__'], [0, u'__', u'__', u'__', u'__', u'__', u'__', u'__', u'__', 4, u'__', u'__', -12, u'__', u'__', u'__', u'__'], [0, u'__', u'__', u'__', u'__', u'__', u'__', u'__', u'__', 4, u'__', 4, -12, u'__', u'__', u'__', u'__'], [0, u'__', u'__', u'__', u'__', u'__', u'__', u'__', u'__', 4, u'__', 4, -12, u'__', u'__', -4, u'__'], [0, u'__', u'__', u'__', u'__', u'__', u'__', u'__', u'__', 4, u'__', 4, -12, u'__', u'__', -4, 4]]",,[15],[True],"[9, 12, 11, 15, 16, u'__TERM_ACTION__']","[0, 9, 10, 11]",[False],[False],"{u'mouseover': {u'state': {u'target': [], u'time': []}, u'edge': {u'target': [], u'time': []}}, u'click': {u'state': {u'target': [9, 12, 11, 15, 16], u'time': [1647, 2669, 3494, 9504, 12246]}, u'edge': {u'target': [], u'time': []}}, u'mouseout': {u'state': {u'target': [], u'time': []}, u'edge': {u'target': [], u'time': []}}}",,,"[14037, 8168, 441]",13.75,352204,3.0,9876.0,mouselab-mdp,,0
"[{u'Q': 4, u'action': u'__TERM_ACTION__', u'Qs': {u'1': -20, u'9': 12, u'13': 4, u'5': 20}, u'state': [0, u'__', u'__', u'__', u'__', u'__', u'__', u'__', 4, u'__', u'__', u'__', u'__', -4, u'__', 4, 4], u'V': 20}]","[10560, 26729, 28393]","[u'3', u'3', u'0']","[[0, u'__', u'__', u'__', u'__', u'__', u'__', u'__', u'__', u'__', u'__', u'__', u'__', u'__', u'__', u'__', u'__'], [0, u'__', u'__', u'__', u'__', u'__', u'__', u'__', 4, u'__', u'__', u'__', u'__', u'__', u'__', u'__', u'__'], [0, u'__', u'__', u'__', u'__', u'__', u'__', u'__', 4, u'__', u'__', u'__', u'__', u'__', u'__', u'__', 4], [0, u'__', u'__', u'__', u'__', u'__', u'__', u'__', 4, u'__', u'__', u'__', u'__', u'__', u'__', 4, 4], [0, u'__', u'__', u'__', u'__', u'__', u'__', u'__', 4, u'__', u'__', u'__', u'__', -4, u'__', 4, 4]]",,[15],[False],"[8, 16, 15, 13, u'__TERM_ACTION__']","[0, 13, 14, 15]",[True],[False],"{u'mouseover': {u'state': {u'target': [], u'time': []}, u'edge': {u'target': [], u'time': []}}, u'click': {u'state': {u'target': [8, 16, 15, 13], u'time': [1763, 6739, 7771, 8444]}, u'edge': {u'target': [], u'time': []}}, u'mouseout': {u'state': {u'target': [], u'time': []}, u'edge': {u'target': [], u'time': []}}}",,,"[10560, 645, 1160]",-1.0,419608,4.0,6615.0,mouselab-mdp,,0
"[{u'Q': 20, u'action': u'__TERM_ACTION__', u'Qs': {u'1': -12, u'9': 20, u'13': -4, u'5': 20}, u'state': [0, u'__', u'__', u'__', u'__', u'__', u'__', u'__', u'__', u'__', u'__', u'__', u'__', u'__', u'__', u'__', u'__'], u'V': 20}]","[3405, 23072, 66331]","[u'1', u'1', u'0']","[[0, u'__', u'__', u'__', u'__', u'__', u'__', u'__', u'__', u'__', u'__', u'__', u'__', u'__', u'__', u'__', u'__']]",,[15],[True],[u'__TERM_ACTION__'],"[0, 5, 6, 8]",[False],[False],"{u'mouseover': {u'state': {u'target': [], u'time': []}, u'edge': {u'target': [], u'time': []}}, u'click': {u'state': {u'target': [], u'time': []}, u'edge': {u'target': [], u'time': []}}, u'mouseout': {u'state': {u'target': [], u'time': []}, u'edge': {u'target': [], u'time': []}}}",,,"[3405, 4159, 42755]",20.0,489768,5.0,5157.0,mouselab-mdp,,0
"[{u'Q': 20, u'action': u'__TERM_ACTION__', u'Qs': {u'1': 4, u'9': -4, u'13': 20, u'5': 20}, u'state': [0, -4, u'__', u'__', u'__', 4, u'__', u'__', u'__', -12, u'__', u'__', u'__', u'__', u'__', u'__', u'__'], u'V': 20}]","[8692, 25672, 27321]","[u'1', u'1', u'2']","[[0, u'__', u'__', u'__', u'__', u'__', u'__', u'__', u'__', u'__', u'__', u'__', u'__', u'__', u'__', u'__', u'__'], [0, u'__', u'__', u'__', u'__', u'__', u'__', u'__', u'__', -12, u'__', u'__', u'__', u'__', u'__', u'__', u'__'], [0, -4, u'__', u'__', u'__', u'__', u'__', u'__', u'__', -12, u'__', u'__', u'__', u'__', u'__', u'__', u'__'], [0, -4, u'__', u'__', u'__', 4, u'__', u'__', u'__', -12, u'__', u'__', u'__', u'__', u'__', u'__', u'__']]",,[15],[True],"[9, 1, 5, u'__TERM_ACTION__']","[0, 5, 6, 7]",[False],[False],"{u'mouseover': {u'state': {u'target': [], u'time': []}, u'edge': {u'target': [], u'time': []}}, u'click': {u'state': {u'target': [9, 1, 5], u'time': [5647, 6733, 7580]}, u'edge': {u'target': [], u'time': []}}, u'mouseout': {u'state': {u'target': [], u'time': []}, u'edge': {u'target': [], u'time': []}}}",,,"[8691, 1468, 1129]",16.25,556214,6.0,7410.0,mouselab-mdp,,0
"[{u'Q': 12, u'action': u'__TERM_ACTION__', u'Qs': {u'1': 4, u'9': 20, u'13': 12, u'5': -12}, u'state': [0, 4, u'__', -4, -4, u'__', u'__', u'__', u'__', u'__', u'__', u'__', u'__', u'__', u'__', u'__', u'__'], u'V': 20}]","[5194, 21946, 22928]","[u'3', u'3', u'0']","[[0, u'__', u'__', u'__', u'__', u'__', u'__', u'__', u'__', u'__', u'__', u'__', u'__', u'__', u'__', u'__', u'__'], [0, 4, u'__', u'__', u'__', u'__', u'__', u'__', u'__', u'__', u'__', u'__', u'__', u'__', u'__', u'__', u'__'], [0, 4, u'__', -4, u'__', u'__', u'__', u'__', u'__', u'__', u'__', u'__', u'__', u'__', u'__', u'__', u'__'], [0, 4, u'__', -4, -4, u'__', u'__', u'__', u'__', u'__', u'__', u'__', u'__', u'__', u'__', u'__', u'__']]",,[15],[True],"[1, 3, 4, u'__TERM_ACTION__']","[0, 13, 14, 15]",[True],[False],"{u'mouseover': {u'state': {u'target': [], u'time': []}, u'edge': {u'target': [], u'time': []}}, u'click': {u'state': {u'target': [1, 3, 4], u'time': [1547, 2215, 2997]}, u'edge': {u'target': [], u'time': []}}, u'mouseout': {u'state': {u'target': [], u'time': []}, u'edge': {u'target': [], u'time': []}}}",,,"[5194, 1242, 471]",8.25,623174,7.0,6264.0,mouselab-mdp,,0
"[{u'Q': 12, u'action': u'__TERM_ACTION__', u'Qs': {u'1': 20, u'9': -12, u'13': 4, u'5': 12}, u'state': [0, u'__', u'__', u'__', u'__', 4, u'__', u'__', u'__', -20, u'__', u'__', u'__', u'__', u'__', u'__', u'__'], u'V': 20}]","[4244, 20830, 21732]","[u'1', u'1', u'2']","[[0, u'__', u'__', u'__', u'__', u'__', u'__', u'__', u'__', u'__', u'__', u'__', u'__', u'__', u'__', u'__', u'__'], [0, u'__', u'__', u'__', u'__', u'__', u'__', u'__', u'__', -20, u'__', u'__', u'__', u'__', u'__', u'__', u'__'], [0, u'__', u'__', u'__', u'__', 4, u'__', u'__', u'__', -20, u'__', u'__', u'__', u'__', u'__', u'__', u'__']]",,[15],[True],"[9, 5, u'__TERM_ACTION__']","[0, 5, 6, 7]",[True],[False],"{u'mouseover': {u'state': {u'target': [], u'time': []}, u'edge': {u'target': [], u'time': []}}, u'click': {u'state': {u'target': [9, 5], u'time': [1690, 3103]}, u'edge': {u'target': [], u'time': []}}, u'mouseout': {u'state': {u'target': [], u'time': []}, u'edge': {u'target': [], u'time': []}}}",,,"[4244, 1069, 385]",-6.5,714618,8.0,7618.0,mouselab-mdp,,0
"[{u'Q': 20, u'action': u'__TERM_ACTION__', u'Qs': {u'1': 20, u'9': -12, u'13': 4, u'5': 20}, u'state': [0, 12, u'__', u'__', u'__', u'__', u'__', u'__', u'__', u'__', u'__', u'__', u'__', u'__', u'__', u'__', u'__'], u'V': 20}]","[2377, 18945, 19760]","[u'0', u'0', u'1']","[[0, u'__', u'__', u'__', u'__', u'__', u'__', u'__', u'__', u'__', u'__', u'__', u'__', u'__', u'__', u'__', u'__'], [0, 12, u'__', u'__', u'__', u'__', u'__', u'__', u'__', u'__', u'__', u'__', u'__', u'__', u'__', u'__', u'__']]",,[15],[True],"[1, u'__TERM_ACTION__']","[0, 1, 2, 3]",[False],[False],"{u'mouseover': {u'state': {u'target': [], u'time': []}, u'edge': {u'target': [], u'time': []}}, u'click': {u'state': {u'target': [1], u'time': [1046]}, u'edge': {u'target': [], u'time': []}}, u'mouseout': {u'state': {u'target': [], u'time': []}, u'edge': {u'target': [], u'time': []}}}",,,"[2377, 1061, 307]",10.75,922374,9.0,8818.0,mouselab-mdp,,0
"[{u'Q': -12, u'action': u'__TERM_ACTION__', u'Qs': {u'1': -12, u'9': 4, u'13': 20, u'5': -12}, u'state': [0, 4, u'__', u'__', u'__', 4, u'__', u'__', u'__', -12, u'__', u'__', u'__', u'__', u'__', u'__', u'__'], u'V': 20}]","[4442, 21106, 21867]","[u'0', u'0', u'3']","[[0, u'__', u'__', u'__', u'__', u'__', u'__', u'__', u'__', u'__', u'__', u'__', u'__', u'__', u'__', u'__', u'__'], [0, 4, u'__', u'__', u'__', u'__', u'__', u'__', u'__', u'__', u'__', u'__', u'__', u'__', u'__', u'__', u'__'], [0, 4, u'__', u'__', u'__', u'__', u'__', u'__', u'__', -12, u'__', u'__', u'__', u'__', u'__', u'__', u'__'], [0, 4, u'__', u'__', u'__', 4, u'__', u'__', u'__', -12, u'__', u'__', u'__', u'__', u'__', u'__', u'__']]",,[15],[True],"[1, 9, 5, u'__TERM_ACTION__']","[0, 1, 2, 4]",[True],[False],"{u'mouseover': {u'state': {u'target': [], u'time': []}, u'edge': {u'target': [], u'time': []}}, u'click': {u'state': {u'target': [1, 9, 5], u'time': [1445, 2708, 3284]}, u'edge': {u'target': [], u'time': []}}, u'mouseout': {u'state': {u'target': [], u'time': []}, u'edge': {u'target': [], u'time': []}}}",,,"[4442, 1144, 252]",-15.75,997145,10.0,7003.0,mouselab-mdp,,0
,"[4964, 14397, 16252]","[u'2', u'2', u'3']","[[0, u'__', u'__', u'__', u'__', u'__', u'__', u'__', u'__', u'__', u'__', u'__', u'__', u'__', u'__', u'__', u'__'], [0, -12, u'__', u'__', u'__', u'__', u'__', u'__', u'__', u'__', u'__', u'__', u'__', u'__', u'__', u'__', u'__'], [0, -12, u'__', u'__', u'__', u'__', u'__', u'__', u'__', 20, u'__', u'__', u'__', u'__', u'__', u'__', u'__']]",,[],[],"[1, 9, u'__TERM_ACTION__']","[0, 9, 10, 11]",[],[],"{u'mouseover': {u'state': {u'target': [], u'time': []}, u'edge': {u'target': [], u'time': []}}, u'click': {u'state': {u'target': [1, 9], u'time': [2914, 4063]}, u'edge': {u'target': [], u'time': []}}, u'mouseout': {u'state': {u'target': [], u'time': []}, u'edge': {u'target': [], u'time': []}}}",,,"[4964, 8924, 1348]",1.5,1050019,11.0,6060.0,mouselab-mdp,,0
,"[4572, 6033, 9770]","[u'3', u'3', u'0']","[[0, u'__', u'__', u'__', u'__', u'__', u'__', u'__', u'__', u'__', u'__', u'__', u'__', u'__', u'__', u'__', u'__'], [0, 4, u'__', u'__', u'__', u'__', u'__', u'__', u'__', u'__', u'__', u'__', u'__', u'__', u'__', u'__', u'__'], [0, 4, u'__', u'__', u'__', -12, u'__', u'__', u'__', u'__', u'__', u'__', u'__', u'__', u'__', u'__', u'__'], [0, 4, u'__', u'__', u'__', -12, u'__', u'__', u'__', 4, u'__', u'__', u'__', u'__', u'__', u'__', u'__'], [0, 4, u'__', u'__', u'__', -12, u'__', u'__', u'__', 4, u'__', u'__', u'__', 12, u'__', u'__', u'__']]",,[],[],"[1, 5, 9, 13, u'__TERM_ACTION__']","[0, 13, 14, 15]",[],[],"{u'mouseover': {u'state': {u'target': [], u'time': []}, u'edge': {u'target': [], u'time': []}}, u'click': {u'state': {u'target': [1, 5, 9, 13], u'time': [1272, 2030, 2884, 3586]}, u'edge': {u'target': [], u'time': []}}, u'mouseout': {u'state': {u'target': [], u'time': []}, u'edge': {u'target': [], u'time': []}}}",,,"[4572, 943, 3225]",15.0,1130505,12.0,6426.0,mouselab-mdp,,0
,"[72604, 98243, 99060]","[u'0', u'0', u'3']","[[0, u'__', u'__', u'__', u'__', u'__', u'__', u'__', u'__', u'__', u'__', u'__', u'__', u'__', u'__', u'__', u'__'], [0, u'__', u'__', u'__', u'__', -4, u'__', u'__', u'__', u'__', u'__', u'__', u'__', u'__', u'__', u'__', u'__'], [0, 12, u'__', u'__', u'__', -4, u'__', u'__', u'__', u'__', u'__', u'__', u'__', u'__', u'__', u'__', u'__'], [0, 12, u'__', -4, u'__', -4, u'__', u'__', u'__', u'__', u'__', u'__', u'__', u'__', u'__', u'__', u'__'], [0, 12, u'__', -4, 20, -4, u'__', u'__', u'__', u'__', u'__', u'__', u'__', u'__', u'__', u'__', u'__']]",,[],[],"[5, 1, 3, 4, u'__TERM_ACTION__']","[0, 1, 2, 4]",[],[],"{u'mouseover': {u'state': {u'target': [], u'time': []}, u'edge': {u'target': [], u'time': []}}, u'click': {u'state': {u'target': [5, 1, 3, 4], u'time': [69224, 70094, 70886, 71671]}, u'edge': {u'target': [], u'time': []}}, u'mouseout': {u'state': {u'target': [], u'time': []}, u'edge': {u'target': [], u'time': []}}}",,,"[72604, 25126, 310]",23.0,1234247,13.0,6337.0,mouselab-mdp,,0
,"[4454, 6119, 6862]","[u'1', u'1', u'2']","[[0, u'__', u'__', u'__', u'__', u'__', u'__', u'__', u'__', u'__', u'__', u'__', u'__', u'__', u'__', u'__', u'__'], [0, u'__', u'__', u'__', u'__', 4, u'__', u'__', u'__', u'__', u'__', u'__', u'__', u'__', u'__', u'__', u'__'], [0, u'__', u'__', u'__', u'__', 4, u'__', 4, u'__', u'__', u'__', u'__', u'__', u'__', u'__', u'__', u'__'], [0, u'__', u'__', u'__', u'__', 4, u'__', 4, -12, u'__', u'__', u'__', u'__', u'__', u'__', u'__', u'__']]",,[],[],"[5, 7, 8, u'__TERM_ACTION__']","[0, 5, 6, 7]",[],[],"{u'mouseover': {u'state': {u'target': [], u'time': []}, u'edge': {u'target': [], u'time': []}}, u'click': {u'state': {u'target': [5, 7, 8], u'time': [985, 1681, 3050]}, u'edge': {u'target': [], u'time': []}}, u'mouseout': {u'state': {u'target': [], u'time': []}, u'edge': {u'target': [], u'time': []}}}",,,"[4454, 1144, 233]",0.25,1290535,14.0,7370.0,mouselab-mdp,,0
,"[3772, 4747, 5555]","[u'2', u'2', u'1']","[[0, u'__', u'__', u'__', u'__', u'__', u'__', u'__', u'__', u'__', u'__', u'__', u'__', u'__', u'__', u'__', u'__'], [0, u'__', u'__', u'__', u'__', -12, u'__', u'__', u'__', u'__', u'__', u'__', u'__', u'__', u'__', u'__', u'__'], [0, u'__', u'__', u'__', u'__', -12, u'__', u'__', u'__', 4, u'__', u'__', u'__', u'__', u'__', u'__', u'__'], [0, u'__', u'__', u'__', u'__', -12, u'__', u'__', u'__', 4, u'__', u'__', 20, u'__', u'__', u'__', u'__']]",,[],[],"[5, 9, 12, u'__TERM_ACTION__']","[0, 9, 10, 12]",[],[],"{u'mouseover': {u'state': {u'target': [], u'time': []}, u'edge': {u'target': [], u'time': []}}, u'click': {u'state': {u'target': [5, 9, 12], u'time': [1399, 2127, 2838]}, u'edge': {u'target': [], u'time': []}}, u'mouseout': {u'state': {u'target': [], u'time': []}, u'edge': {u'target': [], u'time': []}}}",,,"[3772, 466, 288]",16.25,1721025,15.0,5033.0,mouselab-mdp,,0
,"[5794, 6859, 8155]","[u'0', u'0', u'1']","[[0, u'__', u'__', u'__', u'__', u'__', u'__', u'__', u'__', u'__', u'__', u'__', u'__', u'__', u'__', u'__', u'__'], [0, u'__', u'__', u'__', u'__', 4, u'__', u'__', u'__', u'__', u'__', u'__', u'__', u'__', u'__', u'__', u'__'], [0, u'__', u'__', u'__', u'__', 4, u'__', -4, u'__', u'__', u'__', u'__', u'__', u'__', u'__', u'__', u'__'], [0, u'__', u'__', u'__', u'__', 4, u'__', -4, -12, u'__', u'__', u'__', u'__', u'__', u'__', u'__', u'__'], [0, 4, u'__', u'__', u'__', 4, u'__', -4, -12, u'__', u'__', u'__', u'__', u'__', u'__', u'__', u'__']]",,[],[],"[5, 7, 8, 1, u'__TERM_ACTION__']","[0, 1, 2, 3]",[],[],"{u'mouseover': {u'state': {u'target': [], u'time': []}, u'edge': {u'target': [], u'time': []}}, u'click': {u'state': {u'target': [5, 7, 8, 1], u'time': [1896, 2871, 3604, 4830]}, u'edge': {u'target': [], u'time': []}}, u'mouseout': {u'state': {u'target': [], u'time': []}, u'edge': {u'target': [], u'time': []}}}",,,"[5794, 557, 783]",7.0,1772471,16.0,5638.0,mouselab-mdp,,0
"[{u'Q': 4, u'action': u'__TERM_ACTION__', u'Qs': {u'1': 4, u'9': -4, u'13': 20, u'5': 4}, u'state': [0, u'__', u'__', u'__', u'__', 4, u'__', u'__', u'__', u'__', u'__', u'__', u'__', u'__', u'__', u'__', u'__'], u'V': 20}]","[17601, 29668, 31635]","[u'1', u'1', u'2']","[[0, u'__', u'__', u'__', u'__', u'__', u'__', u'__', u'__', u'__', u'__', u'__', u'__', u'__', u'__', u'__', u'__'], [0, u'__', u'__', u'__', u'__', 4, u'__', u'__', u'__', u'__', u'__', u'__', u'__', u'__', u'__', u'__', u'__']]",,[5],[True],"[5, u'__TERM_ACTION__']","[0, 5, 6, 7]",[True],[False],"{u'mouseover': {u'state': {u'target': [], u'time': []}, u'edge': {u'target': [], u'time': []}}, u'click': {u'state': {u'target': [5], u'time': [8904]}, u'edge': {u'target': [], u'time': []}}, u'mouseout': {u'state': {u'target': [], u'time': []}, u'edge': {u'target': [], u'time': []}}}",,,"[17600, 6535, 1439]",-24.0,231764,1.0,13397.0,mouselab-mdp,,1
"[{u'Q': -12, u'action': u'__TERM_ACTION__', u'Qs': {u'1': 12, u'9': -12, u'13': 12, u'5': 20}, u'state': [0, u'__', -12, u'__', u'__', u'__', u'__', u'__', u'__', u'__', u'__', u'__', u'__', u'__', -4, u'__', u'__'], u'V': 20}]","[9490, 15930, 17919]","[u'2', u'2', u'1']","[[0, u'__', u'__', u'__', u'__', u'__', u'__', u'__', u'__', u'__', u'__', u'__', u'__', u'__', u'__', u'__', u'__'], [0, u'__', -12, u'__', u'__', u'__', u'__', u'__', u'__', u'__', u'__', u'__', u'__', u'__', u'__', u'__', u'__'], [0, u'__', -12, u'__', u'__', u'__', u'__', u'__', u'__', u'__', u'__', u'__', u'__', u'__', -4, u'__', u'__']]",,[5],[True],"[2, 14, u'__TERM_ACTION__']","[0, 9, 10, 12]",[True],[False],"{u'mouseover': {u'state': {u'target': [], u'time': []}, u'edge': {u'target': [], u'time': []}}, u'click': {u'state': {u'target': [2, 14], u'time': [4615, 7675]}, u'edge': {u'target': [], u'time': []}}, u'mouseout': {u'state': {u'target': [], u'time': []}, u'edge': {u'target': [], u'time': []}}}",,,"[9490, 899, 1470]",-28.0,282916,2.0,12579.0,mouselab-mdp,,1
"[{u'Q': 20, u'action': u'__TERM_ACTION__', u'Qs': {u'1': 12, u'9': 12, u'13': -20, u'5': 20}, u'state': [0, u'__', u'__', u'__', u'__', u'__', 4, u'__', u'__', u'__', -4, u'__', u'__', u'__', u'__', u'__', u'__'], u'V': 20}]","[7935, 14044, 15820]","[u'1', u'1', u'0']","[[0, u'__', u'__', u'__', u'__', u'__', u'__', u'__', u'__', u'__', u'__', u'__', u'__', u'__', u'__', u'__', u'__'], [0, u'__', u'__', u'__', u'__', u'__', 4, u'__', u'__', u'__', u'__', u'__', u'__', u'__', u'__', u'__', u'__'], [0, u'__', u'__', u'__', u'__', u'__', 4, u'__', u'__', u'__', -4, u'__', u'__', u'__', u'__', u'__', u'__']]",,[5],[True],"[6, 10, u'__TERM_ACTION__']","[0, 5, 6, 8]",[False],[False],"{u'mouseover': {u'state': {u'target': [], u'time': []}, u'edge': {u'target': [], u'time': []}}, u'click': {u'state': {u'target': [6, 10], u'time': [1096, 2935]}, u'edge': {u'target': [], u'time': []}}, u'mouseout': {u'state': {u'target': [], u'time': []}, u'edge': {u'target': [], u'time': []}}}",,,"[7935, 573, 1247]",-4.0,330138,3.0,14313.0,mouselab-mdp,,1
"[{u'Q': 20, u'action': u'__TERM_ACTION__', u'Qs': {u'1': 4, u'9': -12, u'13': 20, u'5': 12}, u'state': [0, u'__', u'__', u'__', u'__', u'__', 4, 4, u'__', u'__', -20, u'__', u'__', u'__', 20, u'__', u'__'], u'V': 20}]","[9384, 15495, 17053]","[u'3', u'3', u'0']","[[0, u'__', u'__', u'__', u'__', u'__', u'__', u'__', u'__', u'__', u'__', u'__', u'__', u'__', u'__', u'__', u'__'], [0, u'__', u'__', u'__', u'__', u'__', 4, u'__', u'__', u'__', u'__', u'__', u'__', u'__', u'__', u'__', u'__'], [0, u'__', u'__', u'__', u'__', u'__', 4, 4, u'__', u'__', u'__', u'__', u'__', u'__', u'__', u'__', u'__'], [0, u'__', u'__', u'__', u'__', u'__', 4, 4, u'__', u'__', -20, u'__', u'__', u'__', u'__', u'__', u'__'], [0, u'__', u'__', u'__', u'__', u'__', 4, 4, u'__', u'__', -20, u'__', u'__', u'__', 20, u'__', u'__']]",,[5],[True],"[6, 7, 10, 14, u'__TERM_ACTION__']","[0, 13, 14, 15]",[False],[False],"{u'mouseover': {u'state': {u'target': [], u'time': []}, u'edge': {u'target': [], u'time': []}}, u'click': {u'state': {u'target': [6, 7, 10, 14], u'time': [1276, 3004, 4636, 6967]}, u'edge': {u'target': [], u'time': []}}, u'mouseout': {u'state': {u'target': [], u'time': []}, u'edge': {u'target': [], u'time': []}}}",,,"[9384, 571, 1037]",-4.0,379372,4.0,12675.0,mouselab-mdp,,1
"[{u'Q': 20, u'action': u'__TERM_ACTION__', u'Qs': {u'1': 12, u'9': 20, u'13': 20, u'5': -12}, u'state': [0, u'__', 4, u'__', u'__', u'__', -12, u'__', u'__', u'__', 4, u'__', u'__', u'__', 12, u'__', u'__'], u'V': 20}]","[12197, 18874, 20099]","[u'3', u'3', u'0']","[[0, u'__', u'__', u'__', u'__', u'__', u'__', u'__', u'__', u'__', u'__', u'__', u'__', u'__', u'__', u'__', u'__'], [0, u'__', u'__', u'__', u'__', u'__', -12, u'__', u'__', u'__', u'__', u'__', u'__', u'__', u'__', u'__', u'__'], [0, u'__', u'__', u'__', u'__', u'__', -12, u'__', u'__', u'__', u'__', u'__', u'__', u'__', 12, u'__', u'__'], [0, u'__', u'__', u'__', u'__', u'__', -12, u'__', u'__', u'__', 4, u'__', u'__', u'__', 12, u'__', u'__'], [0, u'__', 4, u'__', u'__', u'__', -12, u'__', u'__', u'__', 4, u'__', u'__', u'__', 12, u'__', u'__']]",,[5],[True],"[6, 14, 10, 2, u'__TERM_ACTION__']","[0, 13, 14, 15]",[False],[False],"{u'mouseover': {u'state': {u'target': [], u'time': []}, u'edge': {u'target': [], u'time': []}}, u'click': {u'state': {u'target': [6, 14, 10, 2], u'time': [2463, 4686, 6025, 9240]}, u'edge': {u'target': [], u'time': []}}, u'mouseout': {u'state': {u'target': [], u'time': []}, u'edge': {u'target': [], u'time': []}}}",,,"[12197, 1143, 703]",4.0,443363,5.0,10323.0,mouselab-mdp,,1
"[{u'Q': 20, u'action': u'__TERM_ACTION__', u'Qs': {u'1': -20, u'9': 12, u'13': 12, u'5': 20}, u'state': [0, u'__', u'__', u'__', u'__', u'__', 20, -4, u'__', u'__', u'__', u'__', u'__', u'__', u'__', u'__', u'__'], u'V': 20}]","[8829, 15008, 17283]","[u'1', u'1', u'0']","[[0, u'__', u'__', u'__', u'__', u'__', u'__', u'__', u'__', u'__', u'__', u'__', u'__', u'__', u'__', u'__', u'__'], [0, u'__', u'__', u'__', u'__', u'__', 20, u'__', u'__', u'__', u'__', u'__', u'__', u'__', u'__', u'__', u'__'], [0, u'__', u'__', u'__', u'__', u'__', 20, -4, u'__', u'__', u'__', u'__', u'__', u'__', u'__', u'__', u'__']]",,[5],[True],"[6, 7, u'__TERM_ACTION__']","[0, 5, 6, 8]",[False],[False],"{u'mouseover': {u'state': {u'target': [], u'time': []}, u'edge': {u'target': [], u'time': []}}, u'click': {u'state': {u'target': [6, 7], u'time': [3720, 6808]}, u'edge': {u'target': [], u'time': []}}, u'mouseout': {u'state': {u'target': [], u'time': []}, u'edge': {u'target': [], u'time': []}}}",,,"[8828, 650, 1758]",12.0,496362,6.0,12086.0,mouselab-mdp,,1
"[{u'Q': -12, u'action': u'__TERM_ACTION__', u'Qs': {u'1': 12, u'9': 20, u'13': 4, u'5': -12}, u'state': [0, u'__', u'__', u'__', u'__', u'__', u'__', u'__', u'__', u'__', 20, u'__', 4, u'__', u'__', u'__', u'__'], u'V': 20}]","[10245, 17543, 18899]","[u'1', u'1', u'2']","[[0, u'__', u'__', u'__', u'__', u'__', u'__', u'__', u'__', u'__', u'__', u'__', u'__', u'__', u'__', u'__', u'__'], [0, u'__', u'__', u'__', u'__', u'__', u'__', u'__', u'__', u'__', 20, u'__', u'__', u'__', u'__', u'__', u'__'], [0, u'__', u'__', u'__', u'__', u'__', u'__', u'__', u'__', u'__', 20, u'__', 4, u'__', u'__', u'__', u'__']]",,[5],[False],"[10, 12, u'__TERM_ACTION__']","[0, 5, 6, 7]",[True],[False],"{u'mouseover': {u'state': {u'target': [], u'time': []}, u'edge': {u'target': [], u'time': []}}, u'click': {u'state': {u'target': [10, 12], u'time': [3695, 6134]}, u'edge': {u'target': [], u'time': []}}, u'mouseout': {u'state': {u'target': [], u'time': []}, u'edge': {u'target': [], u'time': []}}}",,,"[10245, 1775, 832]",-20.0,546363,7.0,12291.0,mouselab-mdp,,1
"[{u'Q': 4, u'action': u'__TERM_ACTION__', u'Qs': {u'1': 4, u'9': 4, u'13': 20, u'5': -12}, u'state': [0, u'__', -12, u'__', u'__', u'__', -4, -4, u'__', u'__', -4, u'__', u'__', u'__', -4, u'__', u'__'], u'V': 20}]","[13030, 19029, 20330]","[u'2', u'2', u'3']","[[0, u'__', u'__', u'__', u'__', u'__', u'__', u'__', u'__', u'__', u'__', u'__', u'__', u'__', u'__', u'__', u'__'], [0, u'__', u'__', u'__', u'__', u'__', u'__', u'__', u'__', u'__', u'__', u'__', u'__', u'__', -4, u'__', u'__'], [0, u'__', -12, u'__', u'__', u'__', u'__', u'__', u'__', u'__', u'__', u'__', u'__', u'__', -4, u'__', u'__'], [0, u'__', -12, u'__', u'__', u'__', -4, u'__', u'__', u'__', u'__', u'__', u'__', u'__', -4, u'__', u'__'], [0, u'__', -12, u'__', u'__', u'__', -4, u'__', u'__', u'__', -4, u'__', u'__', u'__', -4, u'__', u'__'], [0, u'__', -12, u'__', u'__', u'__', -4, -4, u'__', u'__', -4, u'__', u'__', u'__', -4, u'__', u'__']]",,[5],[True],"[14, 2, 6, 10, 7, u'__TERM_ACTION__']","[0, 9, 10, 11]",[True],[False],"{u'mouseover': {u'state': {u'target': [], u'time': []}, u'edge': {u'target': [], u'time': []}}, u'click': {u'state': {u'target': [14, 2, 6, 10, 7], u'time': [3903, 5319, 7020, 8051, 10633]}, u'edge': {u'target': [], u'time': []}}, u'mouseout': {u'state': {u'target': [], u'time': []}, u'edge': {u'target': [], u'time': []}}}",,,"[13030, 480, 798]",-24.0,598354,8.0,14785.0,mouselab-mdp,,1
"[{u'Q': -4, u'action': u'__TERM_ACTION__', u'Qs': {u'1': -12, u'9': -4, u'13': 4, u'5': 20}, u'state': [0, -20, u'__', u'__', u'__', u'__', u'__', u'__', u'__', u'__', 4, u'__', u'__', u'__', -4, u'__', u'__'], u'V': 20}]","[9599, 15806, 18514]","[u'2', u'2', u'1']","[[0, u'__', u'__', u'__', u'__', u'__', u'__', u'__', u'__', u'__', u'__', u'__', u'__', u'__', u'__', u'__', u'__'], [0, u'__', u'__', u'__', u'__', u'__', u'__', u'__', u'__', u'__', 4, u'__', u'__', u'__', u'__', u'__', u'__'], [0, u'__', u'__', u'__', u'__', u'__', u'__', u'__', u'__', u'__', 4, u'__', u'__', u'__', -4, u'__', u'__'], [0, -20, u'__', u'__', u'__', u'__', u'__', u'__', u'__', u'__', 4, u'__', u'__', u'__', -4, u'__', u'__']]",,[5],[True],"[10, 14, 1, u'__TERM_ACTION__']","[0, 9, 10, 12]",[True],[False],"{u'mouseover': {u'state': {u'target': [], u'time': []}, u'edge': {u'target': [], u'time': []}}, u'click': {u'state': {u'target': [10, 14, 1], u'time': [2580, 5547, 7902]}, u'edge': {u'target': [], u'time': []}}, u'mouseout': {u'state': {u'target': [], u'time': []}, u'edge': {u'target': [], u'time': []}}}",,,"[9599, 677, 2189]",-16.0,655884,9.0,12615.0,mouselab-mdp,,1
"[{u'Q': 20, u'action': u'__TERM_ACTION__', u'Qs': {u'1': 12, u'9': -12, u'13': 20, u'5': 4}, u'state': [0, 4, u'__', -4, u'__', u'__', u'__', -12, u'__', u'__', u'__', -4, u'__', u'__', 4, u'__', u'__'], u'V': 20}]","[11559, 17528, 19307]","[u'3', u'3', u'2']","[[0, u'__', u'__', u'__', u'__', u'__', u'__', u'__', u'__', u'__', u'__', u'__', u'__', u'__', u'__', u'__', u'__'], [0, u'__', u'__', u'__', u'__', u'__', u'__', u'__', u'__', u'__', u'__', u'__', u'__', u'__', 4, u'__', u'__'], [0, 4, u'__', u'__', u'__', u'__', u'__', u'__', u'__', u'__', u'__', u'__', u'__', u'__', 4, u'__', u'__'], [0, 4, u'__', -4, u'__', u'__', u'__', u'__', u'__', u'__', u'__', u'__', u'__', u'__', 4, u'__', u'__'], [0, 4, u'__', -4, u'__', u'__', u'__', -12, u'__', u'__', u'__', u'__', u'__', u'__', 4, u'__', u'__'], [0, 4, u'__', -4, u'__', u'__', u'__', -12, u'__', u'__', u'__', -4, u'__', u'__', 4, u'__', u'__']]",,[5],[True],"[14, 1, 3, 7, 11, u'__TERM_ACTION__']","[0, 13, 14, 16]",[False],[False],"{u'mouseover': {u'state': {u'target': [], u'time': []}, u'edge': {u'target': [], u'time': []}}, u'click': {u'state': {u'target': [14, 1, 3, 7, 11], u'time': [781, 4713, 6581, 7797, 10043]}, u'edge': {u'target': [], u'time': []}}, u'mouseout': {u'state': {u'target': [], u'time': []}, u'edge': {u'target': [], u'time': []}}}",,,"[11559, 436, 1248]",-16.0,715900,10.0,13051.0,mouselab-mdp,,1
,"[18052, 19336, 20994]","[u'3', u'3', u'0']","[[0, u'__', u'__', u'__', u'__', u'__', u'__', u'__', u'__', u'__', u'__', u'__', u'__', u'__', u'__', u'__', u'__'], [0, u'__', u'__', u'__', u'__', u'__', u'__', u'__', u'__', u'__', -4, u'__', u'__', u'__', u'__', u'__', u'__'], [0, -12, u'__', u'__', u'__', u'__', u'__', u'__', u'__', u'__', -4, u'__', u'__', u'__', u'__', u'__', u'__'], [0, -12, u'__', u'__', u'__', u'__', u'__', u'__', u'__', u'__', -4, u'__', u'__', -4, u'__', u'__', u'__'], [0, -12, u'__', u'__', u'__', -4, u'__', u'__', u'__', u'__', -4, u'__', u'__', -4, u'__', u'__', u'__'], [0, -12, u'__', u'__', u'__', -4, u'__', -12, u'__', u'__', -4, u'__', u'__', -4, u'__', u'__', u'__']]",,[],[],"[10, 1, 13, 5, 7, u'__TERM_ACTION__']","[0, 13, 14, 15]",[],[],"{u'mouseover': {u'state': {u'target': [], u'time': []}, u'edge': {u'target': [], u'time': []}}, u'click': {u'state': {u'target': [10, 1, 13, 5, 7], u'time': [7822, 9537, 10781, 11863, 15624]}, u'edge': {u'target': [], u'time': []}}, u'mouseout': {u'state': {u'target': [], u'time': []}, u'edge': {u'target': [], u'time': []}}}",,,"[18052, 753, 1127]",-40.0,783131,11.0,12022.0,mouselab-mdp,,1
,"[6683, 8023, 9471]","[u'0', u'0', u'3']","[[0, u'__', u'__', u'__', u'__', u'__', u'__', u'__', u'__', u'__', u'__', u'__', u'__', u'__', u'__', u'__', u'__'], [0, u'__', u'__', u'__', u'__', u'__', u'__', u'__', u'__', -4, u'__', u'__', u'__', u'__', u'__', u'__', u'__'], [0, 12, u'__', u'__', u'__', u'__', u'__', u'__', u'__', -4, u'__', u'__', u'__', u'__', u'__', u'__', u'__']]",,[],[],"[9, 1, u'__TERM_ACTION__']","[0, 1, 2, 4]",[],[],"{u'mouseover': {u'state': {u'target': [], u'time': []}, u'edge': {u'target': [], u'time': []}}, u'click': {u'state': {u'target': [9, 1], u'time': [1267, 3377]}, u'edge': {u'target': [], u'time': []}}, u'mouseout': {u'state': {u'target': [], u'time': []}, u'edge': {u'target': [], u'time': []}}}",,,"[6683, 809, 922]",20.0,824674,12.0,11337.0,mouselab-mdp,,1
,"[10012, 11545, 12779]","[u'3', u'3', u'2']","[[0, u'__', u'__', u'__', u'__', u'__', u'__', u'__', u'__', u'__', u'__', u'__', u'__', u'__', u'__', u'__', u'__'], [0, u'__', u'__', u'__', u'__', 4, u'__', u'__', u'__', u'__', u'__', u'__', u'__', u'__', u'__', u'__', u'__'], [0, -20, u'__', u'__', u'__', 4, u'__', u'__', u'__', u'__', u'__', u'__', u'__', u'__', u'__', u'__', u'__'], [0, -20, u'__', u'__', u'__', 4, -4, u'__', u'__', u'__', u'__', u'__', u'__', u'__', u'__', u'__', u'__'], [0, -20, u'__', u'__', u'__', 4, -4, u'__', u'__', u'__', -12, u'__', u'__', u'__', u'__', u'__', u'__']]",,[],[],"[5, 1, 6, 10, u'__TERM_ACTION__']","[0, 13, 14, 16]",[],[],"{u'mouseover': {u'state': {u'target': [], u'time': []}, u'edge': {u'target': [], u'time': []}}, u'click': {u'state': {u'target': [5, 1, 6, 10], u'time': [2293, 4271, 6695, 7951]}, u'edge': {u'target': [], u'time': []}}, u'mouseout': {u'state': {u'target': [], u'time': []}, u'edge': {u'target': [], u'time': []}}}",,,"[10011, 1008, 707]",4.0,891049,13.0,12997.0,mouselab-mdp,,1
,"[3929, 4970, 6737]","[u'1', u'1', u'0']","[[0, u'__', u'__', u'__', u'__', u'__', u'__', u'__', u'__', u'__', u'__', u'__', u'__', u'__', u'__', u'__', u'__'], [0, u'__', u'__', u'__', u'__', 12, u'__', u'__', u'__', u'__', u'__', u'__', u'__', u'__', u'__', u'__', u'__']]",,[],[],"[5, u'__TERM_ACTION__']","[0, 5, 6, 8]",[],[],"{u'mouseover': {u'state': {u'target': [], u'time': []}, u'edge': {u'target': [], u'time': []}}, u'click': {u'state': {u'target': [5], u'time': [1999]}, u'edge': {u'target': [], u'time': []}}, u'mouseout': {u'state': {u'target': [], u'time': []}, u'edge': {u'target': [], u'time': []}}}",,,"[3929, 523, 1239]",8.0,933122,14.0,12186.0,mouselab-mdp,,1
,"[7953, 9079, 10232]","[u'2', u'2', u'3']","[[0, u'__', u'__', u'__', u'__', u'__', u'__', u'__', u'__', u'__', u'__', u'__', u'__', u'__', u'__', u'__', u'__'], [0, u'__', u'__', u'__', u'__', 4, u'__', u'__', u'__', u'__', u'__', u'__', u'__', u'__', u'__', u'__', u'__'], [0, u'__', u'__', u'__', u'__', 4, -12, u'__', u'__', u'__', u'__', u'__', u'__', u'__', u'__', u'__', u'__'], [0, u'__', -4, u'__', u'__', 4, -12, u'__', u'__', u'__', u'__', u'__', u'__', u'__', u'__', u'__', u'__']]",,[],[],"[5, 6, 2, u'__TERM_ACTION__']","[0, 9, 10, 11]",[],[],"{u'mouseover': {u'state': {u'target': [], u'time': []}, u'edge': {u'target': [], u'time': []}}, u'click': {u'state': {u'target': [5, 6, 2], u'time': [1103, 3501, 4956]}, u'edge': {u'target': [], u'time': []}}, u'mouseout': {u'state': {u'target': [], u'time': []}, u'edge': {u'target': [], u'time': []}}}",,,"[7952, 598, 621]",0.0,999874,15.0,13777.0,mouselab-mdp,,1
,"[7546, 8426, 9249]","[u'2', u'2', u'3']","[[0, u'__', u'__', u'__', u'__', u'__', u'__', u'__', u'__', u'__', u'__', u'__', u'__', u'__', u'__', u'__', u'__'], [0, u'__', u'__', u'__', u'__', u'__', 4, u'__', u'__', u'__', u'__', u'__', u'__', u'__', u'__', u'__', u'__'], [0, u'__', u'__', u'__', u'__', u'__', 4, u'__', u'__', u'__', 4, u'__', u'__', u'__', u'__', u'__', u'__'], [0, u'__', u'__', u'__', u'__', u'__', 4, u'__', u'__', 12, 4, u'__', u'__', u'__', u'__', u'__', u'__']]",,[],[],"[6, 10, 9, u'__TERM_ACTION__']","[0, 9, 10, 11]",[],[],"{u'mouseover': {u'state': {u'target': [], u'time': []}, u'edge': {u'target': [], u'time': []}}, u'click': {u'state': {u'target': [6, 10, 9], u'time': [1994, 3891, 6004]}, u'edge': {u'target': [], u'time': []}}, u'mouseout': {u'state': {u'target': [], u'time': []}, u'edge': {u'target': [], u'time': []}}}",,,"[7545, 357, 297]",16.0,1087307,16.0,10339.0,mouselab-mdp,,1
"[{u'Q': 4, u'action': u'__TERM_ACTION__', u'Qs': {u'1': 4, u'9': 20, u'13': 4, u'5': 4}, u'state': [0, u'__', u'__', u'__', u'__', u'__', u'__', u'__', u'__', u'__', u'__', u'__', u'__', u'__', u'__', u'__', u'__'], u'V': 20}]","[2463, 18545, 20385]","[u'1', u'1', u'2']","[[0, u'__', u'__', u'__', u'__', u'__', u'__', u'__', u'__', u'__', u'__', u'__', u'__', u'__', u'__', u'__', u'__']]",,[15],[True],[u'__TERM_ACTION__'],"[0, 5, 6, 7]",[True],[False],"{u'mouseover': {u'state': {u'target': [], u'time': []}, u'edge': {u'target': [], u'time': []}}, u'click': {u'state': {u'target': [], u'time': []}, u'edge': {u'target': [], u'time': []}}, u'mouseout': {u'state': {u'target': [], u'time': []}, u'edge': {u'target': [], u'time': []}}}",,,"[2463, 558, 1326]",-12.0,956393,1.0,1996.0,mouselab-mdp,,2
"[{u'Q': 12, u'action': u'__TERM_ACTION__', u'Qs': {u'1': 12, u'9': 12, u'13': 20, u'5': -12}, u'state': [0, u'__', u'__', u'__', u'__', u'__', u'__', u'__', u'__', u'__', u'__', u'__', u'__', u'__', u'__', u'__', u'__'], u'V': 20}]","[1554, 19395, 21262]","[u'2', u'2', u'1']","[[0, u'__', u'__', u'__', u'__', u'__', u'__', u'__', u'__', u'__', u'__', u'__', u'__', u'__', u'__', u'__', u'__']]",,[15],[True],[u'__TERM_ACTION__'],"[0, 9, 10, 12]",[True],[False],"{u'mouseover': {u'state': {u'target': [], u'time': []}, u'edge': {u'target': [], u'time': []}}, u'click': {u'state': {u'target': [], u'time': []}, u'edge': {u'target': [], u'time': []}}, u'mouseout': {u'state': {u'target': [], u'time': []}, u'edge': {u'target': [], u'time': []}}}",,,"[1554, 2315, 1329]",4.0,1016918,2.0,2700.0,mouselab-mdp,,2
"[{u'Q': 4, u'action': u'__TERM_ACTION__', u'Qs': {u'1': -4, u'9': -20, u'13': 4, u'5': 20}, u'state': [0, -4, u'__', u'__', u'__', -4, u'__', u'__', u'__', -4, u'__', u'__', u'__', 20, u'__', u'__', u'__'], u'V': 20}]","[6382, 26905, 29892]","[u'3', u'3', u'0']","[[0, u'__', u'__', u'__', u'__', u'__', u'__', u'__', u'__', u'__', u'__', u'__', u'__', u'__', u'__', u'__', u'__'], [0, -4, u'__', u'__', u'__', u'__', u'__', u'__', u'__', u'__', u'__', u'__', u'__', u'__', u'__', u'__', u'__'], [0, -4, u'__', u'__', u'__', u'__', u'__', u'__', u'__', u'__', u'__', u'__', u'__', 20, u'__', u'__', u'__'], [0, -4, u'__', u'__', u'__', -4, u'__', u'__', u'__', u'__', u'__', u'__', u'__', 20, u'__', u'__', u'__'], [0, -4, u'__', u'__', u'__', -4, u'__', u'__', u'__', -4, u'__', u'__', u'__', 20, u'__', u'__', u'__']]",,[15],[True],"[1, 13, 5, 9, u'__TERM_ACTION__']","[0, 13, 14, 15]",[True],[False],"{u'mouseover': {u'state': {u'target': [], u'time': []}, u'edge': {u'target': [], u'time': []}}, u'click': {u'state': {u'target': [1, 13, 5, 9], u'time': [1406, 2964, 4402, 5182]}, u'edge': {u'target': [], u'time': []}}, u'mouseout': {u'state': {u'target': [], u'time': []}, u'edge': {u'target': [], u'time': []}}}",,,"[6382, 4991, 2467]",-12.4,1081219,3.0,3376.0,mouselab-mdp,,2
"[{u'Q': -4, u'action': u'__TERM_ACTION__', u'Qs': {u'1': -20, u'9': -4, u'13': -4, u'5': 20}, u'state': [0, -4, u'__', u'__', u'__', -4, u'__', u'__', u'__', 20, u'__', u'__', u'__', -4, u'__', u'__', u'__'], u'V': 20}]","[7449, 65553, 67244]","[u'2', u'2', u'1']","[[0, u'__', u'__', u'__', u'__', u'__', u'__', u'__', u'__', u'__', u'__', u'__', u'__', u'__', u'__', u'__', u'__'], [0, -4, u'__', u'__', u'__', u'__', u'__', u'__', u'__', u'__', u'__', u'__', u'__', u'__', u'__', u'__', u'__'], [0, -4, u'__', u'__', u'__', u'__', u'__', u'__', u'__', u'__', u'__', u'__', u'__', -4, u'__', u'__', u'__'], [0, -4, u'__', u'__', u'__', -4, u'__', u'__', u'__', u'__', u'__', u'__', u'__', -4, u'__', u'__', u'__'], [0, -4, u'__', u'__', u'__', -4, u'__', u'__', u'__', 20, u'__', u'__', u'__', -4, u'__', u'__', u'__']]",,[15],[True],"[1, 13, 5, 9, u'__TERM_ACTION__']","[0, 9, 10, 12]",[True],[False],"{u'mouseover': {u'state': {u'target': [], u'time': []}, u'edge': {u'target': [], u'time': []}}, u'click': {u'state': {u'target': [1, 13, 5, 9], u'time': [3816, 4550, 5472, 6283]}, u'edge': {u'target': [], u'time': []}}, u'mouseout': {u'state': {u'target': [], u'time': []}, u'edge': {u'target': [], u'time': []}}}",,,"[7449, 42585, 1160]",-4.4,1151517,4.0,54.0,mouselab-mdp,,2
"[{u'Q': 12, u'action': u'__TERM_ACTION__', u'Qs': {u'1': 4, u'9': 12, u'13': -20, u'5': 20}, u'state': [0, 4, u'__', u'__', u'__', -4, u'__', u'__', u'__', 4, u'__', u'__', u'__', -12, u'__', u'__', u'__'], u'V': 20}]","[6319, 23806, 24997]","[u'2', u'2', u'3']","[[0, u'__', u'__', u'__', u'__', u'__', u'__', u'__', u'__', u'__', u'__', u'__', u'__', u'__', u'__', u'__', u'__'], [0, 4, u'__', u'__', u'__', u'__', u'__', u'__', u'__', u'__', u'__', u'__', u'__', u'__', u'__', u'__', u'__'], [0, 4, u'__', u'__', u'__', u'__', u'__', u'__', u'__', u'__', u'__', u'__', u'__', -12, u'__', u'__', u'__'], [0, 4, u'__', u'__', u'__', u'__', u'__', u'__', u'__', 4, u'__', u'__', u'__', -12, u'__', u'__', u'__'], [0, 4, u'__', u'__', u'__', -4, u'__', u'__', u'__', 4, u'__', u'__', u'__', -12, u'__', u'__', u'__']]",,[15],[True],"[1, 13, 9, 5, u'__TERM_ACTION__']","[0, 9, 10, 11]",[True],[False],"{u'mouseover': {u'state': {u'target': [], u'time': []}, u'edge': {u'target': [], u'time': []}}, u'click': {u'state': {u'target': [1, 13, 9, 5], u'time': [3091, 3815, 4436, 4965]}, u'edge': {u'target': [], u'time': []}}, u'mouseout': {u'state': {u'target': [], u'time': []}, u'edge': {u'target': [], u'time': []}}}",,,"[6319, 1979, 671]",11.6,1251939,5.0,3335.0,mouselab-mdp,,2
"[{u'Q': -12, u'action': u'__TERM_ACTION__', u'Qs': {u'1': 12, u'9': 20, u'13': 4, u'5': -12}, u'state': [0, u'__', u'__', u'__', u'__', u'__', u'__', u'__', u'__', u'__', u'__', u'__', u'__', u'__', u'__', u'__', u'__'], u'V': 20}]","[373, 17745, 19006]","[u'1', u'1', u'2']","[[0, u'__', u'__', u'__', u'__', u'__', u'__', u'__', u'__', u'__', u'__', u'__', u'__', u'__', u'__', u'__', u'__']]",,[15],[True],[u'__TERM_ACTION__'],"[0, 5, 6, 7]",[True],[False],"{u'mouseover': {u'state': {u'target': [], u'time': []}, u'edge': {u'target': [], u'time': []}}, u'click': {u'state': {u'target': [], u'time': []}, u'edge': {u'target': [], u'time': []}}, u'mouseout': {u'state': {u'target': [], u'time': []}, u'edge': {u'target': [], u'time': []}}}",,,"[373, 1782, 750]",-12.0,1352610,6.0,4684.0,mouselab-mdp,,2
"[{u'Q': 12, u'action': u'__TERM_ACTION__', u'Qs': {u'1': -20, u'9': 12, u'13': 12, u'5': 20}, u'state': [0, u'__', u'__', u'__', u'__', u'__', u'__', u'__', u'__', u'__', u'__', u'__', u'__', u'__', u'__', u'__', u'__'], u'V': 20}]","[667, 20348, 24844]","[u'2', u'2', u'3']","[[0, u'__', u'__', u'__', u'__', u'__', u'__', u'__', u'__', u'__', u'__', u'__', u'__', u'__', u'__', u'__', u'__']]",,[15],[True],[u'__TERM_ACTION__'],"[0, 9, 10, 11]",[True],[False],"{u'mouseover': {u'state': {u'target': [], u'time': []}, u'edge': {u'target': [], u'time': []}}, u'click': {u'state': {u'target': [], u'time': []}, u'edge': {u'target': [], u'time': []}}, u'mouseout': {u'state': {u'target': [], u'time': []}, u'edge': {u'target': [], u'time': []}}}",,,"[667, 4154, 3921]",-12.0,1420235,7.0,1269.0,mouselab-mdp,,2
"[{u'Q': 20, u'action': u'__TERM_ACTION__', u'Qs': {u'1': 12, u'9': -20, u'13': 12, u'5': 20}, u'state': [0, u'__', u'__', -4, -12, u'__', u'__', -12, 12, u'__', u'__', -12, -12, u'__', u'__', 4, -4], u'V': 20}]","[11575, 30154, 31084]","[u'1', u'1', u'0']","[[0, u'__', u'__', u'__', u'__', u'__', u'__', u'__', u'__', u'__', u'__', u'__', u'__', u'__', u'__', u'__', u'__'], [0, u'__', u'__', u'__', u'__', u'__', u'__', u'__', u'__', u'__', u'__', u'__', -12, u'__', u'__', u'__', u'__'], [0, u'__', u'__', u'__', -12, u'__', u'__', u'__', u'__', u'__', u'__', u'__', -12, u'__', u'__', u'__', u'__'], [0, u'__', u'__', u'__', -12, u'__', u'__', -12, u'__', u'__', u'__', u'__', -12, u'__', u'__', u'__', u'__'], [0, u'__', u'__', u'__', -12, u'__', u'__', -12, u'__', u'__', u'__', u'__', -12, u'__', u'__', 4, u'__'], [0, u'__', u'__', u'__', -12, u'__', u'__', -12, u'__', u'__', u'__', u'__', -12, u'__', u'__', 4, -4], [0, u'__', u'__', u'__', -12, u'__', u'__', -12, 12, u'__', u'__', u'__', -12, u'__', u'__', 4, -4], [0, u'__', u'__', -4, -12, u'__', u'__', -12, 12, u'__', u'__', u'__', -12, u'__', u'__', 4, -4], [0, u'__', u'__', -4, -12, u'__', u'__', -12, 12, u'__', u'__', -12, -12, u'__', u'__', 4, -4]]",,[15],[True],"[12, 4, 7, 15, 16, 8, 3, 11, u'__TERM_ACTION__']","[0, 5, 6, 8]",[False],[False],"{u'mouseover': {u'state': {u'target': [], u'time': []}, u'edge': {u'target': [], u'time': []}}, u'click': {u'state': {u'target': [12, 4, 7, 15, 16, 8, 3, 11], u'time': [743, 1887, 3016, 4586, 6154, 7459, 8336, 9597]}, u'edge': {u'target': [], u'time': []}}, u'mouseout': {u'state': {u'target': [], u'time': []}, u'edge': {u'target': [], u'time': []}}}",,,"[11575, 3066, 415]",19.2,1474922,8.0,4860.0,mouselab-mdp,,2
"[{u'Q': -12, u'action': u'__TERM_ACTION__', u'Qs': {u'1': 4, u'9': -4, u'13': 20, u'5': -12}, u'state': [0, u'__', u'__', -12, -4, u'__', u'__', 12, -4, u'__', u'__', 4, -4, u'__', u'__', -20, 4], u'V': 20}]","[7269, 24491, 25258]","[u'1', u'1', u'2']","[[0, u'__', u'__', u'__', u'__', u'__', u'__', u'__', u'__', u'__', u'__', u'__', u'__', u'__', u'__', u'__', u'__'], [0, u'__', u'__', u'__', u'__', u'__', u'__', u'__', u'__', u'__', u'__', u'__', u'__', u'__', u'__', u'__', 4], [0, u'__', u'__', u'__', u'__', u'__', u'__', u'__', u'__', u'__', u'__', u'__', u'__', u'__', u'__', -20, 4], [0, u'__', u'__', u'__', u'__', u'__', u'__', u'__', -4, u'__', u'__', u'__', u'__', u'__', u'__', -20, 4], [0, u'__', u'__', u'__', u'__', u'__', u'__', 12, -4, u'__', u'__', u'__', u'__', u'__', u'__', -20, 4], [0, u'__', u'__', u'__', u'__', u'__', u'__', 12, -4, u'__', u'__', u'__', -4, u'__', u'__', -20, 4], [0, u'__', u'__', u'__', u'__', u'__', u'__', 12, -4, u'__', u'__', 4, -4, u'__', u'__', -20, 4], [0, u'__', u'__', u'__', -4, u'__', u'__', 12, -4, u'__', u'__', 4, -4, u'__', u'__', -20, 4], [0, u'__', u'__', -12, -4, u'__', u'__', 12, -4, u'__', u'__', 4, -4, u'__', u'__', -20, 4]]",,[15],[True],"[16, 15, 8, 7, 12, 11, 4, 3, u'__TERM_ACTION__']","[0, 5, 6, 7]",[True],[False],"{u'mouseover': {u'state': {u'target': [], u'time': []}, u'edge': {u'target': [], u'time': []}}, u'click': {u'state': {u'target': [16, 15, 8, 7, 12, 11, 4, 3], u'time': [305, 992, 1832, 2412, 3441, 4054, 5044, 5845]}, u'edge': {u'target': [], u'time': []}}, u'mouseout': {u'state': {u'target': [], u'time': []}, u'edge': {u'target': [], u'time': []}}}",,,"[7268, 1705, 253]",-12.8,1531416,9.0,2306.0,mouselab-mdp,,2
"[{u'Q': -12, u'action': u'__TERM_ACTION__', u'Qs': {u'1': -12, u'9': 20, u'13': 12, u'5': 4}, u'state': [0, u'__', u'__', 4, -12, u'__', u'__', -12, -12, u'__', u'__', 4, -20, u'__', u'__', 4, -4], u'V': 20}]","[9170, 25134, 26252]","[u'0', u'0', u'1']","[[0, u'__', u'__', u'__', u'__', u'__', u'__', u'__', u'__', u'__', u'__', u'__', u'__', u'__', u'__', u'__', u'__'], [0, u'__', u'__', u'__', u'__', u'__', u'__', -12, u'__', u'__', u'__', u'__', u'__', u'__', u'__', u'__', u'__'], [0, u'__', u'__', u'__', u'__', u'__', u'__', -12, -12, u'__', u'__', u'__', u'__', u'__', u'__', u'__', u'__'], [0, u'__', u'__', 4, u'__', u'__', u'__', -12, -12, u'__', u'__', u'__', u'__', u'__', u'__', u'__', u'__'], [0, u'__', u'__', 4, -12, u'__', u'__', -12, -12, u'__', u'__', u'__', u'__', u'__', u'__', u'__', u'__'], [0, u'__', u'__', 4, -12, u'__', u'__', -12, -12, u'__', u'__', u'__', u'__', u'__', u'__', 4, u'__'], [0, u'__', u'__', 4, -12, u'__', u'__', -12, -12, u'__', u'__', u'__', u'__', u'__', u'__', 4, -4], [0, u'__', u'__', 4, -12, u'__', u'__', -12, -12, u'__', u'__', 4, u'__', u'__', u'__', 4, -4], [0, u'__', u'__', 4, -12, u'__', u'__', -12, -12, u'__', u'__', 4, -20, u'__', u'__', 4, -4]]",,[15],[True],"[7, 8, 3, 4, 15, 16, 11, 12, u'__TERM_ACTION__']","[0, 1, 2, 3]",[True],[False],"{u'mouseover': {u'state': {u'target': [], u'time': []}, u'edge': {u'target': [], u'time': []}}, u'click': {u'state': {u'target': [7, 8, 3, 4, 15, 16, 11, 12], u'time': [1707, 2556, 3528, 4470, 5087, 5731, 6330, 7119]}, u'edge': {u'target': [], u'time': []}}, u'mouseout': {u'state': {u'target': [], u'time': []}, u'edge': {u'target': [], u'time': []}}}",,,"[9170, 444, 601]",-12.8,1589688,10.0,163.0,mouselab-mdp,,2
,"[1918, 6463, 7354]","[u'1', u'1', u'0']","[[0, u'__', u'__', u'__', u'__', u'__', u'__', u'__', u'__', u'__', u'__', u'__', u'__', u'__', u'__', u'__', u'__']]",,[],[],[u'__TERM_ACTION__'],"[0, 5, 6, 8]",[],[],"{u'mouseover': {u'state': {u'target': [], u'time': []}, u'edge': {u'target': [], u'time': []}}, u'click': {u'state': {u'target': [], u'time': []}, u'edge': {u'target': [], u'time': []}}, u'mouseout': {u'state': {u'target': [], u'time': []}, u'edge': {u'target': [], u'time': []}}}",,,"[1918, 4032, 369]",28.0,1643005,11.0,2319.0,mouselab-mdp,,2
,"[10219, 11265, 11961]","[u'0', u'0', u'1']","[[0, u'__', u'__', u'__', u'__', u'__', u'__', u'__', u'__', u'__', u'__', u'__', u'__', u'__', u'__', u'__', u'__'], [0, u'__', u'__', u'__', u'__', u'__', u'__', 20, u'__', u'__', u'__', u'__', u'__', u'__', u'__', u'__', u'__'], [0, u'__', u'__', u'__', u'__', u'__', u'__', 20, -12, u'__', u'__', u'__', u'__', u'__', u'__', u'__', u'__'], [0, u'__', u'__', 20, u'__', u'__', u'__', 20, -12, u'__', u'__', u'__', u'__', u'__', u'__', u'__', u'__'], [0, u'__', u'__', 20, -12, u'__', u'__', 20, -12, u'__', u'__', u'__', u'__', u'__', u'__', u'__', u'__'], [0, u'__', u'__', 20, -12, u'__', u'__', 20, -12, u'__', u'__', u'__', u'__', u'__', u'__', 4, u'__'], [0, u'__', u'__', 20, -12, u'__', u'__', 20, -12, u'__', u'__', u'__', u'__', u'__', u'__', 4, -12], [0, u'__', u'__', 20, -12, u'__', u'__', 20, -12, u'__', u'__', -20, u'__', u'__', u'__', 4, -12], [0, u'__', u'__', 20, -12, u'__', u'__', 20, -12, u'__', u'__', -20, 12, u'__', u'__', 4, -12], [0, u'__', u'__', 20, -12, 12, u'__', 20, -12, u'__', u'__', -20, 12, u'__', u'__', 4, -12], [0, u'__', 20, 20, -12, 12, u'__', 20, -12, u'__', u'__', -20, 12, u'__', u'__', 4, -12]]",,[],[],"[7, 8, 3, 4, 15, 16, 11, 12, 5, 2, u'__TERM_ACTION__']","[0, 1, 2, 3]",[],[],"{u'mouseover': {u'state': {u'target': [], u'time': []}, u'edge': {u'target': [], u'time': []}}, u'click': {u'state': {u'target': [7, 8, 3, 4, 15, 16, 11, 12, 5, 2], u'time': [743, 1456, 2076, 2945, 3662, 4471, 5347, 6047, 6885, 7666]}, u'edge': {u'target': [], u'time': []}}, u'mouseout': {u'state': {u'target': [], u'time': []}, u'edge': {u'target': [], u'time': []}}}",,,"[10219, 533, 181]",43.0,1684572,12.0,1597.0,mouselab-mdp,,2
,"[15198, 15935, 16561]","[u'1', u'1', u'0']","[[0, u'__', u'__', u'__', u'__', u'__', u'__', u'__', u'__', u'__', u'__', u'__', u'__', u'__', u'__', u'__', u'__'], [0, u'__', u'__', u'__', u'__', u'__', u'__', -4, u'__', u'__', u'__', u'__', u'__', u'__', u'__', u'__', u'__'], [0, u'__', u'__', u'__', u'__', u'__', u'__', -4, 20, u'__', u'__', u'__', u'__', u'__', u'__', u'__', u'__'], [0, u'__', u'__', 12, u'__', u'__', u'__', -4, 20, u'__', u'__', u'__', u'__', u'__', u'__', u'__', u'__'], [0, u'__', u'__', 12, 20, u'__', u'__', -4, 20, u'__', u'__', u'__', u'__', u'__', u'__', u'__', u'__'], [0, u'__', u'__', 12, 20, u'__', u'__', -4, 20, u'__', u'__', u'__', u'__', u'__', u'__', -4, u'__'], [0, u'__', u'__', 12, 20, u'__', u'__', -4, 20, u'__', u'__', u'__', u'__', u'__', u'__', -4, -4], [0, u'__', u'__', 12, 20, u'__', u'__', -4, 20, u'__', u'__', 4, u'__', u'__', u'__', -4, -4], [0, u'__', u'__', 12, 20, u'__', u'__', -4, 20, u'__', u'__', 4, 4, u'__', u'__', -4, -4], [0, u'__', u'__', 12, 20, u'__', u'__', -4, 20, u'__', -4, 4, 4, u'__', u'__', -4, -4], [0, u'__', u'__', 12, 20, u'__', u'__', -4, 20, 4, -4, 4, 4, u'__', u'__', -4, -4], [0, u'__', u'__', 12, 20, u'__', 4, -4, 20, 4, -4, 4, 4, u'__', u'__', -4, -4], [0, u'__', u'__', 12, 20, 12, 4, -4, 20, 4, -4, 4, 4, u'__', u'__', -4, -4], [0, u'__', -4, 12, 20, 12, 4, -4, 20, 4, -4, 4, 4, u'__', u'__', -4, -4], [0, u'__', -4, 12, 20, 12, 4, -4, 20, 4, -4, 4, 4, 4, u'__', -4, -4], [0, u'__', -4, 12, 20, 12, 4, -4, 20, 4, -4, 4, 4, 4, 4, -4, -4], [0, 4, -4, 12, 20, 12, 4, -4, 20, 4, -4, 4, 4, 4, 4, -4, -4]]",,[],[],"[7, 8, 3, 4, 15, 16, 11, 12, 10, 9, 6, 5, 2, 13, 14, 1, u'__TERM_ACTION__']","[0, 5, 6, 8]",[],[],"{u'mouseover': {u'state': {u'target': [], u'time': []}, u'edge': {u'target': [], u'time': []}}, u'click': {u'state': {u'target': [7, 8, 3, 4, 15, 16, 11, 12, 10, 9, 6, 5, 2, 13, 14, 1], u'time': [379, 995, 1678, 2275, 2872, 3482, 4074, 4752, 5393, 5771, 6512, 6892, 7697, 8748, 9246, 13765]}, u'edge': {u'target': [], u'time': []}}, u'mouseout': {u'state': {u'target': [], u'time': []}, u'edge': {u'target': [], u'time': []}}}",,,"[15197, 218, 97]",34.4,1735677,13.0,3324.0,mouselab-mdp,,2
,"[19669, 20406, 21063]","[u'3', u'3', u'0']","[[0, u'__', u'__', u'__', u'__', u'__', u'__', u'__', u'__', u'__', u'__', u'__', u'__', u'__', u'__', u'__', u'__'], [0, u'__', u'__', u'__', u'__', u'__', u'__', 20, u'__', u'__', u'__', u'__', u'__', u'__', u'__', u'__', u'__'], [0, u'__', u'__', u'__', u'__', u'__', u'__', 20, 4, u'__', u'__', u'__', u'__', u'__', u'__', u'__', u'__'], [0, u'__', u'__', u'__', u'__', u'__', -12, 20, 4, u'__', u'__', u'__', u'__', u'__', u'__', u'__', u'__'], [0, u'__', u'__', u'__', u'__', -12, -12, 20, 4, u'__', u'__', u'__', u'__', u'__', u'__', u'__', u'__'], [0, u'__', u'__', 4, u'__', -12, -12, 20, 4, u'__', u'__', u'__', u'__', u'__', u'__', u'__', u'__'], [0, u'__', -12, 4, u'__', -12, -12, 20, 4, u'__', u'__', u'__', u'__', u'__', u'__', u'__', u'__'], [0, u'__', -12, 4, 4, -12, -12, 20, 4, u'__', u'__', u'__', u'__', u'__', u'__', u'__', u'__'], [0, -20, -12, 4, 4, -12, -12, 20, 4, u'__', u'__', u'__', u'__', u'__', u'__', u'__', u'__'], [0, -20, -12, 4, 4, -12, -12, 20, 4, u'__', u'__', u'__', u'__', 4, u'__', u'__', u'__'], [0, -20, -12, 4, 4, -12, -12, 20, 4, u'__', u'__', u'__', u'__', 4, u'__', -4, u'__'], [0, -20, -12, 4, 4, -12, -12, 20, 4, u'__', u'__', u'__', u'__', 4, 4, -4, u'__'], [0, -20, -12, 4, 4, -12, -12, 20, 4, u'__', u'__', u'__', u'__', 4, 4, -4, -12], [0, -20, -12, 4, 4, -12, -12, 20, 4, u'__', u'__', 4, u'__', 4, 4, -4, -12], [0, -20, -12, 4, 4, -12, -12, 20, 4, u'__', -12, 4, u'__', 4, 4, -4, -12], [0, -20, -12, 4, 4, -12, -12, 20, 4, 4, -12, 4, u'__', 4, 4, -4, -12], [0, -20, -12, 4, 4, -12, -12, 20, 4, 4, -12, 4, 4, 4, 4, -4, -12]]",,[],[],"[7, 8, 6, 5, 3, 2, 4, 1, 13, 15, 14, 16, 11, 10, 9, 12, u'__TERM_ACTION__']","[0, 13, 14, 15]",[],[],"{u'mouseover': {u'state': {u'target': [], u'time': []}, u'edge': {u'target': [], u'time': []}}, u'click': {u'state': {u'target': [7, 8, 6, 5, 3, 2, 4, 1, 13, 15, 14, 16, 11, 10, 9, 12], u'time': [394, 1095, 1529, 2203, 2785, 3268, 3747, 4329, 4922, 5509, 5953, 6466, 7867, 8314, 8679, 9813]}, u'edge': {u'target': [], u'time': []}}, u'mouseout': {u'state': {u'target': [], u'time': []}, u'edge': {u'target': [], u'time': []}}}",,,"[19668, 227, 132]",2.4,1794039,14.0,4439.0,mouselab-mdp,,2
,"[11159, 11880, 12505]","[u'2', u'2', u'1']","[[0, u'__', u'__', u'__', u'__', u'__', u'__', u'__', u'__', u'__', u'__', u'__', u'__', u'__', u'__', u'__', u'__'], [0, u'__', u'__', u'__', u'__', u'__', u'__', -12, u'__', u'__', u'__', u'__', u'__', u'__', u'__', u'__', u'__'], [0, u'__', u'__', u'__', u'__', u'__', u'__', -12, 4, u'__', u'__', u'__', u'__', u'__', u'__', u'__', u'__'], [0, u'__', u'__', u'__', u'__', u'__', 4, -12, 4, u'__', u'__', u'__', u'__', u'__', u'__', u'__', u'__'], [0, u'__', u'__', u'__', u'__', -4, 4, -12, 4, u'__', u'__', u'__', u'__', u'__', u'__', u'__', u'__'], [0, u'__', u'__', -4, u'__', -4, 4, -12, 4, u'__', u'__', u'__', u'__', u'__', u'__', u'__', u'__'], [0, u'__', -12, -4, u'__', -4, 4, -12, 4, u'__', u'__', u'__', u'__', u'__', u'__', u'__', u'__'], [0, u'__', -12, -4, 12, -4, 4, -12, 4, u'__', u'__', u'__', u'__', u'__', u'__', u'__', u'__'], [0, 4, -12, -4, 12, -4, 4, -12, 4, u'__', u'__', u'__', u'__', u'__', u'__', u'__', u'__'], [0, 4, -12, -4, 12, -4, 4, -12, 4, u'__', u'__', u'__', u'__', 4, u'__', u'__', u'__'], [0, 4, -12, -4, 12, -4, 4, -12, 4, u'__', u'__', u'__', u'__', 4, u'__', 20, u'__'], [0, 4, -12, -4, 12, -4, 4, -12, 4, u'__', u'__', u'__', u'__', 4, -20, 20, u'__'], [0, 4, -12, -4, 12, -4, 4, -12, 4, u'__', u'__', u'__', u'__', 4, -20, 20, 4], [0, 4, -12, -4, 12, -4, 4, -12, 4, u'__', u'__', -12, u'__', 4, -20, 20, 4], [0, 4, -12, -4, 12, -4, 4, -12, 4, u'__', 12, -12, u'__', 4, -20, 20, 4], [0, 4, -12, -4, 12, -4, 4, -12, 4, u'__', 12, -12, 20, 4, -20, 20, 4], [0, 4, -12, -4, 12, -4, 4, -12, 4, 4, 12, -12, 20, 4, -20, 20, 4]]",,[],[],"[7, 8, 6, 5, 3, 2, 4, 1, 13, 15, 14, 16, 11, 10, 12, 9, u'__TERM_ACTION__']","[0, 9, 10, 12]",[],[],"{u'mouseover': {u'state': {u'target': [], u'time': []}, u'edge': {u'target': [], u'time': []}}, u'click': {u'state': {u'target': [7, 8, 6, 5, 3, 2, 4, 1, 13, 15, 14, 16, 11, 10, 12, 9], u'time': [517, 1468, 1903, 2342, 2934, 3399, 4320, 4927, 5579, 6040, 6532, 7049, 7785, 8920, 9323, 9829]}, u'edge': {u'target': [], u'time': []}}, u'mouseout': {u'state': {u'target': [], u'time': []}, u'edge': {u'target': [], u'time': []}}}",,,"[11159, 197, 106]",34.4,1842645,15.0,3845.0,mouselab-mdp,,2
,"[11812, 12420, 13086]","[u'1', u'1', u'0']","[[0, u'__', u'__', u'__', u'__', u'__', u'__', u'__', u'__', u'__', u'__', u'__', u'__', u'__', u'__', u'__', u'__'], [0, u'__', u'__', u'__', u'__', u'__', u'__', -4, u'__', u'__', u'__', u'__', u'__', u'__', u'__', u'__', u'__'], [0, u'__', u'__', u'__', u'__', u'__', 4, -4, u'__', u'__', u'__', u'__', u'__', u'__', u'__', u'__', u'__'], [0, u'__', u'__', u'__', u'__', u'__', 4, -4, 12, u'__', u'__', u'__', u'__', u'__', u'__', u'__', u'__'], [0, u'__', u'__', -20, u'__', u'__', 4, -4, 12, u'__', u'__', u'__', u'__', u'__', u'__', u'__', u'__'], [0, u'__', u'__', -20, u'__', 4, 4, -4, 12, u'__', u'__', u'__', u'__', u'__', u'__', u'__', u'__'], [0, -4, u'__', -20, u'__', 4, 4, -4, 12, u'__', u'__', u'__', u'__', u'__', u'__', u'__', u'__'], [0, -4, 4, -20, u'__', 4, 4, -4, 12, u'__', u'__', u'__', u'__', u'__', u'__', u'__', u'__'], [0, -4, 4, -20, -4, 4, 4, -4, 12, u'__', u'__', u'__', u'__', u'__', u'__', u'__', u'__'], [0, -4, 4, -20, -4, 4, 4, -4, 12, u'__', u'__', u'__', u'__', u'__', u'__', -12, u'__'], [0, -4, 4, -20, -4, 4, 4, -4, 12, u'__', u'__', u'__', u'__', u'__', -12, -12, u'__'], [0, -4, 4, -20, -4, 4, 4, -4, 12, u'__', u'__', u'__', u'__', 12, -12, -12, u'__'], [0, -4, 4, -20, -4, 4, 4, -4, 12, u'__', u'__', u'__', u'__', 12, -12, -12, -12], [0, -4, 4, -20, -4, 4, 4, -4, 12, u'__', u'__', 12, u'__', 12, -12, -12, -12], [0, -4, 4, -20, -4, 4, 4, -4, 12, u'__', -20, 12, u'__', 12, -12, -12, -12], [0, -4, 4, -20, -4, 4, 4, -4, 12, 4, -20, 12, u'__', 12, -12, -12, -12], [0, -4, 4, -20, -4, 4, 4, -4, 12, 4, -20, 12, -20, 12, -12, -12, -12]]",,[],[],"[7, 6, 8, 3, 5, 1, 2, 4, 15, 14, 13, 16, 11, 10, 9, 12, u'__TERM_ACTION__']","[0, 5, 6, 8]",[],[],"{u'mouseover': {u'state': {u'target': [], u'time': []}, u'edge': {u'target': [], u'time': []}}, u'click': {u'state': {u'target': [7, 6, 8, 3, 5, 1, 2, 4, 15, 14, 13, 16, 11, 10, 9, 12], u'time': [973, 1425, 1952, 2483, 3316, 4156, 4557, 5094, 5728, 6190, 6722, 7225, 7822, 8278, 8660, 9627]}, u'edge': {u'target': [], u'time': []}}, u'mouseout': {u'state': {u'target': [], u'time': []}, u'edge': {u'target': [], u'time': []}}}",,,"[11812, 88, 157]",18.4,1893436,16.0,1313.0,mouselab-mdp,,2
"[{u'Q': 20, u'action': u'__TERM_ACTION__', u'Qs': {u'1': -20, u'9': 12, u'13': 12, u'5': 20}, u'state': [0, u'__', u'__', u'__', u'__', u'__', u'__', u'__', u'__', u'__', u'__', u'__', u'__', u'__', u'__', u'__', u'__'], u'V': 20}]","[7120, 42926, 48636]","[u'1', u'1', u'0']","[[0, u'__', u'__', u'__', u'__', u'__', u'__', u'__', u'__', u'__', u'__', u'__', u'__', u'__', u'__', u'__', u'__']]",,[15],[True],[u'__TERM_ACTION__'],"[0, 5, 6, 8]",[False],[False],"{u'mouseover': {u'state': {u'target': [], u'time': []}, u'edge': {u'target': [], u'time': []}}, u'click': {u'state': {u'target': [], u'time': []}, u'edge': {u'target': [], u'time': []}}, u'mouseout': {u'state': {u'target': [], u'time': []}, u'edge': {u'target': [], u'time': []}}}",,,"[7119, 20271, 5220]",-12.0,208334,1.0,1269.0,mouselab-mdp,,3
"[{u'Q': -20, u'action': u'__TERM_ACTION__', u'Qs': {u'1': 4, u'9': 12, u'13': -20, u'5': 20}, u'state': [0, u'__', u'__', u'__', u'__', u'__', u'__', u'__', u'__', u'__', u'__', u'__', u'__', u'__', u'__', u'__', u'__'], u'V': 20}]","[2922, 50651, 52890]","[u'3', u'3', u'0']","[[0, u'__', u'__', u'__', u'__', u'__', u'__', u'__', u'__', u'__', u'__', u'__', u'__', u'__', u'__', u'__', u'__']]",,[15],[True],[u'__TERM_ACTION__'],"[0, 13, 14, 15]",[True],[False],"{u'mouseover': {u'state': {u'target': [], u'time': []}, u'edge': {u'target': [], u'time': []}}, u'click': {u'state': {u'target': [], u'time': []}, u'edge': {u'target': [], u'time': []}}, u'mouseout': {u'state': {u'target': [], u'time': []}, u'edge': {u'target': [], u'time': []}}}",,,"[2921, 32225, 1733]",-20.0,266300,2.0,3335.0,mouselab-mdp,,3
"[{u'Q': 12, u'action': u'__TERM_ACTION__', u'Qs': {u'1': 12, u'9': 12, u'13': 20, u'5': -12}, u'state': [0, u'__', u'__', u'__', u'__', u'__', u'__', u'__', u'__', u'__', u'__', u'__', u'__', u'__', u'__', u'__', u'__'], u'V': 20}]","[2310, 35478, 36630]","[u'2', u'2', u'1']","[[0, u'__', u'__', u'__', u'__', u'__', u'__', u'__', u'__', u'__', u'__', u'__', u'__', u'__', u'__', u'__', u'__']]",,[15],[True],[u'__TERM_ACTION__'],"[0, 9, 10, 12]",[True],[False],"{u'mouseover': {u'state': {u'target': [], u'time': []}, u'edge': {u'target': [], u'time': []}}, u'click': {u'state': {u'target': [], u'time': []}, u'edge': {u'target': [], u'time': []}}, u'mouseout': {u'state': {u'target': [], u'time': []}, u'edge': {u'target': [], u'time': []}}}",,,"[2310, 17675, 648]",4.0,323853,3.0,2700.0,mouselab-mdp,,3
"[{u'Q': 4, u'action': u'__TERM_ACTION__', u'Qs': {u'1': -4, u'9': -20, u'13': 4, u'5': 20}, u'state': [0, u'__', u'__', u'__', u'__', u'__', u'__', u'__', u'__', u'__', u'__', u'__', u'__', u'__', u'__', u'__', u'__'], u'V': 20}]","[2861, 68364, 73596]","[u'3', u'3', u'2']","[[0, u'__', u'__', u'__', u'__', u'__', u'__', u'__', u'__', u'__', u'__', u'__', u'__', u'__', u'__', u'__', u'__']]",,[15],[True],[u'__TERM_ACTION__'],"[0, 13, 14, 16]",[True],[False],"{u'mouseover': {u'state': {u'target': [], u'time': []}, u'edge': {u'target': [], u'time': []}}, u'click': {u'state': {u'target': [], u'time': []}, u'edge': {u'target': [], u'time': []}}, u'mouseout': {u'state': {u'target': [], u'time': []}, u'edge': {u'target': [], u'time': []}}}",,,"[2861, 50005, 4729]",4.0,399356,4.0,3376.0,mouselab-mdp,,3
"[{u'Q': 20, u'action': u'__TERM_ACTION__', u'Qs': {u'1': 4, u'9': 20, u'13': 4, u'5': 4}, u'state': [0, u'__', u'__', u'__', u'__', u'__', u'__', u'__', u'__', u'__', u'__', u'__', u'__', u'__', u'__', u'__', u'__'], u'V': 20}]","[1430, 20005, 22645]","[u'2', u'2', u'3']","[[0, u'__', u'__', u'__', u'__', u'__', u'__', u'__', u'__', u'__', u'__', u'__', u'__', u'__', u'__', u'__', u'__']]",,[15],[True],[u'__TERM_ACTION__'],"[0, 9, 10, 11]",[False],[False],"{u'mouseover': {u'state': {u'target': [], u'time': []}, u'edge': {u'target': [], u'time': []}}, u'click': {u'state': {u'target': [], u'time': []}, u'edge': {u'target': [], u'time': []}}, u'mouseout': {u'state': {u'target': [], u'time': []}, u'edge': {u'target': [], u'time': []}}}",,,"[1430, 3081, 2125]",-4.0,483983,5.0,1996.0,mouselab-mdp,,3
"[{u'Q': -12, u'action': u'__TERM_ACTION__', u'Qs': {u'1': -12, u'9': 20, u'13': 12, u'5': 4}, u'state': [0, u'__', u'__', u'__', u'__', u'__', u'__', u'__', u'__', u'__', u'__', u'__', u'__', u'__', u'__', u'__', u'__'], u'V': 20}]","[1797, 18485, 20678]","[u'0', u'0', u'3']","[[0, u'__', u'__', u'__', u'__', u'__', u'__', u'__', u'__', u'__', u'__', u'__', u'__', u'__', u'__', u'__', u'__']]",,[15],[True],[u'__TERM_ACTION__'],"[0, 1, 2, 4]",[True],[False],"{u'mouseover': {u'state': {u'target': [], u'time': []}, u'edge': {u'target': [], u'time': []}}, u'click': {u'state': {u'target': [], u'time': []}, u'edge': {u'target': [], u'time': []}}, u'mouseout': {u'state': {u'target': [], u'time': []}, u'edge': {u'target': [], u'time': []}}}",,,"[1797, 1189, 1692]",-28.0,539596,6.0,163.0,mouselab-mdp,,3
"[{u'Q': 12, u'action': u'__TERM_ACTION__', u'Qs': {u'1': 12, u'9': -20, u'13': 12, u'5': 20}, u'state': [0, u'__', u'__', u'__', u'__', u'__', u'__', u'__', u'__', u'__', u'__', u'__', u'__', u'__', u'__', u'__', u'__'], u'V': 20}]","[538, 18075, 63129]","[u'0', u'0', u'1']","[[0, u'__', u'__', u'__', u'__', u'__', u'__', u'__', u'__', u'__', u'__', u'__', u'__', u'__', u'__', u'__', u'__']]",,[15],[True],[u'__TERM_ACTION__'],"[0, 1, 2, 3]",[True],[False],"{u'mouseover': {u'state': {u'target': [], u'time': []}, u'edge': {u'target': [], u'time': []}}, u'click': {u'state': {u'target': [], u'time': []}, u'edge': {u'target': [], u'time': []}}, u'mouseout': {u'state': {u'target': [], u'time': []}, u'edge': {u'target': [], u'time': []}}}",,,"[538, 2035, 44563]",12.0,608300,7.0,4860.0,mouselab-mdp,,3
"[{u'Q': 20, u'action': u'__TERM_ACTION__', u'Qs': {u'1': -20, u'9': -4, u'13': -4, u'5': 20}, u'state': [0, u'__', u'__', u'__', u'__', u'__', u'__', u'__', u'__', u'__', u'__', u'__', u'__', u'__', u'__', u'__', u'__'], u'V': 20}]","[1233, 25920, 53473]","[u'1', u'1', u'2']","[[0, u'__', u'__', u'__', u'__', u'__', u'__', u'__', u'__', u'__', u'__', u'__', u'__', u'__', u'__', u'__', u'__']]",,[15],[True],[u'__TERM_ACTION__'],"[0, 5, 6, 7]",[False],[False],"{u'mouseover': {u'state': {u'target': [], u'time': []}, u'edge': {u'target': [], u'time': []}}, u'click': {u'state': {u'target': [], u'time': []}, u'edge': {u'target': [], u'time': []}}, u'mouseout': {u'state': {u'target': [], u'time': []}, u'edge': {u'target': [], u'time': []}}}",,,"[1233, 9186, 27056]",12.0,665916,8.0,54.0,mouselab-mdp,,3
"[{u'Q': -4, u'action': u'__TERM_ACTION__', u'Qs': {u'1': 4, u'9': -4, u'13': 20, u'5': -12}, u'state': [0, u'__', u'__', u'__', u'__', u'__', u'__', u'__', u'__', u'__', u'__', u'__', u'__', u'__', u'__', u'__', u'__'], u'V': 20}]","[2101, 28631, 30422]","[u'2', u'2', u'1']","[[0, u'__', u'__', u'__', u'__', u'__', u'__', u'__', u'__', u'__', u'__', u'__', u'__', u'__', u'__', u'__', u'__']]",,[15],[True],[u'__TERM_ACTION__'],"[0, 9, 10, 12]",[True],[False],"{u'mouseover': {u'state': {u'target': [], u'time': []}, u'edge': {u'target': [], u'time': []}}, u'click': {u'state': {u'target': [], u'time': []}, u'edge': {u'target': [], u'time': []}}, u'mouseout': {u'state': {u'target': [], u'time': []}, u'edge': {u'target': [], u'time': []}}}",,,"[2101, 11037, 1288]",-12.0,733918,9.0,2306.0,mouselab-mdp,,3
"[{u'Q': 4, u'action': u'__TERM_ACTION__', u'Qs': {u'1': 12, u'9': 20, u'13': 4, u'5': -12}, u'state': [0, u'__', u'__', u'__', u'__', u'__', u'__', u'__', u'__', u'__', u'__', u'__', u'__', u'__', u'__', u'__', u'__'], u'V': 20}]","[2816, 23872, 26304]","[u'3', u'3', u'0']","[[0, u'__', u'__', u'__', u'__', u'__', u'__', u'__', u'__', u'__', u'__', u'__', u'__', u'__', u'__', u'__', u'__']]",,[15],[True],[u'__TERM_ACTION__'],"[0, 13, 14, 15]",[True],[False],"{u'mouseover': {u'state': {u'target': [], u'time': []}, u'edge': {u'target': [], u'time': []}}, u'click': {u'state': {u'target': [], u'time': []}, u'edge': {u'target': [], u'time': []}}, u'mouseout': {u'state': {u'target': [], u'time': []}, u'edge': {u'target': [], u'time': []}}}",,,"[2816, 5560, 1939]",-4.0,789002,10.0,4684.0,mouselab-mdp,,3
,"[4078, 7615, 9568]","[u'1', u'1', u'0']","[[0, u'__', u'__', u'__', u'__', u'__', u'__', u'__', u'__', u'__', u'__', u'__', u'__', u'__', u'__', u'__', u'__']]",,[],[],[u'__TERM_ACTION__'],"[0, 5, 6, 8]",[],[],"{u'mouseover': {u'state': {u'target': [], u'time': []}, u'edge': {u'target': [], u'time': []}}, u'click': {u'state': {u'target': [], u'time': []}, u'edge': {u'target': [], u'time': []}}, u'mouseout': {u'state': {u'target': [], u'time': []}, u'edge': {u'target': [], u'time': []}}}",,,"[4077, 3033, 1458]",36.0,833087,11.0,3324.0,mouselab-mdp,,3
,"[2420, 7284, 10421]","[u'0', u'0', u'3']","[[0, u'__', u'__', u'__', u'__', u'__', u'__', u'__', u'__', u'__', u'__', u'__', u'__', u'__', u'__', u'__', u'__']]",,[],[],[u'__TERM_ACTION__'],"[0, 1, 2, 4]",[],[],"{u'mouseover': {u'state': {u'target': [], u'time': []}, u'edge': {u'target': [], u'time': []}}, u'click': {u'state': {u'target': [], u'time': []}, u'edge': {u'target': [], u'time': []}}, u'mouseout': {u'state': {u'target': [], u'time': []}, u'edge': {u'target': [], u'time': []}}}",,,"[2420, 4359, 2648]",-4.0,891868,12.0,1313.0,mouselab-mdp,,3
,"[1876, 4340, 5892]","[u'1', u'1', u'0']","[[0, u'__', u'__', u'__', u'__', u'__', u'__', u'__', u'__', u'__', u'__', u'__', u'__', u'__', u'__', u'__', u'__']]",,[],[],[u'__TERM_ACTION__'],"[0, 5, 6, 8]",[],[],"{u'mouseover': {u'state': {u'target': [], u'time': []}, u'edge': {u'target': [], u'time': []}}, u'click': {u'state': {u'target': [], u'time': []}, u'edge': {u'target': [], u'time': []}}, u'mouseout': {u'state': {u'target': [], u'time': []}, u'edge': {u'target': [], u'time': []}}}",,,"[1876, 1964, 1058]",-4.0,944447,13.0,1597.0,mouselab-mdp,,3
,"[706, 2113, 3345]","[u'2', u'2', u'1']","[[0, u'__', u'__', u'__', u'__', u'__', u'__', u'__', u'__', u'__', u'__', u'__', u'__', u'__', u'__', u'__', u'__']]",,[],[],[u'__TERM_ACTION__'],"[0, 9, 10, 12]",[],[],"{u'mouseover': {u'state': {u'target': [], u'time': []}, u'edge': {u'target': [], u'time': []}}, u'click': {u'state': {u'target': [], u'time': []}, u'edge': {u'target': [], u'time': []}}, u'mouseout': {u'state': {u'target': [], u'time': []}, u'edge': {u'target': [], u'time': []}}}",,,"[706, 905, 732]",36.0,985534,14.0,3845.0,mouselab-mdp,,3
,"[2923, 4271, 5484]","[u'3', u'3', u'2']","[[0, u'__', u'__', u'__', u'__', u'__', u'__', u'__', u'__', u'__', u'__', u'__', u'__', u'__', u'__', u'__', u'__']]",,[],[],[u'__TERM_ACTION__'],"[0, 13, 14, 16]",[],[],"{u'mouseover': {u'state': {u'target': [], u'time': []}, u'edge': {u'target': [], u'time': []}}, u'click': {u'state': {u'target': [], u'time': []}, u'edge': {u'target': [], u'time': []}}, u'mouseout': {u'state': {u'target': [], u'time': []}, u'edge': {u'target': [], u'time': []}}}",,,"[2923, 855, 715]",-4.0,1039230,15.0,4439.0,mouselab-mdp,,3
,"[3643, 4859, 6235]","[u'1', u'1', u'0']","[[0, u'__', u'__', u'__', u'__', u'__', u'__', u'__', u'__', u'__', u'__', u'__', u'__', u'__', u'__', u'__', u'__']]",,[],[],[u'__TERM_ACTION__'],"[0, 5, 6, 8]",[],[],"{u'mouseover': {u'state': {u'target': [], u'time': []}, u'edge': {u'target': [], u'time': []}}, u'click': {u'state': {u'target': [], u'time': []}, u'edge': {u'target': [], u'time': []}}, u'mouseout': {u'state': {u'target': [], u'time': []}, u'edge': {u'target': [], u'time': []}}}",,,"[3642, 718, 873]",28.0,1079327,16.0,2319.0,mouselab-mdp,,3
"[{u'Q': 12, u'action': u'__TERM_ACTION__', u'Qs': {u'1': 12, u'9': 12, u'13': -20, u'5': 20}, u'state': [0, u'__', u'__', -4, u'__', u'__', u'__', u'__', u'__', u'__', u'__', u'__', u'__', u'__', u'__', -12, u'__'], u'V': 20}]","[27753, 36021, 42925]","[u'2', u'2', u'3']","[[0, u'__', u'__', u'__', u'__', u'__', u'__', u'__', u'__', u'__', u'__', u'__', u'__', u'__', u'__', u'__', u'__'], [0, u'__', u'__', u'__', u'__', u'__', u'__', u'__', u'__', u'__', u'__', u'__', u'__', u'__', u'__', -12, u'__'], [0, u'__', u'__', -4, u'__', u'__', u'__', u'__', u'__', u'__', u'__', u'__', u'__', u'__', u'__', -12, u'__']]",,[5],[True],"[15, 3, u'__TERM_ACTION__']","[0, 9, 10, 11]",[True],[False],"{u'mouseover': {u'state': {u'target': [], u'time': []}, u'edge': {u'target': [], u'time': []}}, u'click': {u'state': {u'target': [15, 3], u'time': [11854, 20680]}, u'edge': {u'target': [], u'time': []}}, u'mouseout': {u'state': {u'target': [], u'time': []}, u'edge': {u'target': [], u'time': []}}}",,,"[27753, 2744, 6393]",-12.0,294967,1.0,14313.0,mouselab-mdp,,4
"[{u'Q': -12, u'action': u'__TERM_ACTION__', u'Qs': {u'1': 12, u'9': 20, u'13': 20, u'5': -12}, u'state': [0, u'__', u'__', u'__', u'__', u'__', u'__', u'__', u'__', u'__', u'__', u'__', u'__', u'__', u'__', u'__', u'__'], u'V': 20}]","[6456, 12985, 16353]","[u'1', u'1', u'2']","[[0, u'__', u'__', u'__', u'__', u'__', u'__', u'__', u'__', u'__', u'__', u'__', u'__', u'__', u'__', u'__', u'__']]",,[5],[True],[u'__TERM_ACTION__'],"[0, 5, 6, 7]",[True],[False],"{u'mouseover': {u'state': {u'target': [], u'time': []}, u'edge': {u'target': [], u'time': []}}, u'click': {u'state': {u'target': [], u'time': []}, u'edge': {u'target': [], u'time': []}}, u'mouseout': {u'state': {u'target': [], u'time': []}, u'edge': {u'target': [], u'time': []}}}",,,"[6456, 1007, 2860]",-12.0,346758,2.0,10323.0,mouselab-mdp,,4
"[{u'Q': 12, u'action': u'__TERM_ACTION__', u'Qs': {u'1': -20, u'9': 12, u'13': 12, u'5': 20}, u'state': [0, u'__', u'__', u'__', u'__', u'__', u'__', u'__', u'__', u'__', u'__', u'__', u'__', u'__', u'__', 4, u'__'], u'V': 20}]","[10950, 17126, 18958]","[u'3', u'3', u'0']","[[0, u'__', u'__', u'__', u'__', u'__', u'__', u'__', u'__', u'__', u'__', u'__', u'__', u'__', u'__', u'__', u'__'], [0, u'__', u'__', u'__', u'__', u'__', u'__', u'__', u'__', u'__', u'__', u'__', u'__', u'__', u'__', 4, u'__']]",,[5],[True],"[15, u'__TERM_ACTION__']","[0, 13, 14, 15]",[True],[False],"{u'mouseover': {u'state': {u'target': [], u'time': []}, u'edge': {u'target': [], u'time': []}}, u'click': {u'state': {u'target': [15], u'time': [5954]}, u'edge': {u'target': [], u'time': []}}, u'mouseout': {u'state': {u'target': [], u'time': []}, u'edge': {u'target': [], u'time': []}}}",,,"[10950, 659, 1312]",8.0,403909,3.0,12086.0,mouselab-mdp,,4
"[{u'Q': 20, u'action': u'__TERM_ACTION__', u'Qs': {u'1': 4, u'9': -4, u'13': 20, u'5': 4}, u'state': [0, u'__', u'__', u'__', u'__', u'__', u'__', u'__', u'__', u'__', u'__', u'__', u'__', u'__', u'__', 20, u'__'], u'V': 20}]","[3601, 9569, 12400]","[u'3', u'3', u'0']","[[0, u'__', u'__', u'__', u'__', u'__', u'__', u'__', u'__', u'__', u'__', u'__', u'__', u'__', u'__', u'__', u'__'], [0, u'__', u'__', u'__', u'__', u'__', u'__', u'__', u'__', u'__', u'__', u'__', u'__', u'__', u'__', 20, u'__']]",,[5],[True],"[15, u'__TERM_ACTION__']","[0, 13, 14, 15]",[False],[False],"{u'mouseover': {u'state': {u'target': [], u'time': []}, u'edge': {u'target': [], u'time': []}}, u'click': {u'state': {u'target': [15], u'time': [2671]}, u'edge': {u'target': [], u'time': []}}, u'mouseout': {u'state': {u'target': [], u'time': []}, u'edge': {u'target': [], u'time': []}}}",,,"[3601, 440, 2311]",16.0,452629,4.0,13397.0,mouselab-mdp,,4
"[{u'Q': 12, u'action': u'__TERM_ACTION__', u'Qs': {u'1': 12, u'9': 20, u'13': 4, u'5': -12}, u'state': [0, u'__', u'__', u'__', 20, u'__', u'__', u'__', u'__', u'__', u'__', u'__', u'__', u'__', u'__', u'__', u'__'], u'V': 20}]","[7840, 14983, 17039]","[u'0', u'0', u'3']","[[0, u'__', u'__', u'__', u'__', u'__', u'__', u'__', u'__', u'__', u'__', u'__', u'__', u'__', u'__', u'__', u'__'], [0, u'__', u'__', u'__', 20, u'__', u'__', u'__', u'__', u'__', u'__', u'__', u'__', u'__', u'__', u'__', u'__']]",,[5],[True],"[4, u'__TERM_ACTION__']","[0, 1, 2, 4]",[True],[False],"{u'mouseover': {u'state': {u'target': [], u'time': []}, u'edge': {u'target': [], u'time': []}}, u'click': {u'state': {u'target': [4], u'time': [2992]}, u'edge': {u'target': [], u'time': []}}, u'mouseout': {u'state': {u'target': [], u'time': []}, u'edge': {u'target': [], u'time': []}}}",,,"[7840, 1608, 1536]",8.0,505276,5.0,12291.0,mouselab-mdp,,4
"[{u'Q': 20, u'action': u'__TERM_ACTION__', u'Qs': {u'1': 12, u'9': -12, u'13': 12, u'5': 20}, u'state': [0, u'__', u'__', u'__', u'__', u'__', u'__', -4, 4, u'__', u'__', -4, u'__', u'__', u'__', -12, u'__'], u'V': 20}]","[13194, 19130, 21634]","[u'1', u'1', u'0']","[[0, u'__', u'__', u'__', u'__', u'__', u'__', u'__', u'__', u'__', u'__', u'__', u'__', u'__', u'__', u'__', u'__'], [0, u'__', u'__', u'__', u'__', u'__', u'__', -4, u'__', u'__', u'__', u'__', u'__', u'__', u'__', u'__', u'__'], [0, u'__', u'__', u'__', u'__', u'__', u'__', -4, u'__', u'__', u'__', u'__', u'__', u'__', u'__', -12, u'__'], [0, u'__', u'__', u'__', u'__', u'__', u'__', -4, u'__', u'__', u'__', -4, u'__', u'__', u'__', -12, u'__'], [0, u'__', u'__', u'__', u'__', u'__', u'__', -4, 4, u'__', u'__', -4, u'__', u'__', u'__', -12, u'__']]",,[5],[True],"[7, 15, 11, 8, u'__TERM_ACTION__']","[0, 5, 6, 8]",[False],[False],"{u'mouseover': {u'state': {u'target': [], u'time': []}, u'edge': {u'target': [], u'time': []}}, u'click': {u'state': {u'target': [7, 15, 11, 8], u'time': [3703, 5099, 6227, 7605]}, u'edge': {u'target': [], u'time': []}}, u'mouseout': {u'state': {u'target': [], u'time': []}, u'edge': {u'target': [], u'time': []}}}",,,"[13194, 415, 1991]",4.0,554931,6.0,12579.0,mouselab-mdp,,4
"[{u'Q': 4, u'action': u'__TERM_ACTION__', u'Qs': {u'1': 4, u'9': -12, u'13': 20, u'5': 12}, u'state': [0, u'__', u'__', u'__', u'__', u'__', u'__', u'__', u'__', u'__', u'__', u'__', u'__', u'__', u'__', u'__', u'__'], u'V': 20}]","[10873, 16842, 18770]","[u'0', u'0', u'1']","[[0, u'__', u'__', u'__', u'__', u'__', u'__', u'__', u'__', u'__', u'__', u'__', u'__', u'__', u'__', u'__', u'__']]",,[5],[True],[u'__TERM_ACTION__'],"[0, 1, 2, 3]",[True],[False],"{u'mouseover': {u'state': {u'target': [], u'time': []}, u'edge': {u'target': [], u'time': []}}, u'click': {u'state': {u'target': [], u'time': []}, u'edge': {u'target': [], u'time': []}}, u'mouseout': {u'state': {u'target': [], u'time': []}, u'edge': {u'target': [], u'time': []}}}",,,"[10873, 444, 1407]",4.0,603979,7.0,12675.0,mouselab-mdp,,4
"[{u'Q': 20, u'action': u'__TERM_ACTION__', u'Qs': {u'1': 12, u'9': -12, u'13': 20, u'5': 4}, u'state': [0, u'__', u'__', u'__', u'__', u'__', u'__', u'__', u'__', u'__', u'__', u'__', u'__', 4, u'__', u'__', u'__'], u'V': 20}]","[22166, 28028, 30813]","[u'3', u'3', u'2']","[[0, u'__', u'__', u'__', u'__', u'__', u'__', u'__', u'__', u'__', u'__', u'__', u'__', u'__', u'__', u'__', u'__'], [0, u'__', u'__', u'__', u'__', u'__', u'__', u'__', u'__', u'__', u'__', u'__', u'__', 4, u'__', u'__', u'__']]",,[5],[True],"[13, u'__TERM_ACTION__']","[0, 13, 14, 16]",[False],[False],"{u'mouseover': {u'state': {u'target': [], u'time': []}, u'edge': {u'target': [], u'time': []}}, u'click': {u'state': {u'target': [13], u'time': [20000]}, u'edge': {u'target': [], u'time': []}}, u'mouseout': {u'state': {u'target': [], u'time': []}, u'edge': {u'target': [], u'time': []}}}",,,"[22165, 351, 2276]",0.0,650530,8.0,13051.0,mouselab-mdp,,4
"[{u'Q': 20, u'action': u'__TERM_ACTION__', u'Qs': {u'1': -12, u'9': -4, u'13': 4, u'5': 20}, u'state': [0, u'__', u'__', u'__', 4, u'__', u'__', u'__', u'__', u'__', u'__', u'__', u'__', u'__', u'__', u'__', u'__'], u'V': 20}]","[10502, 16526, 18445]","[u'1', u'1', u'2']","[[0, u'__', u'__', u'__', u'__', u'__', u'__', u'__', u'__', u'__', u'__', u'__', u'__', u'__', u'__', u'__', u'__'], [0, u'__', u'__', u'__', 4, u'__', u'__', u'__', u'__', u'__', u'__', u'__', u'__', u'__', u'__', u'__', u'__']]",,[5],[False],"[4, u'__TERM_ACTION__']","[0, 5, 6, 7]",[False],[False],"{u'mouseover': {u'state': {u'target': [], u'time': []}, u'edge': {u'target': [], u'time': []}}, u'click': {u'state': {u'target': [4], u'time': [4841]}, u'edge': {u'target': [], u'time': []}}, u'mouseout': {u'state': {u'target': [], u'time': []}, u'edge': {u'target': [], u'time': []}}}",,,"[10502, 504, 1413]",0.0,703370,9.0,12615.0,mouselab-mdp,,4
"[{u'Q': 4, u'action': u'__TERM_ACTION__', u'Qs': {u'1': 4, u'9': 4, u'13': 20, u'5': -12}, u'state': [0, u'__', u'__', u'__', u'__', u'__', u'__', u'__', u'__', u'__', u'__', u'__', u'__', u'__', u'__', u'__', u'__'], u'V': 20}]","[1765, 7750, 9045]","[u'2', u'2', u'1']","[[0, u'__', u'__', u'__', u'__', u'__', u'__', u'__', u'__', u'__', u'__', u'__', u'__', u'__', u'__', u'__', u'__']]",,[5],[True],[u'__TERM_ACTION__'],"[0, 9, 10, 12]",[True],[False],"{u'mouseover': {u'state': {u'target': [], u'time': []}, u'edge': {u'target': [], u'time': []}}, u'click': {u'state': {u'target': [], u'time': []}, u'edge': {u'target': [], u'time': []}}, u'mouseout': {u'state': {u'target': [], u'time': []}, u'edge': {u'target': [], u'time': []}}}",,,"[1765, 471, 784]",4.0,749897,10.0,14785.0,mouselab-mdp,,4
,"[13024, 18945, 20553]","[u'1', u'1', u'0']","[[0, u'__', u'__', u'__', u'__', u'__', u'__', u'__', u'__', u'__', u'__', u'__', u'__', u'__', u'__', u'__', u'__']]",,[],[],[u'__TERM_ACTION__'],"[0, 5, 6, 8]",[],[],"{u'mouseover': {u'state': {u'target': [], u'time': []}, u'edge': {u'target': [], u'time': []}}, u'click': {u'state': {u'target': [], u'time': []}, u'edge': {u'target': [], u'time': []}}, u'mouseout': {u'state': {u'target': [], u'time': []}, u'edge': {u'target': [], u'time': []}}}",,,"[13024, 5414, 1091]",-12.0,792817,11.0,12997.0,mouselab-mdp,,4
,"[5081, 6521, 8904]","[u'2', u'2', u'3']","[[0, u'__', u'__', u'__', u'__', u'__', u'__', u'__', u'__', u'__', u'__', u'__', u'__', u'__', u'__', u'__', u'__'], [0, u'__', u'__', u'__', u'__', u'__', u'__', u'__', u'__', u'__', u'__', u'__', u'__', u'__', u'__', u'__', -4], [0, u'__', u'__', u'__', u'__', u'__', u'__', u'__', 4, u'__', u'__', u'__', u'__', u'__', u'__', u'__', -4]]",,[],[],"[16, 8, u'__TERM_ACTION__']","[0, 9, 10, 11]",[],[],"{u'mouseover': {u'state': {u'target': [], u'time': []}, u'edge': {u'target': [], u'time': []}}, u'click': {u'state': {u'target': [16, 8], u'time': [867, 2026]}, u'edge': {u'target': [], u'time': []}}, u'mouseout': {u'state': {u'target': [], u'time': []}, u'edge': {u'target': [], u'time': []}}}",,,"[5080, 933, 1875]",20.0,834481,12.0,10339.0,mouselab-mdp,,4
,"[8193, 10857, 12344]","[u'0', u'0', u'1']","[[0, u'__', u'__', u'__', u'__', u'__', u'__', u'__', u'__', u'__', u'__', u'__', u'__', u'__', u'__', u'__', u'__'], [0, u'__', u'__', u'__', u'__', u'__', u'__', u'__', u'__', u'__', u'__', u'__', u'__', u'__', u'__', -12, u'__'], [0, u'__', u'__', u'__', u'__', u'__', u'__', -4, u'__', u'__', u'__', u'__', u'__', u'__', u'__', -12, u'__'], [0, u'__', u'__', u'__', -12, u'__', u'__', -4, u'__', u'__', u'__', u'__', u'__', u'__', u'__', -12, u'__']]",,[],[],"[15, 7, 4, u'__TERM_ACTION__']","[0, 1, 2, 3]",[],[],"{u'mouseover': {u'state': {u'target': [], u'time': []}, u'edge': {u'target': [], u'time': []}}, u'click': {u'state': {u'target': [15, 7, 4], u'time': [2813, 4350, 6331]}, u'edge': {u'target': [], u'time': []}}, u'mouseout': {u'state': {u'target': [], u'time': []}, u'edge': {u'target': [], u'time': []}}}",,,"[8193, 2157, 980]",-32.0,876512,13.0,12186.0,mouselab-mdp,,4
,"[11905, 13577, 14833]","[u'2', u'2', u'1']","[[0, u'__', u'__', u'__', u'__', u'__', u'__', u'__', u'__', u'__', u'__', u'__', u'__', u'__', u'__', u'__', u'__'], [0, -12, u'__', u'__', u'__', u'__', u'__', u'__', u'__', u'__', u'__', u'__', u'__', u'__', u'__', u'__', u'__'], [0, -12, u'__', u'__', u'__', u'__', u'__', u'__', u'__', u'__', u'__', u'__', u'__', -4, u'__', u'__', u'__'], [0, -12, u'__', u'__', u'__', u'__', u'__', u'__', u'__', -4, u'__', u'__', u'__', -4, u'__', u'__', u'__'], [0, -12, u'__', u'__', u'__', u'__', -4, u'__', u'__', -4, u'__', u'__', u'__', -4, u'__', u'__', u'__'], [0, -12, u'__', u'__', u'__', u'__', -4, u'__', u'__', -4, u'__', u'__', u'__', -4, u'__', u'__', 4], [0, -12, u'__', u'__', u'__', u'__', -4, u'__', u'__', -4, u'__', u'__', 20, -4, u'__', u'__', 4]]",,[],[],"[1, 13, 9, 6, 16, 12, u'__TERM_ACTION__']","[0, 9, 10, 12]",[],[],"{u'mouseover': {u'state': {u'target': [], u'time': []}, u'edge': {u'target': [], u'time': []}}, u'click': {u'state': {u'target': [1, 13, 9, 6, 16, 12], u'time': [1763, 3133, 4471, 5877, 8190, 9993]}, u'edge': {u'target': [], u'time': []}}, u'mouseout': {u'state': {u'target': [], u'time': []}, u'edge': {u'target': [], u'time': []}}}",,,"[11905, 1153, 733]",-12.0,919072,14.0,12022.0,mouselab-mdp,,4
,"[3478, 5279, 6895]","[u'0', u'0', u'1']","[[0, u'__', u'__', u'__', u'__', u'__', u'__', u'__', u'__', u'__', u'__', u'__', u'__', u'__', u'__', u'__', u'__']]",,[],[],[u'__TERM_ACTION__'],"[0, 1, 2, 3]",[],[],"{u'mouseover': {u'state': {u'target': [], u'time': []}, u'edge': {u'target': [], u'time': []}}, u'click': {u'state': {u'target': [], u'time': []}, u'edge': {u'target': [], u'time': []}}, u'mouseout': {u'state': {u'target': [], u'time': []}, u'edge': {u'target': [], u'time': []}}}",,,"[3478, 1280, 1105]",4.0,980878,15.0,11337.0,mouselab-mdp,,4
,"[1708, 2892, 3604]","[u'2', u'2', u'3']","[[0, u'__', u'__', u'__', u'__', u'__', u'__', u'__', u'__', u'__', u'__', u'__', u'__', u'__', u'__', u'__', u'__']]",,[],[],[u'__TERM_ACTION__'],"[0, 9, 10, 11]",[],[],"{u'mouseover': {u'state': {u'target': [], u'time': []}, u'edge': {u'target': [], u'time': []}}, u'click': {u'state': {u'target': [], u'time': []}, u'edge': {u'target': [], u'time': []}}, u'mouseout': {u'state': {u'target': [], u'time': []}, u'edge': {u'target': [], u'time': []}}}",,,"[1708, 673, 196]",12.0,1026670,16.0,13777.0,mouselab-mdp,,4
"[{u'Q': 20, u'action': u'__TERM_ACTION__', u'Qs': {u'1': -20, u'9': 20, u'13': 20, u'5': 12}, u'state': [0, u'__', u'__', u'__', u'__', u'__', u'__', u'__', u'__', u'__', u'__', u'__', u'__', 4, 12, -4, 4], u'V': 20}]","[14644, 32147, 35595]","[u'3', u'3', u'2']","[[0, u'__', u'__', u'__', u'__', u'__', u'__', u'__', u'__', u'__', u'__', u'__', u'__', u'__', u'__', u'__', u'__'], [0, u'__', u'__', u'__', u'__', u'__', u'__', u'__', u'__', u'__', u'__', u'__', u'__', 4, u'__', u'__', u'__'], [0, u'__', u'__', u'__', u'__', u'__', u'__', u'__', u'__', u'__', u'__', u'__', u'__', 4, u'__', u'__', 4], [0, u'__', u'__', u'__', u'__', u'__', u'__', u'__', u'__', u'__', u'__', u'__', u'__', 4, u'__', -4, 4], [0, u'__', u'__', u'__', u'__', u'__', u'__', u'__', u'__', u'__', u'__', u'__', u'__', 4, 12, -4, 4]]",,[15],[True],"[13, 16, 15, 14, u'__TERM_ACTION__']","[0, 13, 14, 16]",[False],[False],"{u'mouseover': {u'state': {u'target': [], u'time': []}, u'edge': {u'target': [], u'time': []}}, u'click': {u'state': {u'target': [13, 16, 15, 14], u'time': [3558, 7472, 8994, 9942]}, u'edge': {u'target': [], u'time': []}}, u'mouseout': {u'state': {u'target': [], u'time': []}, u'edge': {u'target': [], u'time': []}}}",,,"[14644, 2000, 2933]",15.0,243329,1.0,9876.0,mouselab-mdp,,5
"[{u'Q': 20, u'action': u'__TERM_ACTION__', u'Qs': {u'1': 20, u'9': 4, u'13': -28, u'5': 20}, u'state': [0, u'__', u'__', u'__', u'__', 12, -4, 12, 4, u'__', u'__', u'__', u'__', u'__', u'__', u'__', u'__'], u'V': 20}]","[9046, 28321, 47060]","[u'1', u'1', u'2']","[[0, u'__', u'__', u'__', u'__', u'__', u'__', u'__', u'__', u'__', u'__', u'__', u'__', u'__', u'__', u'__', u'__'], [0, u'__', u'__', u'__', u'__', 12, u'__', u'__', u'__', u'__', u'__', u'__', u'__', u'__', u'__', u'__', u'__'], [0, u'__', u'__', u'__', u'__', 12, -4, u'__', u'__', u'__', u'__', u'__', u'__', u'__', u'__', u'__', u'__'], [0, u'__', u'__', u'__', u'__', 12, -4, 12, u'__', u'__', u'__', u'__', u'__', u'__', u'__', u'__', u'__'], [0, u'__', u'__', u'__', u'__', 12, -4, 12, 4, u'__', u'__', u'__', u'__', u'__', u'__', u'__', u'__']]",,[15],[True],"[5, 6, 7, 8, u'__TERM_ACTION__']","[0, 5, 6, 7]",[False],[False],"{u'mouseover': {u'state': {u'target': [], u'time': []}, u'edge': {u'target': [], u'time': []}}, u'click': {u'state': {u'target': [5, 6, 7, 8], u'time': [3859, 5026, 5786, 6493]}, u'edge': {u'target': [], u'time': []}}, u'mouseout': {u'state': {u'target': [], u'time': []}, u'edge': {u'target': [], u'time': []}}}",,,"[9046, 3758, 18250]",15.0,320104,2.0,8969.0,mouselab-mdp,,5
"[{u'Q': 20, u'action': u'__TERM_ACTION__', u'Qs': {u'1': -12, u'9': 4, u'13': 20, u'5': -12}, u'state': [0, 4, u'__', u'__', u'__', 4, -12, u'__', u'__', -12, u'__', u'__', u'__', 4, 12, u'__', u'__'], u'V': 20}]","[8279, 26187, 64344]","[u'3', u'3', u'2']","[[0, u'__', u'__', u'__', u'__', u'__', u'__', u'__', u'__', u'__', u'__', u'__', u'__', u'__', u'__', u'__', u'__'], [0, u'__', u'__', u'__', u'__', u'__', u'__', u'__', u'__', -12, u'__', u'__', u'__', u'__', u'__', u'__', u'__'], [0, u'__', u'__', u'__', u'__', u'__', u'__', u'__', u'__', -12, u'__', u'__', u'__', 4, u'__', u'__', u'__'], [0, 4, u'__', u'__', u'__', u'__', u'__', u'__', u'__', -12, u'__', u'__', u'__', 4, u'__', u'__', u'__'], [0, 4, u'__', u'__', u'__', 4, u'__', u'__', u'__', -12, u'__', u'__', u'__', 4, u'__', u'__', u'__'], [0, 4, u'__', u'__', u'__', 4, -12, u'__', u'__', -12, u'__', u'__', u'__', 4, u'__', u'__', u'__'], [0, 4, u'__', u'__', u'__', 4, -12, u'__', u'__', -12, u'__', u'__', u'__', 4, 12, u'__', u'__']]",,[15],[True],"[9, 13, 1, 5, 6, 14, u'__TERM_ACTION__']","[0, 13, 14, 16]",[False],[False],"{u'mouseover': {u'state': {u'target': [], u'time': []}, u'edge': {u'target': [], u'time': []}}, u'click': {u'state': {u'target': [9, 13, 1, 5, 6, 14], u'time': [1811, 2457, 3014, 3520, 5679, 6672]}, u'edge': {u'target': [], u'time': []}}, u'mouseout': {u'state': {u'target': [], u'time': []}, u'edge': {u'target': [], u'time': []}}}",,,"[8279, 2413, 37639]",12.5,390004,3.0,7003.0,mouselab-mdp,,5
"[{u'Q': 12, u'action': u'__TERM_ACTION__', u'Qs': {u'1': -20, u'9': 12, u'13': 4, u'5': 20}, u'state': [0, -4, u'__', u'__', u'__', -4, u'__', u'__', u'__', -4, u'__', u'__', u'__', -4, u'__', u'__', u'__'], u'V': 20}]","[7380, 28699, 42350]","[u'2', u'2', u'3']","[[0, u'__', u'__', u'__', u'__', u'__', u'__', u'__', u'__', u'__', u'__', u'__', u'__', u'__', u'__', u'__', u'__'], [0, u'__', u'__', u'__', u'__', u'__', u'__', u'__', u'__', u'__', u'__', u'__', u'__', -4, u'__', u'__', u'__'], [0, u'__', u'__', u'__', u'__', -4, u'__', u'__', u'__', u'__', u'__', u'__', u'__', -4, u'__', u'__', u'__'], [0, -4, u'__', u'__', u'__', -4, u'__', u'__', u'__', u'__', u'__', u'__', u'__', -4, u'__', u'__', u'__'], [0, -4, u'__', u'__', u'__', -4, u'__', u'__', u'__', -4, u'__', u'__', u'__', -4, u'__', u'__', u'__']]",,[15],[True],"[13, 5, 1, 9, u'__TERM_ACTION__']","[0, 9, 10, 11]",[True],[False],"{u'mouseover': {u'state': {u'target': [], u'time': []}, u'edge': {u'target': [], u'time': []}}, u'click': {u'state': {u'target': [13, 5, 1, 9], u'time': [2156, 2901, 3523, 4129]}, u'edge': {u'target': [], u'time': []}}, u'mouseout': {u'state': {u'target': [], u'time': []}, u'edge': {u'target': [], u'time': []}}}",,,"[7380, 5819, 13155]",-1.0,467018,4.0,6615.0,mouselab-mdp,,5
"[{u'Q': 20, u'action': u'__TERM_ACTION__', u'Qs': {u'1': 20, u'9': -12, u'13': 4, u'5': 20}, u'state': [0, u'__', u'__', u'__', u'__', 20, u'__', u'__', u'__', u'__', u'__', u'__', u'__', 4, -4, 4, -12], u'V': 20}]","[6526, 26875, 52556]","[u'1', u'1', u'2']","[[0, u'__', u'__', u'__', u'__', u'__', u'__', u'__', u'__', u'__', u'__', u'__', u'__', u'__', u'__', u'__', u'__'], [0, u'__', u'__', u'__', u'__', u'__', u'__', u'__', u'__', u'__', u'__', u'__', u'__', 4, u'__', u'__', u'__'], [0, u'__', u'__', u'__', u'__', u'__', u'__', u'__', u'__', u'__', u'__', u'__', u'__', 4, -4, u'__', u'__'], [0, u'__', u'__', u'__', u'__', u'__', u'__', u'__', u'__', u'__', u'__', u'__', u'__', 4, -4, u'__', -12], [0, u'__', u'__', u'__', u'__', u'__', u'__', u'__', u'__', u'__', u'__', u'__', u'__', 4, -4, 4, -12], [0, u'__', u'__', u'__', u'__', 20, u'__', u'__', u'__', u'__', u'__', u'__', u'__', 4, -4, 4, -12]]",,[15],[True],"[13, 14, 16, 15, 5, u'__TERM_ACTION__']","[0, 5, 6, 7]",[False],[False],"{u'mouseover': {u'state': {u'target': [], u'time': []}, u'edge': {u'target': [], u'time': []}}, u'click': {u'state': {u'target': [13, 14, 16, 15, 5], u'time': [864, 1602, 2254, 2976, 3930]}, u'edge': {u'target': [], u'time': []}}, u'mouseout': {u'state': {u'target': [], u'time': []}, u'edge': {u'target': [], u'time': []}}}",,,"[6526, 4843, 25192]",13.75,537251,5.0,8818.0,mouselab-mdp,,5
"[{u'Q': 20, u'action': u'__TERM_ACTION__', u'Qs': {u'1': 20, u'9': -12, u'13': 4, u'5': 12}, u'state': [0, 12, u'__', u'__', u'__', u'__', u'__', u'__', u'__', u'__', u'__', u'__', u'__', u'__', 4, u'__', u'__'], u'V': 20}]","[4247, 30327, 61815]","[u'0', u'0', u'3']","[[0, u'__', u'__', u'__', u'__', u'__', u'__', u'__', u'__', u'__', u'__', u'__', u'__', u'__', u'__', u'__', u'__'], [0, 12, u'__', u'__', u'__', u'__', u'__', u'__', u'__', u'__', u'__', u'__', u'__', u'__', u'__', u'__', u'__'], [0, 12, u'__', u'__', u'__', u'__', u'__', u'__', u'__', u'__', u'__', u'__', u'__', u'__', 4, u'__', u'__']]",,[15],[True],"[1, 14, u'__TERM_ACTION__']","[0, 1, 2, 4]",[False],[False],"{u'mouseover': {u'state': {u'target': [], u'time': []}, u'edge': {u'target': [], u'time': []}}, u'click': {u'state': {u'target': [1, 14], u'time': [955, 1779]}, u'edge': {u'target': [], u'time': []}}, u'mouseout': {u'state': {u'target': [], u'time': []}, u'edge': {u'target': [], u'time': []}}}",,,"[4247, 10584, 30974]",9.5,624165,6.0,7618.0,mouselab-mdp,,5
"[{u'Q': 4, u'action': u'__TERM_ACTION__', u'Qs': {u'1': 4, u'9': 20, u'13': 12, u'5': -12}, u'state': [0, 4, 4, u'__', u'__', u'__', -4, u'__', u'__', u'__', 4, u'__', u'__', u'__', -12, u'__', u'__'], u'V': 20}]","[7970, 26434, 38524]","[u'0', u'0', u'3']","[[0, u'__', u'__', u'__', u'__', u'__', u'__', u'__', u'__', u'__', u'__', u'__', u'__', u'__', u'__', u'__', u'__'], [0, u'__', u'__', u'__', u'__', u'__', u'__', u'__', u'__', u'__', u'__', u'__', u'__', u'__', -12, u'__', u'__'], [0, u'__', u'__', u'__', u'__', u'__', -4, u'__', u'__', u'__', u'__', u'__', u'__', u'__', -12, u'__', u'__'], [0, u'__', 4, u'__', u'__', u'__', -4, u'__', u'__', u'__', u'__', u'__', u'__', u'__', -12, u'__', u'__'], [0, u'__', 4, u'__', u'__', u'__', -4, u'__', u'__', u'__', 4, u'__', u'__', u'__', -12, u'__', u'__'], [0, 4, 4, u'__', u'__', u'__', -4, u'__', u'__', u'__', 4, u'__', u'__', u'__', -12, u'__', u'__']]",,[15],[True],"[14, 6, 2, 10, 1, u'__TERM_ACTION__']","[0, 1, 2, 4]",[True],[False],"{u'mouseover': {u'state': {u'target': [], u'time': []}, u'edge': {u'target': [], u'time': []}}, u'click': {u'state': {u'target': [14, 6, 2, 10, 1], u'time': [1455, 2853, 3497, 4181, 5983]}, u'edge': {u'target': [], u'time': []}}, u'mouseout': {u'state': {u'target': [], u'time': []}, u'edge': {u'target': [], u'time': []}}}",,,"[7970, 2969, 11593]",-2.25,704634,7.0,6264.0,mouselab-mdp,,5
"[{u'Q': 20, u'action': u'__TERM_ACTION__', u'Qs': {u'1': -12, u'9': 20, u'13': -4, u'5': 20}, u'state': [0, u'__', -12, u'__', u'__', u'__', u'__', u'__', u'__', u'__', 12, u'__', u'__', u'__', -12, u'__', u'__'], u'V': 20}]","[6933, 41614, 60873]","[u'2', u'2', u'1']","[[0, u'__', u'__', u'__', u'__', u'__', u'__', u'__', u'__', u'__', u'__', u'__', u'__', u'__', u'__', u'__', u'__'], [0, u'__', u'__', u'__', u'__', u'__', u'__', u'__', u'__', u'__', 12, u'__', u'__', u'__', u'__', u'__', u'__'], [0, u'__', u'__', u'__', u'__', u'__', u'__', u'__', u'__', u'__', 12, u'__', u'__', u'__', -12, u'__', u'__'], [0, u'__', -12, u'__', u'__', u'__', u'__', u'__', u'__', u'__', 12, u'__', u'__', u'__', -12, u'__', u'__']]",,[15],[True],"[10, 14, 2, u'__TERM_ACTION__']","[0, 9, 10, 12]",[False],[False],"{u'mouseover': {u'state': {u'target': [], u'time': []}, u'edge': {u'target': [], u'time': []}}, u'click': {u'state': {u'target': [10, 14, 2], u'time': [4038, 4843, 5457]}, u'edge': {u'target': [], u'time': []}}, u'mouseout': {u'state': {u'target': [], u'time': []}, u'edge': {u'target': [], u'time': []}}}",,,"[6933, 19167, 18759]",0.25,772550,8.0,5157.0,mouselab-mdp,,5
"[{u'Q': 4, u'action': u'__TERM_ACTION__', u'Qs': {u'1': 4, u'9': -4, u'13': 20, u'5': 20}, u'state': [0, u'__', 4, u'__', u'__', u'__', -4, u'__', u'__', u'__', -4, u'__', u'__', u'__', 4, u'__', u'__'], u'V': 20}]","[4493, 24189, 37068]","[u'0', u'0', u'3']","[[0, u'__', u'__', u'__', u'__', u'__', u'__', u'__', u'__', u'__', u'__', u'__', u'__', u'__', u'__', u'__', u'__'], [0, u'__', u'__', u'__', u'__', u'__', u'__', u'__', u'__', u'__', u'__', u'__', u'__', u'__', 4, u'__', u'__'], [0, u'__', u'__', u'__', u'__', u'__', u'__', u'__', u'__', u'__', -4, u'__', u'__', u'__', 4, u'__', u'__'], [0, u'__', u'__', u'__', u'__', u'__', -4, u'__', u'__', u'__', -4, u'__', u'__', u'__', 4, u'__', u'__'], [0, u'__', 4, u'__', u'__', u'__', -4, u'__', u'__', u'__', -4, u'__', u'__', u'__', 4, u'__', u'__']]",,[15],[True],"[14, 10, 6, 2, u'__TERM_ACTION__']","[0, 1, 2, 4]",[True],[False],"{u'mouseover': {u'state': {u'target': [], u'time': []}, u'edge': {u'target': [], u'time': []}}, u'click': {u'state': {u'target': [14, 10, 6, 2], u'time': [1183, 1859, 2387, 2961]}, u'edge': {u'target': [], u'time': []}}, u'mouseout': {u'state': {u'target': [], u'time': []}, u'edge': {u'target': [], u'time': []}}}",,,"[4493, 4191, 12372]",-9.0,843670,9.0,7410.0,mouselab-mdp,,5
"[{u'Q': 12, u'action': u'__TERM_ACTION__', u'Qs': {u'1': -4, u'9': 20, u'13': 4, u'5': 12}, u'state': [0, u'__', -12, u'__', u'__', u'__', 4, u'__', u'__', u'__', -4, u'__', u'__', u'__', -4, u'__', u'__'], u'V': 20}]","[6826, 34920, 57845]","[u'1', u'1', u'2']","[[0, u'__', u'__', u'__', u'__', u'__', u'__', u'__', u'__', u'__', u'__', u'__', u'__', u'__', u'__', u'__', u'__'], [0, u'__', u'__', u'__', u'__', u'__', u'__', u'__', u'__', u'__', u'__', u'__', u'__', u'__', -4, u'__', u'__'], [0, u'__', u'__', u'__', u'__', u'__', u'__', u'__', u'__', u'__', -4, u'__', u'__', u'__', -4, u'__', u'__'], [0, u'__', u'__', u'__', u'__', u'__', 4, u'__', u'__', u'__', -4, u'__', u'__', u'__', -4, u'__', u'__'], [0, u'__', -12, u'__', u'__', u'__', 4, u'__', u'__', u'__', -4, u'__', u'__', u'__', -4, u'__', u'__']]",,[15],[True],"[14, 10, 6, 2, u'__TERM_ACTION__']","[0, 5, 6, 7]",[True],[False],"{u'mouseover': {u'state': {u'target': [], u'time': []}, u'edge': {u'target': [], u'time': []}}, u'click': {u'state': {u'target': [14, 10, 6, 2], u'time': [827, 1489, 2101, 3911]}, u'edge': {u'target': [], u'time': []}}, u'mouseout': {u'state': {u'target': [], u'time': []}, u'edge': {u'target': [], u'time': []}}}",,,"[6826, 12592, 22436]",7.0,932299,10.0,9359.0,mouselab-mdp,,5
,"[6261, 14112, 16094]","[u'3', u'3', u'0']","[[0, u'__', u'__', u'__', u'__', u'__', u'__', u'__', u'__', u'__', u'__', u'__', u'__', u'__', u'__', u'__', u'__'], [0, u'__', u'__', u'__', u'__', u'__', u'__', u'__', u'__', u'__', -12, u'__', u'__', u'__', u'__', u'__', u'__'], [0, u'__', u'__', u'__', u'__', u'__', u'__', u'__', u'__', u'__', -12, u'__', u'__', u'__', -4, u'__', u'__'], [0, u'__', -4, u'__', u'__', u'__', u'__', u'__', u'__', u'__', -12, u'__', u'__', u'__', -4, u'__', u'__'], [0, u'__', -4, u'__', u'__', u'__', -4, u'__', u'__', u'__', -12, u'__', u'__', u'__', -4, u'__', u'__']]",,[],[],"[10, 14, 2, 6, u'__TERM_ACTION__']","[0, 13, 14, 15]",[],[],"{u'mouseover': {u'state': {u'target': [], u'time': []}, u'edge': {u'target': [], u'time': []}}, u'click': {u'state': {u'target': [10, 14, 2, 6], u'time': [862, 1584, 2266, 2778]}, u'edge': {u'target': [], u'time': []}}, u'mouseout': {u'state': {u'target': [], u'time': []}, u'edge': {u'target': [], u'time': []}}}",,,"[6261, 7335, 1467]",-1.0,994346,11.0,7370.0,mouselab-mdp,,5
,"[5053, 23329, 24344]","[u'0', u'0', u'1']","[[0, u'__', u'__', u'__', u'__', u'__', u'__', u'__', u'__', u'__', u'__', u'__', u'__', u'__', u'__', u'__', u'__'], [0, u'__', u'__', u'__', u'__', u'__', u'__', u'__', u'__', u'__', 4, u'__', u'__', u'__', u'__', u'__', u'__'], [0, u'__', u'__', u'__', u'__', u'__', u'__', u'__', u'__', u'__', 4, u'__', u'__', u'__', -4, u'__', u'__'], [0, u'__', 12, u'__', u'__', u'__', u'__', u'__', u'__', u'__', 4, u'__', u'__', u'__', -4, u'__', u'__']]",,[],[],"[10, 14, 2, u'__TERM_ACTION__']","[0, 1, 2, 3]",[],[],"{u'mouseover': {u'state': {u'target': [], u'time': []}, u'edge': {u'target': [], u'time': []}}, u'click': {u'state': {u'target': [10, 14, 2], u'time': [1572, 2294, 2986]}, u'edge': {u'target': [], u'time': []}}, u'mouseout': {u'state': {u'target': [], u'time': []}, u'edge': {u'target': [], u'time': []}}}",,,"[5053, 17780, 512]",8.25,1052196,12.0,6426.0,mouselab-mdp,,5
,"[7737, 21243, 22135]","[u'3', u'3', u'0']","[[0, u'__', u'__', u'__', u'__', u'__', u'__', u'__', u'__', u'__', u'__', u'__', u'__', u'__', u'__', u'__', u'__'], [0, u'__', u'__', u'__', u'__', u'__', u'__', u'__', u'__', u'__', -4, u'__', u'__', u'__', u'__', u'__', u'__'], [0, u'__', u'__', u'__', u'__', u'__', u'__', u'__', u'__', u'__', -4, u'__', u'__', u'__', -4, u'__', u'__'], [0, u'__', u'__', -20, u'__', u'__', u'__', u'__', u'__', u'__', -4, u'__', u'__', u'__', -4, u'__', u'__'], [0, u'__', u'__', -20, u'__', u'__', u'__', u'__', -12, u'__', -4, u'__', u'__', u'__', -4, u'__', u'__'], [0, u'__', u'__', -20, u'__', u'__', u'__', -4, -12, u'__', -4, u'__', u'__', u'__', -4, u'__', u'__']]",,[],[],"[10, 14, 3, 8, 7, u'__TERM_ACTION__']","[0, 13, 14, 15]",[],[],"{u'mouseover': {u'state': {u'target': [], u'time': []}, u'edge': {u'target': [], u'time': []}}, u'click': {u'state': {u'target': [10, 14, 3, 8, 7], u'time': [1212, 1842, 2720, 3488, 4722]}, u'edge': {u'target': [], u'time': []}}, u'mouseout': {u'state': {u'target': [], u'time': []}, u'edge': {u'target': [], u'time': []}}}",,,"[7737, 13013, 404]",-34.25,1110104,13.0,5033.0,mouselab-mdp,,5
