p_rdata,action_times,actions,beliefs,correct,delays,information_used_correctly,key_press,meta_actions,path,planned_too_little,planned_too_much,queries,questions,responses,rt,score,time_elapsed,trial_index,trial_id,trial_type,view_history,pid
,,,,,,,,,,,,,,,89159,,89167,,,instructions,"[{""page_index"":0,""viewing_time"":45159},{""page_index"":1,""viewing_time"":27826},{""page_index"":2,""viewing_time"":16170}]",0
,,,,,,,,,,,,,,,203244,,203244,,,instructions,"[{""page_index"":0,""viewing_time"":57436},{""page_index"":1,""viewing_time"":64861},{""page_index"":2,""viewing_time"":50999},{""page_index"":3,""viewing_time"":29947}]",1
,,,,,,,,,,,,,,,556568,,556579,,,instructions,"[{""page_index"":0,""viewing_time"":20964},{""page_index"":1,""viewing_time"":510580},{""page_index"":0,""viewing_time"":8447},{""page_index"":1,""viewing_time"":11331},{""page_index"":2,""viewing_time"":1838},{""page_index"":3,""viewing_time"":3370}]",2
,,,,,,,,,,,,,,,39391,,39396,,,instructions,"[{""page_index"":0,""viewing_time"":7125},{""page_index"":1,""viewing_time"":23218},{""page_index"":2,""viewing_time"":5921},{""page_index"":3,""viewing_time"":3123}]",3
,,,,,,,,,,,,,,,72685,,129975,,,instructions,"[{""page_index"":0,""viewing_time"":24050},{""page_index"":1,""viewing_time"":22926},{""page_index"":2,""viewing_time"":15637},{""page_index"":3,""viewing_time"":10068}]",3
,,,,,,,,,,,,,,,3687,,166675,,,instructions,"[{""page_index"":0,""viewing_time"":2207},{""page_index"":1,""viewing_time"":671},{""page_index"":2,""viewing_time"":407},{""page_index"":3,""viewing_time"":399}]",3
,,,,,,,,,,,,,,,3602,,185250,,,instructions,"[{""page_index"":0,""viewing_time"":1702},{""page_index"":1,""viewing_time"":324},{""page_index"":0,""viewing_time"":546},{""page_index"":1,""viewing_time"":162},{""page_index"":2,""viewing_time"":418},{""page_index"":3,""viewing_time"":450}]",3
,,,,,,,,,,,,,,,17951,,226346,,,instructions,"[{""page_index"":0,""viewing_time"":4708},{""page_index"":1,""viewing_time"":944},{""page_index"":2,""viewing_time"":5676},{""page_index"":3,""viewing_time"":6623}]",3
,,,,,,,,,,,,,,,388151,,388151,,,instructions,"[{""page_index"":0,""viewing_time"":274779},{""page_index"":1,""viewing_time"":48245},{""page_index"":2,""viewing_time"":24743},{""page_index"":1,""viewing_time"":3296},{""page_index"":0,""viewing_time"":34271},{""page_index"":1,""viewing_time"":1024},{""page_index"":2,""viewing_time"":1792}]",4
,,,,,,,,,,,,,,,155080,,155081,,,instructions,"[{""page_index"":0,""viewing_time"":64102},{""page_index"":1,""viewing_time"":54379},{""page_index"":2,""viewing_time"":36595}]",5
,,,,,,,,,,,,,,,182324,,182326,,,instructions,"[{""page_index"":0,""viewing_time"":64531},{""page_index"":1,""viewing_time"":49452},{""page_index"":2,""viewing_time"":42931},{""page_index"":3,""viewing_time"":25409}]",6
,,,,,,,,,,,,,,,22940,,241160,,,instructions,"[{""page_index"":0,""viewing_time"":4193},{""page_index"":1,""viewing_time"":5074},{""page_index"":2,""viewing_time"":9256},{""page_index"":3,""viewing_time"":4416}]",6
,,,,,,,,,,,,,,,95500,,95501,,,instructions,"[{""page_index"":0,""viewing_time"":3430},{""page_index"":1,""viewing_time"":32204},{""page_index"":2,""viewing_time"":32077},{""page_index"":3,""viewing_time"":27787}]",7
,,,,,,,,,,,,,,,98936,,98938,,,instructions,"[{""page_index"":0,""viewing_time"":5041},{""page_index"":1,""viewing_time"":41558},{""page_index"":2,""viewing_time"":27002},{""page_index"":3,""viewing_time"":25334}]",8
,,,,,,,,,,,,,,,58245,,198067,,,instructions,"[{""page_index"":0,""viewing_time"":24436},{""page_index"":1,""viewing_time"":16920},{""page_index"":2,""viewing_time"":10872},{""page_index"":3,""viewing_time"":6015}]",8
,,,,,,,,,,,,,,,162712,,162713,,,instructions,"[{""page_index"":0,""viewing_time"":59436},{""page_index"":1,""viewing_time"":17956},{""page_index"":0,""viewing_time"":9879},{""page_index"":1,""viewing_time"":20827},{""page_index"":2,""viewing_time"":34300},{""page_index"":3,""viewing_time"":20313}]",9
,,,,,,,,,,,,,,,92560,,300920,,,instructions,"[{""page_index"":0,""viewing_time"":30155},{""page_index"":1,""viewing_time"":19841},{""page_index"":2,""viewing_time"":16640},{""page_index"":3,""viewing_time"":25924}]",9
,,,,,,,,,,,,,,,229028,,229030,,,instructions,"[{""page_index"":0,""viewing_time"":94594},{""page_index"":1,""viewing_time"":71496},{""page_index"":2,""viewing_time"":45503},{""page_index"":3,""viewing_time"":17434}]",10
,,,,,,,,,,,,,,,234074,,234074,,,instructions,"[{""page_index"":0,""viewing_time"":69487},{""page_index"":1,""viewing_time"":37767},{""page_index"":2,""viewing_time"":36477},{""page_index"":3,""viewing_time"":35421},{""page_index"":2,""viewing_time"":18117},{""page_index"":1,""viewing_time"":24926},{""page_index"":0,""viewing_time"":4583},{""page_index"":1,""viewing_time"":1967},{""page_index"":2,""viewing_time"":2580},{""page_index"":3,""viewing_time"":2748}]",11
,,,,,,,,,,,,,,,192588,,192589,,,instructions,"[{""page_index"":0,""viewing_time"":66488},{""page_index"":1,""viewing_time"":42461},{""page_index"":2,""viewing_time"":40388},{""page_index"":3,""viewing_time"":43250}]",12
,,,,,,,,,,,,,,,115055,,367640,,,instructions,"[{""page_index"":0,""viewing_time"":40631},{""page_index"":1,""viewing_time"":14167},{""page_index"":2,""viewing_time"":52181},{""page_index"":3,""viewing_time"":8076}]",12
,,,,,,,,,,,,,,,184723,,184732,,,instructions,"[{""page_index"":0,""viewing_time"":36097},{""page_index"":1,""viewing_time"":34163},{""page_index"":2,""viewing_time"":69212},{""page_index"":3,""viewing_time"":45246}]",13
,,,,,,,,,,,,,,,317931,,317932,,,instructions,"[{""page_index"":0,""viewing_time"":96331},{""page_index"":1,""viewing_time"":82536},{""page_index"":2,""viewing_time"":90224},{""page_index"":3,""viewing_time"":48839}]",14
,,,,,,,,,,,,,,,198059,,607515,,,instructions,"[{""page_index"":0,""viewing_time"":28986},{""page_index"":1,""viewing_time"":73400},{""page_index"":2,""viewing_time"":57384},{""page_index"":3,""viewing_time"":38288}]",14
,,,,,,,,,,,,,,,18988,,685210,,,instructions,"[{""page_index"":0,""viewing_time"":8692},{""page_index"":1,""viewing_time"":1184},{""page_index"":0,""viewing_time"":2984},{""page_index"":1,""viewing_time"":1712},{""page_index"":2,""viewing_time"":2384},{""page_index"":3,""viewing_time"":2032}]",14
,,,,,,,,,,,,,,,25996,,768218,,,instructions,"[{""page_index"":0,""viewing_time"":4516},{""page_index"":1,""viewing_time"":1744},{""page_index"":2,""viewing_time"":2952},{""page_index"":3,""viewing_time"":16784}]",14
,,,,,,,,,,,,,,,14876,,836506,,,instructions,"[{""page_index"":0,""viewing_time"":6572},{""page_index"":1,""viewing_time"":1632},{""page_index"":2,""viewing_time"":4200},{""page_index"":3,""viewing_time"":2472}]",14
,,,,,,,,,,,,,,,196352,,196357,,,instructions,"[{""page_index"":0,""viewing_time"":49037},{""page_index"":1,""viewing_time"":56878},{""page_index"":2,""viewing_time"":57614},{""page_index"":3,""viewing_time"":32821}]",15
,,,,,,,,,,,,,,,174358,,174360,,,instructions,"[{""page_index"":0,""viewing_time"":50868},{""page_index"":1,""viewing_time"":43635},{""page_index"":2,""viewing_time"":56279},{""page_index"":3,""viewing_time"":23574}]",16
,,,,,,,,,,,,,,,118330,,118331,,,instructions,"[{""page_index"":0,""viewing_time"":39801},{""page_index"":1,""viewing_time"":29647},{""page_index"":2,""viewing_time"":28241},{""page_index"":3,""viewing_time"":20640}]",17
,,,,,,,,,,,,,,,39572,,195977,,,instructions,"[{""page_index"":0,""viewing_time"":18988},{""page_index"":1,""viewing_time"":13136},{""page_index"":2,""viewing_time"":3888},{""page_index"":3,""viewing_time"":3559}]",17
,,,,,,,,,,,,,,,51495,,263811,,,instructions,"[{""page_index"":0,""viewing_time"":18157},{""page_index"":1,""viewing_time"":17881},{""page_index"":2,""viewing_time"":10920},{""page_index"":3,""viewing_time"":4536}]",17
,,,,,,,,,,,,,,,29789,,321138,,,instructions,"[{""page_index"":0,""viewing_time"":12949},{""page_index"":1,""viewing_time"":14366},{""page_index"":2,""viewing_time"":1736},{""page_index"":3,""viewing_time"":737}]",17
,,,,,,,,,,,,,,,120564,,120565,,,instructions,"[{""page_index"":0,""viewing_time"":48723},{""page_index"":1,""viewing_time"":27416},{""page_index"":2,""viewing_time"":29403},{""page_index"":3,""viewing_time"":15020}]",18
,,,,,,,,,,,,,,,6686,,152285,,,instructions,"[{""page_index"":0,""viewing_time"":1769},{""page_index"":1,""viewing_time"":409},{""page_index"":0,""viewing_time"":617},{""page_index"":1,""viewing_time"":509},{""page_index"":2,""viewing_time"":2091},{""page_index"":3,""viewing_time"":1290}]",18
,,,,,,,,,,,,,,,5340,,171299,,,instructions,"[{""page_index"":0,""viewing_time"":1816},{""page_index"":1,""viewing_time"":1291},{""page_index"":2,""viewing_time"":1390},{""page_index"":3,""viewing_time"":842}]",18
,,,,,,,,,,,,,,,28269,,226355,,,instructions,"[{""page_index"":0,""viewing_time"":5406},{""page_index"":1,""viewing_time"":5288},{""page_index"":2,""viewing_time"":15110},{""page_index"":3,""viewing_time"":2464}]",18
,,,,,,,,,,,,,,,17226,,262854,,,instructions,"[{""page_index"":0,""viewing_time"":14256},{""page_index"":1,""viewing_time"":1106},{""page_index"":2,""viewing_time"":1342},{""page_index"":3,""viewing_time"":521}]",18
,,,,,,,,,,,,,,,6934,,286494,,,instructions,"[{""page_index"":0,""viewing_time"":2555},{""page_index"":1,""viewing_time"":2712},{""page_index"":2,""viewing_time"":1178},{""page_index"":3,""viewing_time"":489}]",18
,,,,,,,,,,,,,,,3291,,313758,,,instructions,"[{""page_index"":0,""viewing_time"":942},{""page_index"":1,""viewing_time"":485},{""page_index"":2,""viewing_time"":1222},{""page_index"":3,""viewing_time"":641}]",18
,,,,,,,,,,,,,,,3619,,332414,,,instructions,"[{""page_index"":0,""viewing_time"":1339},{""page_index"":1,""viewing_time"":724},{""page_index"":2,""viewing_time"":1098},{""page_index"":3,""viewing_time"":457}]",18
,,,,,,,,,,,,,,,66470,,66471,,,instructions,"[{""page_index"":0,""viewing_time"":20863},{""page_index"":1,""viewing_time"":14963},{""page_index"":2,""viewing_time"":19449},{""page_index"":3,""viewing_time"":11194}]",19
,,,,,,,,,,,,,,,36427,,130829,,,instructions,"[{""page_index"":0,""viewing_time"":16682},{""page_index"":1,""viewing_time"":12095},{""page_index"":2,""viewing_time"":6393},{""page_index"":3,""viewing_time"":1256}]",19
,,,,,,,,,,,,,,,227308,,227311,,,instructions,"[{""page_index"":0,""viewing_time"":127150},{""page_index"":1,""viewing_time"":75053},{""page_index"":2,""viewing_time"":25102}]",20
,,,,,,,,,,,,,,,83383,,83387,,,instructions,"[{""page_index"":0,""viewing_time"":41779},{""page_index"":1,""viewing_time"":23870},{""page_index"":2,""viewing_time"":17730}]",21
,,,,,,,,,,,,,,,106138,,106141,,,instructions,"[{""page_index"":0,""viewing_time"":34347},{""page_index"":1,""viewing_time"":35263},{""page_index"":2,""viewing_time"":20098},{""page_index"":3,""viewing_time"":16425}]",22
,,,,,,,,,,,,,,,238353,,238355,,,instructions,"[{""page_index"":0,""viewing_time"":55435},{""page_index"":1,""viewing_time"":42324},{""page_index"":2,""viewing_time"":44786},{""page_index"":3,""viewing_time"":95807}]",23
,,,,,,,,,,,,,,,9757,,9764,,,instructions,"[{""page_index"":0,""viewing_time"":3178},{""page_index"":1,""viewing_time"":1091},{""page_index"":2,""viewing_time"":3993},{""page_index"":3,""viewing_time"":1483}]",24
,,,,,,,,,,,,,,,226994,,226994,,,instructions,"[{""page_index"":0,""viewing_time"":79841},{""page_index"":1,""viewing_time"":39570},{""page_index"":2,""viewing_time"":69596},{""page_index"":3,""viewing_time"":37986}]",25
,,,,,,,,,,,,,,,16036,,378538,,,instructions,"[{""page_index"":0,""viewing_time"":3691},{""page_index"":1,""viewing_time"":2080},{""page_index"":2,""viewing_time"":3928},{""page_index"":3,""viewing_time"":6337}]",25
,,,,,,,,,,,,,,,217033,,217035,,,instructions,"[{""page_index"":0,""viewing_time"":117183},{""page_index"":1,""viewing_time"":62399},{""page_index"":2,""viewing_time"":37449}]",26
,,,,,,,,,,,,,,,43144,,297020,,,instructions,"[{""page_index"":0,""viewing_time"":16466},{""page_index"":1,""viewing_time"":20081},{""page_index"":2,""viewing_time"":6596}]",26
,,,,,,,,,,,,,,,127069,,127070,,,instructions,"[{""page_index"":0,""viewing_time"":29323},{""page_index"":1,""viewing_time"":69048},{""page_index"":2,""viewing_time"":28697}]",27
,,,,,,,,,,,,,,,51426,,51428,,,instructions,"[{""page_index"":0,""viewing_time"":20793},{""page_index"":1,""viewing_time"":14313},{""page_index"":2,""viewing_time"":16319}]",28
,,,,,,,,,,,,,,,14850,,84366,,,instructions,"[{""page_index"":0,""viewing_time"":3811},{""page_index"":1,""viewing_time"":6402},{""page_index"":2,""viewing_time"":4636}]",28
,,,,,,,,,,,,,,,73087,,73087,,,instructions,"[{""page_index"":0,""viewing_time"":30951},{""page_index"":1,""viewing_time"":19584},{""page_index"":2,""viewing_time"":22551}]",29
,,,,,,,,,,,,,,,30682,,128604,,,instructions,"[{""page_index"":0,""viewing_time"":11778},{""page_index"":1,""viewing_time"":11641},{""page_index"":2,""viewing_time"":7263}]",29
,,,,,,,,,,,,,,,90588,,90592,,,instructions,"[{""page_index"":0,""viewing_time"":41276},{""page_index"":1,""viewing_time"":20054},{""page_index"":2,""viewing_time"":13189},{""page_index"":3,""viewing_time"":16067}]",30
,,,,,,,,,,,,,,,133689,,133689,,,instructions,"[{""page_index"":0,""viewing_time"":47556},{""page_index"":1,""viewing_time"":30780},{""page_index"":2,""viewing_time"":28788},{""page_index"":3,""viewing_time"":26564}]",31
,,,,,,,,,,,,,,,28181,,204877,,,instructions,"[{""page_index"":0,""viewing_time"":6299},{""page_index"":1,""viewing_time"":10768},{""page_index"":2,""viewing_time"":4295},{""page_index"":3,""viewing_time"":6818}]",31
,,,,,,,,,,,,,,,51523,,291984,,,instructions,"[{""page_index"":0,""viewing_time"":45189},{""page_index"":1,""viewing_time"":1362},{""page_index"":2,""viewing_time"":2262},{""page_index"":3,""viewing_time"":2710}]",31
,,,,,,,,,,,,,,,29315,,355356,,,instructions,"[{""page_index"":0,""viewing_time"":9921},{""page_index"":1,""viewing_time"":13264},{""page_index"":2,""viewing_time"":4118},{""page_index"":3,""viewing_time"":2012}]",31
,,,,,,,,,,,,,,,62478,,62479,,,instructions,"[{""page_index"":0,""viewing_time"":23934},{""page_index"":1,""viewing_time"":18912},{""page_index"":2,""viewing_time"":13824},{""page_index"":3,""viewing_time"":5807}]",32
,,,,,,,,,,,,,,,278933,,278935,,,instructions,"[{""page_index"":0,""viewing_time"":181035},{""page_index"":1,""viewing_time"":64326},{""page_index"":2,""viewing_time"":33571}]",33
,,,,,,,,,,,,,,,204347,,204348,,,instructions,"[{""page_index"":0,""viewing_time"":61597},{""page_index"":1,""viewing_time"":55295},{""page_index"":2,""viewing_time"":55261},{""page_index"":3,""viewing_time"":32194}]",34
,,,,,,,,,,,,,,,103510,,393258,,,instructions,"[{""page_index"":0,""viewing_time"":37388},{""page_index"":1,""viewing_time"":20835},{""page_index"":2,""viewing_time"":27600},{""page_index"":3,""viewing_time"":17686}]",34
,,,,,,,,,,,,,,,62532,,918120,,,instructions,"[{""page_index"":0,""viewing_time"":15164},{""page_index"":1,""viewing_time"":23877},{""page_index"":2,""viewing_time"":11084},{""page_index"":3,""viewing_time"":12406}]",34
,,,,,,,,,,,,,,,72851,,1023572,,,instructions,"[{""page_index"":0,""viewing_time"":25472},{""page_index"":1,""viewing_time"":16650},{""page_index"":2,""viewing_time"":6074},{""page_index"":3,""viewing_time"":24655}]",34
,,,,,,,,,,,,,,,178040,,178041,,,instructions,"[{""page_index"":0,""viewing_time"":63471},{""page_index"":1,""viewing_time"":20284},{""page_index"":0,""viewing_time"":10102},{""page_index"":1,""viewing_time"":32554},{""page_index"":2,""viewing_time"":20622},{""page_index"":3,""viewing_time"":31006}]",35
,,,,,,,,,,,,,,,86324,,86324,,,instructions,"[{""page_index"":0,""viewing_time"":38680},{""page_index"":1,""viewing_time"":29467},{""page_index"":2,""viewing_time"":18176}]",36
,,,,,,,,,,,,,,,30179,,148051,,,instructions,"[{""page_index"":0,""viewing_time"":5680},{""page_index"":1,""viewing_time"":20371},{""page_index"":2,""viewing_time"":4128}]",36
,,,,,,,,,,,,,,,19061,,192491,,,instructions,"[{""page_index"":0,""viewing_time"":12396},{""page_index"":1,""viewing_time"":5204},{""page_index"":2,""viewing_time"":1461}]",36
,,,,,,,,,,,,,,,263424,,263425,,,instructions,"[{""page_index"":0,""viewing_time"":60578},{""page_index"":1,""viewing_time"":2359},{""page_index"":0,""viewing_time"":21375},{""page_index"":1,""viewing_time"":35105},{""page_index"":0,""viewing_time"":1159},{""page_index"":1,""viewing_time"":25410},{""page_index"":2,""viewing_time"":28868},{""page_index"":1,""viewing_time"":22103},{""page_index"":2,""viewing_time"":5398},{""page_index"":1,""viewing_time"":13827},{""page_index"":0,""viewing_time"":15874},{""page_index"":1,""viewing_time"":28963},{""page_index"":2,""viewing_time"":2404}]",37
,,,,,,,,,,,,,,,134372,,134375,,,instructions,"[{""page_index"":0,""viewing_time"":50501},{""page_index"":1,""viewing_time"":36678},{""page_index"":2,""viewing_time"":24488},{""page_index"":3,""viewing_time"":22694}]",38
,,,,,,,,,,,,,,,181036,,181036,,,instructions,"[{""page_index"":0,""viewing_time"":7001},{""page_index"":1,""viewing_time"":62156},{""page_index"":2,""viewing_time"":23119},{""page_index"":1,""viewing_time"":16848},{""page_index"":0,""viewing_time"":16688},{""page_index"":1,""viewing_time"":20735},{""page_index"":2,""viewing_time"":34487}]",39
,,,,,,,,,,,,,,,178344,,178346,,,instructions,"[{""page_index"":0,""viewing_time"":30293},{""page_index"":1,""viewing_time"":25302},{""page_index"":2,""viewing_time"":113125},{""page_index"":3,""viewing_time"":9622}]",40
,,,,,,,,,,,,,,,23697,,233441,,,instructions,"[{""page_index"":0,""viewing_time"":9655},{""page_index"":1,""viewing_time"":10190},{""page_index"":2,""viewing_time"":2144},{""page_index"":3,""viewing_time"":1707}]",40
,,,,,,,,,,,,,,,29229,,282326,,,instructions,"[{""page_index"":0,""viewing_time"":13621},{""page_index"":1,""viewing_time"":6962},{""page_index"":2,""viewing_time"":7230},{""page_index"":3,""viewing_time"":1416}]",40
,,,,,,,,,,,,,,,56116,,56118,,,instructions,"[{""page_index"":0,""viewing_time"":16090},{""page_index"":1,""viewing_time"":16372},{""page_index"":2,""viewing_time"":8102},{""page_index"":3,""viewing_time"":15551}]",41
,,,,,,,,,,,,,,,32499,,124469,,,instructions,"[{""page_index"":0,""viewing_time"":9269},{""page_index"":1,""viewing_time"":8069},{""page_index"":2,""viewing_time"":9548},{""page_index"":3,""viewing_time"":5612}]",41
,,,,,,,,,,,,,,,4295,,146024,,,instructions,"[{""page_index"":0,""viewing_time"":2025},{""page_index"":1,""viewing_time"":1383},{""page_index"":2,""viewing_time"":527},{""page_index"":3,""viewing_time"":359}]",41
,,,,,,,,,,,,,,,87262,,87263,,,instructions,"[{""page_index"":0,""viewing_time"":25288},{""page_index"":1,""viewing_time"":24299},{""page_index"":2,""viewing_time"":21811},{""page_index"":3,""viewing_time"":15863}]",42
,,,,,,,,,,,,,,,25142,,136536,,,instructions,"[{""page_index"":0,""viewing_time"":2669},{""page_index"":1,""viewing_time"":6986},{""page_index"":2,""viewing_time"":10050},{""page_index"":3,""viewing_time"":5437}]",42
,,,,,,,,,,,,,,,131608,,131609,,,instructions,"[{""page_index"":0,""viewing_time"":40530},{""page_index"":1,""viewing_time"":35446},{""page_index"":2,""viewing_time"":35610},{""page_index"":3,""viewing_time"":20020}]",43
,,,,,,,,,,,,,,,60575,,60578,,,instructions,"[{""page_index"":0,""viewing_time"":23714},{""page_index"":1,""viewing_time"":11920},{""page_index"":2,""viewing_time"":15380},{""page_index"":3,""viewing_time"":9559}]",44
,,,,,,,,,,,,,,,40871,,124905,,,instructions,"[{""page_index"":0,""viewing_time"":9752},{""page_index"":1,""viewing_time"":7843},{""page_index"":2,""viewing_time"":13251},{""page_index"":3,""viewing_time"":10024}]",44
,,,,,,,,,,,,,,,53462,,224986,,,instructions,"[{""page_index"":0,""viewing_time"":22039},{""page_index"":1,""viewing_time"":20687},{""page_index"":2,""viewing_time"":6395},{""page_index"":3,""viewing_time"":4340}]",44
,,,,,,,,,,,,,,,21806,,268935,,,instructions,"[{""page_index"":0,""viewing_time"":13448},{""page_index"":1,""viewing_time"":6079},{""page_index"":2,""viewing_time"":1313},{""page_index"":3,""viewing_time"":965}]",44
,,,,,,,,,,,,,,,293406,,293412,,,instructions,"[{""page_index"":0,""viewing_time"":112180},{""page_index"":1,""viewing_time"":99504},{""page_index"":2,""viewing_time"":69615},{""page_index"":3,""viewing_time"":12106}]",45
,,,,,,,,,,,,,,,185408,,605875,,,instructions,"[{""page_index"":0,""viewing_time"":59595},{""page_index"":1,""viewing_time"":47468},{""page_index"":2,""viewing_time"":70642},{""page_index"":3,""viewing_time"":7702}]",45
,,,,,,,,,,,,,,,280944,,981337,,,instructions,"[{""page_index"":0,""viewing_time"":67159},{""page_index"":1,""viewing_time"":6822},{""page_index"":2,""viewing_time"":5467},{""page_index"":1,""viewing_time"":61038},{""page_index"":2,""viewing_time"":82922},{""page_index"":3,""viewing_time"":57536}]",45
,,,,,,,,,,,,,,,18724,,1060635,,,instructions,"[{""page_index"":0,""viewing_time"":14798},{""page_index"":1,""viewing_time"":1616},{""page_index"":2,""viewing_time"":1118},{""page_index"":3,""viewing_time"":1192}]",45
,,,,,,,,,,,,,,,54931,,54934,,,instructions,"[{""page_index"":0,""viewing_time"":24429},{""page_index"":1,""viewing_time"":7491},{""page_index"":2,""viewing_time"":10214},{""page_index"":3,""viewing_time"":12795}]",46
,,,,,,,,,,,,,,,18838,,94971,,,instructions,"[{""page_index"":0,""viewing_time"":10543},{""page_index"":1,""viewing_time"":4487},{""page_index"":2,""viewing_time"":2428},{""page_index"":3,""viewing_time"":1379}]",46
,,,,,,,,,,,,,,,20571,,136429,,,instructions,"[{""page_index"":0,""viewing_time"":2325},{""page_index"":1,""viewing_time"":2728},{""page_index"":2,""viewing_time"":12260},{""page_index"":3,""viewing_time"":3256}]",46
,,,,,,,,,,,,,,,34748,,190583,,,instructions,"[{""page_index"":0,""viewing_time"":18377},{""page_index"":1,""viewing_time"":5260},{""page_index"":2,""viewing_time"":10042},{""page_index"":3,""viewing_time"":1068}]",46
,,,,,,,,,,,,,,,5511,,214739,,,instructions,"[{""page_index"":0,""viewing_time"":2263},{""page_index"":1,""viewing_time"":869},{""page_index"":2,""viewing_time"":1597},{""page_index"":3,""viewing_time"":780}]",46
,,,,,,,,,,,,,,,10391,,241174,,,instructions,"[{""page_index"":0,""viewing_time"":2055},{""page_index"":1,""viewing_time"":688},{""page_index"":2,""viewing_time"":6960},{""page_index"":3,""viewing_time"":687}]",46
,,,,,,,,,,,,,,,297814,,297816,,,instructions,"[{""page_index"":0,""viewing_time"":213365},{""page_index"":1,""viewing_time"":9483},{""page_index"":2,""viewing_time"":66787},{""page_index"":3,""viewing_time"":8178}]",47
,,,,,,,,,,,,,,,19528,,355102,,,instructions,"[{""page_index"":0,""viewing_time"":2673},{""page_index"":1,""viewing_time"":790},{""page_index"":0,""viewing_time"":573},{""page_index"":1,""viewing_time"":629},{""page_index"":0,""viewing_time"":1154},{""page_index"":1,""viewing_time"":10203},{""page_index"":2,""viewing_time"":1974},{""page_index"":3,""viewing_time"":1531}]",47
,,,,,,,,,,,,,,,114309,,114311,,,instructions,"[{""page_index"":0,""viewing_time"":38834},{""page_index"":1,""viewing_time"":50407},{""page_index"":2,""viewing_time"":25067}]",48
,,,,,,,,,,,,,,,100303,,297193,,,instructions,"[{""page_index"":0,""viewing_time"":30615},{""page_index"":1,""viewing_time"":50774},{""page_index"":2,""viewing_time"":18914}]",48
,,,,,,,,,,,,,,,90307,,90309,,,instructions,"[{""page_index"":0,""viewing_time"":28116},{""page_index"":1,""viewing_time"":21308},{""page_index"":2,""viewing_time"":16296},{""page_index"":3,""viewing_time"":24585}]",49
,,,,,,,,,,,,,,,207075,,207076,,,instructions,"[{""page_index"":0,""viewing_time"":59129},{""page_index"":1,""viewing_time"":93671},{""page_index"":2,""viewing_time"":17688},{""page_index"":3,""viewing_time"":36586}]",50
,,,,,,,,,,,,,,,135143,,135145,,,instructions,"[{""page_index"":0,""viewing_time"":62622},{""page_index"":1,""viewing_time"":42956},{""page_index"":2,""viewing_time"":29563}]",51
,,,,,,,,,,,,,,,78479,,253343,,,instructions,"[{""page_index"":0,""viewing_time"":39002},{""page_index"":1,""viewing_time"":30456},{""page_index"":2,""viewing_time"":9020}]",51
,,,,,,,,,,,,,,,120252,,120253,,,instructions,"[{""page_index"":0,""viewing_time"":34525},{""page_index"":1,""viewing_time"":20138},{""page_index"":2,""viewing_time"":39847},{""page_index"":3,""viewing_time"":25741}]",52
,,,,,,,,,,,,,,,180120,,180122,,,instructions,"[{""page_index"":0,""viewing_time"":70389},{""page_index"":1,""viewing_time"":44335},{""page_index"":0,""viewing_time"":1618},{""page_index"":1,""viewing_time"":30460},{""page_index"":2,""viewing_time"":33318}]",53
,,,,,,,,,,,,,,,136413,,136415,,,instructions,"[{""page_index"":0,""viewing_time"":48367},{""page_index"":1,""viewing_time"":54081},{""page_index"":2,""viewing_time"":13834},{""page_index"":3,""viewing_time"":20129}]",54
,,,,,,,,,,,,,,,136392,,136395,,,instructions,"[{""page_index"":0,""viewing_time"":51949},{""page_index"":1,""viewing_time"":31373},{""page_index"":2,""viewing_time"":34868},{""page_index"":3,""viewing_time"":18200}]",55
,,,,,,,,,,,,,,,11585,,180738,,,instructions,"[{""page_index"":0,""viewing_time"":8975},{""page_index"":1,""viewing_time"":1768},{""page_index"":2,""viewing_time"":216},{""page_index"":3,""viewing_time"":624}]",55
,,,,,,,,,,,,,,,151114,,151116,,,instructions,"[{""page_index"":0,""viewing_time"":67761},{""page_index"":1,""viewing_time"":34047},{""page_index"":2,""viewing_time"":29344},{""page_index"":3,""viewing_time"":19960}]",56
,,,,,,,,,,,,,,,50830,,243426,,,instructions,"[{""page_index"":0,""viewing_time"":25941},{""page_index"":1,""viewing_time"":10176},{""page_index"":2,""viewing_time"":12792},{""page_index"":3,""viewing_time"":1920}]",56
,,,,,,,,,,,,,,,75807,,75808,,,instructions,"[{""page_index"":0,""viewing_time"":29053},{""page_index"":1,""viewing_time"":26576},{""page_index"":2,""viewing_time"":20176}]",57
,,,,,,,,,,,,,,,85985,,85986,,,instructions,"[{""page_index"":0,""viewing_time"":21169},{""page_index"":1,""viewing_time"":17641},{""page_index"":2,""viewing_time"":32391},{""page_index"":3,""viewing_time"":14783}]",58
,,,,,,,,,,,,,,,160012,,160013,,,instructions,"[{""page_index"":0,""viewing_time"":43274},{""page_index"":1,""viewing_time"":36328},{""page_index"":2,""viewing_time"":47416},{""page_index"":3,""viewing_time"":32993}]",59
,,,,,,,,,,,,,,,32460,,32460,,,instructions,"[{""page_index"":0,""viewing_time"":5990},{""page_index"":1,""viewing_time"":9344},{""page_index"":2,""viewing_time"":8797},{""page_index"":1,""viewing_time"":6858},{""page_index"":2,""viewing_time"":1470}]",60
,,,,,,,,,,,,,,,140645,,140646,,,instructions,"[{""page_index"":0,""viewing_time"":63263},{""page_index"":1,""viewing_time"":31646},{""page_index"":2,""viewing_time"":24990},{""page_index"":3,""viewing_time"":20745}]",61
,,,,,,,,,,,,,,,236304,,236305,,,instructions,"[{""page_index"":0,""viewing_time"":67815},{""page_index"":1,""viewing_time"":143904},{""page_index"":2,""viewing_time"":24585}]",62
,,,,,,,,,,,,,,,117126,,117127,,,instructions,"[{""page_index"":0,""viewing_time"":41481},{""page_index"":1,""viewing_time"":45810},{""page_index"":2,""viewing_time"":29835}]",63
,,,,,,,,,,,,,,,75381,,75383,,,instructions,"[{""page_index"":0,""viewing_time"":28583},{""page_index"":1,""viewing_time"":24106},{""page_index"":2,""viewing_time"":22690}]",64
,,,,,,,,,,,,,,,233115,,233116,,,instructions,"[{""page_index"":0,""viewing_time"":70840},{""page_index"":1,""viewing_time"":73335},{""page_index"":2,""viewing_time"":56219},{""page_index"":3,""viewing_time"":32718}]",65
,,,,,,,,,,,,,,,140192,,140192,,,instructions,"[{""page_index"":0,""viewing_time"":57500},{""page_index"":1,""viewing_time"":30576},{""page_index"":2,""viewing_time"":31160},{""page_index"":3,""viewing_time"":20955}]",66
,,,,,,,,,,,,,,,179419,,179420,,,instructions,"[{""page_index"":0,""viewing_time"":82046},{""page_index"":1,""viewing_time"":33697},{""page_index"":2,""viewing_time"":44509},{""page_index"":3,""viewing_time"":19166}]",67
,,,,,,,,,,,,,,,150838,,150840,,,instructions,"[{""page_index"":0,""viewing_time"":56490},{""page_index"":1,""viewing_time"":39672},{""page_index"":2,""viewing_time"":32166},{""page_index"":3,""viewing_time"":22507}]",68
,,,,,,,,,,,,,,,23473,,23473,,,instructions,"[{""page_index"":0,""viewing_time"":11073},{""page_index"":1,""viewing_time"":9433},{""page_index"":2,""viewing_time"":2966}]",69
,,,,,,,,,,,,,,,164796,,164797,,,instructions,"[{""page_index"":0,""viewing_time"":41163},{""page_index"":1,""viewing_time"":26442},{""page_index"":2,""viewing_time"":67414},{""page_index"":3,""viewing_time"":29776}]",70
,,,,,,,,,,,,,,,32469,,239605,,,instructions,"[{""page_index"":0,""viewing_time"":19453},{""page_index"":1,""viewing_time"":9399},{""page_index"":2,""viewing_time"":2248},{""page_index"":3,""viewing_time"":1369}]",70
,,,,,,,,,,,,,,,134615,,134620,,,instructions,"[{""page_index"":0,""viewing_time"":42832},{""page_index"":1,""viewing_time"":16655},{""page_index"":2,""viewing_time"":57917},{""page_index"":3,""viewing_time"":17211}]",71
,,,,,,,,,,,,,,,138677,,138677,,,instructions,"[{""page_index"":0,""viewing_time"":51052},{""page_index"":1,""viewing_time"":31687},{""page_index"":2,""viewing_time"":30201},{""page_index"":3,""viewing_time"":25735}]",72
,,,,,,,,,,,,,,,81263,,81265,,,instructions,"[{""page_index"":0,""viewing_time"":19142},{""page_index"":1,""viewing_time"":24879},{""page_index"":2,""viewing_time"":17937},{""page_index"":3,""viewing_time"":19303}]",73
,,,,,,,,,,,,,,,62548,,172150,,,instructions,"[{""page_index"":0,""viewing_time"":17372},{""page_index"":1,""viewing_time"":10848},{""page_index"":2,""viewing_time"":30296},{""page_index"":3,""viewing_time"":4030}]",73
,,,,,,,,,,,,,,,3562,,194018,,,instructions,"[{""page_index"":0,""viewing_time"":1750},{""page_index"":1,""viewing_time"":840},{""page_index"":2,""viewing_time"":529},{""page_index"":3,""viewing_time"":438}]",73
,,,,,,,,,,,,,,,174289,,174290,,,instructions,"[{""page_index"":0,""viewing_time"":81602},{""page_index"":1,""viewing_time"":58771},{""page_index"":2,""viewing_time"":33914}]",74
,,,,,,,,,,,,,,,179895,,179897,,,instructions,"[{""page_index"":0,""viewing_time"":43640},{""page_index"":1,""viewing_time"":40387},{""page_index"":2,""viewing_time"":55056},{""page_index"":3,""viewing_time"":40811}]",75
,,,,,,,,,,,,,,,139689,,139690,,,instructions,"[{""page_index"":0,""viewing_time"":38955},{""page_index"":1,""viewing_time"":29451},{""page_index"":2,""viewing_time"":29295},{""page_index"":3,""viewing_time"":41987}]",76
,,,,,,,,,,,,,,,105796,,105797,,,instructions,"[{""page_index"":0,""viewing_time"":54874},{""page_index"":1,""viewing_time"":30575},{""page_index"":2,""viewing_time"":20346}]",77
,,,,,,,,,,,,,,,94542,,94543,,,instructions,"[{""page_index"":0,""viewing_time"":40167},{""page_index"":1,""viewing_time"":42015},{""page_index"":2,""viewing_time"":12359}]",78
,,,,,,,,,,,,,,,63821,,63823,,,instructions,"[{""page_index"":0,""viewing_time"":20725},{""page_index"":1,""viewing_time"":23212},{""page_index"":2,""viewing_time"":19882}]",79
,,,,,,,,,,,,,,,162390,,162390,,,instructions,"[{""page_index"":0,""viewing_time"":61117},{""page_index"":1,""viewing_time"":24064},{""page_index"":2,""viewing_time"":58725},{""page_index"":3,""viewing_time"":18483}]",80
,,,,,,,,,,,,,,,182502,,182504,,,instructions,"[{""page_index"":0,""viewing_time"":47649},{""page_index"":1,""viewing_time"":75909},{""page_index"":2,""viewing_time"":31455},{""page_index"":3,""viewing_time"":27488}]",81
,,,,,,,,,,,,,,,148202,,148204,,,instructions,"[{""page_index"":0,""viewing_time"":54938},{""page_index"":1,""viewing_time"":39873},{""page_index"":2,""viewing_time"":29222},{""page_index"":3,""viewing_time"":24167}]",82
,,,,,,,,,,,,,,,84102,,274513,,,instructions,"[{""page_index"":0,""viewing_time"":25199},{""page_index"":1,""viewing_time"":25555},{""page_index"":2,""viewing_time"":18579},{""page_index"":3,""viewing_time"":14768}]",82
,,,,,,,,,,,,,,,52491,,368344,,,instructions,"[{""page_index"":0,""viewing_time"":17822},{""page_index"":1,""viewing_time"":15309},{""page_index"":2,""viewing_time"":11012},{""page_index"":3,""viewing_time"":8347}]",82
,,,,,,,,,,,,,,,134838,,134839,,,instructions,"[{""page_index"":0,""viewing_time"":46758},{""page_index"":1,""viewing_time"":64221},{""page_index"":2,""viewing_time"":23858}]",83
,,,,,,,,,,,,,,,131756,,131756,,,instructions,"[{""page_index"":0,""viewing_time"":46350},{""page_index"":1,""viewing_time"":28664},{""page_index"":2,""viewing_time"":34074},{""page_index"":3,""viewing_time"":22667}]",84
,,,,,,,,,,,,,,,177455,,177458,,,instructions,"[{""page_index"":0,""viewing_time"":41754},{""page_index"":1,""viewing_time"":53611},{""page_index"":2,""viewing_time"":56207},{""page_index"":3,""viewing_time"":25882}]",85
,,,,,,,,,,,,,,,43008,,282812,,,instructions,"[{""page_index"":0,""viewing_time"":9651},{""page_index"":1,""viewing_time"":7690},{""page_index"":2,""viewing_time"":22639},{""page_index"":3,""viewing_time"":3028}]",85
,,,,,,,,,,,,,,,161595,,161601,,,instructions,"[{""page_index"":0,""viewing_time"":62040},{""page_index"":1,""viewing_time"":30295},{""page_index"":2,""viewing_time"":44631},{""page_index"":3,""viewing_time"":24625}]",86
,,,,,,,,,,,,,,,255124,,255127,,,instructions,"[{""page_index"":0,""viewing_time"":59761},{""page_index"":1,""viewing_time"":34046},{""page_index"":0,""viewing_time"":12646},{""page_index"":1,""viewing_time"":32272},{""page_index"":2,""viewing_time"":79257},{""page_index"":3,""viewing_time"":37140}]",87
,,,,,,,,,,,,,,,100234,,416435,,,instructions,"[{""page_index"":0,""viewing_time"":33427},{""page_index"":1,""viewing_time"":25951},{""page_index"":2,""viewing_time"":35318},{""page_index"":3,""viewing_time"":5535}]",87
,,,,,,,,,,,,,,,113130,,113130,,,instructions,"[{""page_index"":0,""viewing_time"":49681},{""page_index"":1,""viewing_time"":41880},{""page_index"":2,""viewing_time"":21568}]",88
,,,,,,,,,,,,,,,89288,,89289,,,instructions,"[{""page_index"":0,""viewing_time"":53543},{""page_index"":1,""viewing_time"":13921},{""page_index"":2,""viewing_time"":21822}]",89
,,,,,,,,,,,,,,,56670,,181829,,,instructions,"[{""page_index"":0,""viewing_time"":28128},{""page_index"":1,""viewing_time"":24431},{""page_index"":2,""viewing_time"":4110}]",89
,,,,,,,,,,,,,,,123033,,123034,,,instructions,"[{""page_index"":0,""viewing_time"":36904},{""page_index"":1,""viewing_time"":28456},{""page_index"":2,""viewing_time"":34488},{""page_index"":3,""viewing_time"":23184}]",90
,,,,,,,,,,,,,,,125884,,125886,,,instructions,"[{""page_index"":0,""viewing_time"":50177},{""page_index"":1,""viewing_time"":43424},{""page_index"":2,""viewing_time"":32283}]",91
,,,,,,,,,,,,,,,9007,,9009,,,instructions,"[{""page_index"":0,""viewing_time"":3339},{""page_index"":1,""viewing_time"":2581},{""page_index"":2,""viewing_time"":3086}]",92
,,,,,,,,,,,,,,,44197,,77602,,,instructions,"[{""page_index"":0,""viewing_time"":10110},{""page_index"":1,""viewing_time"":22503},{""page_index"":2,""viewing_time"":11583}]",92
,,,,,,,,,,,,,,,138983,,138985,,,instructions,"[{""page_index"":0,""viewing_time"":69437},{""page_index"":1,""viewing_time"":42597},{""page_index"":2,""viewing_time"":26948}]",93
,,,,,,,,,,,,,,,54335,,217202,,,instructions,"[{""page_index"":0,""viewing_time"":36188},{""page_index"":1,""viewing_time"":14333},{""page_index"":2,""viewing_time"":3813}]",93
,,,,,,,,,,,,,,,149094,,149095,,,instructions,"[{""page_index"":0,""viewing_time"":80274},{""page_index"":1,""viewing_time"":40849},{""page_index"":2,""viewing_time"":15888},{""page_index"":3,""viewing_time"":12082}]",94
,,,,,,,,,,,,,,,7713,,258513,,,instructions,"[{""page_index"":0,""viewing_time"":3064},{""page_index"":1,""viewing_time"":704},{""page_index"":2,""viewing_time"":2382},{""page_index"":3,""viewing_time"":1562}]",94
,,,,,,,,,,,,,,,97314,,97316,,,instructions,"[{""page_index"":0,""viewing_time"":20151},{""page_index"":1,""viewing_time"":33861},{""page_index"":2,""viewing_time"":17086},{""page_index"":3,""viewing_time"":26215}]",95
,,,,,,,,,,,,,,,1220283,,1220287,,,instructions,"[{""page_index"":0,""viewing_time"":37024},{""page_index"":1,""viewing_time"":33561},{""page_index"":2,""viewing_time"":151193},{""page_index"":3,""viewing_time"":998469}]",96
,,,,,,,,,,,,,,,290068,,1572908,,,instructions,"[{""page_index"":0,""viewing_time"":110693},{""page_index"":1,""viewing_time"":63814},{""page_index"":2,""viewing_time"":86480},{""page_index"":3,""viewing_time"":29080}]",96
,,,,,,,,,,,,,,,230350,,1882818,,,instructions,"[{""page_index"":0,""viewing_time"":88958},{""page_index"":1,""viewing_time"":56024},{""page_index"":2,""viewing_time"":52080},{""page_index"":3,""viewing_time"":33287}]",96
,,,,,,,,,,,,,,,49915,,1958609,,,instructions,"[{""page_index"":0,""viewing_time"":37276},{""page_index"":1,""viewing_time"":690},{""page_index"":2,""viewing_time"":10983},{""page_index"":3,""viewing_time"":966}]",96
,,,,,,,,,,,,,,,141851,,141853,,,instructions,"[{""page_index"":0,""viewing_time"":42169},{""page_index"":1,""viewing_time"":41553},{""page_index"":2,""viewing_time"":24272},{""page_index"":3,""viewing_time"":33855}]",97
,,,,,,,,,,,,,,,47574,,219436,,,instructions,"[{""page_index"":0,""viewing_time"":17013},{""page_index"":1,""viewing_time"":16568},{""page_index"":2,""viewing_time"":12112},{""page_index"":3,""viewing_time"":1880}]",97
,,,,,,,,,,,,,,,216071,,216072,,,instructions,"[{""page_index"":0,""viewing_time"":67661},{""page_index"":1,""viewing_time"":55956},{""page_index"":2,""viewing_time"":57203},{""page_index"":3,""viewing_time"":35250}]",98
,,,,,,,,,,,,,,,173300,,173304,,,instructions,"[{""page_index"":0,""viewing_time"":38515},{""page_index"":1,""viewing_time"":72431},{""page_index"":2,""viewing_time"":29290},{""page_index"":3,""viewing_time"":33062}]",99
,,,,,,,,,,,,,,,117796,,117797,,,instructions,"[{""page_index"":0,""viewing_time"":25228},{""page_index"":1,""viewing_time"":31911},{""page_index"":2,""viewing_time"":45472},{""page_index"":3,""viewing_time"":15184}]",100
,,,,,,,,,,,,,,,305861,,305862,,,instructions,"[{""page_index"":0,""viewing_time"":67213},{""page_index"":1,""viewing_time"":103103},{""page_index"":2,""viewing_time"":78331},{""page_index"":3,""viewing_time"":57213}]",101
,,,,,,,,,,,,,,,107729,,107729,,,instructions,"[{""page_index"":0,""viewing_time"":15963},{""page_index"":1,""viewing_time"":17531},{""page_index"":2,""viewing_time"":54348},{""page_index"":3,""viewing_time"":19886}]",102
,,,,,,,,,,,,,,,157856,,157858,,,instructions,"[{""page_index"":0,""viewing_time"":49948},{""page_index"":1,""viewing_time"":37587},{""page_index"":2,""viewing_time"":38267},{""page_index"":3,""viewing_time"":32053}]",103
,,,,,,,,,,,,,,,108509,,108511,,,instructions,"[{""page_index"":0,""viewing_time"":20597},{""page_index"":1,""viewing_time"":24489},{""page_index"":0,""viewing_time"":16478},{""page_index"":1,""viewing_time"":10072},{""page_index"":2,""viewing_time"":25465},{""page_index"":3,""viewing_time"":11407}]",104
,,,,,,,,,,,,,,,39234,,172521,,,instructions,"[{""page_index"":0,""viewing_time"":12862},{""page_index"":1,""viewing_time"":7215},{""page_index"":2,""viewing_time"":13742},{""page_index"":3,""viewing_time"":5414}]",104
,,,,,,,,,,,,,,,401661,,401662,,,instructions,"[{""page_index"":0,""viewing_time"":36437},{""page_index"":1,""viewing_time"":1495},{""page_index"":0,""viewing_time"":2137},{""page_index"":1,""viewing_time"":2155},{""page_index"":2,""viewing_time"":13195},{""page_index"":3,""viewing_time"":25011},{""page_index"":2,""viewing_time"":1756},{""page_index"":1,""viewing_time"":33896},{""page_index"":2,""viewing_time"":54713},{""page_index"":3,""viewing_time"":230866}]",105
,,,,,,,,,,,,,,,35339,,489946,,,instructions,"[{""page_index"":0,""viewing_time"":16678},{""page_index"":1,""viewing_time"":4928},{""page_index"":2,""viewing_time"":10520},{""page_index"":3,""viewing_time"":3213}]",105
,,,,,,,,,,,,,,,109692,,109693,,,instructions,"[{""page_index"":0,""viewing_time"":30605},{""page_index"":1,""viewing_time"":28036},{""page_index"":2,""viewing_time"":51050}]",106
,,,,,,,,,,,,,,,84017,,84019,,,instructions,"[{""page_index"":0,""viewing_time"":43853},{""page_index"":1,""viewing_time"":6526},{""page_index"":2,""viewing_time"":24215},{""page_index"":3,""viewing_time"":9420}]",107
,,,,,,,,,,,,,,,77590,,198228,,,instructions,"[{""page_index"":0,""viewing_time"":46156},{""page_index"":1,""viewing_time"":21935},{""page_index"":2,""viewing_time"":7049},{""page_index"":3,""viewing_time"":2448}]",107
,,,,,,,,,,,,,,,51253,,598514,,,instructions,"[{""page_index"":0,""viewing_time"":11204},{""page_index"":1,""viewing_time"":16055},{""page_index"":2,""viewing_time"":15816},{""page_index"":3,""viewing_time"":8176}]",107
,,,,,,,,,,,,,,,8319,,632875,,,instructions,"[{""page_index"":0,""viewing_time"":2348},{""page_index"":1,""viewing_time"":505},{""page_index"":0,""viewing_time"":743},{""page_index"":1,""viewing_time"":657},{""page_index"":2,""viewing_time"":2391},{""page_index"":3,""viewing_time"":1673}]",107
,,,,,,,,,,,,,,,74025,,74026,,,instructions,"[{""page_index"":0,""viewing_time"":10749},{""page_index"":1,""viewing_time"":17414},{""page_index"":2,""viewing_time"":31413},{""page_index"":3,""viewing_time"":14449}]",108
,,,,,,,,,,,,,,,201758,,201760,,,instructions,"[{""page_index"":0,""viewing_time"":44329},{""page_index"":1,""viewing_time"":49452},{""page_index"":2,""viewing_time"":73405},{""page_index"":3,""viewing_time"":34570}]",109
,,,,,,,,,,,,,,,71709,,71710,,,instructions,"[{""page_index"":0,""viewing_time"":16560},{""page_index"":1,""viewing_time"":46018},{""page_index"":2,""viewing_time"":9129}]",110
,,,,,,,,,,,,,,,19025,,19027,,,instructions,"[{""page_index"":0,""viewing_time"":3405},{""page_index"":1,""viewing_time"":5509},{""page_index"":2,""viewing_time"":3366},{""page_index"":3,""viewing_time"":6744}]",111
,,,,,,,,,,,,,,,21311,,69082,,,instructions,"[{""page_index"":0,""viewing_time"":3800},{""page_index"":1,""viewing_time"":9681},{""page_index"":2,""viewing_time"":4151},{""page_index"":3,""viewing_time"":3678}]",111
,,,,,,,,,,,,,,,17346,,125447,,,instructions,"[{""page_index"":0,""viewing_time"":5302},{""page_index"":1,""viewing_time"":2486},{""page_index"":0,""viewing_time"":998},{""page_index"":1,""viewing_time"":1934},{""page_index"":2,""viewing_time"":5478},{""page_index"":3,""viewing_time"":1148}]",111
,,,,,,,,,,,,,,,9797,,156564,,,instructions,"[{""page_index"":0,""viewing_time"":3362},{""page_index"":1,""viewing_time"":732},{""page_index"":0,""viewing_time"":724},{""page_index"":1,""viewing_time"":633},{""page_index"":0,""viewing_time"":678},{""page_index"":1,""viewing_time"":585},{""page_index"":2,""viewing_time"":2545},{""page_index"":3,""viewing_time"":537}]",111
,,,,,,,,,,,,,,,14140,,189494,,,instructions,"[{""page_index"":0,""viewing_time"":9670},{""page_index"":1,""viewing_time"":1083},{""page_index"":2,""viewing_time"":2615},{""page_index"":3,""viewing_time"":771}]",111
,,,,,,,,,,,,,,,40864,,246668,,,instructions,"[{""page_index"":0,""viewing_time"":25259},{""page_index"":1,""viewing_time"":6073},{""page_index"":2,""viewing_time"":8780},{""page_index"":3,""viewing_time"":750}]",111
,,,,,,,,,,,,,,,68263,,333933,,,instructions,"[{""page_index"":0,""viewing_time"":6088},{""page_index"":1,""viewing_time"":15347},{""page_index"":2,""viewing_time"":34034},{""page_index"":3,""viewing_time"":12793}]",111
,,,,,,,,,,,,,,,86711,,481457,,,instructions,"[{""page_index"":0,""viewing_time"":19609},{""page_index"":1,""viewing_time"":19202},{""page_index"":2,""viewing_time"":20033},{""page_index"":3,""viewing_time"":27867}]",111
,,,,,,,,,,,,,,,44472,,558254,,,instructions,"[{""page_index"":0,""viewing_time"":2305},{""page_index"":1,""viewing_time"":595},{""page_index"":2,""viewing_time"":3552},{""page_index"":1,""viewing_time"":474},{""page_index"":0,""viewing_time"":16573},{""page_index"":1,""viewing_time"":17357},{""page_index"":2,""viewing_time"":2778},{""page_index"":3,""viewing_time"":837}]",111
,,,,,,,,,,,,,,,11956,,634540,,,instructions,"[{""page_index"":0,""viewing_time"":2763},{""page_index"":1,""viewing_time"":4865},{""page_index"":0,""viewing_time"":1068},{""page_index"":1,""viewing_time"":618},{""page_index"":2,""viewing_time"":1956},{""page_index"":3,""viewing_time"":686}]",111
,,,,,,,,,,,,,,,5208,,677370,,,instructions,"[{""page_index"":0,""viewing_time"":1697},{""page_index"":1,""viewing_time"":746},{""page_index"":2,""viewing_time"":2178},{""page_index"":3,""viewing_time"":586}]",111
,,,,,,,,,,,,,,,6200,,705468,,,instructions,"[{""page_index"":0,""viewing_time"":1969},{""page_index"":1,""viewing_time"":738},{""page_index"":2,""viewing_time"":1942},{""page_index"":3,""viewing_time"":1550}]",111
,,,,,,,,,,,,,,,23480,,765280,,,instructions,"[{""page_index"":0,""viewing_time"":4424},{""page_index"":1,""viewing_time"":5650},{""page_index"":2,""viewing_time"":6084},{""page_index"":3,""viewing_time"":7321}]",111
,,,,,,,,,,,,,,,8312,,793039,,,instructions,"[{""page_index"":0,""viewing_time"":3162},{""page_index"":1,""viewing_time"":524},{""page_index"":0,""viewing_time"":1035},{""page_index"":1,""viewing_time"":665},{""page_index"":2,""viewing_time"":2003},{""page_index"":3,""viewing_time"":922}]",111
,,,,,,,,,,,,,,,23136,,23137,,,instructions,"[{""page_index"":0,""viewing_time"":3268},{""page_index"":1,""viewing_time"":11741},{""page_index"":2,""viewing_time"":4380},{""page_index"":3,""viewing_time"":3746}]",112
,,,,,,,,,,,,,,,38268,,103246,,,instructions,"[{""page_index"":0,""viewing_time"":7046},{""page_index"":1,""viewing_time"":11964},{""page_index"":2,""viewing_time"":10880},{""page_index"":3,""viewing_time"":8377}]",112
,,,,,,,,,,,,,,,3568,,264179,,,instructions,"[{""page_index"":0,""viewing_time"":1778},{""page_index"":1,""viewing_time"":776},{""page_index"":2,""viewing_time"":454},{""page_index"":3,""viewing_time"":560}]",112
,,,,,,,,,,,,,,,119545,,119546,,,instructions,"[{""page_index"":0,""viewing_time"":35989},{""page_index"":1,""viewing_time"":37227},{""page_index"":2,""viewing_time"":19898},{""page_index"":3,""viewing_time"":26430}]",113
,,,,,,,,,,,,,,,290172,,290183,,,instructions,"[{""page_index"":0,""viewing_time"":129845},{""page_index"":1,""viewing_time"":107322},{""page_index"":2,""viewing_time"":52992}]",114
,,,,,,,,,,,,,,,171222,,171224,,,instructions,"[{""page_index"":0,""viewing_time"":81444},{""page_index"":1,""viewing_time"":42113},{""page_index"":2,""viewing_time"":32260},{""page_index"":3,""viewing_time"":15405}]",115
,,,,,,,,,,,,,,,159477,,159478,,,instructions,"[{""page_index"":0,""viewing_time"":71022},{""page_index"":1,""viewing_time"":45179},{""page_index"":2,""viewing_time"":43275}]",116
,,,,,,,,,,,,,,,100298,,100300,,,instructions,"[{""page_index"":0,""viewing_time"":36473},{""page_index"":1,""viewing_time"":44495},{""page_index"":2,""viewing_time"":19329}]",117
,,,,,,,,,,,,,,,77721,,77722,,,instructions,"[{""page_index"":0,""viewing_time"":27905},{""page_index"":1,""viewing_time"":30371},{""page_index"":2,""viewing_time"":19444}]",118
,,,,,,,,,,,,,,,439286,,439288,,,instructions,"[{""page_index"":0,""viewing_time"":61853},{""page_index"":1,""viewing_time"":374576},{""page_index"":2,""viewing_time"":1607},{""page_index"":3,""viewing_time"":1248}]",119
,,,,,,,,,,,,,,,33771,,33773,,,instructions,"[{""page_index"":0,""viewing_time"":11710},{""page_index"":1,""viewing_time"":3527},{""page_index"":2,""viewing_time"":13705},{""page_index"":3,""viewing_time"":4828}]",120
,,,,,,,,,,,,,,,109223,,109224,,,instructions,"[{""page_index"":0,""viewing_time"":36543},{""page_index"":1,""viewing_time"":27593},{""page_index"":2,""viewing_time"":29539},{""page_index"":3,""viewing_time"":15548}]",121
,,,,,,,,,,,,,,,89668,,89670,,,instructions,"[{""page_index"":0,""viewing_time"":11526},{""page_index"":1,""viewing_time"":17949},{""page_index"":2,""viewing_time"":28649},{""page_index"":3,""viewing_time"":31543}]",122
,,,,,,,,,,,,,,,52146,,264188,,,instructions,"[{""page_index"":0,""viewing_time"":15376},{""page_index"":1,""viewing_time"":13818},{""page_index"":2,""viewing_time"":11647},{""page_index"":3,""viewing_time"":11304}]",122
,,,,,,,,,,,,,,,168865,,168866,,,instructions,"[{""page_index"":0,""viewing_time"":41734},{""page_index"":1,""viewing_time"":60901},{""page_index"":2,""viewing_time"":43084},{""page_index"":3,""viewing_time"":23145}]",123
,,,,,,,,,,,,,,,42044,,244807,,,instructions,"[{""page_index"":0,""viewing_time"":16537},{""page_index"":1,""viewing_time"":12650},{""page_index"":2,""viewing_time"":7137},{""page_index"":3,""viewing_time"":5720}]",123
,,,,,,,,,,,,,,,30607,,30608,,,instructions,"[{""page_index"":0,""viewing_time"":3260},{""page_index"":1,""viewing_time"":16057},{""page_index"":2,""viewing_time"":8134},{""page_index"":3,""viewing_time"":3155}]",124
,,,,,,,,,,,,,,,143844,,143849,,,instructions,"[{""page_index"":0,""viewing_time"":61593},{""page_index"":1,""viewing_time"":46403},{""page_index"":2,""viewing_time"":35848}]",125
,,,,,,,,,,,,,,,147645,,147647,,,instructions,"[{""page_index"":0,""viewing_time"":54599},{""page_index"":1,""viewing_time"":37623},{""page_index"":2,""viewing_time"":34416},{""page_index"":3,""viewing_time"":21007}]",126
,,,,,,,,,,,,,,,122535,,122535,,,instructions,"[{""page_index"":0,""viewing_time"":43944},{""page_index"":1,""viewing_time"":50837},{""page_index"":2,""viewing_time"":27753}]",127
,,,,,,,,,,,,,,,101069,,101070,,,instructions,"[{""page_index"":0,""viewing_time"":27411},{""page_index"":1,""viewing_time"":19560},{""page_index"":2,""viewing_time"":18232},{""page_index"":3,""viewing_time"":35864}]",128
,,,,,,,,,,,,,,,50930,,183562,,,instructions,"[{""page_index"":0,""viewing_time"":10987},{""page_index"":1,""viewing_time"":16799},{""page_index"":2,""viewing_time"":14736},{""page_index"":3,""viewing_time"":8407}]",128
,,,,,,,,,,,,,,,87229,,87230,,,instructions,"[{""page_index"":0,""viewing_time"":44645},{""page_index"":1,""viewing_time"":20988},{""page_index"":2,""viewing_time"":21595}]",129
,,,,,,,,,,,,,,,233961,,233964,,,instructions,"[{""page_index"":0,""viewing_time"":75755},{""page_index"":1,""viewing_time"":71095},{""page_index"":2,""viewing_time"":47491},{""page_index"":3,""viewing_time"":39617}]",130
,,,,,,,,,,,,,,,165756,,165757,,,instructions,"[{""page_index"":0,""viewing_time"":79851},{""page_index"":1,""viewing_time"":59799},{""page_index"":2,""viewing_time"":26104}]",131
,,,,,,,,,,,,,,,21769,,209665,,,instructions,"[{""page_index"":0,""viewing_time"":13617},{""page_index"":1,""viewing_time"":6783},{""page_index"":2,""viewing_time"":1368}]",131
,,,,,,,,,,,,,,,7797,,7800,,,instructions,"[{""page_index"":0,""viewing_time"":4485},{""page_index"":1,""viewing_time"":1368},{""page_index"":2,""viewing_time"":1232},{""page_index"":3,""viewing_time"":711}]",132
,,,,,,,,,,,,,,,4506,,35439,,,instructions,"[{""page_index"":0,""viewing_time"":2593},{""page_index"":1,""viewing_time"":848},{""page_index"":2,""viewing_time"":472},{""page_index"":3,""viewing_time"":592}]",132
,,,,,,,,,,,,,,,136237,,207229,,,instructions,"[{""page_index"":0,""viewing_time"":48254},{""page_index"":1,""viewing_time"":27280},{""page_index"":2,""viewing_time"":34753},{""page_index"":3,""viewing_time"":25949}]",132
,,,,,,,,,,,,,,,42030,,42038,,,instructions,"[{""page_index"":0,""viewing_time"":19650},{""page_index"":1,""viewing_time"":16299},{""page_index"":2,""viewing_time"":4321},{""page_index"":3,""viewing_time"":1760}]",133
,,,,,,,,,,,,,,,125953,,125955,,,instructions,"[{""page_index"":0,""viewing_time"":37020},{""page_index"":1,""viewing_time"":28503},{""page_index"":2,""viewing_time"":41844},{""page_index"":3,""viewing_time"":18585}]",134
,,,,,,,,,,,,,,,153688,,153688,,,instructions,"[{""page_index"":0,""viewing_time"":69103},{""page_index"":1,""viewing_time"":67896},{""page_index"":2,""viewing_time"":16688}]",135
,,,,,,,,,,,,,,,94771,,94774,,,instructions,"[{""page_index"":0,""viewing_time"":43919},{""page_index"":1,""viewing_time"":30965},{""page_index"":2,""viewing_time"":19885}]",136
,,,,,,,,,,,,,,,102865,,102867,,,instructions,"[{""page_index"":0,""viewing_time"":32541},{""page_index"":1,""viewing_time"":53725},{""page_index"":2,""viewing_time"":16597}]",137
,,,,,,,,,,,,,,,205900,,205903,,,instructions,"[{""page_index"":0,""viewing_time"":52779},{""page_index"":1,""viewing_time"":47448},{""page_index"":2,""viewing_time"":35380},{""page_index"":1,""viewing_time"":1688},{""page_index"":0,""viewing_time"":43212},{""page_index"":1,""viewing_time"":13265},{""page_index"":2,""viewing_time"":12123}]",138
,,,,,,,,,,,,,,,273500,,273502,,,instructions,"[{""page_index"":0,""viewing_time"":58565},{""page_index"":1,""viewing_time"":84710},{""page_index"":2,""viewing_time"":95707},{""page_index"":3,""viewing_time"":34518}]",139
,,,,,,,,,,,,,,,134566,,134566,,,instructions,"[{""page_index"":0,""viewing_time"":62606},{""page_index"":1,""viewing_time"":49283},{""page_index"":2,""viewing_time"":22677}]",140
,,,,,,,,,,,,,,,348180,,348181,,,instructions,"[{""page_index"":0,""viewing_time"":57555},{""page_index"":1,""viewing_time"":89056},{""page_index"":2,""viewing_time"":15367},{""page_index"":3,""viewing_time"":186201}]",141
,,,,,,,,,,,,,,,126744,,126745,,,instructions,"[{""page_index"":0,""viewing_time"":39484},{""page_index"":1,""viewing_time"":47094},{""page_index"":2,""viewing_time"":22502},{""page_index"":3,""viewing_time"":17663}]",142
,,,,,,,,,,,,,,,46500,,215250,,,instructions,"[{""page_index"":0,""viewing_time"":19279},{""page_index"":1,""viewing_time"":9648},{""page_index"":2,""viewing_time"":5759},{""page_index"":3,""viewing_time"":11813}]",142
,,,,,,,,,,,,,,,6490,,256710,,,instructions,"[{""page_index"":0,""viewing_time"":2060},{""page_index"":1,""viewing_time"":1045},{""page_index"":2,""viewing_time"":2057},{""page_index"":3,""viewing_time"":1327}]",142
,,,,,,,,,,,,,,,217499,,217499,,,instructions,"[{""page_index"":0,""viewing_time"":59672},{""page_index"":1,""viewing_time"":59512},{""page_index"":2,""viewing_time"":49019},{""page_index"":3,""viewing_time"":49294}]",143
,,,,,,,,,,,,,,,193884,,459415,,,instructions,"[{""page_index"":0,""viewing_time"":61240},{""page_index"":1,""viewing_time"":54576},{""page_index"":2,""viewing_time"":57242},{""page_index"":3,""viewing_time"":20825}]",143
,,,,,,,,,,,,,,,20880,,514947,,,instructions,"[{""page_index"":0,""viewing_time"":3994},{""page_index"":1,""viewing_time"":2088},{""page_index"":2,""viewing_time"":13174},{""page_index"":3,""viewing_time"":1624}]",143
,,,,,,,,,,,,,,,37157,,37159,,,instructions,"[{""page_index"":0,""viewing_time"":13072},{""page_index"":1,""viewing_time"":3756},{""page_index"":2,""viewing_time"":5331},{""page_index"":3,""viewing_time"":14996}]",144
,,,,,,,,,,,,,,,47959,,117841,,,instructions,"[{""page_index"":0,""viewing_time"":12762},{""page_index"":1,""viewing_time"":8665},{""page_index"":2,""viewing_time"":6289},{""page_index"":1,""viewing_time"":5619},{""page_index"":2,""viewing_time"":8302},{""page_index"":3,""viewing_time"":4943},{""page_index"":2,""viewing_time"":872},{""page_index"":3,""viewing_time"":506}]",144
,,,,,,,,,,,,,,,195820,,397945,,,instructions,"[{""page_index"":0,""viewing_time"":52144},{""page_index"":1,""viewing_time"":37874},{""page_index"":2,""viewing_time"":79526},{""page_index"":3,""viewing_time"":26274}]",144
,,,,,,,,,,,,,,,199242,,199244,,,instructions,"[{""page_index"":0,""viewing_time"":75291},{""page_index"":1,""viewing_time"":19752},{""page_index"":0,""viewing_time"":30299},{""page_index"":1,""viewing_time"":20842},{""page_index"":0,""viewing_time"":3024},{""page_index"":1,""viewing_time"":15431},{""page_index"":2,""viewing_time"":34602}]",145
,,,,,,,,,,,,,,,32896,,278763,,,instructions,"[{""page_index"":0,""viewing_time"":23324},{""page_index"":1,""viewing_time"":6006},{""page_index"":2,""viewing_time"":3565}]",145
,,,,,,,,,,,,,,,80828,,80830,,,instructions,"[{""page_index"":0,""viewing_time"":28875},{""page_index"":1,""viewing_time"":35846},{""page_index"":2,""viewing_time"":16106}]",146
,,,,,,,,,,,,,,,31204,,31207,,,instructions,"[{""page_index"":0,""viewing_time"":20201},{""page_index"":1,""viewing_time"":6612},{""page_index"":2,""viewing_time"":4390}]",147
,,,,,,,,,,,,,,,30539,,111026,,,instructions,"[{""page_index"":0,""viewing_time"":11214},{""page_index"":1,""viewing_time"":14016},{""page_index"":2,""viewing_time"":5309}]",147
,,,,,,,,,,,,,,,19056,,150769,,,instructions,"[{""page_index"":0,""viewing_time"":5249},{""page_index"":1,""viewing_time"":6897},{""page_index"":2,""viewing_time"":6909}]",147
,,,,,,,,,,,,,,,143210,,143211,,,instructions,"[{""page_index"":0,""viewing_time"":39511},{""page_index"":1,""viewing_time"":34776},{""page_index"":2,""viewing_time"":41237},{""page_index"":3,""viewing_time"":27685}]",148
,,,,,,,,,,,,,,,19409,,206496,,,instructions,"[{""page_index"":0,""viewing_time"":10692},{""page_index"":1,""viewing_time"":5416},{""page_index"":2,""viewing_time"":1884},{""page_index"":3,""viewing_time"":1416}]",148
,,,,,,,,,,,,,,,139422,,139424,,,instructions,"[{""page_index"":0,""viewing_time"":74484},{""page_index"":1,""viewing_time"":33159},{""page_index"":2,""viewing_time"":15910},{""page_index"":3,""viewing_time"":15865}]",149
,,,,,,,,,,,,,,,142637,,142639,,,instructions,"[{""page_index"":0,""viewing_time"":38286},{""page_index"":1,""viewing_time"":34321},{""page_index"":2,""viewing_time"":44723},{""page_index"":3,""viewing_time"":25306}]",150
,,,,,,,,,,,,,,,152376,,152377,,,instructions,"[{""page_index"":0,""viewing_time"":56181},{""page_index"":1,""viewing_time"":59067},{""page_index"":2,""viewing_time"":23152},{""page_index"":3,""viewing_time"":13972}]",151
,,,,,,,,,,,,,,,101122,,289996,,,instructions,"[{""page_index"":0,""viewing_time"":67833},{""page_index"":1,""viewing_time"":20954},{""page_index"":2,""viewing_time"":6542},{""page_index"":3,""viewing_time"":5792}]",151
,,,,,,,,,,,,,,,10027,,10030,,,instructions,"[{""page_index"":0,""viewing_time"":5550},{""page_index"":1,""viewing_time"":1013},{""page_index"":0,""viewing_time"":710},{""page_index"":1,""viewing_time"":1130},{""page_index"":0,""viewing_time"":304},{""page_index"":1,""viewing_time"":722},{""page_index"":2,""viewing_time"":596}]",152
,,,,,,,,,,,,,,,34261,,59690,,,instructions,"[{""page_index"":0,""viewing_time"":9556},{""page_index"":1,""viewing_time"":8577},{""page_index"":2,""viewing_time"":16127}]",152
,,,,,,,,,,,,,,,142237,,142238,,,instructions,"[{""page_index"":0,""viewing_time"":53613},{""page_index"":1,""viewing_time"":58896},{""page_index"":2,""viewing_time"":29728}]",153
,,,,,,,,,,,,,,,86278,,86278,,,instructions,"[{""page_index"":0,""viewing_time"":27919},{""page_index"":1,""viewing_time"":37406},{""page_index"":2,""viewing_time"":20952}]",154
,,,,,,,,,,,,,,,109079,,270702,,,instructions,"[{""page_index"":0,""viewing_time"":10198},{""page_index"":1,""viewing_time"":17401},{""page_index"":2,""viewing_time"":18008},{""page_index"":1,""viewing_time"":10015},{""page_index"":0,""viewing_time"":5704},{""page_index"":1,""viewing_time"":13617},{""page_index"":2,""viewing_time"":34136}]",154
,,,,,,,,,,,,,,,123992,,419094,,,instructions,"[{""page_index"":0,""viewing_time"":45895},{""page_index"":1,""viewing_time"":42849},{""page_index"":2,""viewing_time"":28544},{""page_index"":1,""viewing_time"":4359},{""page_index"":2,""viewing_time"":2344}]",154
,,,,,,,,,,,,,,,97046,,546606,,,instructions,"[{""page_index"":0,""viewing_time"":14670},{""page_index"":1,""viewing_time"":26400},{""page_index"":2,""viewing_time"":34823},{""page_index"":1,""viewing_time"":7753},{""page_index"":0,""viewing_time"":10808},{""page_index"":1,""viewing_time"":1687},{""page_index"":2,""viewing_time"":905}]",154
,,,,,,,,,,,,,,,65198,,652334,,,instructions,"[{""page_index"":0,""viewing_time"":28982},{""page_index"":1,""viewing_time"":21527},{""page_index"":2,""viewing_time"":14688}]",154
,,,,,,,,,,,,,,,165019,,165021,,,instructions,"[{""page_index"":0,""viewing_time"":48278},{""page_index"":1,""viewing_time"":48642},{""page_index"":2,""viewing_time"":34629},{""page_index"":3,""viewing_time"":33468}]",155
,,,,,,,,,,,,,,,87660,,301624,,,instructions,"[{""page_index"":0,""viewing_time"":16664},{""page_index"":1,""viewing_time"":23985},{""page_index"":2,""viewing_time"":20452},{""page_index"":3,""viewing_time"":26558}]",155
,,,,,,,,,,,,,,,132925,,492897,,,instructions,"[{""page_index"":0,""viewing_time"":66916},{""page_index"":1,""viewing_time"":22399},{""page_index"":2,""viewing_time"":20582},{""page_index"":3,""viewing_time"":23027}]",155
,,,,,,,,,,,,,,,23825,,580417,,,instructions,"[{""page_index"":0,""viewing_time"":17478},{""page_index"":1,""viewing_time"":4757},{""page_index"":2,""viewing_time"":936},{""page_index"":3,""viewing_time"":653}]",155
,,,,,,,,,,,,,,,143356,,143358,,,instructions,"[{""page_index"":0,""viewing_time"":61557},{""page_index"":1,""viewing_time"":2072},{""page_index"":0,""viewing_time"":6317},{""page_index"":1,""viewing_time"":41262},{""page_index"":2,""viewing_time"":32146}]",156
,,,,,,,,,,,,,,,66608,,261502,,,instructions,"[{""page_index"":0,""viewing_time"":29569},{""page_index"":1,""viewing_time"":24467},{""page_index"":2,""viewing_time"":12571}]",156
,,,,,,,,,,,,,,,158054,,158054,,,instructions,"[{""page_index"":0,""viewing_time"":46813},{""page_index"":1,""viewing_time"":55271},{""page_index"":2,""viewing_time"":39387},{""page_index"":3,""viewing_time"":16581}]",157
,,,,,,,,,,,,,,,121984,,121985,,,instructions,"[{""page_index"":0,""viewing_time"":46310},{""page_index"":1,""viewing_time"":13346},{""page_index"":2,""viewing_time"":16642},{""page_index"":3,""viewing_time"":15688},{""page_index"":2,""viewing_time"":2505},{""page_index"":1,""viewing_time"":3883},{""page_index"":0,""viewing_time"":10597},{""page_index"":1,""viewing_time"":4800},{""page_index"":2,""viewing_time"":4668},{""page_index"":3,""viewing_time"":3544}]",158
,,,,,,,,,,,,,,,247793,,247794,,,instructions,"[{""page_index"":0,""viewing_time"":96039},{""page_index"":1,""viewing_time"":43855},{""page_index"":2,""viewing_time"":72798},{""page_index"":3,""viewing_time"":35098}]",159
,,,,,,,,,,,,,,,50554,,50556,,,instructions,"[{""page_index"":0,""viewing_time"":20212},{""page_index"":1,""viewing_time"":9322},{""page_index"":2,""viewing_time"":17433},{""page_index"":3,""viewing_time"":3587}]",160
,,,,,,,,,,,,,,,156017,,156018,,,instructions,"[{""page_index"":0,""viewing_time"":46199},{""page_index"":1,""viewing_time"":29698},{""page_index"":2,""viewing_time"":50570},{""page_index"":3,""viewing_time"":29549}]",161
,,,,,,,,,,,,,,,50172,,252628,,,instructions,"[{""page_index"":0,""viewing_time"":18069},{""page_index"":1,""viewing_time"":7349},{""page_index"":2,""viewing_time"":19390},{""page_index"":3,""viewing_time"":5364}]",161
,,,,,,,,,,,,,,,108988,,393223,,,instructions,"[{""page_index"":0,""viewing_time"":20985},{""page_index"":1,""viewing_time"":23507},{""page_index"":2,""viewing_time"":52854},{""page_index"":3,""viewing_time"":11641}]",161
,,,,,,,,,,,,,,,41590,,476443,,,instructions,"[{""page_index"":0,""viewing_time"":4106},{""page_index"":1,""viewing_time"":2040},{""page_index"":2,""viewing_time"":27479},{""page_index"":3,""viewing_time"":7965}]",161
,,,,,,,,,,,,,,,62579,,62580,,,instructions,"[{""page_index"":0,""viewing_time"":10000},{""page_index"":1,""viewing_time"":14442},{""page_index"":2,""viewing_time"":23671},{""page_index"":3,""viewing_time"":14465}]",162
,,,,,,,,,,,,,,,148926,,148927,,,instructions,"[{""page_index"":0,""viewing_time"":46662},{""page_index"":1,""viewing_time"":40196},{""page_index"":2,""viewing_time"":32488},{""page_index"":3,""viewing_time"":29580}]",163
,,,,,,,,,,,,,,,35028,,214393,,,instructions,"[{""page_index"":0,""viewing_time"":13315},{""page_index"":1,""viewing_time"":4989},{""page_index"":2,""viewing_time"":10998},{""page_index"":3,""viewing_time"":5726}]",163
,,,,,,,,,,,,,,,41489,,294173,,,instructions,"[{""page_index"":0,""viewing_time"":13760},{""page_index"":1,""viewing_time"":16021},{""page_index"":2,""viewing_time"":10527},{""page_index"":3,""viewing_time"":1181}]",163
,,,,,,,,,,,,,,,100670,,100671,,,instructions,"[{""page_index"":0,""viewing_time"":35932},{""page_index"":1,""viewing_time"":25783},{""page_index"":2,""viewing_time"":28804},{""page_index"":3,""viewing_time"":10150}]",164
,,,,,,,,,,,,,,,12412,,141526,,,instructions,"[{""page_index"":0,""viewing_time"":5532},{""page_index"":1,""viewing_time"":3427},{""page_index"":2,""viewing_time"":2833},{""page_index"":3,""viewing_time"":620}]",164
,,,,,,,,,,,,,,,39304,,39305,,,instructions,"[{""page_index"":0,""viewing_time"":20896},{""page_index"":1,""viewing_time"":8759},{""page_index"":2,""viewing_time"":2761},{""page_index"":3,""viewing_time"":6888}]",165
,,,,,,,,,,,,,,,58606,,138441,,,instructions,"[{""page_index"":0,""viewing_time"":28870},{""page_index"":1,""viewing_time"":7232},{""page_index"":2,""viewing_time"":14464},{""page_index"":3,""viewing_time"":8040}]",165
,,,,,,,,,,,,,,,210799,,210799,,,instructions,"[{""page_index"":0,""viewing_time"":93483},{""page_index"":1,""viewing_time"":77226},{""page_index"":2,""viewing_time"":40090}]",166
,,,,,,,,,,,,,,,141795,,141797,,,instructions,"[{""page_index"":0,""viewing_time"":50887},{""page_index"":1,""viewing_time"":36136},{""page_index"":2,""viewing_time"":33112},{""page_index"":3,""viewing_time"":21659}]",167
,,,,,,,,,,,,,,,134104,,134105,,,instructions,"[{""page_index"":0,""viewing_time"":36339},{""page_index"":1,""viewing_time"":32681},{""page_index"":2,""viewing_time"":41231},{""page_index"":3,""viewing_time"":23852}]",168
,,,,,,,,,,,,,,,98405,,98407,,,instructions,"[{""page_index"":0,""viewing_time"":79469},{""page_index"":1,""viewing_time"":12196},{""page_index"":2,""viewing_time"":6738}]",169
,,,,,,,,,,,,,,,66138,,205146,,,instructions,"[{""page_index"":0,""viewing_time"":9319},{""page_index"":1,""viewing_time"":27478},{""page_index"":2,""viewing_time"":29339}]",169
,,,,,,,,,,,,,,,114469,,114470,,,instructions,"[{""page_index"":0,""viewing_time"":26301},{""page_index"":1,""viewing_time"":33831},{""page_index"":2,""viewing_time"":36689},{""page_index"":3,""viewing_time"":17647}]",170
,,,,,,,,,,,,,,,96076,,96077,,,instructions,"[{""page_index"":0,""viewing_time"":21410},{""page_index"":1,""viewing_time"":31896},{""page_index"":2,""viewing_time"":42766}]",171
,,,,,,,,,,,,,,,34006,,176140,,,instructions,"[{""page_index"":0,""viewing_time"":8986},{""page_index"":1,""viewing_time"":18310},{""page_index"":2,""viewing_time"":6708}]",171
,,,,,,,,,,,,,,,157998,,157999,,,instructions,"[{""page_index"":0,""viewing_time"":72323},{""page_index"":1,""viewing_time"":29684},{""page_index"":2,""viewing_time"":39332},{""page_index"":3,""viewing_time"":16658}]",172
,,,,,,,,,,,,,,,88588,,88588,,,instructions,"[{""page_index"":0,""viewing_time"":22672},{""page_index"":1,""viewing_time"":34770},{""page_index"":2,""viewing_time"":13704},{""page_index"":3,""viewing_time"":17440}]",173
,,,,,,,,,,,,,,,61737,,61737,,,instructions,"[{""page_index"":0,""viewing_time"":16631},{""page_index"":1,""viewing_time"":21320},{""page_index"":2,""viewing_time"":11345},{""page_index"":3,""viewing_time"":12440}]",174
,,,,,,,,,,,,,,,18898,,109169,,,instructions,"[{""page_index"":0,""viewing_time"":1688},{""page_index"":1,""viewing_time"":3362},{""page_index"":2,""viewing_time"":11135},{""page_index"":3,""viewing_time"":2712}]",174
,,,,,,,,,,,,,,,225211,,225213,,,instructions,"[{""page_index"":0,""viewing_time"":65604},{""page_index"":1,""viewing_time"":54896},{""page_index"":2,""viewing_time"":74765},{""page_index"":3,""viewing_time"":29945}]",175
,,,,,,,,,,,,,,,173200,,173201,,,instructions,"[{""page_index"":0,""viewing_time"":77014},{""page_index"":1,""viewing_time"":45669},{""page_index"":2,""viewing_time"":37398},{""page_index"":3,""viewing_time"":13118}]",176
,,,,,,,,,,,,,,,32888,,257738,,,instructions,"[{""page_index"":0,""viewing_time"":13715},{""page_index"":1,""viewing_time"":5336},{""page_index"":2,""viewing_time"":6680},{""page_index"":3,""viewing_time"":7156}]",176
,,,,,,,,,,,,,,,157534,,157535,,,instructions,"[{""page_index"":0,""viewing_time"":30838},{""page_index"":1,""viewing_time"":16967},{""page_index"":2,""viewing_time"":16529},{""page_index"":3,""viewing_time"":21167},{""page_index"":2,""viewing_time"":1729},{""page_index"":1,""viewing_time"":1112},{""page_index"":0,""viewing_time"":26648},{""page_index"":1,""viewing_time"":13135},{""page_index"":2,""viewing_time"":13448},{""page_index"":3,""viewing_time"":15961}]",177
,,,,,,,,,,,,,,,137835,,137837,,,instructions,"[{""page_index"":0,""viewing_time"":41749},{""page_index"":1,""viewing_time"":48546},{""page_index"":2,""viewing_time"":28459},{""page_index"":3,""viewing_time"":19079}]",178
,,,,,,,,,,,,,,,60302,,260220,,,instructions,"[{""page_index"":0,""viewing_time"":16774},{""page_index"":1,""viewing_time"":13484},{""page_index"":2,""viewing_time"":11670},{""page_index"":3,""viewing_time"":18373}]",178
,,,,,,,,,,,,,,,105880,,105882,,,instructions,"[{""page_index"":0,""viewing_time"":50515},{""page_index"":1,""viewing_time"":35584},{""page_index"":2,""viewing_time"":19780}]",179
,,,,,,,,,,,,,,,24830,,172407,,,instructions,"[{""page_index"":0,""viewing_time"":5874},{""page_index"":1,""viewing_time"":10798},{""page_index"":2,""viewing_time"":8158}]",179
,,,,,,,,,,,,,,,474417,,474419,,,instructions,"[{""page_index"":0,""viewing_time"":382041},{""page_index"":1,""viewing_time"":45752},{""page_index"":2,""viewing_time"":27863},{""page_index"":3,""viewing_time"":18760}]",180
,,,,,,,,,,,,,,,140075,,140076,,,instructions,"[{""page_index"":0,""viewing_time"":58029},{""page_index"":1,""viewing_time"":51784},{""page_index"":2,""viewing_time"":30261}]",181
,,,,,,,,,,,,,,,338129,,338130,,,instructions,"[{""page_index"":0,""viewing_time"":52552},{""page_index"":1,""viewing_time"":30447},{""page_index"":2,""viewing_time"":74559},{""page_index"":3,""viewing_time"":37628},{""page_index"":2,""viewing_time"":15391},{""page_index"":1,""viewing_time"":13300},{""page_index"":0,""viewing_time"":38876},{""page_index"":1,""viewing_time"":5674},{""page_index"":2,""viewing_time"":54586},{""page_index"":3,""viewing_time"":15114}]",182
,,,,,,,,,,,,,,,82312,,559715,,,instructions,"[{""page_index"":0,""viewing_time"":34222},{""page_index"":1,""viewing_time"":13464},{""page_index"":2,""viewing_time"":24771},{""page_index"":3,""viewing_time"":9854}]",182
,,,,,,,,,,,,,,,409094,,409097,,,instructions,"[{""page_index"":0,""viewing_time"":314883},{""page_index"":1,""viewing_time"":36940},{""page_index"":2,""viewing_time"":27114},{""page_index"":3,""viewing_time"":30155}]",183
,,,,,,,,,,,,,,,169892,,665826,,,instructions,"[{""page_index"":0,""viewing_time"":54196},{""page_index"":1,""viewing_time"":42237},{""page_index"":2,""viewing_time"":50072},{""page_index"":3,""viewing_time"":23385}]",183
,,,,,,,,,,,,,,,134180,,134180,,,instructions,"[{""page_index"":0,""viewing_time"":48036},{""page_index"":1,""viewing_time"":26198},{""page_index"":2,""viewing_time"":35306},{""page_index"":3,""viewing_time"":24639}]",184
,,,,,,,,,,,,,,,9687,,190356,,,instructions,"[{""page_index"":0,""viewing_time"":1694},{""page_index"":1,""viewing_time"":663},{""page_index"":2,""viewing_time"":1447},{""page_index"":3,""viewing_time"":5882}]",184
,,,,,,,,,,,,,,,114119,,114120,,,instructions,"[{""page_index"":0,""viewing_time"":22550},{""page_index"":1,""viewing_time"":32876},{""page_index"":2,""viewing_time"":38948},{""page_index"":3,""viewing_time"":19745}]",185
,,,,,,,,,,,,,,,167374,,167374,,,instructions,"[{""page_index"":0,""viewing_time"":58789},{""page_index"":1,""viewing_time"":46828},{""page_index"":2,""viewing_time"":38424},{""page_index"":3,""viewing_time"":23332}]",186
,,,,,,,,,,,,,,,99204,,99206,,,instructions,"[{""page_index"":0,""viewing_time"":41006},{""page_index"":1,""viewing_time"":34151},{""page_index"":2,""viewing_time"":24045}]",187
,,,,,,,,,,,,,,,13964,,167738,,,instructions,"[{""page_index"":0,""viewing_time"":7765},{""page_index"":1,""viewing_time"":5446},{""page_index"":2,""viewing_time"":752}]",187
,,,,,,,,,,,,,,,84419,,84421,,,instructions,"[{""page_index"":0,""viewing_time"":31572},{""page_index"":1,""viewing_time"":29494},{""page_index"":2,""viewing_time"":23352}]",188
,,,,,,,,,,,,,,,95956,,95957,,,instructions,"[{""page_index"":0,""viewing_time"":53076},{""page_index"":1,""viewing_time"":26655},{""page_index"":2,""viewing_time"":11824},{""page_index"":3,""viewing_time"":4400}]",189
,,,,,,,,,,,,,,,227576,,371453,,,instructions,"[{""page_index"":0,""viewing_time"":141047},{""page_index"":1,""viewing_time"":25832},{""page_index"":2,""viewing_time"":43360},{""page_index"":3,""viewing_time"":17336}]",189
,,,,,,,,,,,,,,,52514,,52515,,,instructions,"[{""page_index"":0,""viewing_time"":13167},{""page_index"":1,""viewing_time"":14139},{""page_index"":2,""viewing_time"":25207}]",190
,,,,,,,,,,,,,,,225476,,225480,,,instructions,"[{""page_index"":0,""viewing_time"":52692},{""page_index"":1,""viewing_time"":79423},{""page_index"":2,""viewing_time"":49632},{""page_index"":3,""viewing_time"":43727}]",191
,,,,,,,,,,,,,,,29741,,291663,,,instructions,"[{""page_index"":0,""viewing_time"":13163},{""page_index"":1,""viewing_time"":6992},{""page_index"":2,""viewing_time"":7592},{""page_index"":3,""viewing_time"":1993}]",191
,,,,,,,,,,,,,,,281458,,281461,,,instructions,"[{""page_index"":0,""viewing_time"":72793},{""page_index"":1,""viewing_time"":56360},{""page_index"":2,""viewing_time"":89822},{""page_index"":3,""viewing_time"":62480}]",192
,,,,,,,,,,,,,,,131569,,131574,,,instructions,"[{""page_index"":0,""viewing_time"":38544},{""page_index"":1,""viewing_time"":32175},{""page_index"":2,""viewing_time"":33128},{""page_index"":3,""viewing_time"":27722}]",193
,,,,,,,,,,,,,,,74600,,74601,,,instructions,"[{""page_index"":0,""viewing_time"":22874},{""page_index"":1,""viewing_time"":19476},{""page_index"":2,""viewing_time"":23510},{""page_index"":3,""viewing_time"":8739}]",194
,,,,,,,,,,,,,,,58284,,58286,,,instructions,"[{""page_index"":0,""viewing_time"":28449},{""page_index"":1,""viewing_time"":11704},{""page_index"":2,""viewing_time"":18125}]",195
,,,,,,,,,,,,,,,43765,,133584,,,instructions,"[{""page_index"":0,""viewing_time"":21203},{""page_index"":1,""viewing_time"":20475},{""page_index"":2,""viewing_time"":2085}]",195
,,,,,,,,,,,,,,,161934,,161936,,,instructions,"[{""page_index"":0,""viewing_time"":47874},{""page_index"":1,""viewing_time"":58940},{""page_index"":2,""viewing_time"":35527},{""page_index"":3,""viewing_time"":19592}]",196
,,,,,,,,,,,,,,,158068,,158069,,,instructions,"[{""page_index"":0,""viewing_time"":54686},{""page_index"":1,""viewing_time"":47277},{""page_index"":2,""viewing_time"":32537},{""page_index"":3,""viewing_time"":23567}]",197
,,,,,,,,,,,,,,,202156,,202159,,,instructions,"[{""page_index"":0,""viewing_time"":48686},{""page_index"":1,""viewing_time"":127980},{""page_index"":2,""viewing_time"":25489}]",198
,,,,,,,,,,,,,,,129677,,129678,,,instructions,"[{""page_index"":0,""viewing_time"":37677},{""page_index"":1,""viewing_time"":2178},{""page_index"":0,""viewing_time"":7163},{""page_index"":1,""viewing_time"":25251},{""page_index"":2,""viewing_time"":41861},{""page_index"":3,""viewing_time"":15546}]",199
,,,,,,,,,,,,,,,104627,,104629,,,instructions,"[{""page_index"":0,""viewing_time"":36209},{""page_index"":1,""viewing_time"":26459},{""page_index"":2,""viewing_time"":24723},{""page_index"":3,""viewing_time"":17235}]",200
,,,,,,,,,,,,,,,57448,,195278,,,instructions,"[{""page_index"":0,""viewing_time"":14555},{""page_index"":1,""viewing_time"":12289},{""page_index"":2,""viewing_time"":17573},{""page_index"":3,""viewing_time"":13029}]",200
,,,,,,,,,,,,,,,147061,,147063,,,instructions,"[{""page_index"":0,""viewing_time"":49407},{""page_index"":1,""viewing_time"":63713},{""page_index"":2,""viewing_time"":33938}]",201
,,,,,,,,,,,,,,,208011,,208012,,,instructions,"[{""page_index"":0,""viewing_time"":71467},{""page_index"":1,""viewing_time"":46790},{""page_index"":2,""viewing_time"":50516},{""page_index"":3,""viewing_time"":39238}]",202
,,,,,,,,,,,,,,,60031,,326282,,,instructions,"[{""page_index"":0,""viewing_time"":16169},{""page_index"":1,""viewing_time"":12934},{""page_index"":2,""viewing_time"":15461},{""page_index"":3,""viewing_time"":15467}]",202
,,,,,,,,,,,,,,,142145,,142145,,,instructions,"[{""page_index"":0,""viewing_time"":46636},{""page_index"":1,""viewing_time"":41804},{""page_index"":2,""viewing_time"":29417},{""page_index"":3,""viewing_time"":24287}]",203
,,,,,,,,,,,,,,,134841,,134843,,,instructions,"[{""page_index"":0,""viewing_time"":30849},{""page_index"":1,""viewing_time"":38904},{""page_index"":2,""viewing_time"":21560},{""page_index"":3,""viewing_time"":43528}]",204
,,,,,,,,,,,,,,,29613,,193889,,,instructions,"[{""page_index"":0,""viewing_time"":7013},{""page_index"":1,""viewing_time"":3104},{""page_index"":2,""viewing_time"":9680},{""page_index"":3,""viewing_time"":9816}]",204
,,,,,,,,,,,,,,,40542,,257977,,,instructions,"[{""page_index"":0,""viewing_time"":11582},{""page_index"":1,""viewing_time"":6544},{""page_index"":2,""viewing_time"":14608},{""page_index"":3,""viewing_time"":7808}]",204
,,,,,,,,,,,,,,,72270,,72271,,,instructions,"[{""page_index"":0,""viewing_time"":20211},{""page_index"":1,""viewing_time"":25051},{""page_index"":2,""viewing_time"":27007}]",205
,,,,,,,,,,,,,,,125096,,125099,,,instructions,"[{""page_index"":0,""viewing_time"":38631},{""page_index"":1,""viewing_time"":46520},{""page_index"":2,""viewing_time"":13656},{""page_index"":3,""viewing_time"":26287}]",206
,,,,,,,,,,,,,,,17167,,203850,,,instructions,"[{""page_index"":0,""viewing_time"":10919},{""page_index"":1,""viewing_time"":3657},{""page_index"":2,""viewing_time"":1887},{""page_index"":3,""viewing_time"":704}]",206
,,,,,,,,,,,,,,,121381,,121383,,,instructions,"[{""page_index"":0,""viewing_time"":48563},{""page_index"":1,""viewing_time"":42241},{""page_index"":2,""viewing_time"":30574}]",207
,,,,,,,,,,,,,,,250702,,250707,,,instructions,"[{""page_index"":0,""viewing_time"":139145},{""page_index"":1,""viewing_time"":72845},{""page_index"":2,""viewing_time"":38712}]",208
,,,,,,,,,,,,,,,75571,,377029,,,instructions,"[{""page_index"":0,""viewing_time"":32625},{""page_index"":1,""viewing_time"":30905},{""page_index"":2,""viewing_time"":12037}]",208
,,,,,,,,,,,,,,,375926,,375926,,,instructions,"[{""page_index"":0,""viewing_time"":96517},{""page_index"":1,""viewing_time"":88339},{""page_index"":2,""viewing_time"":125810},{""page_index"":3,""viewing_time"":65258}]",209
,,,,,,,,,,,,,,,191883,,191885,,,instructions,"[{""page_index"":0,""viewing_time"":68643},{""page_index"":1,""viewing_time"":45258},{""page_index"":2,""viewing_time"":51065},{""page_index"":3,""viewing_time"":26916}]",210
,,,,,,,,,,,,,,,105025,,105027,,,instructions,"[{""page_index"":0,""viewing_time"":33954},{""page_index"":1,""viewing_time"":27572},{""page_index"":2,""viewing_time"":24950},{""page_index"":3,""viewing_time"":18547}]",211
,,,,,,,,,,,,,,,54409,,191339,,,instructions,"[{""page_index"":0,""viewing_time"":23247},{""page_index"":1,""viewing_time"":18637},{""page_index"":2,""viewing_time"":9038},{""page_index"":3,""viewing_time"":3484}]",211
,,,,,,,,,,,,,,,63603,,275034,,,instructions,"[{""page_index"":0,""viewing_time"":17320},{""page_index"":1,""viewing_time"":18027},{""page_index"":2,""viewing_time"":21932},{""page_index"":3,""viewing_time"":6322}]",211
,,,,,,,,,,,,,,,38499,,332840,,,instructions,"[{""page_index"":0,""viewing_time"":19265},{""page_index"":1,""viewing_time"":15162},{""page_index"":2,""viewing_time"":2614},{""page_index"":3,""viewing_time"":1456}]",211
,,,,,,,,,,,,,,,335998,,336000,,,instructions,"[{""page_index"":0,""viewing_time"":262262},{""page_index"":1,""viewing_time"":32788},{""page_index"":2,""viewing_time"":21513},{""page_index"":3,""viewing_time"":19432}]",212
,,,,,,,,,,,,,,,62977,,62979,,,instructions,"[{""page_index"":0,""viewing_time"":20696},{""page_index"":1,""viewing_time"":7840},{""page_index"":2,""viewing_time"":23426},{""page_index"":3,""viewing_time"":11014}]",213
,,,,,,,,,,,,,,,115304,,115306,,,instructions,"[{""page_index"":0,""viewing_time"":57616},{""page_index"":1,""viewing_time"":33863},{""page_index"":2,""viewing_time"":16440},{""page_index"":3,""viewing_time"":7384}]",214
,,,,,,,,,,,,,,,43493,,210384,,,instructions,"[{""page_index"":0,""viewing_time"":7029},{""page_index"":1,""viewing_time"":6487},{""page_index"":2,""viewing_time"":16808},{""page_index"":3,""viewing_time"":13168}]",214
,,,,,,,,,,,,,,,280605,,280607,,,instructions,"[{""page_index"":0,""viewing_time"":76928},{""page_index"":1,""viewing_time"":64934},{""page_index"":2,""viewing_time"":89265},{""page_index"":3,""viewing_time"":49476}]",215
,,,,,,,,,,,,,,,24176,,363065,,,instructions,"[{""page_index"":0,""viewing_time"":15771},{""page_index"":1,""viewing_time"":4519},{""page_index"":2,""viewing_time"":2932},{""page_index"":3,""viewing_time"":953}]",215
,,,,,,,,,,,,,,,139021,,139021,,,instructions,"[{""page_index"":0,""viewing_time"":43349},{""page_index"":1,""viewing_time"":65502},{""page_index"":2,""viewing_time"":30169}]",216
,,,,,,,,,,,,,,,67839,,67840,,,instructions,"[{""page_index"":0,""viewing_time"":32022},{""page_index"":1,""viewing_time"":18134},{""page_index"":2,""viewing_time"":17679}]",217
,,,,,,,,,,,,,,,14652,,128042,,,instructions,"[{""page_index"":0,""viewing_time"":12688},{""page_index"":1,""viewing_time"":1048},{""page_index"":2,""viewing_time"":915}]",217
,,,,,,,,,,,,,,,56976,,56977,,,instructions,"[{""page_index"":0,""viewing_time"":31256},{""page_index"":1,""viewing_time"":8546},{""page_index"":2,""viewing_time"":6615},{""page_index"":3,""viewing_time"":10557}]",218
,,,,,,,,,,,,,,,45442,,45443,,,instructions,"[{""page_index"":0,""viewing_time"":11918},{""page_index"":1,""viewing_time"":12060},{""page_index"":2,""viewing_time"":21460}]",219
,,,,,,,,,,,,,,,24609,,108800,,,instructions,"[{""page_index"":0,""viewing_time"":5461},{""page_index"":1,""viewing_time"":7104},{""page_index"":2,""viewing_time"":12043}]",219
,,,,,,,,,,,,,,,68302,,206163,,,instructions,"[{""page_index"":0,""viewing_time"":31773},{""page_index"":1,""viewing_time"":16631},{""page_index"":2,""viewing_time"":19896}]",219
,,,,,,,,,,,,,,,3041,,234882,,,instructions,"[{""page_index"":0,""viewing_time"":2064},{""page_index"":1,""viewing_time"":176},{""page_index"":2,""viewing_time"":800}]",219
,,,,,,,,,,,,,,,80409,,80411,,,instructions,"[{""page_index"":0,""viewing_time"":35729},{""page_index"":1,""viewing_time"":17447},{""page_index"":2,""viewing_time"":27232}]",220
,,,,,,,,,,,,,,,37934,,154939,,,instructions,"[{""page_index"":0,""viewing_time"":17301},{""page_index"":1,""viewing_time"":6336},{""page_index"":2,""viewing_time"":14296}]",220
,,,,,,,,,,,,,,,346511,,346514,,,instructions,"[{""page_index"":0,""viewing_time"":113538},{""page_index"":1,""viewing_time"":199886},{""page_index"":2,""viewing_time"":24171},{""page_index"":3,""viewing_time"":8912}]",221
,,,,,,,,,,,,,,,107412,,496034,,,instructions,"[{""page_index"":0,""viewing_time"":76243},{""page_index"":1,""viewing_time"":6223},{""page_index"":2,""viewing_time"":19449},{""page_index"":3,""viewing_time"":5495}]",221
,,,,,,,,,,,,,,,206559,,206562,,,instructions,"[{""page_index"":0,""viewing_time"":53040},{""page_index"":1,""viewing_time"":46505},{""page_index"":2,""viewing_time"":71581},{""page_index"":3,""viewing_time"":35431}]",222
,,,,,,,,,,,,,,,137606,,137607,,,instructions,"[{""page_index"":0,""viewing_time"":28316},{""page_index"":1,""viewing_time"":57316},{""page_index"":2,""viewing_time"":27951},{""page_index"":3,""viewing_time"":24022}]",223
,,,,,,,,,,,,,,,88963,,254563,,,instructions,"[{""page_index"":0,""viewing_time"":37253},{""page_index"":1,""viewing_time"":34387},{""page_index"":2,""viewing_time"":12626},{""page_index"":3,""viewing_time"":4697}]",223
,,,,,,,,,,,,,,,21411,,296205,,,instructions,"[{""page_index"":0,""viewing_time"":13588},{""page_index"":1,""viewing_time"":4497},{""page_index"":2,""viewing_time"":1674},{""page_index"":3,""viewing_time"":1652}]",223
,,,,,,,,,,,,,,,224336,,224337,,,instructions,"[{""page_index"":0,""viewing_time"":138223},{""page_index"":1,""viewing_time"":58935},{""page_index"":2,""viewing_time"":27177}]",224
,,,,,,,,,,,,,,,107511,,107512,,,instructions,"[{""page_index"":0,""viewing_time"":35809},{""page_index"":1,""viewing_time"":25512},{""page_index"":2,""viewing_time"":31201},{""page_index"":3,""viewing_time"":14988}]",225
,,,,,,,,,,,,,,,64877,,64879,,,instructions,"[{""page_index"":0,""viewing_time"":13747},{""page_index"":1,""viewing_time"":37665},{""page_index"":2,""viewing_time"":13463}]",226
,,,,,,,,,,,,,,,322303,,322305,,,instructions,"[{""page_index"":0,""viewing_time"":110721},{""page_index"":1,""viewing_time"":86090},{""page_index"":2,""viewing_time"":125492}]",227
,,,,,,,,,,,,,,,76052,,76053,,,instructions,"[{""page_index"":0,""viewing_time"":32047},{""page_index"":1,""viewing_time"":27260},{""page_index"":2,""viewing_time"":16745}]",228
,,,,,,,,,,,,,,,235514,,235516,,,instructions,"[{""page_index"":0,""viewing_time"":151405},{""page_index"":1,""viewing_time"":38026},{""page_index"":2,""viewing_time"":11886},{""page_index"":3,""viewing_time"":34195}]",229
,,,,,,,,,,,,,,,184116,,499758,,,instructions,"[{""page_index"":0,""viewing_time"":54734},{""page_index"":1,""viewing_time"":31546},{""page_index"":2,""viewing_time"":55490},{""page_index"":3,""viewing_time"":42344}]",229
,,,,,,,,,,,,,,,86845,,86845,,,instructions,"[{""page_index"":0,""viewing_time"":31030},{""page_index"":1,""viewing_time"":26302},{""page_index"":2,""viewing_time"":15892},{""page_index"":3,""viewing_time"":13620}]",230
,,,,,,,,,,,,,,,50078,,163610,,,instructions,"[{""page_index"":0,""viewing_time"":13755},{""page_index"":1,""viewing_time"":24928},{""page_index"":2,""viewing_time"":9566},{""page_index"":3,""viewing_time"":1828}]",230
,,,,,,,,,,,,,,,70143,,70145,,,instructions,"[{""page_index"":0,""viewing_time"":35672},{""page_index"":1,""viewing_time"":12755},{""page_index"":2,""viewing_time"":12094},{""page_index"":3,""viewing_time"":9619}]",231
,,,,,,,,,,,,,,,110524,,221404,,,instructions,"[{""page_index"":0,""viewing_time"":34216},{""page_index"":1,""viewing_time"":53937},{""page_index"":2,""viewing_time"":11502},{""page_index"":3,""viewing_time"":10867}]",231
,,,,,,,,,,,,,,,68887,,320096,,,instructions,"[{""page_index"":0,""viewing_time"":66176},{""page_index"":1,""viewing_time"":954},{""page_index"":2,""viewing_time"":747},{""page_index"":3,""viewing_time"":1008}]",231
,,,,,,,,,,,,,,,6412,,537299,,,instructions,"[{""page_index"":0,""viewing_time"":3357},{""page_index"":1,""viewing_time"":540},{""page_index"":0,""viewing_time"":784},{""page_index"":1,""viewing_time"":663},{""page_index"":2,""viewing_time"":551},{""page_index"":3,""viewing_time"":515}]",231
,,,,,,,,,,,,,,,155164,,155166,,,instructions,"[{""page_index"":0,""viewing_time"":50573},{""page_index"":1,""viewing_time"":35032},{""page_index"":2,""viewing_time"":17872},{""page_index"":1,""viewing_time"":3703},{""page_index"":0,""viewing_time"":22359},{""page_index"":1,""viewing_time"":15352},{""page_index"":2,""viewing_time"":10272}]",232
,,,,,,,,,,,,,,,170549,,170550,,,instructions,"[{""page_index"":0,""viewing_time"":62242},{""page_index"":1,""viewing_time"":58181},{""page_index"":2,""viewing_time"":25670},{""page_index"":3,""viewing_time"":24455}]",233
,,,,,,,,,,,,,,,96992,,316118,,,instructions,"[{""page_index"":0,""viewing_time"":24210},{""page_index"":1,""viewing_time"":35255},{""page_index"":2,""viewing_time"":25832},{""page_index"":3,""viewing_time"":11694}]",233
,,,,,,,,,,,,,,,182501,,182501,,,instructions,"[{""page_index"":0,""viewing_time"":52278},{""page_index"":1,""viewing_time"":64500},{""page_index"":2,""viewing_time"":44405},{""page_index"":3,""viewing_time"":21317}]",234
,,,,,,,,,,,,,,,121521,,121523,,,instructions,"[{""page_index"":0,""viewing_time"":52558},{""page_index"":1,""viewing_time"":43403},{""page_index"":2,""viewing_time"":25558}]",235
,,,,,,,,,,,,,,,197738,,197739,,,instructions,"[{""page_index"":0,""viewing_time"":63682},{""page_index"":1,""viewing_time"":66050},{""page_index"":2,""viewing_time"":44404},{""page_index"":3,""viewing_time"":23601}]",236
,,,,,,,,,,,,,,,156749,,156750,,,instructions,"[{""page_index"":0,""viewing_time"":54337},{""page_index"":1,""viewing_time"":63307},{""page_index"":2,""viewing_time"":39104}]",237
,,,,,,,,,,,,,,,14374,,215340,,,instructions,"[{""page_index"":0,""viewing_time"":7285},{""page_index"":1,""viewing_time"":6376},{""page_index"":2,""viewing_time"":712}]",237
,,,,,,,,,,,,,,,174983,,174985,,,instructions,"[{""page_index"":0,""viewing_time"":46401},{""page_index"":1,""viewing_time"":37819},{""page_index"":2,""viewing_time"":39289},{""page_index"":3,""viewing_time"":51472}]",238
,,,,,,,,,,,,,,,100733,,100733,,,instructions,"[{""page_index"":0,""viewing_time"":36627},{""page_index"":1,""viewing_time"":32435},{""page_index"":2,""viewing_time"":12681},{""page_index"":3,""viewing_time"":18989}]",239
,,,,,,,,,,,,,,,59586,,59588,,,instructions,"[{""page_index"":0,""viewing_time"":31646},{""page_index"":1,""viewing_time"":10977},{""page_index"":2,""viewing_time"":3714},{""page_index"":3,""viewing_time"":13248}]",240
,,,,,,,,,,,,,,,71390,,167003,,,instructions,"[{""page_index"":0,""viewing_time"":16145},{""page_index"":1,""viewing_time"":5904},{""page_index"":2,""viewing_time"":27082},{""page_index"":3,""viewing_time"":22258}]",240
,,,,,,,,,,,,,,,3780,,211582,,,instructions,"[{""page_index"":0,""viewing_time"":1617},{""page_index"":1,""viewing_time"":754},{""page_index"":2,""viewing_time"":885},{""page_index"":3,""viewing_time"":523}]",240
,,,,,,,,,,,,,,,43463,,270555,,,instructions,"[{""page_index"":0,""viewing_time"":14587},{""page_index"":1,""viewing_time"":13059},{""page_index"":2,""viewing_time"":8943},{""page_index"":3,""viewing_time"":6873}]",240
,,,,,,,,,,,,,,,2947,,297916,,,instructions,"[{""page_index"":0,""viewing_time"":1203},{""page_index"":1,""viewing_time"":668},{""page_index"":2,""viewing_time"":574},{""page_index"":3,""viewing_time"":499}]",240
,,,,,,,,,,,,,,,42665,,42667,,,instructions,"[{""page_index"":0,""viewing_time"":11687},{""page_index"":1,""viewing_time"":8767},{""page_index"":2,""viewing_time"":12968},{""page_index"":3,""viewing_time"":9242}]",241
,,,,,,,,,,,,,,,27952,,93567,,,instructions,"[{""page_index"":0,""viewing_time"":12662},{""page_index"":1,""viewing_time"":5413},{""page_index"":2,""viewing_time"":5046},{""page_index"":3,""viewing_time"":4830}]",241
,,,,,,,,,,,,,,,183025,,183026,,,instructions,"[{""page_index"":0,""viewing_time"":34931},{""page_index"":1,""viewing_time"":66400},{""page_index"":2,""viewing_time"":48225},{""page_index"":3,""viewing_time"":33468}]",242
,,,,,,,,,,,,,,,20054,,229689,,,instructions,"[{""page_index"":0,""viewing_time"":8404},{""page_index"":1,""viewing_time"":4403},{""page_index"":2,""viewing_time"":5946},{""page_index"":3,""viewing_time"":1300}]",242
,,,,,,,,,,,,,,,133688,,133690,,,instructions,"[{""page_index"":0,""viewing_time"":55566},{""page_index"":1,""viewing_time"":46536},{""page_index"":2,""viewing_time"":31584}]",243
,,,,,,,,,,,,,,,141341,,141343,,,instructions,"[{""page_index"":0,""viewing_time"":31537},{""page_index"":1,""viewing_time"":40423},{""page_index"":2,""viewing_time"":47867},{""page_index"":3,""viewing_time"":21513}]",244
,,,,,,,,,,,,,,,80706,,256923,,,instructions,"[{""page_index"":0,""viewing_time"":24776},{""page_index"":1,""viewing_time"":28987},{""page_index"":2,""viewing_time"":24521},{""page_index"":3,""viewing_time"":2421}]",244
,,,,,,,,,,,,,,,334015,,334016,,,instructions,"[{""page_index"":0,""viewing_time"":163251},{""page_index"":1,""viewing_time"":99863},{""page_index"":2,""viewing_time"":70900}]",245
,,,,,,,,,,,,,,,93682,,93682,,,instructions,"[{""page_index"":0,""viewing_time"":32325},{""page_index"":1,""viewing_time"":38158},{""page_index"":2,""viewing_time"":23197}]",246
,,,,,,,,,,,,,,,120189,,120190,,,instructions,"[{""page_index"":0,""viewing_time"":24717},{""page_index"":1,""viewing_time"":18904},{""page_index"":2,""viewing_time"":18497},{""page_index"":3,""viewing_time"":58069}]",247
,,,,,,,,,,,,,,,268337,,454902,,,instructions,"[{""page_index"":0,""viewing_time"":25758},{""page_index"":1,""viewing_time"":129823},{""page_index"":2,""viewing_time"":104377},{""page_index"":3,""viewing_time"":8378}]",247
,,,,,,,,,,,,,,,88809,,579569,,,instructions,"[{""page_index"":0,""viewing_time"":27318},{""page_index"":1,""viewing_time"":22828},{""page_index"":2,""viewing_time"":33204},{""page_index"":3,""viewing_time"":5458}]",247
,,,,,,,,,,,,,,,276486,,276488,,,instructions,"[{""page_index"":0,""viewing_time"":104973},{""page_index"":1,""viewing_time"":115203},{""page_index"":2,""viewing_time"":22956},{""page_index"":3,""viewing_time"":33352}]",248
,,,,,,,,,,,,,,,45398,,353650,,,instructions,"[{""page_index"":0,""viewing_time"":15867},{""page_index"":1,""viewing_time"":4755},{""page_index"":2,""viewing_time"":23521},{""page_index"":3,""viewing_time"":1253}]",248
,,,,,,,,,,,,,,,166737,,166739,,,instructions,"[{""page_index"":0,""viewing_time"":49592},{""page_index"":1,""viewing_time"":41377},{""page_index"":2,""viewing_time"":58875},{""page_index"":3,""viewing_time"":16892}]",249
,,,,,,,,,,,,,,,118845,,118846,,,instructions,"[{""page_index"":0,""viewing_time"":51016},{""page_index"":1,""viewing_time"":20527},{""page_index"":2,""viewing_time"":32449},{""page_index"":3,""viewing_time"":14852}]",250
,,,,,,,,,,,,,,,25886,,186982,,,instructions,"[{""page_index"":0,""viewing_time"":10013},{""page_index"":1,""viewing_time"":14777},{""page_index"":2,""viewing_time"":643},{""page_index"":3,""viewing_time"":453}]",250
,,,,,,,,,,,,,,,185079,,185081,,,instructions,"[{""page_index"":0,""viewing_time"":67852},{""page_index"":1,""viewing_time"":47781},{""page_index"":2,""viewing_time"":42423},{""page_index"":3,""viewing_time"":27023}]",251
,,,,,,,,,,,,,,,144054,,144056,,,instructions,"[{""page_index"":0,""viewing_time"":66492},{""page_index"":1,""viewing_time"":22484},{""page_index"":2,""viewing_time"":23564},{""page_index"":3,""viewing_time"":31510}]",252
,,,,,,,,,,,,,,,135734,,135738,,,instructions,"[{""page_index"":0,""viewing_time"":45082},{""page_index"":1,""viewing_time"":37345},{""page_index"":2,""viewing_time"":32744},{""page_index"":3,""viewing_time"":20533}]",253
,,,,,,,,,,,,,,,191917,,191918,,,instructions,"[{""page_index"":0,""viewing_time"":53186},{""page_index"":1,""viewing_time"":62512},{""page_index"":2,""viewing_time"":51792},{""page_index"":3,""viewing_time"":24426}]",254
,,,,,,,,,,,,,,,153505,,153506,,,instructions,"[{""page_index"":0,""viewing_time"":45935},{""page_index"":1,""viewing_time"":35577},{""page_index"":2,""viewing_time"":43598},{""page_index"":3,""viewing_time"":28395}]",255
,,,,,,,,,,,,,,,111367,,111370,,,instructions,"[{""page_index"":0,""viewing_time"":44901},{""page_index"":1,""viewing_time"":34712},{""page_index"":2,""viewing_time"":31723},{""page_index"":3,""viewing_time"":25}]",256
,,,,,,,,,,,,,,,197878,,197881,,,instructions,"[{""page_index"":0,""viewing_time"":99900},{""page_index"":1,""viewing_time"":31159},{""page_index"":2,""viewing_time"":35369},{""page_index"":3,""viewing_time"":31447}]",257
,,,,,,,,,,,,,,,372646,,372649,,,instructions,"[{""page_index"":0,""viewing_time"":108215},{""page_index"":1,""viewing_time"":66314},{""page_index"":2,""viewing_time"":198114}]",258
,,,,,,,,,,,,,,,91987,,91988,,,instructions,"[{""page_index"":0,""viewing_time"":25380},{""page_index"":1,""viewing_time"":37683},{""page_index"":2,""viewing_time"":28924}]",259
,,,,,,,,,,,,,,,216911,,216912,,,instructions,"[{""page_index"":0,""viewing_time"":146365},{""page_index"":1,""viewing_time"":39453},{""page_index"":2,""viewing_time"":31093}]",260
,,,,,,,,,,,,,,,69002,,69003,,,instructions,"[{""page_index"":0,""viewing_time"":7030},{""page_index"":1,""viewing_time"":187},{""page_index"":2,""viewing_time"":3150},{""page_index"":1,""viewing_time"":221},{""page_index"":0,""viewing_time"":1386},{""page_index"":1,""viewing_time"":654},{""page_index"":0,""viewing_time"":10142},{""page_index"":1,""viewing_time"":15915},{""page_index"":2,""viewing_time"":30316}]",261
,,,,,,,,,,,,,,,98393,,98394,,,instructions,"[{""page_index"":0,""viewing_time"":32432},{""page_index"":1,""viewing_time"":31062},{""page_index"":2,""viewing_time"":17288},{""page_index"":3,""viewing_time"":17609}]",262
,,,,,,,,,,,,,,,11215,,135685,,,instructions,"[{""page_index"":0,""viewing_time"":1949},{""page_index"":1,""viewing_time"":743},{""page_index"":0,""viewing_time"":857},{""page_index"":1,""viewing_time"":895},{""page_index"":2,""viewing_time"":1321},{""page_index"":3,""viewing_time"":5449}]",262
,,,,,,,,,,,,,,,244967,,244971,,,instructions,"[{""page_index"":0,""viewing_time"":61371},{""page_index"":1,""viewing_time"":66781},{""page_index"":2,""viewing_time"":80987},{""page_index"":3,""viewing_time"":35800}]",263
,,,,,,,,,,,,,,,29756,,321606,,,instructions,"[{""page_index"":0,""viewing_time"":15402},{""page_index"":1,""viewing_time"":10656},{""page_index"":2,""viewing_time"":2120},{""page_index"":3,""viewing_time"":1576}]",263
,,,,,,,,,,,,,,,221975,,221976,,,instructions,"[{""page_index"":0,""viewing_time"":45613},{""page_index"":1,""viewing_time"":44504},{""page_index"":2,""viewing_time"":103317},{""page_index"":3,""viewing_time"":28540}]",264
,,,,,,,,,,,,,,,224895,,224895,,,instructions,"[{""page_index"":0,""viewing_time"":98698},{""page_index"":1,""viewing_time"":82473},{""page_index"":2,""viewing_time"":28241},{""page_index"":3,""viewing_time"":15483}]",265
,,,,,,,,,,,,,,,269542,,269543,,,instructions,"[{""page_index"":0,""viewing_time"":90030},{""page_index"":1,""viewing_time"":134813},{""page_index"":2,""viewing_time"":44698}]",266
,,,,,,,,,,,,,,,41006,,41008,,,instructions,"[{""page_index"":0,""viewing_time"":17719},{""page_index"":1,""viewing_time"":20514},{""page_index"":2,""viewing_time"":2771}]",267
,,,,,,,,,,,,,,,209974,,209975,,,instructions,"[{""page_index"":0,""viewing_time"":73445},{""page_index"":1,""viewing_time"":59125},{""page_index"":2,""viewing_time"":36877},{""page_index"":3,""viewing_time"":40526}]",268
,,,,,,,,,,,,,,,67987,,342784,,,instructions,"[{""page_index"":0,""viewing_time"":50717},{""page_index"":1,""viewing_time"":9898},{""page_index"":2,""viewing_time"":5169},{""page_index"":3,""viewing_time"":2202}]",268
,,,,,,,,,,,,,,,8979,,8981,,,instructions,"[{""page_index"":0,""viewing_time"":3520},{""page_index"":1,""viewing_time"":1303},{""page_index"":2,""viewing_time"":2118},{""page_index"":3,""viewing_time"":2037}]",269
,,,,,,,,,,,,,,,224363,,224364,,,instructions,"[{""page_index"":0,""viewing_time"":44075},{""page_index"":1,""viewing_time"":25871},{""page_index"":2,""viewing_time"":118733},{""page_index"":3,""viewing_time"":35682}]",270
,,,,,,,,,,,,,,,59492,,59494,,,instructions,"[{""page_index"":0,""viewing_time"":13997},{""page_index"":1,""viewing_time"":18743},{""page_index"":2,""viewing_time"":17898},{""page_index"":3,""viewing_time"":8853}]",271
,,,,,,,,,,,,,,,32242,,126338,,,instructions,"[{""page_index"":0,""viewing_time"":4938},{""page_index"":1,""viewing_time"":8635},{""page_index"":2,""viewing_time"":14188},{""page_index"":3,""viewing_time"":4480}]",271
,,,,,,,,,,,,,,,132940,,132942,,,instructions,"[{""page_index"":0,""viewing_time"":17906},{""page_index"":1,""viewing_time"":227},{""page_index"":2,""viewing_time"":2026},{""page_index"":1,""viewing_time"":2216},{""page_index"":0,""viewing_time"":31965},{""page_index"":1,""viewing_time"":60792},{""page_index"":2,""viewing_time"":17806}]",272
,,,,,,,,,,,,,,,29933,,222327,,,instructions,"[{""page_index"":0,""viewing_time"":13641},{""page_index"":1,""viewing_time"":11400},{""page_index"":2,""viewing_time"":4891}]",272
,,,,,,,,,,,,,,,121064,,121066,,,instructions,"[{""page_index"":0,""viewing_time"":41163},{""page_index"":1,""viewing_time"":23883},{""page_index"":2,""viewing_time"":26433},{""page_index"":3,""viewing_time"":29584}]",273
