p_rdata,action_times,actions,beliefs,correct,delays,information_used_correctly,key_press,meta_actions,path,planned_too_little,planned_too_much,queries,questions,responses,rt,score,time_elapsed,trial_index,trial_id,trial_type,view_history,pid
,,,,"[True, True, True, True]",,,,,,,,,"[""True or false: The hidden values will change each time I start a new round."",""How much does it cost to observe each hidden value?"",""How many hidden values am I allowed to observe in each round?"",""How is your bonus determined?""]","[""True"",""$0.10"",""As many or as few as I wish"",""1 cent for every $1 I earn in each round""]",14253,,104494,,,survey-multi-choice,,0
,,,,"[True, True, True, True, True]",,,,,,,,,"[""True or false: The hidden values will change each time I start a new round."",""How much does it cost to observe each hidden value?"",""How many hidden values am I allowed to observe in each round?"",""How is your bonus determined?"",""What does the feedback teach you?""]","[""True"",""$1.25"",""As many or as few as I wish"",""1 cent for every $1 I earn in each round"",""All of the above.""]",40657,,244918,,,survey-multi-choice,,1
,,,,"[True, True, True, True, True]",,,,,,,,,"[""True or false: The hidden values will change each time I start a new round."",""How much does it cost to observe each hidden value?"",""How many hidden values am I allowed to observe in each round?"",""How is your bonus determined?"",""What does the feedback teach you?""]","[""True"",""$4.00"",""As many or as few as I wish"",""1 cent for every $1 I earn in each round"",""All of the above.""]",10464,,568407,,,survey-multi-choice,,2
,,,,"[True, True, False, False, False]",,,,,,,,,"[""True or false: The hidden values will change each time I start a new round."",""How much does it cost to observe each hidden value?"",""How many hidden values am I allowed to observe in each round?"",""How is your bonus determined?"",""What does the feedback teach you?""]","[""True"",""$1.25"",""At most 1"",""10% of my best score on any round"",""Whether I chose the move that was best.""]",13310,,56284,,,survey-multi-choice,,3
,,,,"[True, True, False, True, True]",,,,,,,,,"[""True or false: The hidden values will change each time I start a new round."",""How much does it cost to observe each hidden value?"",""How many hidden values am I allowed to observe in each round?"",""How is your bonus determined?"",""What does the feedback teach you?""]","[""True"",""$1.25"",""At most 1"",""1 cent for every $1 I earn in each round"",""All of the above.""]",29297,,161984,,,survey-multi-choice,,3
,,,,"[True, True, False, True, True]",,,,,,,,,"[""True or false: The hidden values will change each time I start a new round."",""How much does it cost to observe each hidden value?"",""How many hidden values am I allowed to observe in each round?"",""How is your bonus determined?"",""What does the feedback teach you?""]","[""True"",""$1.25"",""At most 5"",""1 cent for every $1 I earn in each round"",""All of the above.""]",11632,,180642,,,survey-multi-choice,,3
,,,,"[True, True, False, True, True]",,,,,,,,,"[""True or false: The hidden values will change each time I start a new round."",""How much does it cost to observe each hidden value?"",""How many hidden values am I allowed to observe in each round?"",""How is your bonus determined?"",""What does the feedback teach you?""]","[""True"",""$1.25"",""At most 15"",""1 cent for every $1 I earn in each round"",""All of the above.""]",19401,,207388,,,survey-multi-choice,,3
,,,,"[True, True, True, True, True]",,,,,,,,,"[""True or false: The hidden values will change each time I start a new round."",""How much does it cost to observe each hidden value?"",""How many hidden values am I allowed to observe in each round?"",""How is your bonus determined?"",""What does the feedback teach you?""]","[""True"",""$1.25"",""As many or as few as I wish"",""1 cent for every $1 I earn in each round"",""All of the above.""]",11506,,238958,,,survey-multi-choice,,3
,,,,"[True, True, True, True]",,,,,,,,,"[""True or false: The hidden values will change each time I start a new round."",""How much does it cost to observe each hidden value?"",""How many hidden values am I allowed to observe in each round?"",""How is your bonus determined?""]","[""True"",""$4.00"",""As many or as few as I wish"",""1 cent for every $1 I earn in each round""]",29099,,418281,,,survey-multi-choice,,4
,,,,"[True, True, True, True]",,,,,,,,,"[""True or false: The hidden values will change each time I start a new round."",""How much does it cost to observe each hidden value?"",""How many hidden values am I allowed to observe in each round?"",""How is your bonus determined?""]","[""True"",""$0.10"",""As many or as few as I wish"",""1 cent for every $1 I earn in each round""]",27411,,183517,,,survey-multi-choice,,5
,,,,"[True, True, True, True, False]",,,,,,,,,"[""True or false: The hidden values will change each time I start a new round."",""How much does it cost to observe each hidden value?"",""How many hidden values am I allowed to observe in each round?"",""How is your bonus determined?"",""What does the feedback teach you?""]","[""True"",""$1.25"",""As many or as few as I wish"",""1 cent for every $1 I earn in each round"",""Whether I chose the move that was best.""]",28999,,217217,,,survey-multi-choice,,6
,,,,"[True, True, True, True, True]",,,,,,,,,"[""True or false: The hidden values will change each time I start a new round."",""How much does it cost to observe each hidden value?"",""How many hidden values am I allowed to observe in each round?"",""How is your bonus determined?"",""What does the feedback teach you?""]","[""True"",""$1.25"",""As many or as few as I wish"",""1 cent for every $1 I earn in each round"",""All of the above.""]",18309,,260488,,,survey-multi-choice,,6
,,,,"[True, True, True, True, True]",,,,,,,,,"[""True or false: The hidden values will change each time I start a new round."",""How much does it cost to observe each hidden value?"",""How many hidden values am I allowed to observe in each round?"",""How is your bonus determined?"",""What does the feedback teach you?""]","[""True"",""$1.25"",""As many or as few as I wish"",""1 cent for every $1 I earn in each round"",""All of the above.""]",53547,,150090,,,survey-multi-choice,,7
,,,,"[True, True, True, True, False]",,,,,,,,,"[""True or false: The hidden values will change each time I start a new round."",""How much does it cost to observe each hidden value?"",""How many hidden values am I allowed to observe in each round?"",""How is your bonus determined?"",""What does the feedback teach you?""]","[""True"",""$1.25"",""As many or as few as I wish"",""1 cent for every $1 I earn in each round"",""Whether I chose the move that was best.""]",35855,,138821,,,survey-multi-choice,,8
,,,,"[True, True, True, True, True]",,,,,,,,,"[""True or false: The hidden values will change each time I start a new round."",""How much does it cost to observe each hidden value?"",""How many hidden values am I allowed to observe in each round?"",""How is your bonus determined?"",""What does the feedback teach you?""]","[""True"",""$1.25"",""As many or as few as I wish"",""1 cent for every $1 I earn in each round"",""All of the above.""]",14324,,213432,,,survey-multi-choice,,8
,,,,"[True, True, False, True, True]",,,,,,,,,"[""True or false: The hidden values will change each time I start a new round."",""How much does it cost to observe each hidden value?"",""How many hidden values am I allowed to observe in each round?"",""How is your bonus determined?"",""What does the feedback teach you?""]","[""True"",""$1.25"",""At most 5"",""1 cent for every $1 I earn in each round"",""All of the above.""]",40154,,207358,,,survey-multi-choice,,9
,,,,"[True, True, True, True, True]",,,,,,,,,"[""True or false: The hidden values will change each time I start a new round."",""How much does it cost to observe each hidden value?"",""How many hidden values am I allowed to observe in each round?"",""How is your bonus determined?"",""What does the feedback teach you?""]","[""True"",""$1.25"",""As many or as few as I wish"",""1 cent for every $1 I earn in each round"",""All of the above.""]",24834,,326796,,,survey-multi-choice,,9
,,,,"[True, True, True, True, True]",,,,,,,,,"[""True or false: The hidden values will change each time I start a new round."",""How much does it cost to observe each hidden value?"",""How many hidden values am I allowed to observe in each round?"",""How is your bonus determined?"",""What does the feedback teach you?""]","[""True"",""$4.00"",""As many or as few as I wish"",""1 cent for every $1 I earn in each round"",""All of the above.""]",24498,,254562,,,survey-multi-choice,,10
,,,,"[True, True, True, True, True]",,,,,,,,,"[""True or false: The hidden values will change each time I start a new round."",""How much does it cost to observe each hidden value?"",""How many hidden values am I allowed to observe in each round?"",""How is your bonus determined?"",""What does the feedback teach you?""]","[""True"",""$0.10"",""As many or as few as I wish"",""1 cent for every $1 I earn in each round"",""All of the above.""]",45751,,280846,,,survey-multi-choice,,11
,,,,"[True, True, True, True, False]",,,,,,,,,"[""True or false: The hidden values will change each time I start a new round."",""How much does it cost to observe each hidden value?"",""How many hidden values am I allowed to observe in each round?"",""How is your bonus determined?"",""What does the feedback teach you?""]","[""True"",""$1.25"",""As many or as few as I wish"",""1 cent for every $1 I earn in each round"",""Whether I chose the move that was best according to the information I had.""]",52039,,251581,,,survey-multi-choice,,12
,,,,"[True, True, True, True, True]",,,,,,,,,"[""True or false: The hidden values will change each time I start a new round."",""How much does it cost to observe each hidden value?"",""How many hidden values am I allowed to observe in each round?"",""How is your bonus determined?"",""What does the feedback teach you?""]","[""True"",""$1.25"",""As many or as few as I wish"",""1 cent for every $1 I earn in each round"",""All of the above.""]",30743,,399401,,,survey-multi-choice,,12
,,,,"[True, True, True, True, True]",,,,,,,,,"[""True or false: The hidden values will change each time I start a new round."",""How much does it cost to observe each hidden value?"",""How many hidden values am I allowed to observe in each round?"",""How is your bonus determined?"",""What does the feedback teach you?""]","[""True"",""$1.25"",""As many or as few as I wish"",""1 cent for every $1 I earn in each round"",""All of the above.""]",36225,,222174,,,survey-multi-choice,,13
,,,,"[True, True, True, True, False]",,,,,,,,,"[""True or false: The hidden values will change each time I start a new round."",""How much does it cost to observe each hidden value?"",""How many hidden values am I allowed to observe in each round?"",""How is your bonus determined?"",""What does the feedback teach you?""]","[""True"",""$0.10"",""As many or as few as I wish"",""1 cent for every $1 I earn in each round"",""Whether I chose the move that was best according to the information I had.""]",69749,,408452,,,survey-multi-choice,,14
,,,,"[True, True, True, True, False]",,,,,,,,,"[""True or false: The hidden values will change each time I start a new round."",""How much does it cost to observe each hidden value?"",""How many hidden values am I allowed to observe in each round?"",""How is your bonus determined?"",""What does the feedback teach you?""]","[""True"",""$0.10"",""As many or as few as I wish"",""1 cent for every $1 I earn in each round"",""Whether I chose the move that was best according to the information I had.""]",44261,,665220,,,survey-multi-choice,,14
,,,,"[True, True, False, True, False]",,,,,,,,,"[""True or false: The hidden values will change each time I start a new round."",""How much does it cost to observe each hidden value?"",""How many hidden values am I allowed to observe in each round?"",""How is your bonus determined?"",""What does the feedback teach you?""]","[""True"",""$0.10"",""At most 15"",""1 cent for every $1 I earn in each round"",""Whether I chose the move that was best according to the information I had.""]",49509,,741220,,,survey-multi-choice,,14
,,,,"[True, True, True, True, False]",,,,,,,,,"[""True or false: The hidden values will change each time I start a new round."",""How much does it cost to observe each hidden value?"",""How many hidden values am I allowed to observe in each round?"",""How is your bonus determined?"",""What does the feedback teach you?""]","[""True"",""$0.10"",""As many or as few as I wish"",""1 cent for every $1 I earn in each round"",""Whether I observed the rewards of relevant locations.""]",47006,,820627,,,survey-multi-choice,,14
,,,,"[True, True, True, True, True]",,,,,,,,,"[""True or false: The hidden values will change each time I start a new round."",""How much does it cost to observe each hidden value?"",""How many hidden values am I allowed to observe in each round?"",""How is your bonus determined?"",""What does the feedback teach you?""]","[""True"",""$0.10"",""As many or as few as I wish"",""1 cent for every $1 I earn in each round"",""All of the above.""]",34557,,872108,,,survey-multi-choice,,14
,,,,"[True, True, True, True, True]",,,,,,,,,"[""True or false: The hidden values will change each time I start a new round."",""How much does it cost to observe each hidden value?"",""How many hidden values am I allowed to observe in each round?"",""How is your bonus determined?"",""What does the feedback teach you?""]","[""True"",""$1.25"",""As many or as few as I wish"",""1 cent for every $1 I earn in each round"",""All of the above.""]",36616,,234043,,,survey-multi-choice,,15
,,,,"[True, True, True, True, True]",,,,,,,,,"[""True or false: The hidden values will change each time I start a new round."",""How much does it cost to observe each hidden value?"",""How many hidden values am I allowed to observe in each round?"",""How is your bonus determined?"",""What does the feedback teach you?""]","[""True"",""$0.10"",""As many or as few as I wish"",""1 cent for every $1 I earn in each round"",""All of the above.""]",31822,,207247,,,survey-multi-choice,,16
,,,,"[True, True, False, True, True]",,,,,,,,,"[""True or false: The hidden values will change each time I start a new round."",""How much does it cost to observe each hidden value?"",""How many hidden values am I allowed to observe in each round?"",""How is your bonus determined?"",""What does the feedback teach you?""]","[""True"",""$4.00"",""At most 15"",""1 cent for every $1 I earn in each round"",""All of the above.""]",31818,,155403,,,survey-multi-choice,,17
,,,,"[True, True, False, True, False]",,,,,,,,,"[""True or false: The hidden values will change each time I start a new round."",""How much does it cost to observe each hidden value?"",""How many hidden values am I allowed to observe in each round?"",""How is your bonus determined?"",""What does the feedback teach you?""]","[""True"",""$4.00"",""At most 15"",""1 cent for every $1 I earn in each round"",""Whether I chose the move that was best.""]",12421,,211313,,,survey-multi-choice,,17
,,,,"[True, True, True, True, False]",,,,,,,,,"[""True or false: The hidden values will change each time I start a new round."",""How much does it cost to observe each hidden value?"",""How many hidden values am I allowed to observe in each round?"",""How is your bonus determined?"",""What does the feedback teach you?""]","[""True"",""$4.00"",""As many or as few as I wish"",""1 cent for every $1 I earn in each round"",""Whether I chose the move that was best.""]",24111,,290347,,,survey-multi-choice,,17
,,,,"[True, True, True, True, True]",,,,,,,,,"[""True or false: The hidden values will change each time I start a new round."",""How much does it cost to observe each hidden value?"",""How many hidden values am I allowed to observe in each round?"",""How is your bonus determined?"",""What does the feedback teach you?""]","[""True"",""$4.00"",""As many or as few as I wish"",""1 cent for every $1 I earn in each round"",""All of the above.""]",7784,,329955,,,survey-multi-choice,,17
,,,,"[True, False, True, True, False]",,,,,,,,,"[""True or false: The hidden values will change each time I start a new round."",""How much does it cost to observe each hidden value?"",""How many hidden values am I allowed to observe in each round?"",""How is your bonus determined?"",""What does the feedback teach you?""]","[""True"",""$1.50"",""As many or as few as I wish"",""1 cent for every $1 I earn in each round"",""Whether I chose the move that was best according to the information I had.""]",21513,,144596,,,survey-multi-choice,,18
,,,,"[True, False, True, True, True]",,,,,,,,,"[""True or false: The hidden values will change each time I start a new round."",""How much does it cost to observe each hidden value?"",""How many hidden values am I allowed to observe in each round?"",""How is your bonus determined?"",""What does the feedback teach you?""]","[""True"",""$1.50"",""As many or as few as I wish"",""1 cent for every $1 I earn in each round"",""All of the above.""]",9532,,164958,,,survey-multi-choice,,18
,,,,"[True, False, True, True, False]",,,,,,,,,"[""True or false: The hidden values will change each time I start a new round."",""How much does it cost to observe each hidden value?"",""How many hidden values am I allowed to observe in each round?"",""How is your bonus determined?"",""What does the feedback teach you?""]","[""True"",""$1.50"",""As many or as few as I wish"",""1 cent for every $1 I earn in each round"",""Whether I observed the rewards of relevant locations.""]",22894,,197085,,,survey-multi-choice,,18
,,,,"[True, False, True, True, False]",,,,,,,,,"[""True or false: The hidden values will change each time I start a new round."",""How much does it cost to observe each hidden value?"",""How many hidden values am I allowed to observe in each round?"",""How is your bonus determined?"",""What does the feedback teach you?""]","[""True"",""$1.50"",""As many or as few as I wish"",""1 cent for every $1 I earn in each round"",""Whether I chose the move that was best according to the information I had.""]",15026,,244627,,,survey-multi-choice,,18
,,,,"[True, False, True, True, False]",,,,,,,,,"[""True or false: The hidden values will change each time I start a new round."",""How much does it cost to observe each hidden value?"",""How many hidden values am I allowed to observe in each round?"",""How is your bonus determined?"",""What does the feedback teach you?""]","[""True"",""$1.50"",""As many or as few as I wish"",""1 cent for every $1 I earn in each round"",""Whether I observed the rewards of relevant locations.""]",13503,,278555,,,survey-multi-choice,,18
,,,,"[True, True, True, True, False]",,,,,,,,,"[""True or false: The hidden values will change each time I start a new round."",""How much does it cost to observe each hidden value?"",""How many hidden values am I allowed to observe in each round?"",""How is your bonus determined?"",""What does the feedback teach you?""]","[""True"",""$1.25"",""As many or as few as I wish"",""1 cent for every $1 I earn in each round"",""Whether I chose the move that was best according to the information I had.""]",20653,,309466,,,survey-multi-choice,,18
,,,,"[True, True, True, True, False]",,,,,,,,,"[""True or false: The hidden values will change each time I start a new round."",""How much does it cost to observe each hidden value?"",""How many hidden values am I allowed to observe in each round?"",""How is your bonus determined?"",""What does the feedback teach you?""]","[""True"",""$1.25"",""As many or as few as I wish"",""1 cent for every $1 I earn in each round"",""Whether I observed the rewards of relevant locations.""]",11060,,327794,,,survey-multi-choice,,18
,,,,"[True, True, True, True, True]",,,,,,,,,"[""True or false: The hidden values will change each time I start a new round."",""How much does it cost to observe each hidden value?"",""How many hidden values am I allowed to observe in each round?"",""How is your bonus determined?"",""What does the feedback teach you?""]","[""True"",""$1.25"",""As many or as few as I wish"",""1 cent for every $1 I earn in each round"",""All of the above.""]",14021,,347459,,,survey-multi-choice,,18
,,,,"[True, False, True, True, True]",,,,,,,,,"[""True or false: The hidden values will change each time I start a new round."",""How much does it cost to observe each hidden value?"",""How many hidden values am I allowed to observe in each round?"",""How is your bonus determined?"",""What does the feedback teach you?""]","[""True"",""$0.05"",""As many or as few as I wish"",""1 cent for every $1 I earn in each round"",""All of the above.""]",23960,,93402,,,survey-multi-choice,,19
,,,,"[True, True, True, True, True]",,,,,,,,,"[""True or false: The hidden values will change each time I start a new round."",""How much does it cost to observe each hidden value?"",""How many hidden values am I allowed to observe in each round?"",""How is your bonus determined?"",""What does the feedback teach you?""]","[""True"",""$0.10"",""As many or as few as I wish"",""1 cent for every $1 I earn in each round"",""All of the above.""]",10049,,141904,,,survey-multi-choice,,19
,,,,"[True, True, True, True]",,,,,,,,,"[""True or false: The hidden values will change each time I start a new round."",""How much does it cost to observe each hidden value?"",""How many hidden values am I allowed to observe in each round?"",""How is your bonus determined?""]","[""True"",""$1.25"",""As many or as few as I wish"",""1 cent for every $1 I earn in each round""]",20275,,248655,,,survey-multi-choice,,20
,,,,"[True, True, True, True]",,,,,,,,,"[""True or false: The hidden values will change each time I start a new round."",""How much does it cost to observe each hidden value?"",""How many hidden values am I allowed to observe in each round?"",""How is your bonus determined?""]","[""True"",""$0.10"",""As many or as few as I wish"",""1 cent for every $1 I earn in each round""]",24014,,108483,,,survey-multi-choice,,21
,,,,"[True, True, True, True, True]",,,,,,,,,"[""True or false: The hidden values will change each time I start a new round."",""How much does it cost to observe each hidden value?"",""How many hidden values am I allowed to observe in each round?"",""How is your bonus determined?"",""What does the feedback teach you?""]","[""True"",""$4.00"",""As many or as few as I wish"",""1 cent for every $1 I earn in each round"",""All of the above.""]",23243,,130469,,,survey-multi-choice,,22
,,,,"[True, True, True, True, True]",,,,,,,,,"[""True or false: The hidden values will change each time I start a new round."",""How much does it cost to observe each hidden value?"",""How many hidden values am I allowed to observe in each round?"",""How is your bonus determined?"",""What does the feedback teach you?""]","[""True"",""$1.25"",""As many or as few as I wish"",""1 cent for every $1 I earn in each round"",""All of the above.""]",23472,,262851,,,survey-multi-choice,,23
,,,,"[True, True, True, True, True]",,,,,,,,,"[""True or false: The hidden values will change each time I start a new round."",""How much does it cost to observe each hidden value?"",""How many hidden values am I allowed to observe in each round?"",""How is your bonus determined?"",""What does the feedback teach you?""]","[""True"",""$4.00"",""As many or as few as I wish"",""1 cent for every $1 I earn in each round"",""All of the above.""]",19858,,30823,,,survey-multi-choice,,24
,,,,"[True, True, True, False, True]",,,,,,,,,"[""True or false: The hidden values will change each time I start a new round."",""How much does it cost to observe each hidden value?"",""How many hidden values am I allowed to observe in each round?"",""How is your bonus determined?"",""What does the feedback teach you?""]","[""True"",""$0.10"",""As many or as few as I wish"",""10% of my best score on any round"",""All of the above.""]",129541,,361499,,,survey-multi-choice,,25
,,,,"[True, True, True, True, True]",,,,,,,,,"[""True or false: The hidden values will change each time I start a new round."",""How much does it cost to observe each hidden value?"",""How many hidden values am I allowed to observe in each round?"",""How is your bonus determined?"",""What does the feedback teach you?""]","[""True"",""$0.10"",""As many or as few as I wish"",""1 cent for every $1 I earn in each round"",""All of the above.""]",11642,,391196,,,survey-multi-choice,,25
,,,,"[False, True, True, True]",,,,,,,,,"[""True or false: The hidden values will change each time I start a new round."",""How much does it cost to observe each hidden value?"",""How many hidden values am I allowed to observe in each round?"",""How is your bonus determined?""]","[""False"",""$4.00"",""As many or as few as I wish"",""1 cent for every $1 I earn in each round""]",28015,,252874,,,survey-multi-choice,,26
,,,,"[True, True, True, True]",,,,,,,,,"[""True or false: The hidden values will change each time I start a new round."",""How much does it cost to observe each hidden value?"",""How many hidden values am I allowed to observe in each round?"",""How is your bonus determined?""]","[""True"",""$4.00"",""As many or as few as I wish"",""1 cent for every $1 I earn in each round""]",15367,,313413,,,survey-multi-choice,,26
,,,,"[True, True, True, True]",,,,,,,,,"[""True or false: The hidden values will change each time I start a new round."",""How much does it cost to observe each hidden value?"",""How many hidden values am I allowed to observe in each round?"",""How is your bonus determined?""]","[""True"",""$4.00"",""As many or as few as I wish"",""1 cent for every $1 I earn in each round""]",22924,,151013,,,survey-multi-choice,,27
,,,,"[True, True, False, True]",,,,,,,,,"[""True or false: The hidden values will change each time I start a new round."",""How much does it cost to observe each hidden value?"",""How many hidden values am I allowed to observe in each round?"",""How is your bonus determined?""]","[""True"",""$0.10"",""At most 5"",""1 cent for every $1 I earn in each round""]",13505,,68514,,,survey-multi-choice,,28
,,,,"[True, True, True, True]",,,,,,,,,"[""True or false: The hidden values will change each time I start a new round."",""How much does it cost to observe each hidden value?"",""How many hidden values am I allowed to observe in each round?"",""How is your bonus determined?""]","[""True"",""$0.10"",""As many or as few as I wish"",""1 cent for every $1 I earn in each round""]",11632,,97014,,,survey-multi-choice,,28
,,,,"[True, False, False, True]",,,,,,,,,"[""True or false: The hidden values will change each time I start a new round."",""How much does it cost to observe each hidden value?"",""How many hidden values am I allowed to observe in each round?"",""How is your bonus determined?""]","[""True"",""$0.01"",""At most 5"",""1 cent for every $1 I earn in each round""]",19726,,96919,,,survey-multi-choice,,29
,,,,"[True, True, True, True]",,,,,,,,,"[""True or false: The hidden values will change each time I start a new round."",""How much does it cost to observe each hidden value?"",""How many hidden values am I allowed to observe in each round?"",""How is your bonus determined?""]","[""True"",""$0.10"",""As many or as few as I wish"",""1 cent for every $1 I earn in each round""]",20951,,150583,,,survey-multi-choice,,29
,,,,"[True, True, True, True, True]",,,,,,,,,"[""True or false: The hidden values will change each time I start a new round."",""How much does it cost to observe each hidden value?"",""How many hidden values am I allowed to observe in each round?"",""How is your bonus determined?"",""What does the feedback teach you?""]","[""True"",""$0.10"",""As many or as few as I wish"",""1 cent for every $1 I earn in each round"",""All of the above.""]",22321,,113969,,,survey-multi-choice,,30
,,,,"[True, False, True, True, False]",,,,,,,,,"[""True or false: The hidden values will change each time I start a new round."",""How much does it cost to observe each hidden value?"",""How many hidden values am I allowed to observe in each round?"",""How is your bonus determined?"",""What does the feedback teach you?""]","[""True"",""$0.01"",""As many or as few as I wish"",""1 cent for every $1 I earn in each round"",""Whether I chose the move that was best according to the information I had.""]",35556,,175694,,,survey-multi-choice,,31
,,,,"[True, False, False, True, False]",,,,,,,,,"[""True or false: The hidden values will change each time I start a new round."",""How much does it cost to observe each hidden value?"",""How many hidden values am I allowed to observe in each round?"",""How is your bonus determined?"",""What does the feedback teach you?""]","[""True"",""$1.00"",""At most 1"",""1 cent for every $1 I earn in each round"",""Whether I chose the move that was best according to the information I had.""]",30896,,239459,,,survey-multi-choice,,31
,,,,"[True, False, True, True, True]",,,,,,,,,"[""True or false: The hidden values will change each time I start a new round."",""How much does it cost to observe each hidden value?"",""How many hidden values am I allowed to observe in each round?"",""How is your bonus determined?"",""What does the feedback teach you?""]","[""True"",""$0.01"",""As many or as few as I wish"",""1 cent for every $1 I earn in each round"",""All of the above.""]",30398,,325039,,,survey-multi-choice,,31
,,,,"[True, True, True, True, True]",,,,,,,,,"[""True or false: The hidden values will change each time I start a new round."",""How much does it cost to observe each hidden value?"",""How many hidden values am I allowed to observe in each round?"",""How is your bonus determined?"",""What does the feedback teach you?""]","[""True"",""$4.00"",""As many or as few as I wish"",""1 cent for every $1 I earn in each round"",""All of the above.""]",11262,,367644,,,survey-multi-choice,,31
,,,,"[True, True, True, True, True]",,,,,,,,,"[""True or false: The hidden values will change each time I start a new round."",""How much does it cost to observe each hidden value?"",""How many hidden values am I allowed to observe in each round?"",""How is your bonus determined?"",""What does the feedback teach you?""]","[""True"",""$4.00"",""As many or as few as I wish"",""1 cent for every $1 I earn in each round"",""All of the above.""]",16852,,80379,,,survey-multi-choice,,32
,,,,"[True, True, True, True]",,,,,,,,,"[""True or false: The hidden values will change each time I start a new round."",""How much does it cost to observe each hidden value?"",""How many hidden values am I allowed to observe in each round?"",""How is your bonus determined?""]","[""True"",""$1.25"",""As many or as few as I wish"",""1 cent for every $1 I earn in each round""]",31060,,311087,,,survey-multi-choice,,33
,,,,"[True, True, False, False, False]",,,,,,,,,"[""True or false: The hidden values will change each time I start a new round."",""How much does it cost to observe each hidden value?"",""How many hidden values am I allowed to observe in each round?"",""How is your bonus determined?"",""What does the feedback teach you?""]","[""True"",""$4.00"",""At most 10"",""10% of my best score on any round"",""Whether I observed the rewards of relevant locations.""]",75079,,288747,,,survey-multi-choice,,34
,,,,"[True, True, True, True, False]",,,,,,,,,"[""True or false: The hidden values will change each time I start a new round."",""How much does it cost to observe each hidden value?"",""How many hidden values am I allowed to observe in each round?"",""How is your bonus determined?"",""What does the feedback teach you?""]","[""True"",""$4.00"",""As many or as few as I wish"",""1 cent for every $1 I earn in each round"",""Whether I chose the move that was best according to the information I had.""]",450606,,854587,,,survey-multi-choice,,34
,,,,"[True, True, True, True, False]",,,,,,,,,"[""True or false: The hidden values will change each time I start a new round."",""How much does it cost to observe each hidden value?"",""How many hidden values am I allowed to observe in each round?"",""How is your bonus determined?"",""What does the feedback teach you?""]","[""True"",""$4.00"",""As many or as few as I wish"",""1 cent for every $1 I earn in each round"",""Whether I observed the rewards of relevant locations.""]",27837,,949719,,,survey-multi-choice,,34
,,,,"[True, True, True, True, True]",,,,,,,,,"[""True or false: The hidden values will change each time I start a new round."",""How much does it cost to observe each hidden value?"",""How many hidden values am I allowed to observe in each round?"",""How is your bonus determined?"",""What does the feedback teach you?""]","[""True"",""$4.00"",""As many or as few as I wish"",""1 cent for every $1 I earn in each round"",""All of the above.""]",259671,,1284272,,,survey-multi-choice,,34
,,,,"[True, True, True, True, True]",,,,,,,,,"[""True or false: The hidden values will change each time I start a new round."",""How much does it cost to observe each hidden value?"",""How many hidden values am I allowed to observe in each round?"",""How is your bonus determined?"",""What does the feedback teach you?""]","[""True"",""$1.25"",""As many or as few as I wish"",""1 cent for every $1 I earn in each round"",""All of the above.""]",118034,,297093,,,survey-multi-choice,,35
,,,,"[False, False, True, True]",,,,,,,,,"[""True or false: The hidden values will change each time I start a new round."",""How much does it cost to observe each hidden value?"",""How many hidden values am I allowed to observe in each round?"",""How is your bonus determined?""]","[""False"",""$0.01"",""As many or as few as I wish"",""1 cent for every $1 I earn in each round""]",27116,,116870,,,survey-multi-choice,,36
,,,,"[False, True, True, True]",,,,,,,,,"[""True or false: The hidden values will change each time I start a new round."",""How much does it cost to observe each hidden value?"",""How many hidden values am I allowed to observe in each round?"",""How is your bonus determined?""]","[""False"",""$0.10"",""As many or as few as I wish"",""1 cent for every $1 I earn in each round""]",21464,,172429,,,survey-multi-choice,,36
,,,,"[True, True, True, True]",,,,,,,,,"[""True or false: The hidden values will change each time I start a new round."",""How much does it cost to observe each hidden value?"",""How many hidden values am I allowed to observe in each round?"",""How is your bonus determined?""]","[""True"",""$0.10"",""As many or as few as I wish"",""1 cent for every $1 I earn in each round""]",19037,,212535,,,survey-multi-choice,,36
,,,,"[True, True, True, True]",,,,,,,,,"[""True or false: The hidden values will change each time I start a new round."",""How much does it cost to observe each hidden value?"",""How many hidden values am I allowed to observe in each round?"",""How is your bonus determined?""]","[""True"",""$4.00"",""As many or as few as I wish"",""1 cent for every $1 I earn in each round""]",15070,,279524,,,survey-multi-choice,,37
,,,,"[True, True, True, True, True]",,,,,,,,,"[""True or false: The hidden values will change each time I start a new round."",""How much does it cost to observe each hidden value?"",""How many hidden values am I allowed to observe in each round?"",""How is your bonus determined?"",""What does the feedback teach you?""]","[""True"",""$0.10"",""As many or as few as I wish"",""1 cent for every $1 I earn in each round"",""All of the above.""]",48206,,183659,,,survey-multi-choice,,38
,,,,"[True, True, True, True]",,,,,,,,,"[""True or false: The hidden values will change each time I start a new round."",""How much does it cost to observe each hidden value?"",""How many hidden values am I allowed to observe in each round?"",""How is your bonus determined?""]","[""True"",""$1.25"",""As many or as few as I wish"",""1 cent for every $1 I earn in each round""]",20878,,202951,,,survey-multi-choice,,39
,,,,"[False, True, True, True, False]",,,,,,,,,"[""True or false: The hidden values will change each time I start a new round."",""How much does it cost to observe each hidden value?"",""How many hidden values am I allowed to observe in each round?"",""How is your bonus determined?"",""What does the feedback teach you?""]","[""False"",""$1.25"",""As many or as few as I wish"",""1 cent for every $1 I earn in each round"",""Whether I chose the move that was best.""]",26147,,208741,,,survey-multi-choice,,40
,,,,"[True, True, True, True, False]",,,,,,,,,"[""True or false: The hidden values will change each time I start a new round."",""How much does it cost to observe each hidden value?"",""How many hidden values am I allowed to observe in each round?"",""How is your bonus determined?"",""What does the feedback teach you?""]","[""True"",""$1.25"",""As many or as few as I wish"",""1 cent for every $1 I earn in each round"",""Whether I chose the move that was best.""]",15682,,252091,,,survey-multi-choice,,40
,,,,"[True, True, True, True, True]",,,,,,,,,"[""True or false: The hidden values will change each time I start a new round."",""How much does it cost to observe each hidden value?"",""How many hidden values am I allowed to observe in each round?"",""How is your bonus determined?"",""What does the feedback teach you?""]","[""True"",""$1.25"",""As many or as few as I wish"",""1 cent for every $1 I earn in each round"",""All of the above.""]",13851,,297197,,,survey-multi-choice,,40
,,,,"[True, False, False, False, False]",,,,,,,,,"[""True or false: The hidden values will change each time I start a new round."",""How much does it cost to observe each hidden value?"",""How many hidden values am I allowed to observe in each round?"",""How is your bonus determined?"",""What does the feedback teach you?""]","[""True"",""$0.01"",""At most 5"",""10% of my best score on any round"",""The length of the delay is based on how much more money I could have earned.""]",32217,,90965,,,survey-multi-choice,,41
,,,,"[True, True, False, True, True]",,,,,,,,,"[""True or false: The hidden values will change each time I start a new round."",""How much does it cost to observe each hidden value?"",""How many hidden values am I allowed to observe in each round?"",""How is your bonus determined?"",""What does the feedback teach you?""]","[""True"",""$1.25"",""At most 10"",""1 cent for every $1 I earn in each round"",""All of the above.""]",13325,,140727,,,survey-multi-choice,,41
,,,,"[True, True, True, True, True]",,,,,,,,,"[""True or false: The hidden values will change each time I start a new round."",""How much does it cost to observe each hidden value?"",""How many hidden values am I allowed to observe in each round?"",""How is your bonus determined?"",""What does the feedback teach you?""]","[""True"",""$1.25"",""As many or as few as I wish"",""1 cent for every $1 I earn in each round"",""All of the above.""]",11509,,158558,,,survey-multi-choice,,41
,,,,"[True, True, True, True, False]",,,,,,,,,"[""True or false: The hidden values will change each time I start a new round."",""How much does it cost to observe each hidden value?"",""How many hidden values am I allowed to observe in each round?"",""How is your bonus determined?"",""What does the feedback teach you?""]","[""True"",""$0.10"",""As many or as few as I wish"",""1 cent for every $1 I earn in each round"",""Whether I chose the move that was best.""]",20193,,110391,,,survey-multi-choice,,42
,,,,"[True, True, True, True, True]",,,,,,,,,"[""True or false: The hidden values will change each time I start a new round."",""How much does it cost to observe each hidden value?"",""How many hidden values am I allowed to observe in each round?"",""How is your bonus determined?"",""What does the feedback teach you?""]","[""True"",""$0.10"",""As many or as few as I wish"",""1 cent for every $1 I earn in each round"",""All of the above.""]",11789,,149343,,,survey-multi-choice,,42
,,,,"[True, True, True, True, True]",,,,,,,,,"[""True or false: The hidden values will change each time I start a new round."",""How much does it cost to observe each hidden value?"",""How many hidden values am I allowed to observe in each round?"",""How is your bonus determined?"",""What does the feedback teach you?""]","[""True"",""$4.00"",""As many or as few as I wish"",""1 cent for every $1 I earn in each round"",""All of the above.""]",26125,,158790,,,survey-multi-choice,,43
,,,,"[True, True, False, True, False]",,,,,,,,,"[""True or false: The hidden values will change each time I start a new round."",""How much does it cost to observe each hidden value?"",""How many hidden values am I allowed to observe in each round?"",""How is your bonus determined?"",""What does the feedback teach you?""]","[""True"",""$1.25"",""At most 5"",""1 cent for every $1 I earn in each round"",""Whether I chose the move that was best.""]",18987,,83031,,,survey-multi-choice,,44
,,,,"[False, False, True, True, True]",,,,,,,,,"[""True or false: The hidden values will change each time I start a new round."",""How much does it cost to observe each hidden value?"",""How many hidden values am I allowed to observe in each round?"",""How is your bonus determined?"",""What does the feedback teach you?""]","[""False"",""$1.00"",""As many or as few as I wish"",""1 cent for every $1 I earn in each round"",""All of the above.""]",41937,,170522,,,survey-multi-choice,,44
,,,,"[False, True, True, True, True]",,,,,,,,,"[""True or false: The hidden values will change each time I start a new round."",""How much does it cost to observe each hidden value?"",""How many hidden values am I allowed to observe in each round?"",""How is your bonus determined?"",""What does the feedback teach you?""]","[""False"",""$1.25"",""As many or as few as I wish"",""1 cent for every $1 I earn in each round"",""All of the above.""]",18443,,246127,,,survey-multi-choice,,44
,,,,"[True, True, True, True, True]",,,,,,,,,"[""True or false: The hidden values will change each time I start a new round."",""How much does it cost to observe each hidden value?"",""How many hidden values am I allowed to observe in each round?"",""How is your bonus determined?"",""What does the feedback teach you?""]","[""True"",""$1.25"",""As many or as few as I wish"",""1 cent for every $1 I earn in each round"",""All of the above.""]",13299,,283271,,,survey-multi-choice,,44
,,,,"[True, True, True, False, False]",,,,,,,,,"[""True or false: The hidden values will change each time I start a new round."",""How much does it cost to observe each hidden value?"",""How many hidden values am I allowed to observe in each round?"",""How is your bonus determined?"",""What does the feedback teach you?""]","[""True"",""$0.10"",""As many or as few as I wish"",""10% of my best score on any round"",""Whether I chose the move that was best.""]",113906,,419464,,,survey-multi-choice,,45
,,,,"[True, True, True, False, False]",,,,,,,,,"[""True or false: The hidden values will change each time I start a new round."",""How much does it cost to observe each hidden value?"",""How many hidden values am I allowed to observe in each round?"",""How is your bonus determined?"",""What does the feedback teach you?""]","[""True"",""$0.10"",""As many or as few as I wish"",""1% of my best score on any round"",""Whether I chose the move that was best.""]",77917,,699391,,,survey-multi-choice,,45
,,,,"[True, True, True, True, False]",,,,,,,,,"[""True or false: The hidden values will change each time I start a new round."",""How much does it cost to observe each hidden value?"",""How many hidden values am I allowed to observe in each round?"",""How is your bonus determined?"",""What does the feedback teach you?""]","[""True"",""$0.10"",""As many or as few as I wish"",""1 cent for every $1 I earn in each round"",""Whether I chose the move that was best.""]",41767,,1040909,,,survey-multi-choice,,45
,,,,"[True, True, True, True, True]",,,,,,,,,"[""True or false: The hidden values will change each time I start a new round."",""How much does it cost to observe each hidden value?"",""How many hidden values am I allowed to observe in each round?"",""How is your bonus determined?"",""What does the feedback teach you?""]","[""True"",""$0.10"",""As many or as few as I wish"",""1 cent for every $1 I earn in each round"",""All of the above.""]",46000,,1107656,,,survey-multi-choice,,45
,,,,"[True, False, True, True, True]",,,,,,,,,"[""True or false: The hidden values will change each time I start a new round."",""How much does it cost to observe each hidden value?"",""How many hidden values am I allowed to observe in each round?"",""How is your bonus determined?"",""What does the feedback teach you?""]","[""True"",""$0.01"",""As many or as few as I wish"",""1 cent for every $1 I earn in each round"",""All of the above.""]",16778,,75119,,,survey-multi-choice,,46
,,,,"[True, True, True, True, False]",,,,,,,,,"[""True or false: The hidden values will change each time I start a new round."",""How much does it cost to observe each hidden value?"",""How many hidden values am I allowed to observe in each round?"",""How is your bonus determined?"",""What does the feedback teach you?""]","[""True"",""$0.10"",""As many or as few as I wish"",""1 cent for every $1 I earn in each round"",""The length of the delay is based on how much more money I could have earned by planning and deciding better.""]",16923,,114845,,,survey-multi-choice,,46
,,,,"[True, True, True, True, False]",,,,,,,,,"[""True or false: The hidden values will change each time I start a new round."",""How much does it cost to observe each hidden value?"",""How many hidden values am I allowed to observe in each round?"",""How is your bonus determined?"",""What does the feedback teach you?""]","[""True"",""$0.10"",""As many or as few as I wish"",""1 cent for every $1 I earn in each round"",""The length of the delay is based on how much more money I could have earned by planning and deciding better.""]",15415,,154811,,,survey-multi-choice,,46
,,,,"[True, True, True, True, False]",,,,,,,,,"[""True or false: The hidden values will change each time I start a new round."",""How much does it cost to observe each hidden value?"",""How many hidden values am I allowed to observe in each round?"",""How is your bonus determined?"",""What does the feedback teach you?""]","[""True"",""$0.10"",""As many or as few as I wish"",""1 cent for every $1 I earn in each round"",""Whether I observed the rewards of relevant locations.""]",14141,,208203,,,survey-multi-choice,,46
,,,,"[True, True, True, True, False]",,,,,,,,,"[""True or false: The hidden values will change each time I start a new round."",""How much does it cost to observe each hidden value?"",""How many hidden values am I allowed to observe in each round?"",""How is your bonus determined?"",""What does the feedback teach you?""]","[""True"",""$0.10"",""As many or as few as I wish"",""1 cent for every $1 I earn in each round"",""Whether I chose the move that was best according to the information I had.""]",12172,,229775,,,survey-multi-choice,,46
,,,,"[True, True, True, True, True]",,,,,,,,,"[""True or false: The hidden values will change each time I start a new round."",""How much does it cost to observe each hidden value?"",""How many hidden values am I allowed to observe in each round?"",""How is your bonus determined?"",""What does the feedback teach you?""]","[""True"",""$0.10"",""As many or as few as I wish"",""1 cent for every $1 I earn in each round"",""All of the above.""]",13290,,255580,,,survey-multi-choice,,46
,,,,"[True, True, False, True, True]",,,,,,,,,"[""True or false: The hidden values will change each time I start a new round."",""How much does it cost to observe each hidden value?"",""How many hidden values am I allowed to observe in each round?"",""How is your bonus determined?"",""What does the feedback teach you?""]","[""True"",""$4.00"",""At most 1"",""1 cent for every $1 I earn in each round"",""All of the above.""]",28782,,334572,,,survey-multi-choice,,47
,,,,"[True, True, True, True, True]",,,,,,,,,"[""True or false: The hidden values will change each time I start a new round."",""How much does it cost to observe each hidden value?"",""How many hidden values am I allowed to observe in each round?"",""How is your bonus determined?"",""What does the feedback teach you?""]","[""True"",""$4.00"",""As many or as few as I wish"",""1 cent for every $1 I earn in each round"",""All of the above.""]",12113,,368227,,,survey-multi-choice,,47
,,,,"[True, True, False, True]",,,,,,,,,"[""True or false: The hidden values will change each time I start a new round."",""How much does it cost to observe each hidden value?"",""How many hidden values am I allowed to observe in each round?"",""How is your bonus determined?""]","[""True"",""$0.10"",""At most 10"",""1 cent for every $1 I earn in each round""]",76714,,195889,,,survey-multi-choice,,48
,,,,"[True, True, True, True]",,,,,,,,,"[""True or false: The hidden values will change each time I start a new round."",""How much does it cost to observe each hidden value?"",""How many hidden values am I allowed to observe in each round?"",""How is your bonus determined?""]","[""True"",""$0.10"",""As many or as few as I wish"",""1 cent for every $1 I earn in each round""]",14181,,312388,,,survey-multi-choice,,48
,,,,"[True, True, True, True, True]",,,,,,,,,"[""True or false: The hidden values will change each time I start a new round."",""How much does it cost to observe each hidden value?"",""How many hidden values am I allowed to observe in each round?"",""How is your bonus determined?"",""What does the feedback teach you?""]","[""True"",""$1.25"",""As many or as few as I wish"",""1 cent for every $1 I earn in each round"",""All of the above.""]",63274,,154764,,,survey-multi-choice,,49
,,,,"[True, True, True, True, True]",,,,,,,,,"[""True or false: The hidden values will change each time I start a new round."",""How much does it cost to observe each hidden value?"",""How many hidden values am I allowed to observe in each round?"",""How is your bonus determined?"",""What does the feedback teach you?""]","[""True"",""$0.10"",""As many or as few as I wish"",""1 cent for every $1 I earn in each round"",""All of the above.""]",63689,,271808,,,survey-multi-choice,,50
,,,,"[True, True, False, True]",,,,,,,,,"[""True or false: The hidden values will change each time I start a new round."",""How much does it cost to observe each hidden value?"",""How many hidden values am I allowed to observe in each round?"",""How is your bonus determined?""]","[""True"",""$0.10"",""At most 1"",""1 cent for every $1 I earn in each round""]",28601,,173858,,,survey-multi-choice,,51
,,,,"[True, True, True, True]",,,,,,,,,"[""True or false: The hidden values will change each time I start a new round."",""How much does it cost to observe each hidden value?"",""How many hidden values am I allowed to observe in each round?"",""How is your bonus determined?""]","[""True"",""$0.10"",""As many or as few as I wish"",""1 cent for every $1 I earn in each round""]",16810,,271221,,,survey-multi-choice,,51
,,,,"[True, True, True, True, True]",,,,,,,,,"[""True or false: The hidden values will change each time I start a new round."",""How much does it cost to observe each hidden value?"",""How many hidden values am I allowed to observe in each round?"",""How is your bonus determined?"",""What does the feedback teach you?""]","[""True"",""$0.10"",""As many or as few as I wish"",""1 cent for every $1 I earn in each round"",""All of the above.""]",21204,,142486,,,survey-multi-choice,,52
,,,,"[True, True, True, True]",,,,,,,,,"[""True or false: The hidden values will change each time I start a new round."",""How much does it cost to observe each hidden value?"",""How many hidden values am I allowed to observe in each round?"",""How is your bonus determined?""]","[""True"",""$1.25"",""As many or as few as I wish"",""1 cent for every $1 I earn in each round""]",23318,,204478,,,survey-multi-choice,,53
,,,,"[True, True, True, True, True]",,,,,,,,,"[""True or false: The hidden values will change each time I start a new round."",""How much does it cost to observe each hidden value?"",""How many hidden values am I allowed to observe in each round?"",""How is your bonus determined?"",""What does the feedback teach you?""]","[""True"",""$0.10"",""As many or as few as I wish"",""1 cent for every $1 I earn in each round"",""All of the above.""]",29466,,166994,,,survey-multi-choice,,54
,,,,"[True, True, True, True, False]",,,,,,,,,"[""True or false: The hidden values will change each time I start a new round."",""How much does it cost to observe each hidden value?"",""How many hidden values am I allowed to observe in each round?"",""How is your bonus determined?"",""What does the feedback teach you?""]","[""True"",""$4.00"",""As many or as few as I wish"",""1 cent for every $1 I earn in each round"",""Whether I chose the move that was best.""]",26299,,168146,,,survey-multi-choice,,55
,,,,"[True, True, True, True, True]",,,,,,,,,"[""True or false: The hidden values will change each time I start a new round."",""How much does it cost to observe each hidden value?"",""How many hidden values am I allowed to observe in each round?"",""How is your bonus determined?"",""What does the feedback teach you?""]","[""True"",""$4.00"",""As many or as few as I wish"",""1 cent for every $1 I earn in each round"",""All of the above.""]",12367,,194180,,,survey-multi-choice,,55
,,,,"[True, False, True, True, True]",,,,,,,,,"[""True or false: The hidden values will change each time I start a new round."",""How much does it cost to observe each hidden value?"",""How many hidden values am I allowed to observe in each round?"",""How is your bonus determined?"",""What does the feedback teach you?""]","[""True"",""$0.01"",""As many or as few as I wish"",""1 cent for every $1 I earn in each round"",""All of the above.""]",33379,,191595,,,survey-multi-choice,,56
,,,,"[True, True, True, True, True]",,,,,,,,,"[""True or false: The hidden values will change each time I start a new round."",""How much does it cost to observe each hidden value?"",""How many hidden values am I allowed to observe in each round?"",""How is your bonus determined?"",""What does the feedback teach you?""]","[""True"",""$0.10"",""As many or as few as I wish"",""1 cent for every $1 I earn in each round"",""All of the above.""]",16451,,260900,,,survey-multi-choice,,56
,,,,"[True, True, True, True]",,,,,,,,,"[""True or false: The hidden values will change each time I start a new round."",""How much does it cost to observe each hidden value?"",""How many hidden values am I allowed to observe in each round?"",""How is your bonus determined?""]","[""True"",""$0.10"",""As many or as few as I wish"",""1 cent for every $1 I earn in each round""]",18829,,95730,,,survey-multi-choice,,57
,,,,"[True, True, True, True, True]",,,,,,,,,"[""True or false: The hidden values will change each time I start a new round."",""How much does it cost to observe each hidden value?"",""How many hidden values am I allowed to observe in each round?"",""How is your bonus determined?"",""What does the feedback teach you?""]","[""True"",""$4.00"",""As many or as few as I wish"",""1 cent for every $1 I earn in each round"",""All of the above.""]",24739,,111803,,,survey-multi-choice,,58
,,,,"[True, True, True, True, True]",,,,,,,,,"[""True or false: The hidden values will change each time I start a new round."",""How much does it cost to observe each hidden value?"",""How many hidden values am I allowed to observe in each round?"",""How is your bonus determined?"",""What does the feedback teach you?""]","[""True"",""$4.00"",""As many or as few as I wish"",""1 cent for every $1 I earn in each round"",""All of the above.""]",43683,,204752,,,survey-multi-choice,,59
,,,,"[True, True, True, True]",,,,,,,,,"[""True or false: The hidden values will change each time I start a new round."",""How much does it cost to observe each hidden value?"",""How many hidden values am I allowed to observe in each round?"",""How is your bonus determined?""]","[""True"",""$0.10"",""As many or as few as I wish"",""1 cent for every $1 I earn in each round""]",9416,,42908,,,survey-multi-choice,,60
,,,,"[True, True, True, True, True]",,,,,,,,,"[""True or false: The hidden values will change each time I start a new round."",""How much does it cost to observe each hidden value?"",""How many hidden values am I allowed to observe in each round?"",""How is your bonus determined?"",""What does the feedback teach you?""]","[""True"",""$1.25"",""As many or as few as I wish"",""1 cent for every $1 I earn in each round"",""All of the above.""]",39473,,181137,,,survey-multi-choice,,61
,,,,"[True, True, True, True]",,,,,,,,,"[""True or false: The hidden values will change each time I start a new round."",""How much does it cost to observe each hidden value?"",""How many hidden values am I allowed to observe in each round?"",""How is your bonus determined?""]","[""True"",""$1.25"",""As many or as few as I wish"",""1 cent for every $1 I earn in each round""]",24610,,261946,,,survey-multi-choice,,62
,,,,"[True, True, True, True]",,,,,,,,,"[""True or false: The hidden values will change each time I start a new round."",""How much does it cost to observe each hidden value?"",""How many hidden values am I allowed to observe in each round?"",""How is your bonus determined?""]","[""True"",""$0.10"",""As many or as few as I wish"",""1 cent for every $1 I earn in each round""]",18640,,136800,,,survey-multi-choice,,63
,,,,"[True, True, True, True]",,,,,,,,,"[""True or false: The hidden values will change each time I start a new round."",""How much does it cost to observe each hidden value?"",""How many hidden values am I allowed to observe in each round?"",""How is your bonus determined?""]","[""True"",""$1.25"",""As many or as few as I wish"",""1 cent for every $1 I earn in each round""]",11804,,88236,,,survey-multi-choice,,64
,,,,"[True, True, True, True, True]",,,,,,,,,"[""True or false: The hidden values will change each time I start a new round."",""How much does it cost to observe each hidden value?"",""How many hidden values am I allowed to observe in each round?"",""How is your bonus determined?"",""What does the feedback teach you?""]","[""True"",""$0.10"",""As many or as few as I wish"",""1 cent for every $1 I earn in each round"",""All of the above.""]",75162,,309514,,,survey-multi-choice,,65
,,,,"[True, True, True, True, True]",,,,,,,,,"[""True or false: The hidden values will change each time I start a new round."",""How much does it cost to observe each hidden value?"",""How many hidden values am I allowed to observe in each round?"",""How is your bonus determined?"",""What does the feedback teach you?""]","[""True"",""$0.10"",""As many or as few as I wish"",""1 cent for every $1 I earn in each round"",""All of the above.""]",35605,,176848,,,survey-multi-choice,,66
,,,,"[True, True, True, True, True]",,,,,,,,,"[""True or false: The hidden values will change each time I start a new round."",""How much does it cost to observe each hidden value?"",""How many hidden values am I allowed to observe in each round?"",""How is your bonus determined?"",""What does the feedback teach you?""]","[""True"",""$0.10"",""As many or as few as I wish"",""1 cent for every $1 I earn in each round"",""All of the above.""]",23437,,203910,,,survey-multi-choice,,67
,,,,"[True, True, True, True, True]",,,,,,,,,"[""True or false: The hidden values will change each time I start a new round."",""How much does it cost to observe each hidden value?"",""How many hidden values am I allowed to observe in each round?"",""How is your bonus determined?"",""What does the feedback teach you?""]","[""True"",""$4.00"",""As many or as few as I wish"",""1 cent for every $1 I earn in each round"",""All of the above.""]",42407,,194318,,,survey-multi-choice,,68
,,,,"[True, True, True, True]",,,,,,,,,"[""True or false: The hidden values will change each time I start a new round."",""How much does it cost to observe each hidden value?"",""How many hidden values am I allowed to observe in each round?"",""How is your bonus determined?""]","[""True"",""$1.25"",""As many or as few as I wish"",""1 cent for every $1 I earn in each round""]",12171,,36675,,,survey-multi-choice,,69
,,,,"[True, False, True, True, True]",,,,,,,,,"[""True or false: The hidden values will change each time I start a new round."",""How much does it cost to observe each hidden value?"",""How many hidden values am I allowed to observe in each round?"",""How is your bonus determined?"",""What does the feedback teach you?""]","[""True"",""$1.00"",""As many or as few as I wish"",""1 cent for every $1 I earn in each round"",""All of the above.""]",36975,,206134,,,survey-multi-choice,,70
,,,,"[True, True, True, True, True]",,,,,,,,,"[""True or false: The hidden values will change each time I start a new round."",""How much does it cost to observe each hidden value?"",""How many hidden values am I allowed to observe in each round?"",""How is your bonus determined?"",""What does the feedback teach you?""]","[""True"",""$0.10"",""As many or as few as I wish"",""1 cent for every $1 I earn in each round"",""All of the above.""]",16123,,256743,,,survey-multi-choice,,70
,,,,"[True, True, True, True, True]",,,,,,,,,"[""True or false: The hidden values will change each time I start a new round."",""How much does it cost to observe each hidden value?"",""How many hidden values am I allowed to observe in each round?"",""How is your bonus determined?"",""What does the feedback teach you?""]","[""True"",""$0.10"",""As many or as few as I wish"",""1 cent for every $1 I earn in each round"",""All of the above.""]",22110,,157791,,,survey-multi-choice,,71
,,,,"[True, True, True, True, True]",,,,,,,,,"[""True or false: The hidden values will change each time I start a new round."",""How much does it cost to observe each hidden value?"",""How many hidden values am I allowed to observe in each round?"",""How is your bonus determined?"",""What does the feedback teach you?""]","[""True"",""$4.00"",""As many or as few as I wish"",""1 cent for every $1 I earn in each round"",""All of the above.""]",24762,,164468,,,survey-multi-choice,,72
,,,,"[True, True, True, True, False]",,,,,,,,,"[""True or false: The hidden values will change each time I start a new round."",""How much does it cost to observe each hidden value?"",""How many hidden values am I allowed to observe in each round?"",""How is your bonus determined?"",""What does the feedback teach you?""]","[""True"",""$1.25"",""As many or as few as I wish"",""1 cent for every $1 I earn in each round"",""Whether I chose the move that was best.""]",23905,,108599,,,survey-multi-choice,,73
,,,,"[True, True, True, True, False]",,,,,,,,,"[""True or false: The hidden values will change each time I start a new round."",""How much does it cost to observe each hidden value?"",""How many hidden values am I allowed to observe in each round?"",""How is your bonus determined?"",""What does the feedback teach you?""]","[""True"",""$1.25"",""As many or as few as I wish"",""1 cent for every $1 I earn in each round"",""The length of the delay is based on how much more money I could have earned.""]",14792,,189454,,,survey-multi-choice,,73
,,,,"[True, True, True, True, True]",,,,,,,,,"[""True or false: The hidden values will change each time I start a new round."",""How much does it cost to observe each hidden value?"",""How many hidden values am I allowed to observe in each round?"",""How is your bonus determined?"",""What does the feedback teach you?""]","[""True"",""$1.25"",""As many or as few as I wish"",""1 cent for every $1 I earn in each round"",""All of the above.""]",10311,,205397,,,survey-multi-choice,,73
,,,,"[True, True, True, True]",,,,,,,,,"[""True or false: The hidden values will change each time I start a new round."",""How much does it cost to observe each hidden value?"",""How many hidden values am I allowed to observe in each round?"",""How is your bonus determined?""]","[""True"",""$0.10"",""As many or as few as I wish"",""1 cent for every $1 I earn in each round""]",26654,,201982,,,survey-multi-choice,,74
,,,,"[True, True, True, True, True]",,,,,,,,,"[""True or false: The hidden values will change each time I start a new round."",""How much does it cost to observe each hidden value?"",""How many hidden values am I allowed to observe in each round?"",""How is your bonus determined?"",""What does the feedback teach you?""]","[""True"",""$4.00"",""As many or as few as I wish"",""1 cent for every $1 I earn in each round"",""All of the above.""]",27873,,208826,,,survey-multi-choice,,75
,,,,"[True, True, True, True, True]",,,,,,,,,"[""True or false: The hidden values will change each time I start a new round."",""How much does it cost to observe each hidden value?"",""How many hidden values am I allowed to observe in each round?"",""How is your bonus determined?"",""What does the feedback teach you?""]","[""True"",""$1.25"",""As many or as few as I wish"",""1 cent for every $1 I earn in each round"",""All of the above.""]",27130,,167838,,,survey-multi-choice,,76
,,,,"[True, True, True, True]",,,,,,,,,"[""True or false: The hidden values will change each time I start a new round."",""How much does it cost to observe each hidden value?"",""How many hidden values am I allowed to observe in each round?"",""How is your bonus determined?""]","[""True"",""$1.25"",""As many or as few as I wish"",""1 cent for every $1 I earn in each round""]",20317,,127134,,,survey-multi-choice,,77
,,,,"[True, True, True, True]",,,,,,,,,"[""True or false: The hidden values will change each time I start a new round."",""How much does it cost to observe each hidden value?"",""How many hidden values am I allowed to observe in each round?"",""How is your bonus determined?""]","[""True"",""$0.10"",""As many or as few as I wish"",""1 cent for every $1 I earn in each round""]",20430,,115991,,,survey-multi-choice,,78
,,,,"[True, True, True, True]",,,,,,,,,"[""True or false: The hidden values will change each time I start a new round."",""How much does it cost to observe each hidden value?"",""How many hidden values am I allowed to observe in each round?"",""How is your bonus determined?""]","[""True"",""$0.10"",""As many or as few as I wish"",""1 cent for every $1 I earn in each round""]",15091,,79986,,,survey-multi-choice,,79
,,,,"[True, True, True, True, True]",,,,,,,,,"[""True or false: The hidden values will change each time I start a new round."",""How much does it cost to observe each hidden value?"",""How many hidden values am I allowed to observe in each round?"",""How is your bonus determined?"",""What does the feedback teach you?""]","[""True"",""$4.00"",""As many or as few as I wish"",""1 cent for every $1 I earn in each round"",""All of the above.""]",21441,,184869,,,survey-multi-choice,,80
,,,,"[True, True, True, True, True]",,,,,,,,,"[""True or false: The hidden values will change each time I start a new round."",""How much does it cost to observe each hidden value?"",""How many hidden values am I allowed to observe in each round?"",""How is your bonus determined?"",""What does the feedback teach you?""]","[""True"",""$1.25"",""As many or as few as I wish"",""1 cent for every $1 I earn in each round"",""All of the above.""]",35124,,218673,,,survey-multi-choice,,81
,,,,"[True, False, True, True, False]",,,,,,,,,"[""True or false: The hidden values will change each time I start a new round."",""How much does it cost to observe each hidden value?"",""How many hidden values am I allowed to observe in each round?"",""How is your bonus determined?"",""What does the feedback teach you?""]","[""True"",""$4.00"",""As many or as few as I wish"",""1 cent for every $1 I earn in each round"",""Whether I chose the move that was best.""]",34180,,189408,,,survey-multi-choice,,82
,,,,"[True, True, True, True, False]",,,,,,,,,"[""True or false: The hidden values will change each time I start a new round."",""How much does it cost to observe each hidden value?"",""How many hidden values am I allowed to observe in each round?"",""How is your bonus determined?"",""What does the feedback teach you?""]","[""True"",""$0.10"",""As many or as few as I wish"",""1 cent for every $1 I earn in each round"",""Whether I chose the move that was best.""]",25311,,314852,,,survey-multi-choice,,82
,,,,"[True, True, True, True, True]",,,,,,,,,"[""True or false: The hidden values will change each time I start a new round."",""How much does it cost to observe each hidden value?"",""How many hidden values am I allowed to observe in each round?"",""How is your bonus determined?"",""What does the feedback teach you?""]","[""True"",""$0.10"",""As many or as few as I wish"",""1 cent for every $1 I earn in each round"",""All of the above.""]",19017,,388398,,,survey-multi-choice,,82
,,,,"[True, True, True, True]",,,,,,,,,"[""True or false: The hidden values will change each time I start a new round."",""How much does it cost to observe each hidden value?"",""How many hidden values am I allowed to observe in each round?"",""How is your bonus determined?""]","[""True"",""$1.25"",""As many or as few as I wish"",""1 cent for every $1 I earn in each round""]",15477,,151332,,,survey-multi-choice,,83
,,,,"[True, True, True, True, True]",,,,,,,,,"[""True or false: The hidden values will change each time I start a new round."",""How much does it cost to observe each hidden value?"",""How many hidden values am I allowed to observe in each round?"",""How is your bonus determined?"",""What does the feedback teach you?""]","[""True"",""$0.10"",""As many or as few as I wish"",""1 cent for every $1 I earn in each round"",""All of the above.""]",25712,,158497,,,survey-multi-choice,,84
,,,,"[True, False, True, True, False]",,,,,,,,,"[""True or false: The hidden values will change each time I start a new round."",""How much does it cost to observe each hidden value?"",""How many hidden values am I allowed to observe in each round?"",""How is your bonus determined?"",""What does the feedback teach you?""]","[""True"",""$1.00"",""As many or as few as I wish"",""1 cent for every $1 I earn in each round"",""Whether I chose the move that was best according to the information I had.""]",56076,,238802,,,survey-multi-choice,,85
,,,,"[True, True, True, True, True]",,,,,,,,,"[""True or false: The hidden values will change each time I start a new round."",""How much does it cost to observe each hidden value?"",""How many hidden values am I allowed to observe in each round?"",""How is your bonus determined?"",""What does the feedback teach you?""]","[""True"",""$4.00"",""As many or as few as I wish"",""1 cent for every $1 I earn in each round"",""All of the above.""]",28092,,311943,,,survey-multi-choice,,85
,,,,"[True, True, True, True, True]",,,,,,,,,"[""True or false: The hidden values will change each time I start a new round."",""How much does it cost to observe each hidden value?"",""How many hidden values am I allowed to observe in each round?"",""How is your bonus determined?"",""What does the feedback teach you?""]","[""True"",""$0.10"",""As many or as few as I wish"",""1 cent for every $1 I earn in each round"",""All of the above.""]",33530,,196282,,,survey-multi-choice,,86
,,,,"[True, False, True, True, True]",,,,,,,,,"[""True or false: The hidden values will change each time I start a new round."",""How much does it cost to observe each hidden value?"",""How many hidden values am I allowed to observe in each round?"",""How is your bonus determined?"",""What does the feedback teach you?""]","[""True"",""$1.00"",""As many or as few as I wish"",""1 cent for every $1 I earn in each round"",""All of the above.""]",46764,,315198,,,survey-multi-choice,,87
,,,,"[True, True, True, True, True]",,,,,,,,,"[""True or false: The hidden values will change each time I start a new round."",""How much does it cost to observe each hidden value?"",""How many hidden values am I allowed to observe in each round?"",""How is your bonus determined?"",""What does the feedback teach you?""]","[""True"",""$4.00"",""As many or as few as I wish"",""1 cent for every $1 I earn in each round"",""All of the above.""]",25266,,442753,,,survey-multi-choice,,87
,,,,"[True, True, True, True]",,,,,,,,,"[""True or false: The hidden values will change each time I start a new round."",""How much does it cost to observe each hidden value?"",""How many hidden values am I allowed to observe in each round?"",""How is your bonus determined?""]","[""True"",""$4.00"",""As many or as few as I wish"",""1 cent for every $1 I earn in each round""]",16279,,130444,,,survey-multi-choice,,88
,,,,"[True, False, True, True]",,,,,,,,,"[""True or false: The hidden values will change each time I start a new round."",""How much does it cost to observe each hidden value?"",""How many hidden values am I allowed to observe in each round?"",""How is your bonus determined?""]","[""True"",""$0.01"",""As many or as few as I wish"",""1 cent for every $1 I earn in each round""]",30684,,124147,,,survey-multi-choice,,89
,,,,"[True, True, True, True]",,,,,,,,,"[""True or false: The hidden values will change each time I start a new round."",""How much does it cost to observe each hidden value?"",""How many hidden values am I allowed to observe in each round?"",""How is your bonus determined?""]","[""True"",""$0.10"",""As many or as few as I wish"",""1 cent for every $1 I earn in each round""]",14689,,197557,,,survey-multi-choice,,89
,,,,"[True, True, True, True, True]",,,,,,,,,"[""True or false: The hidden values will change each time I start a new round."",""How much does it cost to observe each hidden value?"",""How many hidden values am I allowed to observe in each round?"",""How is your bonus determined?"",""What does the feedback teach you?""]","[""True"",""$1.25"",""As many or as few as I wish"",""1 cent for every $1 I earn in each round"",""All of the above.""]",36709,,160795,,,survey-multi-choice,,90
,,,,"[True, True, True, True]",,,,,,,,,"[""True or false: The hidden values will change each time I start a new round."",""How much does it cost to observe each hidden value?"",""How many hidden values am I allowed to observe in each round?"",""How is your bonus determined?""]","[""True"",""$0.10"",""As many or as few as I wish"",""1 cent for every $1 I earn in each round""]",19131,,146034,,,survey-multi-choice,,91
,,,,"[True, False, True, True]",,,,,,,,,"[""True or false: The hidden values will change each time I start a new round."",""How much does it cost to observe each hidden value?"",""How many hidden values am I allowed to observe in each round?"",""How is your bonus determined?""]","[""True"",""$2.50"",""As many or as few as I wish"",""1 cent for every $1 I earn in each round""]",20714,,32398,,,survey-multi-choice,,92
,,,,"[True, True, True, True]",,,,,,,,,"[""True or false: The hidden values will change each time I start a new round."",""How much does it cost to observe each hidden value?"",""How many hidden values am I allowed to observe in each round?"",""How is your bonus determined?""]","[""True"",""$4.00"",""As many or as few as I wish"",""1 cent for every $1 I earn in each round""]",8463,,87113,,,survey-multi-choice,,92
,,,,"[False, True, True, True]",,,,,,,,,"[""True or false: The hidden values will change each time I start a new round."",""How much does it cost to observe each hidden value?"",""How many hidden values am I allowed to observe in each round?"",""How is your bonus determined?""]","[""False"",""$1.25"",""As many or as few as I wish"",""1 cent for every $1 I earn in each round""]",17862,,161865,,,survey-multi-choice,,93
,,,,"[True, True, True, True]",,,,,,,,,"[""True or false: The hidden values will change each time I start a new round."",""How much does it cost to observe each hidden value?"",""How many hidden values am I allowed to observe in each round?"",""How is your bonus determined?""]","[""True"",""$1.25"",""As many or as few as I wish"",""1 cent for every $1 I earn in each round""]",11440,,229666,,,survey-multi-choice,,93
,,,,"[True, True, True, True, False]",,,,,,,,,"[""True or false: The hidden values will change each time I start a new round."",""How much does it cost to observe each hidden value?"",""How many hidden values am I allowed to observe in each round?"",""How is your bonus determined?"",""What does the feedback teach you?""]","[""True"",""$1.25"",""As many or as few as I wish"",""1 cent for every $1 I earn in each round"",""Whether I chose the move that was best according to the information I had.""]",90699,,249799,,,survey-multi-choice,,94
,,,,"[True, True, True, True, True]",,,,,,,,,"[""True or false: The hidden values will change each time I start a new round."",""How much does it cost to observe each hidden value?"",""How many hidden values am I allowed to observe in each round?"",""How is your bonus determined?"",""What does the feedback teach you?""]","[""True"",""$1.25"",""As many or as few as I wish"",""1 cent for every $1 I earn in each round"",""All of the above.""]",35828,,295352,,,survey-multi-choice,,94
,,,,"[True, True, True, True, True]",,,,,,,,,"[""True or false: The hidden values will change each time I start a new round."",""How much does it cost to observe each hidden value?"",""How many hidden values am I allowed to observe in each round?"",""How is your bonus determined?"",""What does the feedback teach you?""]","[""True"",""$0.10"",""As many or as few as I wish"",""1 cent for every $1 I earn in each round"",""All of the above.""]",20473,,118818,,,survey-multi-choice,,95
,,,,"[True, False, True, True, True]",,,,,,,,,"[""True or false: The hidden values will change each time I start a new round."",""How much does it cost to observe each hidden value?"",""How many hidden values am I allowed to observe in each round?"",""How is your bonus determined?"",""What does the feedback teach you?""]","[""True"",""$1.00"",""As many or as few as I wish"",""1 cent for every $1 I earn in each round"",""All of the above.""]",55960,,1281836,,,survey-multi-choice,,96
,,,,"[True, True, True, True, False]",,,,,,,,,"[""True or false: The hidden values will change each time I start a new round."",""How much does it cost to observe each hidden value?"",""How many hidden values am I allowed to observe in each round?"",""How is your bonus determined?"",""What does the feedback teach you?""]","[""True"",""$4.00"",""As many or as few as I wish"",""1 cent for every $1 I earn in each round"",""The length of the delay is based on how much more money I could have earned by planning and deciding better.""]",74767,,1651465,,,survey-multi-choice,,96
,,,,"[True, True, True, True, False]",,,,,,,,,"[""True or false: The hidden values will change each time I start a new round."",""How much does it cost to observe each hidden value?"",""How many hidden values am I allowed to observe in each round?"",""How is your bonus determined?"",""What does the feedback teach you?""]","[""True"",""$4.00"",""As many or as few as I wish"",""1 cent for every $1 I earn in each round"",""The length of the delay is based on how much more money I could have earned by planning and deciding better.""]",21492,,1907692,,,survey-multi-choice,,96
,,,,"[True, True, True, True, True]",,,,,,,,,"[""True or false: The hidden values will change each time I start a new round."",""How much does it cost to observe each hidden value?"",""How many hidden values am I allowed to observe in each round?"",""How is your bonus determined?"",""What does the feedback teach you?""]","[""True"",""$4.00"",""As many or as few as I wish"",""1 cent for every $1 I earn in each round"",""All of the above.""]",150869,,2110502,,,survey-multi-choice,,96
,,,,"[True, True, True, True, False]",,,,,,,,,"[""True or false: The hidden values will change each time I start a new round."",""How much does it cost to observe each hidden value?"",""How many hidden values am I allowed to observe in each round?"",""How is your bonus determined?"",""What does the feedback teach you?""]","[""True"",""$0.10"",""As many or as few as I wish"",""1 cent for every $1 I earn in each round"",""Whether I chose the move that was best.""]",22394,,170861,,,survey-multi-choice,,97
,,,,"[True, True, True, True, True]",,,,,,,,,"[""True or false: The hidden values will change each time I start a new round."",""How much does it cost to observe each hidden value?"",""How many hidden values am I allowed to observe in each round?"",""How is your bonus determined?"",""What does the feedback teach you?""]","[""True"",""$0.10"",""As many or as few as I wish"",""1 cent for every $1 I earn in each round"",""All of the above.""]",25520,,246005,,,survey-multi-choice,,97
,,,,"[True, True, True, True, True]",,,,,,,,,"[""True or false: The hidden values will change each time I start a new round."",""How much does it cost to observe each hidden value?"",""How many hidden values am I allowed to observe in each round?"",""How is your bonus determined?"",""What does the feedback teach you?""]","[""True"",""$1.25"",""As many or as few as I wish"",""1 cent for every $1 I earn in each round"",""All of the above.""]",52165,,269306,,,survey-multi-choice,,98
,,,,"[True, True, True, True, True]",,,,,,,,,"[""True or false: The hidden values will change each time I start a new round."",""How much does it cost to observe each hidden value?"",""How many hidden values am I allowed to observe in each round?"",""How is your bonus determined?"",""What does the feedback teach you?""]","[""True"",""$1.25"",""As many or as few as I wish"",""1 cent for every $1 I earn in each round"",""All of the above.""]",25069,,199437,,,survey-multi-choice,,99
,,,,"[True, True, True, True, True]",,,,,,,,,"[""True or false: The hidden values will change each time I start a new round."",""How much does it cost to observe each hidden value?"",""How many hidden values am I allowed to observe in each round?"",""How is your bonus determined?"",""What does the feedback teach you?""]","[""True"",""$4.00"",""As many or as few as I wish"",""1 cent for every $1 I earn in each round"",""All of the above.""]",25245,,144124,,,survey-multi-choice,,100
,,,,"[True, True, True, True, True]",,,,,,,,,"[""True or false: The hidden values will change each time I start a new round."",""How much does it cost to observe each hidden value?"",""How many hidden values am I allowed to observe in each round?"",""How is your bonus determined?"",""What does the feedback teach you?""]","[""True"",""$1.25"",""As many or as few as I wish"",""1 cent for every $1 I earn in each round"",""All of the above.""]",56222,,363105,,,survey-multi-choice,,101
,,,,"[True, True, True, True, True]",,,,,,,,,"[""True or false: The hidden values will change each time I start a new round."",""How much does it cost to observe each hidden value?"",""How many hidden values am I allowed to observe in each round?"",""How is your bonus determined?"",""What does the feedback teach you?""]","[""True"",""$1.25"",""As many or as few as I wish"",""1 cent for every $1 I earn in each round"",""All of the above.""]",20156,,128913,,,survey-multi-choice,,102
,,,,"[True, True, True, True, True]",,,,,,,,,"[""True or false: The hidden values will change each time I start a new round."",""How much does it cost to observe each hidden value?"",""How many hidden values am I allowed to observe in each round?"",""How is your bonus determined?"",""What does the feedback teach you?""]","[""True"",""$4.00"",""As many or as few as I wish"",""1 cent for every $1 I earn in each round"",""All of the above.""]",31021,,189905,,,survey-multi-choice,,103
,,,,"[True, True, True, True, False]",,,,,,,,,"[""True or false: The hidden values will change each time I start a new round."",""How much does it cost to observe each hidden value?"",""How many hidden values am I allowed to observe in each round?"",""How is your bonus determined?"",""What does the feedback teach you?""]","[""True"",""$1.25"",""As many or as few as I wish"",""1 cent for every $1 I earn in each round"",""Whether I chose the move that was best according to the information I had.""]",19785,,132286,,,survey-multi-choice,,104
,,,,"[True, True, True, True, True]",,,,,,,,,"[""True or false: The hidden values will change each time I start a new round."",""How much does it cost to observe each hidden value?"",""How many hidden values am I allowed to observe in each round?"",""How is your bonus determined?"",""What does the feedback teach you?""]","[""True"",""$1.25"",""As many or as few as I wish"",""1 cent for every $1 I earn in each round"",""All of the above.""]",14109,,187651,,,survey-multi-choice,,104
,,,,"[True, False, True, True, True]",,,,,,,,,"[""True or false: The hidden values will change each time I start a new round."",""How much does it cost to observe each hidden value?"",""How many hidden values am I allowed to observe in each round?"",""How is your bonus determined?"",""What does the feedback teach you?""]","[""True"",""$1.00"",""As many or as few as I wish"",""1 cent for every $1 I earn in each round"",""All of the above.""]",45248,,453603,,,survey-multi-choice,,105
,,,,"[True, True, True, True, True]",,,,,,,,,"[""True or false: The hidden values will change each time I start a new round."",""How much does it cost to observe each hidden value?"",""How many hidden values am I allowed to observe in each round?"",""How is your bonus determined?"",""What does the feedback teach you?""]","[""True"",""$1.25"",""As many or as few as I wish"",""1 cent for every $1 I earn in each round"",""All of the above.""]",17122,,508124,,,survey-multi-choice,,105
,,,,"[True, True, True, True]",,,,,,,,,"[""True or false: The hidden values will change each time I start a new round."",""How much does it cost to observe each hidden value?"",""How many hidden values am I allowed to observe in each round?"",""How is your bonus determined?""]","[""True"",""$1.25"",""As many or as few as I wish"",""1 cent for every $1 I earn in each round""]",20140,,130866,,,survey-multi-choice,,106
,,,,"[True, False, False, True, True]",,,,,,,,,"[""True or false: The hidden values will change each time I start a new round."",""How much does it cost to observe each hidden value?"",""How many hidden values am I allowed to observe in each round?"",""How is your bonus determined?"",""What does the feedback teach you?""]","[""True"",""$0.05"",""At most 5"",""1 cent for every $1 I earn in each round"",""All of the above.""]",28726,,119635,,,survey-multi-choice,,107
,,,,"[True, True, True, False, False]",,,,,,,,,"[""True or false: The hidden values will change each time I start a new round."",""How much does it cost to observe each hidden value?"",""How many hidden values am I allowed to observe in each round?"",""How is your bonus determined?"",""What does the feedback teach you?""]","[""True"",""$4.00"",""As many or as few as I wish"",""1% of my best score on any round"",""Whether I observed the rewards of relevant locations.""]",340833,,546259,,,survey-multi-choice,,107
,,,,"[True, True, True, True, False]",,,,,,,,,"[""True or false: The hidden values will change each time I start a new round."",""How much does it cost to observe each hidden value?"",""How many hidden values am I allowed to observe in each round?"",""How is your bonus determined?"",""What does the feedback teach you?""]","[""True"",""$4.00"",""As many or as few as I wish"",""1 cent for every $1 I earn in each round"",""Whether I observed the rewards of relevant locations.""]",22146,,623554,,,survey-multi-choice,,107
,,,,"[True, True, True, True, True]",,,,,,,,,"[""True or false: The hidden values will change each time I start a new round."",""How much does it cost to observe each hidden value?"",""How many hidden values am I allowed to observe in each round?"",""How is your bonus determined?"",""What does the feedback teach you?""]","[""True"",""$4.00"",""As many or as few as I wish"",""1 cent for every $1 I earn in each round"",""All of the above.""]",12426,,646344,,,survey-multi-choice,,107
,,,,"[True, True, True, True, True]",,,,,,,,,"[""True or false: The hidden values will change each time I start a new round."",""How much does it cost to observe each hidden value?"",""How many hidden values am I allowed to observe in each round?"",""How is your bonus determined?"",""What does the feedback teach you?""]","[""True"",""$4.00"",""As many or as few as I wish"",""1 cent for every $1 I earn in each round"",""All of the above.""]",41732,,116773,,,survey-multi-choice,,108
,,,,"[True, True, True, True, True]",,,,,,,,,"[""True or false: The hidden values will change each time I start a new round."",""How much does it cost to observe each hidden value?"",""How many hidden values am I allowed to observe in each round?"",""How is your bonus determined?"",""What does the feedback teach you?""]","[""True"",""$1.25"",""As many or as few as I wish"",""1 cent for every $1 I earn in each round"",""All of the above.""]",24262,,227115,,,survey-multi-choice,,109
,,,,"[True, True, True, True]",,,,,,,,,"[""True or false: The hidden values will change each time I start a new round."",""How much does it cost to observe each hidden value?"",""How many hidden values am I allowed to observe in each round?"",""How is your bonus determined?""]","[""True"",""$4.00"",""As many or as few as I wish"",""1 cent for every $1 I earn in each round""]",13393,,86154,,,survey-multi-choice,,110
,,,,"[True, False, False, True, True]",,,,,,,,,"[""True or false: The hidden values will change each time I start a new round."",""How much does it cost to observe each hidden value?"",""How many hidden values am I allowed to observe in each round?"",""How is your bonus determined?"",""What does the feedback teach you?""]","[""True"",""$0.01"",""At most 1"",""1 cent for every $1 I earn in each round"",""All of the above.""]",23250,,46768,,,survey-multi-choice,,111
,,,,"[True, True, False, True, False]",,,,,,,,,"[""True or false: The hidden values will change each time I start a new round."",""How much does it cost to observe each hidden value?"",""How many hidden values am I allowed to observe in each round?"",""How is your bonus determined?"",""What does the feedback teach you?""]","[""True"",""$4.00"",""At most 10"",""1 cent for every $1 I earn in each round"",""The length of the delay is based on how much more money I could have earned by planning and deciding better.""]",32996,,107099,,,survey-multi-choice,,111
,,,,"[True, True, False, True, False]",,,,,,,,,"[""True or false: The hidden values will change each time I start a new round."",""How much does it cost to observe each hidden value?"",""How many hidden values am I allowed to observe in each round?"",""How is your bonus determined?"",""What does the feedback teach you?""]","[""True"",""$4.00"",""At most 10"",""1 cent for every $1 I earn in each round"",""Whether I chose the move that was best according to the information I had.""]",17723,,145765,,,survey-multi-choice,,111
,,,,"[True, True, False, True, False]",,,,,,,,,"[""True or false: The hidden values will change each time I start a new round."",""How much does it cost to observe each hidden value?"",""How many hidden values am I allowed to observe in each round?"",""How is your bonus determined?"",""What does the feedback teach you?""]","[""True"",""$4.00"",""At most 10"",""1 cent for every $1 I earn in each round"",""Whether I observed the rewards of relevant locations.""]",13872,,174350,,,survey-multi-choice,,111
,,,,"[False, True, False, True, True]",,,,,,,,,"[""True or false: The hidden values will change each time I start a new round."",""How much does it cost to observe each hidden value?"",""How many hidden values am I allowed to observe in each round?"",""How is your bonus determined?"",""What does the feedback teach you?""]","[""False"",""$4.00"",""At most 10"",""1 cent for every $1 I earn in each round"",""All of the above.""]",11396,,204800,,,survey-multi-choice,,111
,,,,"[True, True, False, True, True]",,,,,,,,,"[""True or false: The hidden values will change each time I start a new round."",""How much does it cost to observe each hidden value?"",""How many hidden values am I allowed to observe in each round?"",""How is your bonus determined?"",""What does the feedback teach you?""]","[""True"",""$4.00"",""At most 15"",""1 cent for every $1 I earn in each round"",""All of the above.""]",15328,,264667,,,survey-multi-choice,,111
,,,,"[True, True, False, True, True]",,,,,,,,,"[""True or false: The hidden values will change each time I start a new round."",""How much does it cost to observe each hidden value?"",""How many hidden values am I allowed to observe in each round?"",""How is your bonus determined?"",""What does the feedback teach you?""]","[""True"",""$4.00"",""At most 10"",""1 cent for every $1 I earn in each round"",""All of the above.""]",56972,,393744,,,survey-multi-choice,,111
,,,,"[True, True, False, False, True]",,,,,,,,,"[""True or false: The hidden values will change each time I start a new round."",""How much does it cost to observe each hidden value?"",""How many hidden values am I allowed to observe in each round?"",""How is your bonus determined?"",""What does the feedback teach you?""]","[""True"",""$4.00"",""At most 10"",""10% of my best score on any round"",""All of the above.""]",26917,,512781,,,survey-multi-choice,,111
,,,,"[True, False, False, True, True]",,,,,,,,,"[""True or false: The hidden values will change each time I start a new round."",""How much does it cost to observe each hidden value?"",""How many hidden values am I allowed to observe in each round?"",""How is your bonus determined?"",""What does the feedback teach you?""]","[""True"",""$1.00"",""At most 10"",""1 cent for every $1 I earn in each round"",""All of the above.""]",60697,,621577,,,survey-multi-choice,,111
,,,,"[True, True, False, False, False]",,,,,,,,,"[""True or false: The hidden values will change each time I start a new round."",""How much does it cost to observe each hidden value?"",""How many hidden values am I allowed to observe in each round?"",""How is your bonus determined?"",""What does the feedback teach you?""]","[""True"",""$4.00"",""At most 10"",""1% of my best score on any round"",""The length of the delay is based on how much more money I could have earned by planning and deciding better.""]",34019,,671159,,,survey-multi-choice,,111
,,,,"[True, True, False, False, False]",,,,,,,,,"[""True or false: The hidden values will change each time I start a new round."",""How much does it cost to observe each hidden value?"",""How many hidden values am I allowed to observe in each round?"",""How is your bonus determined?"",""What does the feedback teach you?""]","[""True"",""$4.00"",""At most 10"",""10% of my score on a random round"",""The length of the delay is based on how much more money I could have earned by planning and deciding better.""]",18163,,698265,,,survey-multi-choice,,111
,,,,"[True, True, False, True, False]",,,,,,,,,"[""True or false: The hidden values will change each time I start a new round."",""How much does it cost to observe each hidden value?"",""How many hidden values am I allowed to observe in each round?"",""How is your bonus determined?"",""What does the feedback teach you?""]","[""True"",""$4.00"",""At most 10"",""1 cent for every $1 I earn in each round"",""The length of the delay is based on how much more money I could have earned by planning and deciding better.""]",31623,,740799,,,survey-multi-choice,,111
,,,,"[True, False, False, True, True]",,,,,,,,,"[""True or false: The hidden values will change each time I start a new round."",""How much does it cost to observe each hidden value?"",""How many hidden values am I allowed to observe in each round?"",""How is your bonus determined?"",""What does the feedback teach you?""]","[""True"",""$0.01"",""At most 10"",""1 cent for every $1 I earn in each round"",""All of the above.""]",16058,,783721,,,survey-multi-choice,,111
,,,,"[True, True, True, True, True]",,,,,,,,,"[""True or false: The hidden values will change each time I start a new round."",""How much does it cost to observe each hidden value?"",""How many hidden values am I allowed to observe in each round?"",""How is your bonus determined?"",""What does the feedback teach you?""]","[""True"",""$4.00"",""As many or as few as I wish"",""1 cent for every $1 I earn in each round"",""All of the above.""]",38780,,832842,,,survey-multi-choice,,111
,,,,"[True, True, False, False, True]",,,,,,,,,"[""True or false: The hidden values will change each time I start a new round."",""How much does it cost to observe each hidden value?"",""How many hidden values am I allowed to observe in each round?"",""How is your bonus determined?"",""What does the feedback teach you?""]","[""True"",""$4.00"",""At most 15"",""10% of my best score on any round"",""All of the above.""]",36719,,63976,,,survey-multi-choice,,112
,,,,"[True, True, True, True, False]",,,,,,,,,"[""True or false: The hidden values will change each time I start a new round."",""How much does it cost to observe each hidden value?"",""How many hidden values am I allowed to observe in each round?"",""How is your bonus determined?"",""What does the feedback teach you?""]","[""True"",""$4.00"",""As many or as few as I wish"",""1 cent for every $1 I earn in each round"",""Whether I chose the move that was best.""]",154130,,259610,,,survey-multi-choice,,112
,,,,"[True, True, True, True, True]",,,,,,,,,"[""True or false: The hidden values will change each time I start a new round."",""How much does it cost to observe each hidden value?"",""How many hidden values am I allowed to observe in each round?"",""How is your bonus determined?"",""What does the feedback teach you?""]","[""True"",""$4.00"",""As many or as few as I wish"",""1 cent for every $1 I earn in each round"",""All of the above.""]",9755,,274955,,,survey-multi-choice,,112
,,,,"[True, True, True, True, True]",,,,,,,,,"[""True or false: The hidden values will change each time I start a new round."",""How much does it cost to observe each hidden value?"",""How many hidden values am I allowed to observe in each round?"",""How is your bonus determined?"",""What does the feedback teach you?""]","[""True"",""$0.10"",""As many or as few as I wish"",""1 cent for every $1 I earn in each round"",""All of the above.""]",19790,,140381,,,survey-multi-choice,,113
,,,,"[True, True, True, True]",,,,,,,,,"[""True or false: The hidden values will change each time I start a new round."",""How much does it cost to observe each hidden value?"",""How many hidden values am I allowed to observe in each round?"",""How is your bonus determined?""]","[""True"",""$4.00"",""As many or as few as I wish"",""1 cent for every $1 I earn in each round""]",48355,,339980,,,survey-multi-choice,,114
,,,,"[True, True, True, True, True]",,,,,,,,,"[""True or false: The hidden values will change each time I start a new round."",""How much does it cost to observe each hidden value?"",""How many hidden values am I allowed to observe in each round?"",""How is your bonus determined?"",""What does the feedback teach you?""]","[""True"",""$0.10"",""As many or as few as I wish"",""1 cent for every $1 I earn in each round"",""All of the above.""]",22482,,194742,,,survey-multi-choice,,115
