p_rdata,action_times,actions,beliefs,correct,delays,information_used_correctly,key_press,meta_actions,path,planned_too_little,planned_too_much,queries,questions,responses,rt,score,time_elapsed,trial_index,trial_id,trial_type,view_history,pid
,,,,,,,,,,,,,,,67840,,67841,,,instructions,"[{""page_index"":0,""viewing_time"":23914},{""page_index"":1,""viewing_time"":21811},{""page_index"":2,""viewing_time"":14701},{""page_index"":3,""viewing_time"":7414}]",0
,,,,,,,,,,,,,,,27434,,126003,,,instructions,"[{""page_index"":0,""viewing_time"":4087},{""page_index"":1,""viewing_time"":4497},{""page_index"":2,""viewing_time"":6896},{""page_index"":3,""viewing_time"":11954}]",0
,,,,,,,,,,,,,,,41405,,190687,,,instructions,"[{""page_index"":0,""viewing_time"":14489},{""page_index"":1,""viewing_time"":18859},{""page_index"":2,""viewing_time"":4497},{""page_index"":3,""viewing_time"":3560}]",0
,,,,,,,,,,,,,,,135892,,135893,,,instructions,"[{""page_index"":0,""viewing_time"":45160},{""page_index"":1,""viewing_time"":22549},{""page_index"":2,""viewing_time"":44184},{""page_index"":3,""viewing_time"":23998}]",1
,,,,,,,,,,,,,,,65496,,65497,,,instructions,"[{""page_index"":0,""viewing_time"":37703},{""page_index"":1,""viewing_time"":11992},{""page_index"":2,""viewing_time"":15800}]",2
,,,,,,,,,,,,,,,188465,,188465,,,instructions,"[{""page_index"":0,""viewing_time"":63392},{""page_index"":1,""viewing_time"":88541},{""page_index"":2,""viewing_time"":36531}]",3
,,,,,,,,,,,,,,,125278,,125280,,,instructions,"[{""page_index"":0,""viewing_time"":47862},{""page_index"":1,""viewing_time"":57176},{""page_index"":2,""viewing_time"":20236}]",4
,,,,,,,,,,,,,,,61271,,61273,,,instructions,"[{""page_index"":0,""viewing_time"":18014},{""page_index"":1,""viewing_time"":12587},{""page_index"":2,""viewing_time"":19482},{""page_index"":3,""viewing_time"":11188}]",5
,,,,,,,,,,,,,,,42777,,159619,,,instructions,"[{""page_index"":0,""viewing_time"":16549},{""page_index"":1,""viewing_time"":8115},{""page_index"":2,""viewing_time"":12546},{""page_index"":3,""viewing_time"":5566}]",5
,,,,,,,,,,,,,,,51906,,233487,,,instructions,"[{""page_index"":0,""viewing_time"":2751},{""page_index"":1,""viewing_time"":4050},{""page_index"":0,""viewing_time"":6593},{""page_index"":1,""viewing_time"":19084},{""page_index"":2,""viewing_time"":13528},{""page_index"":3,""viewing_time"":5900}]",5
,,,,,,,,,,,,,,,3747,,254362,,,instructions,"[{""page_index"":0,""viewing_time"":1881},{""page_index"":1,""viewing_time"":760},{""page_index"":2,""viewing_time"":689},{""page_index"":3,""viewing_time"":415}]",5
,,,,,,,,,,,,,,,287781,,287789,,,instructions,"[{""page_index"":0,""viewing_time"":141508},{""page_index"":1,""viewing_time"":77406},{""page_index"":2,""viewing_time"":49135},{""page_index"":3,""viewing_time"":19732}]",6
,,,,,,,,,,,,,,,176644,,176646,,,instructions,"[{""page_index"":0,""viewing_time"":49795},{""page_index"":1,""viewing_time"":46727},{""page_index"":2,""viewing_time"":48895},{""page_index"":3,""viewing_time"":31225}]",7
,,,,,,,,,,,,,,,17765,,17766,,,instructions,"[{""page_index"":0,""viewing_time"":4753},{""page_index"":1,""viewing_time"":6577},{""page_index"":2,""viewing_time"":6434}]",8
,,,,,,,,,,,,,,,28004,,76958,,,instructions,"[{""page_index"":0,""viewing_time"":11685},{""page_index"":1,""viewing_time"":10574},{""page_index"":2,""viewing_time"":5744}]",8
,,,,,,,,,,,,,,,162731,,162733,,,instructions,"[{""page_index"":0,""viewing_time"":43413},{""page_index"":1,""viewing_time"":54269},{""page_index"":2,""viewing_time"":35228},{""page_index"":3,""viewing_time"":29820}]",9
,,,,,,,,,,,,,,,143342,,450948,,,instructions,"[{""page_index"":0,""viewing_time"":60132},{""page_index"":1,""viewing_time"":26717},{""page_index"":2,""viewing_time"":51312},{""page_index"":3,""viewing_time"":5180}]",9
,,,,,,,,,,,,,,,180389,,180390,,,instructions,"[{""page_index"":0,""viewing_time"":62395},{""page_index"":1,""viewing_time"":48346},{""page_index"":2,""viewing_time"":45602},{""page_index"":3,""viewing_time"":24045}]",10
,,,,,,,,,,,,,,,146200,,146203,,,instructions,"[{""page_index"":0,""viewing_time"":39739},{""page_index"":1,""viewing_time"":37483},{""page_index"":2,""viewing_time"":46455},{""page_index"":3,""viewing_time"":22523}]",11
,,,,,,,,,,,,,,,139604,,139604,,,instructions,"[{""page_index"":0,""viewing_time"":55140},{""page_index"":1,""viewing_time"":39349},{""page_index"":2,""viewing_time"":45113}]",12
,,,,,,,,,,,,,,,184894,,184895,,,instructions,"[{""page_index"":0,""viewing_time"":32011},{""page_index"":1,""viewing_time"":30825},{""page_index"":2,""viewing_time"":77533},{""page_index"":3,""viewing_time"":44524}]",13
,,,,,,,,,,,,,,,62147,,292272,,,instructions,"[{""page_index"":0,""viewing_time"":29780},{""page_index"":1,""viewing_time"":12224},{""page_index"":2,""viewing_time"":12030},{""page_index"":3,""viewing_time"":8112}]",13
,,,,,,,,,,,,,,,63807,,527641,,,instructions,"[{""page_index"":0,""viewing_time"":24516},{""page_index"":1,""viewing_time"":13274},{""page_index"":2,""viewing_time"":15754},{""page_index"":3,""viewing_time"":10262}]",13
,,,,,,,,,,,,,,,30145,,581678,,,instructions,"[{""page_index"":0,""viewing_time"":28059},{""page_index"":1,""viewing_time"":816},{""page_index"":2,""viewing_time"":768},{""page_index"":3,""viewing_time"":502}]",13
,,,,,,,,,,,,,,,32500,,642074,,,instructions,"[{""page_index"":0,""viewing_time"":15289},{""page_index"":1,""viewing_time"":14418},{""page_index"":2,""viewing_time"":1861},{""page_index"":3,""viewing_time"":931}]",13
,,,,,,,,,,,,,,,5248,,709727,,,instructions,"[{""page_index"":0,""viewing_time"":2346},{""page_index"":1,""viewing_time"":534},{""page_index"":0,""viewing_time"":642},{""page_index"":1,""viewing_time"":636},{""page_index"":2,""viewing_time"":604},{""page_index"":3,""viewing_time"":486}]",13
,,,,,,,,,,,,,,,4150,,728165,,,instructions,"[{""page_index"":0,""viewing_time"":2402},{""page_index"":1,""viewing_time"":642},{""page_index"":2,""viewing_time"":534},{""page_index"":3,""viewing_time"":572}]",13
,,,,,,,,,,,,,,,6172,,750225,,,instructions,"[{""page_index"":0,""viewing_time"":3749},{""page_index"":1,""viewing_time"":1176},{""page_index"":2,""viewing_time"":652},{""page_index"":3,""viewing_time"":594}]",13
,,,,,,,,,,,,,,,4056,,773831,,,instructions,"[{""page_index"":0,""viewing_time"":1999},{""page_index"":1,""viewing_time"":880},{""page_index"":2,""viewing_time"":502},{""page_index"":3,""viewing_time"":674}]",13
,,,,,,,,,,,,,,,426524,,426524,,,instructions,"[{""page_index"":0,""viewing_time"":226805},{""page_index"":1,""viewing_time"":813},{""page_index"":2,""viewing_time"":1136},{""page_index"":1,""viewing_time"":1713},{""page_index"":0,""viewing_time"":3845},{""page_index"":1,""viewing_time"":55969},{""page_index"":2,""viewing_time"":85565},{""page_index"":3,""viewing_time"":50678}]",14
,,,,,,,,,,,,,,,71930,,71931,,,instructions,"[{""page_index"":0,""viewing_time"":26835},{""page_index"":1,""viewing_time"":24247},{""page_index"":2,""viewing_time"":20848}]",15
,,,,,,,,,,,,,,,14430,,115458,,,instructions,"[{""page_index"":0,""viewing_time"":11573},{""page_index"":1,""viewing_time"":1744},{""page_index"":2,""viewing_time"":1112}]",15
,,,,,,,,,,,,,,,177950,,177951,,,instructions,"[{""page_index"":0,""viewing_time"":63323},{""page_index"":1,""viewing_time"":36413},{""page_index"":2,""viewing_time"":28479},{""page_index"":3,""viewing_time"":49734}]",16
,,,,,,,,,,,,,,,66446,,298355,,,instructions,"[{""page_index"":0,""viewing_time"":44886},{""page_index"":1,""viewing_time"":16672},{""page_index"":2,""viewing_time"":2863},{""page_index"":3,""viewing_time"":2024}]",16
,,,,,,,,,,,,,,,19365,,345345,,,instructions,"[{""page_index"":0,""viewing_time"":7957},{""page_index"":1,""viewing_time"":4864},{""page_index"":2,""viewing_time"":5871},{""page_index"":3,""viewing_time"":672}]",16
,,,,,,,,,,,,,,,52353,,52354,,,instructions,"[{""page_index"":0,""viewing_time"":19538},{""page_index"":1,""viewing_time"":21693},{""page_index"":2,""viewing_time"":11120}]",17
,,,,,,,,,,,,,,,91032,,91035,,,instructions,"[{""page_index"":0,""viewing_time"":48147},{""page_index"":1,""viewing_time"":18995},{""page_index"":2,""viewing_time"":14588},{""page_index"":3,""viewing_time"":9300}]",18
,,,,,,,,,,,,,,,74920,,196394,,,instructions,"[{""page_index"":0,""viewing_time"":7139},{""page_index"":1,""viewing_time"":21226},{""page_index"":2,""viewing_time"":20148},{""page_index"":3,""viewing_time"":26406}]",18
,,,,,,,,,,,,,,,48046,,284645,,,instructions,"[{""page_index"":0,""viewing_time"":10323},{""page_index"":1,""viewing_time"":13332},{""page_index"":2,""viewing_time"":14590},{""page_index"":3,""viewing_time"":9800}]",18
,,,,,,,,,,,,,,,102494,,418095,,,instructions,"[{""page_index"":0,""viewing_time"":18925},{""page_index"":1,""viewing_time"":33413},{""page_index"":2,""viewing_time"":37205},{""page_index"":3,""viewing_time"":12950}]",18
,,,,,,,,,,,,,,,26196,,474328,,,instructions,"[{""page_index"":0,""viewing_time"":21575},{""page_index"":1,""viewing_time"":2420},{""page_index"":2,""viewing_time"":1032},{""page_index"":3,""viewing_time"":1168}]",18
,,,,,,,,,,,,,,,66803,,568415,,,instructions,"[{""page_index"":0,""viewing_time"":13397},{""page_index"":1,""viewing_time"":19760},{""page_index"":2,""viewing_time"":18328},{""page_index"":3,""viewing_time"":15317}]",18
,,,,,,,,,,,,,,,220260,,220260,,,instructions,"[{""page_index"":0,""viewing_time"":71651},{""page_index"":1,""viewing_time"":62016},{""page_index"":2,""viewing_time"":49591},{""page_index"":3,""viewing_time"":37001}]",19
,,,,,,,,,,,,,,,152745,,443619,,,instructions,"[{""page_index"":0,""viewing_time"":36263},{""page_index"":1,""viewing_time"":24713},{""page_index"":2,""viewing_time"":81939},{""page_index"":3,""viewing_time"":9830}]",19
,,,,,,,,,,,,,,,155582,,155585,,,instructions,"[{""page_index"":0,""viewing_time"":41504},{""page_index"":1,""viewing_time"":58613},{""page_index"":2,""viewing_time"":30557},{""page_index"":3,""viewing_time"":24906}]",20
,,,,,,,,,,,,,,,27156,,296676,,,instructions,"[{""page_index"":0,""viewing_time"":19101},{""page_index"":1,""viewing_time"":5156},{""page_index"":2,""viewing_time"":1962},{""page_index"":3,""viewing_time"":936}]",20
,,,,,,,,,,,,,,,67384,,386555,,,instructions,"[{""page_index"":0,""viewing_time"":35063},{""page_index"":1,""viewing_time"":14508},{""page_index"":2,""viewing_time"":16937},{""page_index"":3,""viewing_time"":875}]",20
,,,,,,,,,,,,,,,24857,,445627,,,instructions,"[{""page_index"":0,""viewing_time"":15956},{""page_index"":1,""viewing_time"":5129},{""page_index"":2,""viewing_time"":1793},{""page_index"":3,""viewing_time"":1978}]",20
,,,,,,,,,,,,,,,85043,,560985,,,instructions,"[{""page_index"":0,""viewing_time"":38192},{""page_index"":1,""viewing_time"":18592},{""page_index"":2,""viewing_time"":24290},{""page_index"":3,""viewing_time"":3968}]",20
,,,,,,,,,,,,,,,204393,,204394,,,instructions,"[{""page_index"":0,""viewing_time"":105055},{""page_index"":1,""viewing_time"":39907},{""page_index"":2,""viewing_time"":27357},{""page_index"":3,""viewing_time"":32073}]",21
,,,,,,,,,,,,,,,70506,,370760,,,instructions,"[{""page_index"":0,""viewing_time"":19623},{""page_index"":1,""viewing_time"":16238},{""page_index"":2,""viewing_time"":28627},{""page_index"":3,""viewing_time"":6018}]",21
,,,,,,,,,,,,,,,133536,,133538,,,instructions,"[{""page_index"":0,""viewing_time"":73958},{""page_index"":1,""viewing_time"":36510},{""page_index"":2,""viewing_time"":23067}]",22
,,,,,,,,,,,,,,,226885,,226886,,,instructions,"[{""page_index"":0,""viewing_time"":92174},{""page_index"":1,""viewing_time"":51431},{""page_index"":2,""viewing_time"":56304},{""page_index"":3,""viewing_time"":26976}]",23
,,,,,,,,,,,,,,,215234,,215236,,,instructions,"[{""page_index"":0,""viewing_time"":124862},{""page_index"":1,""viewing_time"":68339},{""page_index"":2,""viewing_time"":22032}]",24
,,,,,,,,,,,,,,,149251,,149254,,,instructions,"[{""page_index"":0,""viewing_time"":39875},{""page_index"":1,""viewing_time"":30919},{""page_index"":2,""viewing_time"":43650},{""page_index"":3,""viewing_time"":34805}]",25
,,,,,,,,,,,,,,,300598,,300602,,,instructions,"[{""page_index"":0,""viewing_time"":22882},{""page_index"":1,""viewing_time"":6467},{""page_index"":2,""viewing_time"":271243}]",26
,,,,,,,,,,,,,,,208226,,539187,,,instructions,"[{""page_index"":0,""viewing_time"":173608},{""page_index"":1,""viewing_time"":20656},{""page_index"":2,""viewing_time"":13958}]",26
,,,,,,,,,,,,,,,62420,,621061,,,instructions,"[{""page_index"":0,""viewing_time"":26412},{""page_index"":1,""viewing_time"":28689},{""page_index"":2,""viewing_time"":7314}]",26
,,,,,,,,,,,,,,,182878,,182880,,,instructions,"[{""page_index"":0,""viewing_time"":48849},{""page_index"":1,""viewing_time"":64303},{""page_index"":2,""viewing_time"":43762},{""page_index"":3,""viewing_time"":25963}]",27
,,,,,,,,,,,,,,,103009,,103011,,,instructions,"[{""page_index"":0,""viewing_time"":29602},{""page_index"":1,""viewing_time"":49389},{""page_index"":2,""viewing_time"":24015}]",28
,,,,,,,,,,,,,,,32839,,158240,,,instructions,"[{""page_index"":0,""viewing_time"":16324},{""page_index"":1,""viewing_time"":10990},{""page_index"":2,""viewing_time"":5523}]",28
,,,,,,,,,,,,,,,49502,,49502,,,instructions,"[{""page_index"":0,""viewing_time"":26140},{""page_index"":1,""viewing_time"":231},{""page_index"":2,""viewing_time"":5791},{""page_index"":3,""viewing_time"":17339}]",29
,,,,,,,,,,,,,,,32190,,113398,,,instructions,"[{""page_index"":0,""viewing_time"":12057},{""page_index"":1,""viewing_time"":14200},{""page_index"":2,""viewing_time"":3700},{""page_index"":3,""viewing_time"":2232}]",29
,,,,,,,,,,,,,,,115863,,115864,,,instructions,"[{""page_index"":0,""viewing_time"":34326},{""page_index"":1,""viewing_time"":27887},{""page_index"":2,""viewing_time"":18456},{""page_index"":3,""viewing_time"":35193}]",30
,,,,,,,,,,,,,,,231022,,231025,,,instructions,"[{""page_index"":0,""viewing_time"":105862},{""page_index"":1,""viewing_time"":77155},{""page_index"":2,""viewing_time"":47901}]",31
,,,,,,,,,,,,,,,180622,,180624,,,instructions,"[{""page_index"":0,""viewing_time"":56373},{""page_index"":1,""viewing_time"":100183},{""page_index"":2,""viewing_time"":24064}]",32
,,,,,,,,,,,,,,,306540,,306543,,,instructions,"[{""page_index"":0,""viewing_time"":167261},{""page_index"":1,""viewing_time"":74235},{""page_index"":2,""viewing_time"":39360},{""page_index"":3,""viewing_time"":25682}]",33
,,,,,,,,,,,,,,,140038,,140040,,,instructions,"[{""page_index"":0,""viewing_time"":36510},{""page_index"":1,""viewing_time"":58071},{""page_index"":2,""viewing_time"":25615},{""page_index"":3,""viewing_time"":19841}]",34
,,,,,,,,,,,,,,,10471,,193638,,,instructions,"[{""page_index"":0,""viewing_time"":2295},{""page_index"":1,""viewing_time"":1912},{""page_index"":0,""viewing_time"":1392},{""page_index"":1,""viewing_time"":2192},{""page_index"":2,""viewing_time"":2015},{""page_index"":3,""viewing_time"":664}]",34
,,,,,,,,,,,,,,,35903,,247478,,,instructions,"[{""page_index"":0,""viewing_time"":1414},{""page_index"":1,""viewing_time"":1040},{""page_index"":2,""viewing_time"":6344},{""page_index"":1,""viewing_time"":20639},{""page_index"":2,""viewing_time"":992},{""page_index"":1,""viewing_time"":2170},{""page_index"":2,""viewing_time"":455},{""page_index"":3,""viewing_time"":2848}]",34
,,,,,,,,,,,,,,,23574,,289221,,,instructions,"[{""page_index"":0,""viewing_time"":11406},{""page_index"":1,""viewing_time"":904},{""page_index"":2,""viewing_time"":10583},{""page_index"":3,""viewing_time"":680}]",34
,,,,,,,,,,,,,,,10278,,320925,,,instructions,"[{""page_index"":0,""viewing_time"":5869},{""page_index"":1,""viewing_time"":848},{""page_index"":2,""viewing_time"":1904},{""page_index"":3,""viewing_time"":1656}]",34
,,,,,,,,,,,,,,,130192,,130192,,,instructions,"[{""page_index"":0,""viewing_time"":56632},{""page_index"":1,""viewing_time"":26107},{""page_index"":2,""viewing_time"":28054},{""page_index"":3,""viewing_time"":19398}]",35
,,,,,,,,,,,,,,,93449,,93451,,,instructions,"[{""page_index"":0,""viewing_time"":64881},{""page_index"":1,""viewing_time"":19629},{""page_index"":2,""viewing_time"":4819},{""page_index"":3,""viewing_time"":4118}]",36
,,,,,,,,,,,,,,,55575,,171845,,,instructions,"[{""page_index"":0,""viewing_time"":7340},{""page_index"":1,""viewing_time"":27975},{""page_index"":2,""viewing_time"":11390},{""page_index"":3,""viewing_time"":8869}]",36
,,,,,,,,,,,,,,,90490,,90492,,,instructions,"[{""page_index"":0,""viewing_time"":71115},{""page_index"":1,""viewing_time"":1632},{""page_index"":2,""viewing_time"":928},{""page_index"":1,""viewing_time"":4798},{""page_index"":0,""viewing_time"":2384},{""page_index"":1,""viewing_time"":2354},{""page_index"":2,""viewing_time"":6422},{""page_index"":3,""viewing_time"":855}]",37
,,,,,,,,,,,,,,,133614,,297427,,,instructions,"[{""page_index"":0,""viewing_time"":84607},{""page_index"":1,""viewing_time"":4512},{""page_index"":2,""viewing_time"":41174},{""page_index"":3,""viewing_time"":3320}]",37
,,,,,,,,,,,,,,,229377,,559647,,,instructions,"[{""page_index"":0,""viewing_time"":7922},{""page_index"":1,""viewing_time"":29118},{""page_index"":2,""viewing_time"":20234},{""page_index"":1,""viewing_time"":8309},{""page_index"":2,""viewing_time"":17570},{""page_index"":1,""viewing_time"":48905},{""page_index"":2,""viewing_time"":4925},{""page_index"":1,""viewing_time"":30397},{""page_index"":2,""viewing_time"":18333},{""page_index"":3,""viewing_time"":43663}]",37
,,,,,,,,,,,,,,,140596,,734178,,,instructions,"[{""page_index"":0,""viewing_time"":19167},{""page_index"":1,""viewing_time"":21737},{""page_index"":2,""viewing_time"":29219},{""page_index"":3,""viewing_time"":19115},{""page_index"":2,""viewing_time"":384},{""page_index"":1,""viewing_time"":504},{""page_index"":0,""viewing_time"":42256},{""page_index"":1,""viewing_time"":1176},{""page_index"":2,""viewing_time"":926},{""page_index"":3,""viewing_time"":6112}]",37
,,,,,,,,,,,,,,,6758,,782323,,,instructions,"[{""page_index"":0,""viewing_time"":1909},{""page_index"":1,""viewing_time"":971},{""page_index"":2,""viewing_time"":1652},{""page_index"":3,""viewing_time"":2226}]",37
,,,,,,,,,,,,,,,338393,,338396,,,instructions,"[{""page_index"":0,""viewing_time"":36301},{""page_index"":1,""viewing_time"":25852},{""page_index"":2,""viewing_time"":25980},{""page_index"":3,""viewing_time"":24605},{""page_index"":2,""viewing_time"":3812},{""page_index"":1,""viewing_time"":3394},{""page_index"":0,""viewing_time"":183284},{""page_index"":1,""viewing_time"":19352},{""page_index"":2,""viewing_time"":7785},{""page_index"":3,""viewing_time"":8027}]",38
,,,,,,,,,,,,,,,7677,,515314,,,instructions,"[{""page_index"":0,""viewing_time"":3629},{""page_index"":1,""viewing_time"":1161},{""page_index"":2,""viewing_time"":2196},{""page_index"":3,""viewing_time"":690}]",38
,,,,,,,,,,,,,,,158721,,158721,,,instructions,"[{""page_index"":0,""viewing_time"":78947},{""page_index"":1,""viewing_time"":37001},{""page_index"":2,""viewing_time"":23929},{""page_index"":3,""viewing_time"":18843}]",39
,,,,,,,,,,,,,,,96097,,284969,,,instructions,"[{""page_index"":0,""viewing_time"":31240},{""page_index"":1,""viewing_time"":34504},{""page_index"":2,""viewing_time"":20824},{""page_index"":3,""viewing_time"":9528}]",39
,,,,,,,,,,,,,,,214333,,214335,,,instructions,"[{""page_index"":0,""viewing_time"":121286},{""page_index"":1,""viewing_time"":61546},{""page_index"":2,""viewing_time"":31499}]",40
,,,,,,,,,,,,,,,88088,,351866,,,instructions,"[{""page_index"":0,""viewing_time"":24783},{""page_index"":1,""viewing_time"":7830},{""page_index"":2,""viewing_time"":55474}]",40
,,,,,,,,,,,,,,,106024,,513260,,,instructions,"[{""page_index"":0,""viewing_time"":22493},{""page_index"":1,""viewing_time"":67045},{""page_index"":2,""viewing_time"":16486}]",40
,,,,,,,,,,,,,,,169174,,169175,,,instructions,"[{""page_index"":0,""viewing_time"":57179},{""page_index"":1,""viewing_time"":53545},{""page_index"":2,""viewing_time"":35881},{""page_index"":3,""viewing_time"":22568}]",41
,,,,,,,,,,,,,,,96028,,366935,,,instructions,"[{""page_index"":0,""viewing_time"":46938},{""page_index"":1,""viewing_time"":28457},{""page_index"":2,""viewing_time"":14144},{""page_index"":3,""viewing_time"":6489}]",41
,,,,,,,,,,,,,,,5200,,427977,,,instructions,"[{""page_index"":0,""viewing_time"":2023},{""page_index"":1,""viewing_time"":616},{""page_index"":2,""viewing_time"":1728},{""page_index"":3,""viewing_time"":832}]",41
,,,,,,,,,,,,,,,92183,,92185,,,instructions,"[{""page_index"":0,""viewing_time"":29941},{""page_index"":1,""viewing_time"":17855},{""page_index"":2,""viewing_time"":29698},{""page_index"":3,""viewing_time"":14687}]",42
,,,,,,,,,,,,,,,65950,,191331,,,instructions,"[{""page_index"":0,""viewing_time"":12458},{""page_index"":1,""viewing_time"":4856},{""page_index"":2,""viewing_time"":46011},{""page_index"":3,""viewing_time"":2624}]",42
,,,,,,,,,,,,,,,201044,,201045,,,instructions,"[{""page_index"":0,""viewing_time"":57070},{""page_index"":1,""viewing_time"":56271},{""page_index"":2,""viewing_time"":45648},{""page_index"":3,""viewing_time"":42053}]",43
,,,,,,,,,,,,,,,94074,,389740,,,instructions,"[{""page_index"":0,""viewing_time"":70988},{""page_index"":1,""viewing_time"":8968},{""page_index"":2,""viewing_time"":5599},{""page_index"":3,""viewing_time"":8519}]",43
,,,,,,,,,,,,,,,5678,,427941,,,instructions,"[{""page_index"":0,""viewing_time"":1884},{""page_index"":1,""viewing_time"":927},{""page_index"":2,""viewing_time"":1964},{""page_index"":3,""viewing_time"":902}]",43
,,,,,,,,,,,,,,,203734,,203735,,,instructions,"[{""page_index"":0,""viewing_time"":59532},{""page_index"":1,""viewing_time"":49041},{""page_index"":2,""viewing_time"":48843},{""page_index"":3,""viewing_time"":46317}]",44
,,,,,,,,,,,,,,,112223,,112223,,,instructions,"[{""page_index"":0,""viewing_time"":31939},{""page_index"":1,""viewing_time"":28411},{""page_index"":2,""viewing_time"":30420},{""page_index"":3,""viewing_time"":21452}]",45
,,,,,,,,,,,,,,,9445,,153741,,,instructions,"[{""page_index"":0,""viewing_time"":2418},{""page_index"":1,""viewing_time"":1099},{""page_index"":2,""viewing_time"":5075},{""page_index"":3,""viewing_time"":852}]",45
,,,,,,,,,,,,,,,118020,,118020,,,instructions,"[{""page_index"":0,""viewing_time"":38916},{""page_index"":1,""viewing_time"":34652},{""page_index"":2,""viewing_time"":26016},{""page_index"":3,""viewing_time"":18435}]",46
,,,,,,,,,,,,,,,255236,,255236,,,instructions,"[{""page_index"":0,""viewing_time"":83448},{""page_index"":1,""viewing_time"":65519},{""page_index"":2,""viewing_time"":61424},{""page_index"":3,""viewing_time"":44844}]",47
,,,,,,,,,,,,,,,64050,,64051,,,instructions,"[{""page_index"":0,""viewing_time"":8727},{""page_index"":1,""viewing_time"":15973},{""page_index"":2,""viewing_time"":23675},{""page_index"":3,""viewing_time"":15675}]",48
,,,,,,,,,,,,,,,160775,,272614,,,instructions,"[{""page_index"":0,""viewing_time"":30261},{""page_index"":1,""viewing_time"":37331},{""page_index"":2,""viewing_time"":70664},{""page_index"":3,""viewing_time"":22518}]",48
,,,,,,,,,,,,,,,70065,,429443,,,instructions,"[{""page_index"":0,""viewing_time"":12550},{""page_index"":1,""viewing_time"":17400},{""page_index"":2,""viewing_time"":34021},{""page_index"":3,""viewing_time"":6094}]",48
,,,,,,,,,,,,,,,30253,,495292,,,instructions,"[{""page_index"":0,""viewing_time"":5260},{""page_index"":1,""viewing_time"":11180},{""page_index"":2,""viewing_time"":6719},{""page_index"":3,""viewing_time"":7094}]",48
,,,,,,,,,,,,,,,352158,,352161,,,instructions,"[{""page_index"":0,""viewing_time"":182242},{""page_index"":1,""viewing_time"":77730},{""page_index"":2,""viewing_time"":52976},{""page_index"":3,""viewing_time"":39208}]",49
,,,,,,,,,,,,,,,24294,,422309,,,instructions,"[{""page_index"":0,""viewing_time"":3823},{""page_index"":1,""viewing_time"":2451},{""page_index"":2,""viewing_time"":15951},{""page_index"":3,""viewing_time"":2068}]",49
,,,,,,,,,,,,,,,61393,,61405,,,instructions,"[{""page_index"":0,""viewing_time"":20136},{""page_index"":1,""viewing_time"":471},{""page_index"":0,""viewing_time"":5011},{""page_index"":1,""viewing_time"":24964},{""page_index"":2,""viewing_time"":5209},{""page_index"":3,""viewing_time"":5602}]",50
,,,,,,,,,,,,,,,81285,,174753,,,instructions,"[{""page_index"":0,""viewing_time"":25043},{""page_index"":1,""viewing_time"":14074},{""page_index"":2,""viewing_time"":27721},{""page_index"":3,""viewing_time"":14447}]",50
,,,,,,,,,,,,,,,3657,,206502,,,instructions,"[{""page_index"":0,""viewing_time"":957},{""page_index"":1,""viewing_time"":1406},{""page_index"":2,""viewing_time"":697},{""page_index"":3,""viewing_time"":597}]",50
,,,,,,,,,,,,,,,11825,,244359,,,instructions,"[{""page_index"":0,""viewing_time"":9487},{""page_index"":1,""viewing_time"":943},{""page_index"":2,""viewing_time"":833},{""page_index"":3,""viewing_time"":562}]",50
,,,,,,,,,,,,,,,169185,,169187,,,instructions,"[{""page_index"":0,""viewing_time"":39728},{""page_index"":1,""viewing_time"":51837},{""page_index"":2,""viewing_time"":56417},{""page_index"":3,""viewing_time"":21201}]",51
,,,,,,,,,,,,,,,248250,,248251,,,instructions,"[{""page_index"":0,""viewing_time"":115313},{""page_index"":1,""viewing_time"":44743},{""page_index"":2,""viewing_time"":69112},{""page_index"":3,""viewing_time"":19080}]",52
,,,,,,,,,,,,,,,194467,,194468,,,instructions,"[{""page_index"":0,""viewing_time"":48807},{""page_index"":1,""viewing_time"":76130},{""page_index"":2,""viewing_time"":45621},{""page_index"":3,""viewing_time"":23908}]",53
,,,,,,,,,,,,,,,91684,,320152,,,instructions,"[{""page_index"":0,""viewing_time"":32804},{""page_index"":1,""viewing_time"":15326},{""page_index"":2,""viewing_time"":28280},{""page_index"":3,""viewing_time"":15274}]",53
,,,,,,,,,,,,,,,245195,,245196,,,instructions,"[{""page_index"":0,""viewing_time"":65549},{""page_index"":1,""viewing_time"":72066},{""page_index"":2,""viewing_time"":66408},{""page_index"":3,""viewing_time"":41171}]",54
,,,,,,,,,,,,,,,80721,,363505,,,instructions,"[{""page_index"":0,""viewing_time"":18108},{""page_index"":1,""viewing_time"":27678},{""page_index"":2,""viewing_time"":25604},{""page_index"":3,""viewing_time"":9331}]",54
,,,,,,,,,,,,,,,159568,,159570,,,instructions,"[{""page_index"":0,""viewing_time"":39466},{""page_index"":1,""viewing_time"":68349},{""page_index"":2,""viewing_time"":51752}]",55
,,,,,,,,,,,,,,,48174,,48176,,,instructions,"[{""page_index"":0,""viewing_time"":8746},{""page_index"":1,""viewing_time"":18530},{""page_index"":2,""viewing_time"":20896}]",56
,,,,,,,,,,,,,,,121377,,121380,,,instructions,"[{""page_index"":0,""viewing_time"":34055},{""page_index"":1,""viewing_time"":38343},{""page_index"":2,""viewing_time"":26807},{""page_index"":3,""viewing_time"":22170}]",57
,,,,,,,,,,,,,,,50568,,202075,,,instructions,"[{""page_index"":0,""viewing_time"":13609},{""page_index"":1,""viewing_time"":3940},{""page_index"":2,""viewing_time"":26691},{""page_index"":3,""viewing_time"":6327}]",57
,,,,,,,,,,,,,,,13354,,244630,,,instructions,"[{""page_index"":0,""viewing_time"":8039},{""page_index"":1,""viewing_time"":1635},{""page_index"":2,""viewing_time"":2540},{""page_index"":3,""viewing_time"":1140}]",57
,,,,,,,,,,,,,,,77719,,77719,,,instructions,"[{""page_index"":0,""viewing_time"":21113},{""page_index"":1,""viewing_time"":17100},{""page_index"":2,""viewing_time"":22835},{""page_index"":3,""viewing_time"":16671}]",58
,,,,,,,,,,,,,,,169174,,169174,,,instructions,"[{""page_index"":0,""viewing_time"":53916},{""page_index"":1,""viewing_time"":39722},{""page_index"":2,""viewing_time"":37587},{""page_index"":3,""viewing_time"":37947}]",59
,,,,,,,,,,,,,,,108732,,318993,,,instructions,"[{""page_index"":0,""viewing_time"":37998},{""page_index"":1,""viewing_time"":31995},{""page_index"":2,""viewing_time"":24044},{""page_index"":3,""viewing_time"":14694}]",59
,,,,,,,,,,,,,,,88144,,88146,,,instructions,"[{""page_index"":0,""viewing_time"":45143},{""page_index"":1,""viewing_time"":18769},{""page_index"":2,""viewing_time"":15296},{""page_index"":3,""viewing_time"":8935}]",60
,,,,,,,,,,,,,,,106552,,106552,,,instructions,"[{""page_index"":0,""viewing_time"":35591},{""page_index"":1,""viewing_time"":24008},{""page_index"":2,""viewing_time"":28109},{""page_index"":3,""viewing_time"":18843}]",61
,,,,,,,,,,,,,,,14997,,155584,,,instructions,"[{""page_index"":0,""viewing_time"":2424},{""page_index"":1,""viewing_time"":2857},{""page_index"":2,""viewing_time"":5307},{""page_index"":3,""viewing_time"":4408}]",61
,,,,,,,,,,,,,,,142204,,142204,,,instructions,"[{""page_index"":0,""viewing_time"":40086},{""page_index"":1,""viewing_time"":14845},{""page_index"":0,""viewing_time"":6689},{""page_index"":1,""viewing_time"":51008},{""page_index"":2,""viewing_time"":29575}]",62
,,,,,,,,,,,,,,,77161,,77163,,,instructions,"[{""page_index"":0,""viewing_time"":31250},{""page_index"":1,""viewing_time"":12879},{""page_index"":2,""viewing_time"":21704},{""page_index"":3,""viewing_time"":11326}]",63
,,,,,,,,,,,,,,,32757,,163319,,,instructions,"[{""page_index"":0,""viewing_time"":7316},{""page_index"":1,""viewing_time"":4583},{""page_index"":2,""viewing_time"":3672},{""page_index"":1,""viewing_time"":7282},{""page_index"":2,""viewing_time"":7343},{""page_index"":3,""viewing_time"":2560}]",63
,,,,,,,,,,,,,,,373081,,373081,,,instructions,"[{""page_index"":0,""viewing_time"":199033},{""page_index"":1,""viewing_time"":69433},{""page_index"":2,""viewing_time"":65633},{""page_index"":3,""viewing_time"":38981}]",64
,,,,,,,,,,,,,,,113588,,531289,,,instructions,"[{""page_index"":0,""viewing_time"":36681},{""page_index"":1,""viewing_time"":34184},{""page_index"":2,""viewing_time"":28176},{""page_index"":3,""viewing_time"":14547}]",64
,,,,,,,,,,,,,,,82782,,82783,,,instructions,"[{""page_index"":0,""viewing_time"":42121},{""page_index"":1,""viewing_time"":15778},{""page_index"":2,""viewing_time"":11419},{""page_index"":1,""viewing_time"":1300},{""page_index"":0,""viewing_time"":4254},{""page_index"":1,""viewing_time"":1824},{""page_index"":0,""viewing_time"":3173},{""page_index"":1,""viewing_time"":1304},{""page_index"":2,""viewing_time"":1608}]",65
,,,,,,,,,,,,,,,226020,,226021,,,instructions,"[{""page_index"":0,""viewing_time"":107500},{""page_index"":1,""viewing_time"":77218},{""page_index"":2,""viewing_time"":29665},{""page_index"":3,""viewing_time"":11636}]",66
,,,,,,,,,,,,,,,186016,,186018,,,instructions,"[{""page_index"":0,""viewing_time"":61918},{""page_index"":1,""viewing_time"":34212},{""page_index"":2,""viewing_time"":62131},{""page_index"":3,""viewing_time"":27754}]",67
,,,,,,,,,,,,,,,54726,,283342,,,instructions,"[{""page_index"":0,""viewing_time"":10474},{""page_index"":1,""viewing_time"":14690},{""page_index"":2,""viewing_time"":20698},{""page_index"":3,""viewing_time"":8863}]",67
,,,,,,,,,,,,,,,37061,,347688,,,instructions,"[{""page_index"":0,""viewing_time"":15504},{""page_index"":1,""viewing_time"":12051},{""page_index"":2,""viewing_time"":8055},{""page_index"":3,""viewing_time"":1450}]",67
,,,,,,,,,,,,,,,122502,,122504,,,instructions,"[{""page_index"":0,""viewing_time"":67895},{""page_index"":1,""viewing_time"":14058},{""page_index"":2,""viewing_time"":18604},{""page_index"":1,""viewing_time"":20989},{""page_index"":2,""viewing_time"":956}]",68
,,,,,,,,,,,,,,,137848,,137850,,,instructions,"[{""page_index"":0,""viewing_time"":69876},{""page_index"":1,""viewing_time"":46263},{""page_index"":2,""viewing_time"":21707}]",69
,,,,,,,,,,,,,,,9280,,173278,,,instructions,"[{""page_index"":0,""viewing_time"":3692},{""page_index"":1,""viewing_time"":2724},{""page_index"":2,""viewing_time"":2863}]",69
,,,,,,,,,,,,,,,356234,,356236,,,instructions,"[{""page_index"":0,""viewing_time"":130252},{""page_index"":1,""viewing_time"":180428},{""page_index"":2,""viewing_time"":16895},{""page_index"":3,""viewing_time"":28656}]",70
,,,,,,,,,,,,,,,112957,,112958,,,instructions,"[{""page_index"":0,""viewing_time"":50183},{""page_index"":1,""viewing_time"":38011},{""page_index"":2,""viewing_time"":24762}]",71
,,,,,,,,,,,,,,,86382,,86382,,,instructions,"[{""page_index"":0,""viewing_time"":51722},{""page_index"":1,""viewing_time"":17442},{""page_index"":2,""viewing_time"":17216}]",72
,,,,,,,,,,,,,,,22857,,147912,,,instructions,"[{""page_index"":0,""viewing_time"":14724},{""page_index"":1,""viewing_time"":5039},{""page_index"":2,""viewing_time"":3093}]",72
,,,,,,,,,,,,,,,304312,,304315,,,instructions,"[{""page_index"":0,""viewing_time"":65204},{""page_index"":1,""viewing_time"":120860},{""page_index"":0,""viewing_time"":1927},{""page_index"":1,""viewing_time"":13125},{""page_index"":2,""viewing_time"":48088},{""page_index"":3,""viewing_time"":55106}]",73
,,,,,,,,,,,,,,,197316,,197319,,,instructions,"[{""page_index"":0,""viewing_time"":84569},{""page_index"":1,""viewing_time"":53109},{""page_index"":2,""viewing_time"":34881},{""page_index"":3,""viewing_time"":24755}]",74
,,,,,,,,,,,,,,,156387,,156390,,,instructions,"[{""page_index"":0,""viewing_time"":48677},{""page_index"":1,""viewing_time"":39987},{""page_index"":2,""viewing_time"":42462},{""page_index"":3,""viewing_time"":25258}]",75
,,,,,,,,,,,,,,,46255,,245011,,,instructions,"[{""page_index"":0,""viewing_time"":7691},{""page_index"":1,""viewing_time"":16584},{""page_index"":2,""viewing_time"":15736},{""page_index"":3,""viewing_time"":6243}]",75
,,,,,,,,,,,,,,,171018,,171021,,,instructions,"[{""page_index"":0,""viewing_time"":69139},{""page_index"":1,""viewing_time"":39260},{""page_index"":2,""viewing_time"":40284},{""page_index"":3,""viewing_time"":22333}]",76
,,,,,,,,,,,,,,,107142,,107143,,,instructions,"[{""page_index"":0,""viewing_time"":28900},{""page_index"":1,""viewing_time"":49327},{""page_index"":2,""viewing_time"":16145},{""page_index"":3,""viewing_time"":12769}]",77
,,,,,,,,,,,,,,,62994,,201903,,,instructions,"[{""page_index"":0,""viewing_time"":8966},{""page_index"":1,""viewing_time"":11391},{""page_index"":2,""viewing_time"":11748},{""page_index"":3,""viewing_time"":9756},{""page_index"":2,""viewing_time"":1749},{""page_index"":1,""viewing_time"":1066},{""page_index"":0,""viewing_time"":8224},{""page_index"":1,""viewing_time"":3951},{""page_index"":2,""viewing_time"":5703},{""page_index"":3,""viewing_time"":439}]",77
,,,,,,,,,,,,,,,69603,,294419,,,instructions,"[{""page_index"":0,""viewing_time"":43205},{""page_index"":1,""viewing_time"":9256},{""page_index"":2,""viewing_time"":7284},{""page_index"":1,""viewing_time"":635},{""page_index"":0,""viewing_time"":5899},{""page_index"":1,""viewing_time"":559},{""page_index"":2,""viewing_time"":548},{""page_index"":3,""viewing_time"":2217}]",77
,,,,,,,,,,,,,,,59195,,378909,,,instructions,"[{""page_index"":0,""viewing_time"":28734},{""page_index"":1,""viewing_time"":8153},{""page_index"":0,""viewing_time"":1802},{""page_index"":1,""viewing_time"":6457},{""page_index"":2,""viewing_time"":10321},{""page_index"":3,""viewing_time"":3728}]",77
,,,,,,,,,,,,,,,15521,,416599,,,instructions,"[{""page_index"":0,""viewing_time"":3100},{""page_index"":1,""viewing_time"":497},{""page_index"":0,""viewing_time"":641},{""page_index"":1,""viewing_time"":1167},{""page_index"":2,""viewing_time"":8603},{""page_index"":3,""viewing_time"":1512}]",77
,,,,,,,,,,,,,,,79749,,79751,,,instructions,"[{""page_index"":0,""viewing_time"":25900},{""page_index"":1,""viewing_time"":32838},{""page_index"":2,""viewing_time"":21009}]",78
,,,,,,,,,,,,,,,65606,,174197,,,instructions,"[{""page_index"":0,""viewing_time"":25996},{""page_index"":1,""viewing_time"":27587},{""page_index"":2,""viewing_time"":12021}]",78
,,,,,,,,,,,,,,,266103,,266103,,,instructions,"[{""page_index"":0,""viewing_time"":57529},{""page_index"":1,""viewing_time"":119753},{""page_index"":2,""viewing_time"":33599},{""page_index"":1,""viewing_time"":4464},{""page_index"":0,""viewing_time"":45821},{""page_index"":1,""viewing_time"":3256},{""page_index"":2,""viewing_time"":1680}]",79
,,,,,,,,,,,,,,,101813,,101814,,,instructions,"[{""page_index"":0,""viewing_time"":34694},{""page_index"":1,""viewing_time"":31724},{""page_index"":2,""viewing_time"":19642},{""page_index"":3,""viewing_time"":15752}]",80
,,,,,,,,,,,,,,,72892,,72892,,,instructions,"[{""page_index"":0,""viewing_time"":31206},{""page_index"":1,""viewing_time"":29526},{""page_index"":2,""viewing_time"":12159}]",81
,,,,,,,,,,,,,,,157100,,157102,,,instructions,"[{""page_index"":0,""viewing_time"":95335},{""page_index"":1,""viewing_time"":24354},{""page_index"":2,""viewing_time"":26080},{""page_index"":3,""viewing_time"":11328}]",82
,,,,,,,,,,,,,,,109018,,109020,,,instructions,"[{""page_index"":0,""viewing_time"":47923},{""page_index"":1,""viewing_time"":15010},{""page_index"":0,""viewing_time"":8518},{""page_index"":1,""viewing_time"":12950},{""page_index"":2,""viewing_time"":10471},{""page_index"":3,""viewing_time"":11730},{""page_index"":2,""viewing_time"":199},{""page_index"":3,""viewing_time"":2217}]",83
,,,,,,,,,,,,,,,28090,,184037,,,instructions,"[{""page_index"":0,""viewing_time"":6593},{""page_index"":1,""viewing_time"":5696},{""page_index"":2,""viewing_time"":6642},{""page_index"":3,""viewing_time"":9158}]",83
,,,,,,,,,,,,,,,5661,,345316,,,instructions,"[{""page_index"":0,""viewing_time"":2307},{""page_index"":1,""viewing_time"":962},{""page_index"":2,""viewing_time"":1516},{""page_index"":3,""viewing_time"":876}]",83
,,,,,,,,,,,,,,,6167,,368777,,,instructions,"[{""page_index"":0,""viewing_time"":1839},{""page_index"":1,""viewing_time"":1395},{""page_index"":2,""viewing_time"":1611},{""page_index"":3,""viewing_time"":1322}]",83
,,,,,,,,,,,,,,,268069,,268070,,,instructions,"[{""page_index"":0,""viewing_time"":192547},{""page_index"":1,""viewing_time"":32290},{""page_index"":0,""viewing_time"":4255},{""page_index"":1,""viewing_time"":9718},{""page_index"":2,""viewing_time"":29257}]",84
,,,,,,,,,,,,,,,1575314,,1575316,,,instructions,"[{""page_index"":0,""viewing_time"":57334},{""page_index"":1,""viewing_time"":25211},{""page_index"":2,""viewing_time"":1470005},{""page_index"":3,""viewing_time"":22764}]",85
,,,,,,,,,,,,,,,367007,,367007,,,instructions,"[{""page_index"":0,""viewing_time"":261402},{""page_index"":1,""viewing_time"":35988},{""page_index"":2,""viewing_time"":53596},{""page_index"":3,""viewing_time"":16021}]",86
,,,,,,,,,,,,,,,55901,,516758,,,instructions,"[{""page_index"":0,""viewing_time"":8155},{""page_index"":1,""viewing_time"":3510},{""page_index"":2,""viewing_time"":41828},{""page_index"":3,""viewing_time"":2408}]",86
,,,,,,,,,,,,,,,99067,,99068,,,instructions,"[{""page_index"":0,""viewing_time"":33133},{""page_index"":1,""viewing_time"":23633},{""page_index"":2,""viewing_time"":27180},{""page_index"":3,""viewing_time"":15120}]",87
,,,,,,,,,,,,,,,81324,,81325,,,instructions,"[{""page_index"":0,""viewing_time"":33258},{""page_index"":1,""viewing_time"":23814},{""page_index"":2,""viewing_time"":20914},{""page_index"":3,""viewing_time"":3336}]",88
,,,,,,,,,,,,,,,87339,,223172,,,instructions,"[{""page_index"":0,""viewing_time"":19178},{""page_index"":1,""viewing_time"":55261},{""page_index"":2,""viewing_time"":11540},{""page_index"":3,""viewing_time"":1359}]",88
,,,,,,,,,,,,,,,42562,,281204,,,instructions,"[{""page_index"":0,""viewing_time"":3398},{""page_index"":1,""viewing_time"":10616},{""page_index"":2,""viewing_time"":12637},{""page_index"":1,""viewing_time"":1564},{""page_index"":2,""viewing_time"":197},{""page_index"":3,""viewing_time"":14149}]",88
,,,,,,,,,,,,,,,239087,,239088,,,instructions,"[{""page_index"":0,""viewing_time"":27495},{""page_index"":1,""viewing_time"":103507},{""page_index"":2,""viewing_time"":6460},{""page_index"":1,""viewing_time"":54},{""page_index"":0,""viewing_time"":70229},{""page_index"":1,""viewing_time"":14607},{""page_index"":2,""viewing_time"":16735}]",89
,,,,,,,,,,,,,,,127491,,127496,,,instructions,"[{""page_index"":0,""viewing_time"":54692},{""page_index"":1,""viewing_time"":35701},{""page_index"":2,""viewing_time"":23125},{""page_index"":3,""viewing_time"":13971}]",90
,,,,,,,,,,,,,,,71743,,71745,,,instructions,"[{""page_index"":0,""viewing_time"":29619},{""page_index"":1,""viewing_time"":29771},{""page_index"":2,""viewing_time"":10397},{""page_index"":3,""viewing_time"":1956}]",91
,,,,,,,,,,,,,,,36978,,146733,,,instructions,"[{""page_index"":0,""viewing_time"":3536},{""page_index"":1,""viewing_time"":3551},{""page_index"":2,""viewing_time"":16691},{""page_index"":3,""viewing_time"":13200}]",91
,,,,,,,,,,,,,,,11199,,11201,,,instructions,"[{""page_index"":0,""viewing_time"":1826},{""page_index"":1,""viewing_time"":5962},{""page_index"":2,""viewing_time"":3410}]",92
,,,,,,,,,,,,,,,149621,,189154,,,instructions,"[{""page_index"":0,""viewing_time"":19226},{""page_index"":1,""viewing_time"":118285},{""page_index"":2,""viewing_time"":12109}]",92
,,,,,,,,,,,,,,,11105,,225808,,,instructions,"[{""page_index"":0,""viewing_time"":7821},{""page_index"":1,""viewing_time"":2008},{""page_index"":2,""viewing_time"":1275}]",92
,,,,,,,,,,,,,,,4128,,262176,,,instructions,"[{""page_index"":0,""viewing_time"":1260},{""page_index"":1,""viewing_time"":1837},{""page_index"":2,""viewing_time"":1030}]",92
,,,,,,,,,,,,,,,30816,,308604,,,instructions,"[{""page_index"":0,""viewing_time"":1485},{""page_index"":1,""viewing_time"":1714},{""page_index"":2,""viewing_time"":1647},{""page_index"":1,""viewing_time"":23468},{""page_index"":2,""viewing_time"":2501}]",92
,,,,,,,,,,,,,,,30241,,352445,,,instructions,"[{""page_index"":0,""viewing_time"":28027},{""page_index"":1,""viewing_time"":1321},{""page_index"":2,""viewing_time"":893}]",92
,,,,,,,,,,,,,,,153945,,153947,,,instructions,"[{""page_index"":0,""viewing_time"":60201},{""page_index"":1,""viewing_time"":47988},{""page_index"":2,""viewing_time"":23033},{""page_index"":3,""viewing_time"":22722}]",93
,,,,,,,,,,,,,,,99015,,99015,,,instructions,"[{""page_index"":0,""viewing_time"":37287},{""page_index"":1,""viewing_time"":43479},{""page_index"":2,""viewing_time"":18248}]",94
,,,,,,,,,,,,,,,83925,,83926,,,instructions,"[{""page_index"":0,""viewing_time"":62678},{""page_index"":1,""viewing_time"":19519},{""page_index"":2,""viewing_time"":1728}]",95
,,,,,,,,,,,,,,,15510,,118504,,,instructions,"[{""page_index"":0,""viewing_time"":2245},{""page_index"":1,""viewing_time"":2576},{""page_index"":2,""viewing_time"":10689}]",95
,,,,,,,,,,,,,,,115299,,115301,,,instructions,"[{""page_index"":0,""viewing_time"":54720},{""page_index"":1,""viewing_time"":41032},{""page_index"":2,""viewing_time"":19547}]",96
,,,,,,,,,,,,,,,101400,,101402,,,instructions,"[{""page_index"":0,""viewing_time"":32010},{""page_index"":1,""viewing_time"":42199},{""page_index"":2,""viewing_time"":27190}]",97
,,,,,,,,,,,,,,,140555,,140557,,,instructions,"[{""page_index"":0,""viewing_time"":38843},{""page_index"":1,""viewing_time"":35928},{""page_index"":2,""viewing_time"":65783}]",98
,,,,,,,,,,,,,,,115522,,115522,,,instructions,"[{""page_index"":0,""viewing_time"":19506},{""page_index"":1,""viewing_time"":17280},{""page_index"":2,""viewing_time"":55828},{""page_index"":3,""viewing_time"":22907}]",99
,,,,,,,,,,,,,,,69611,,225581,,,instructions,"[{""page_index"":0,""viewing_time"":22671},{""page_index"":1,""viewing_time"":21050},{""page_index"":2,""viewing_time"":17242},{""page_index"":3,""viewing_time"":8648}]",99
,,,,,,,,,,,,,,,128425,,128426,,,instructions,"[{""page_index"":0,""viewing_time"":59131},{""page_index"":1,""viewing_time"":50052},{""page_index"":2,""viewing_time"":19242}]",100
,,,,,,,,,,,,,,,234721,,234724,,,instructions,"[{""page_index"":0,""viewing_time"":91669},{""page_index"":1,""viewing_time"":67041},{""page_index"":2,""viewing_time"":46483},{""page_index"":3,""viewing_time"":29527}]",101
,,,,,,,,,,,,,,,76754,,76756,,,instructions,"[{""page_index"":0,""viewing_time"":45119},{""page_index"":1,""viewing_time"":27097},{""page_index"":2,""viewing_time"":2848},{""page_index"":3,""viewing_time"":1688}]",102
,,,,,,,,,,,,,,,59620,,190421,,,instructions,"[{""page_index"":0,""viewing_time"":7932},{""page_index"":1,""viewing_time"":19104},{""page_index"":2,""viewing_time"":17136},{""page_index"":3,""viewing_time"":15446}]",102
,,,,,,,,,,,,,,,192166,,192166,,,instructions,"[{""page_index"":0,""viewing_time"":89171},{""page_index"":1,""viewing_time"":73128},{""page_index"":2,""viewing_time"":13364},{""page_index"":3,""viewing_time"":3707},{""page_index"":2,""viewing_time"":3959},{""page_index"":3,""viewing_time"":8836}]",103
,,,,,,,,,,,,,,,87790,,351192,,,instructions,"[{""page_index"":0,""viewing_time"":23515},{""page_index"":1,""viewing_time"":19138},{""page_index"":2,""viewing_time"":42469},{""page_index"":3,""viewing_time"":2667}]",103
,,,,,,,,,,,,,,,117604,,509929,,,instructions,"[{""page_index"":0,""viewing_time"":2568},{""page_index"":1,""viewing_time"":3088},{""page_index"":2,""viewing_time"":8754},{""page_index"":3,""viewing_time"":3948},{""page_index"":2,""viewing_time"":901},{""page_index"":1,""viewing_time"":849},{""page_index"":0,""viewing_time"":9679},{""page_index"":1,""viewing_time"":26315},{""page_index"":2,""viewing_time"":29328},{""page_index"":3,""viewing_time"":6530},{""page_index"":2,""viewing_time"":739},{""page_index"":1,""viewing_time"":640},{""page_index"":0,""viewing_time"":19331},{""page_index"":1,""viewing_time"":1348},{""page_index"":2,""viewing_time"":2476},{""page_index"":3,""viewing_time"":1110}]",103
,,,,,,,,,,,,,,,2077,,542270,,,instructions,"[{""page_index"":0,""viewing_time"":1661},{""page_index"":1,""viewing_time"":154},{""page_index"":2,""viewing_time"":136},{""page_index"":3,""viewing_time"":126}]",103
,,,,,,,,,,,,,,,76219,,76221,,,instructions,"[{""page_index"":0,""viewing_time"":37398},{""page_index"":1,""viewing_time"":21385},{""page_index"":2,""viewing_time"":7179},{""page_index"":3,""viewing_time"":10256}]",104
,,,,,,,,,,,,,,,52865,,52865,,,instructions,"[{""page_index"":0,""viewing_time"":14468},{""page_index"":1,""viewing_time"":8335},{""page_index"":2,""viewing_time"":17107},{""page_index"":3,""viewing_time"":12954}]",105
,,,,,,,,,,,,,,,15084,,98527,,,instructions,"[{""page_index"":0,""viewing_time"":8907},{""page_index"":1,""viewing_time"":3937},{""page_index"":2,""viewing_time"":1520},{""page_index"":3,""viewing_time"":720}]",105
,,,,,,,,,,,,,,,141283,,141285,,,instructions,"[{""page_index"":0,""viewing_time"":58081},{""page_index"":1,""viewing_time"":37770},{""page_index"":2,""viewing_time"":23099},{""page_index"":3,""viewing_time"":22332}]",106
,,,,,,,,,,,,,,,56175,,232583,,,instructions,"[{""page_index"":0,""viewing_time"":18572},{""page_index"":1,""viewing_time"":9168},{""page_index"":2,""viewing_time"":20228},{""page_index"":3,""viewing_time"":8207}]",106
,,,,,,,,,,,,,,,146077,,146078,,,instructions,"[{""page_index"":0,""viewing_time"":68046},{""page_index"":1,""viewing_time"":56591},{""page_index"":2,""viewing_time"":21439}]",107
,,,,,,,,,,,,,,,197537,,197539,,,instructions,"[{""page_index"":0,""viewing_time"":45054},{""page_index"":1,""viewing_time"":51774},{""page_index"":2,""viewing_time"":69421},{""page_index"":3,""viewing_time"":31285}]",108
,,,,,,,,,,,,,,,291162,,291165,,,instructions,"[{""page_index"":0,""viewing_time"":86198},{""page_index"":1,""viewing_time"":76756},{""page_index"":2,""viewing_time"":68431},{""page_index"":3,""viewing_time"":59775}]",109
,,,,,,,,,,,,,,,229385,,229386,,,instructions,"[{""page_index"":0,""viewing_time"":99361},{""page_index"":1,""viewing_time"":69600},{""page_index"":2,""viewing_time"":36668},{""page_index"":3,""viewing_time"":23755}]",110
,,,,,,,,,,,,,,,180186,,180186,,,instructions,"[{""page_index"":0,""viewing_time"":61113},{""page_index"":1,""viewing_time"":44897},{""page_index"":2,""viewing_time"":26976},{""page_index"":1,""viewing_time"":42072},{""page_index"":2,""viewing_time"":5127}]",111
,,,,,,,,,,,,,,,188274,,188274,,,instructions,"[{""page_index"":0,""viewing_time"":52288},{""page_index"":1,""viewing_time"":20831},{""page_index"":2,""viewing_time"":56606},{""page_index"":3,""viewing_time"":58548}]",112
,,,,,,,,,,,,,,,144540,,144541,,,instructions,"[{""page_index"":0,""viewing_time"":62902},{""page_index"":1,""viewing_time"":48177},{""page_index"":2,""viewing_time"":33457}]",113
,,,,,,,,,,,,,,,253677,,253677,,,instructions,"[{""page_index"":0,""viewing_time"":117613},{""page_index"":1,""viewing_time"":52831},{""page_index"":2,""viewing_time"":47400},{""page_index"":3,""viewing_time"":35832}]",114
,,,,,,,,,,,,,,,101015,,101016,,,instructions,"[{""page_index"":0,""viewing_time"":27175},{""page_index"":1,""viewing_time"":21583},{""page_index"":2,""viewing_time"":36088},{""page_index"":3,""viewing_time"":16168}]",115
,,,,,,,,,,,,,,,145161,,145163,,,instructions,"[{""page_index"":0,""viewing_time"":45114},{""page_index"":1,""viewing_time"":44022},{""page_index"":2,""viewing_time"":30400},{""page_index"":3,""viewing_time"":25623}]",116
,,,,,,,,,,,,,,,54725,,229835,,,instructions,"[{""page_index"":0,""viewing_time"":38963},{""page_index"":1,""viewing_time"":14097},{""page_index"":2,""viewing_time"":928},{""page_index"":3,""viewing_time"":736}]",116
,,,,,,,,,,,,,,,113300,,113300,,,instructions,"[{""page_index"":0,""viewing_time"":46139},{""page_index"":1,""viewing_time"":49586},{""page_index"":2,""viewing_time"":17574}]",117
,,,,,,,,,,,,,,,125578,,125578,,,instructions,"[{""page_index"":0,""viewing_time"":25795},{""page_index"":1,""viewing_time"":81328},{""page_index"":2,""viewing_time"":18454}]",118
,,,,,,,,,,,,,,,290996,,290997,,,instructions,"[{""page_index"":0,""viewing_time"":90476},{""page_index"":1,""viewing_time"":34052},{""page_index"":2,""viewing_time"":139993},{""page_index"":3,""viewing_time"":26475}]",119
,,,,,,,,,,,,,,,121529,,121531,,,instructions,"[{""page_index"":0,""viewing_time"":61106},{""page_index"":1,""viewing_time"":42606},{""page_index"":2,""viewing_time"":17815}]",120
,,,,,,,,,,,,,,,110283,,110286,,,instructions,"[{""page_index"":0,""viewing_time"":25751},{""page_index"":1,""viewing_time"":38753},{""page_index"":2,""viewing_time"":21912},{""page_index"":3,""viewing_time"":23863}]",121
,,,,,,,,,,,,,,,227262,,227264,,,instructions,"[{""page_index"":0,""viewing_time"":102773},{""page_index"":1,""viewing_time"":78317},{""page_index"":2,""viewing_time"":46169}]",122
,,,,,,,,,,,,,,,88365,,88367,,,instructions,"[{""page_index"":0,""viewing_time"":31204},{""page_index"":1,""viewing_time"":40022},{""page_index"":2,""viewing_time"":17138}]",123
,,,,,,,,,,,,,,,36424,,146753,,,instructions,"[{""page_index"":0,""viewing_time"":13363},{""page_index"":1,""viewing_time"":18519},{""page_index"":2,""viewing_time"":4541}]",123
,,,,,,,,,,,,,,,194085,,194085,,,instructions,"[{""page_index"":0,""viewing_time"":64734},{""page_index"":1,""viewing_time"":99676},{""page_index"":2,""viewing_time"":29674}]",124
,,,,,,,,,,,,,,,242598,,242600,,,instructions,"[{""page_index"":0,""viewing_time"":127929},{""page_index"":1,""viewing_time"":75796},{""page_index"":2,""viewing_time"":38871}]",125
,,,,,,,,,,,,,,,132521,,426914,,,instructions,"[{""page_index"":0,""viewing_time"":61877},{""page_index"":1,""viewing_time"":49435},{""page_index"":2,""viewing_time"":21208}]",125
,,,,,,,,,,,,,,,253776,,253778,,,instructions,"[{""page_index"":0,""viewing_time"":73706},{""page_index"":1,""viewing_time"":49070},{""page_index"":2,""viewing_time"":71524},{""page_index"":3,""viewing_time"":59475}]",126
,,,,,,,,,,,,,,,321591,,321592,,,instructions,"[{""page_index"":0,""viewing_time"":91106},{""page_index"":1,""viewing_time"":68254},{""page_index"":2,""viewing_time"":106489},{""page_index"":3,""viewing_time"":55741}]",127
,,,,,,,,,,,,,,,106608,,106610,,,instructions,"[{""page_index"":0,""viewing_time"":49061},{""page_index"":1,""viewing_time"":31958},{""page_index"":2,""viewing_time"":25587}]",128
,,,,,,,,,,,,,,,342486,,342488,,,instructions,"[{""page_index"":0,""viewing_time"":98618},{""page_index"":1,""viewing_time"":139518},{""page_index"":2,""viewing_time"":104348}]",129
,,,,,,,,,,,,,,,150317,,150317,,,instructions,"[{""page_index"":0,""viewing_time"":52041},{""page_index"":1,""viewing_time"":77614},{""page_index"":2,""viewing_time"":20661}]",130
,,,,,,,,,,,,,,,374124,,374125,,,instructions,"[{""page_index"":0,""viewing_time"":39559},{""page_index"":1,""viewing_time"":85533},{""page_index"":0,""viewing_time"":28979},{""page_index"":1,""viewing_time"":28304},{""page_index"":0,""viewing_time"":4608},{""page_index"":1,""viewing_time"":15720},{""page_index"":0,""viewing_time"":2487},{""page_index"":1,""viewing_time"":9722},{""page_index"":0,""viewing_time"":18783},{""page_index"":1,""viewing_time"":5713},{""page_index"":0,""viewing_time"":3879},{""page_index"":1,""viewing_time"":3434},{""page_index"":0,""viewing_time"":6926},{""page_index"":1,""viewing_time"":18203},{""page_index"":0,""viewing_time"":4141},{""page_index"":1,""viewing_time"":3198},{""page_index"":0,""viewing_time"":6082},{""page_index"":1,""viewing_time"":6890},{""page_index"":0,""viewing_time"":5270},{""page_index"":1,""viewing_time"":3485},{""page_index"":0,""viewing_time"":6363},{""page_index"":1,""viewing_time"":9106},{""page_index"":2,""viewing_time"":21566},{""page_index"":3,""viewing_time"":6752},{""page_index"":2,""viewing_time"":321},{""page_index"":1,""viewing_time"":5559},{""page_index"":2,""viewing_time"":8920},{""page_index"":3,""viewing_time"":1714},{""page_index"":2,""viewing_time"":8910},{""page_index"":3,""viewing_time"":3996}]",131
,,,,,,,,,,,,,,,52675,,481008,,,instructions,"[{""page_index"":0,""viewing_time"":12603},{""page_index"":1,""viewing_time"":5480},{""page_index"":2,""viewing_time"":21232},{""page_index"":3,""viewing_time"":13360}]",131
,,,,,,,,,,,,,,,11141,,523191,,,instructions,"[{""page_index"":0,""viewing_time"":8542},{""page_index"":1,""viewing_time"":1031},{""page_index"":2,""viewing_time"":936},{""page_index"":3,""viewing_time"":632}]",131
,,,,,,,,,,,,,,,301162,,301164,,,instructions,"[{""page_index"":0,""viewing_time"":101452},{""page_index"":1,""viewing_time"":90638},{""page_index"":2,""viewing_time"":68571},{""page_index"":3,""viewing_time"":40501}]",132
,,,,,,,,,,,,,,,244410,,244411,,,instructions,"[{""page_index"":0,""viewing_time"":141536},{""page_index"":1,""viewing_time"":68337},{""page_index"":2,""viewing_time"":34535}]",133
,,,,,,,,,,,,,,,360333,,360335,,,instructions,"[{""page_index"":0,""viewing_time"":67544},{""page_index"":1,""viewing_time"":180170},{""page_index"":2,""viewing_time"":64802},{""page_index"":3,""viewing_time"":47816}]",134
,,,,,,,,,,,,,,,157754,,157755,,,instructions,"[{""page_index"":0,""viewing_time"":45593},{""page_index"":1,""viewing_time"":42247},{""page_index"":2,""viewing_time"":42157},{""page_index"":3,""viewing_time"":27754}]",135
,,,,,,,,,,,,,,,7272,,193567,,,instructions,"[{""page_index"":0,""viewing_time"":4331},{""page_index"":1,""viewing_time"":1031},{""page_index"":2,""viewing_time"":884},{""page_index"":3,""viewing_time"":1025}]",135
,,,,,,,,,,,,,,,112380,,329694,,,instructions,"[{""page_index"":0,""viewing_time"":32911},{""page_index"":1,""viewing_time"":23673},{""page_index"":2,""viewing_time"":39998},{""page_index"":3,""viewing_time"":15797}]",135
,,,,,,,,,,,,,,,3738,,372546,,,instructions,"[{""page_index"":0,""viewing_time"":1309},{""page_index"":1,""viewing_time"":1196},{""page_index"":2,""viewing_time"":591},{""page_index"":3,""viewing_time"":641}]",135
,,,,,,,,,,,,,,,68206,,68207,,,instructions,"[{""page_index"":0,""viewing_time"":26670},{""page_index"":1,""viewing_time"":22017},{""page_index"":2,""viewing_time"":19518}]",136
,,,,,,,,,,,,,,,34703,,142309,,,instructions,"[{""page_index"":0,""viewing_time"":5724},{""page_index"":1,""viewing_time"":17319},{""page_index"":2,""viewing_time"":11660}]",136
,,,,,,,,,,,,,,,46327,,202197,,,instructions,"[{""page_index"":0,""viewing_time"":22231},{""page_index"":1,""viewing_time"":13160},{""page_index"":2,""viewing_time"":10936}]",136
,,,,,,,,,,,,,,,56391,,285360,,,instructions,"[{""page_index"":0,""viewing_time"":18322},{""page_index"":1,""viewing_time"":25266},{""page_index"":2,""viewing_time"":12802}]",136
,,,,,,,,,,,,,,,14072,,320850,,,instructions,"[{""page_index"":0,""viewing_time"":1974},{""page_index"":1,""viewing_time"":824},{""page_index"":0,""viewing_time"":1122},{""page_index"":1,""viewing_time"":738},{""page_index"":0,""viewing_time"":784},{""page_index"":1,""viewing_time"":818},{""page_index"":0,""viewing_time"":624},{""page_index"":1,""viewing_time"":520},{""page_index"":0,""viewing_time"":1106},{""page_index"":1,""viewing_time"":857},{""page_index"":0,""viewing_time"":1154},{""page_index"":1,""viewing_time"":1859},{""page_index"":2,""viewing_time"":1692}]",136
,,,,,,,,,,,,,,,24591,,363965,,,instructions,"[{""page_index"":0,""viewing_time"":8722},{""page_index"":1,""viewing_time"":2384},{""page_index"":0,""viewing_time"":772},{""page_index"":1,""viewing_time"":1958},{""page_index"":0,""viewing_time"":2222},{""page_index"":1,""viewing_time"":884},{""page_index"":0,""viewing_time"":930},{""page_index"":1,""viewing_time"":1462},{""page_index"":2,""viewing_time"":5256}]",136
,,,,,,,,,,,,,,,3487,,387411,,,instructions,"[{""page_index"":0,""viewing_time"":1875},{""page_index"":1,""viewing_time"":842},{""page_index"":2,""viewing_time"":770}]",136
,,,,,,,,,,,,,,,17913,,417681,,,instructions,"[{""page_index"":0,""viewing_time"":2852},{""page_index"":1,""viewing_time"":1125},{""page_index"":0,""viewing_time"":1277},{""page_index"":1,""viewing_time"":818},{""page_index"":0,""viewing_time"":1362},{""page_index"":1,""viewing_time"":2728},{""page_index"":0,""viewing_time"":758},{""page_index"":1,""viewing_time"":778},{""page_index"":0,""viewing_time"":696},{""page_index"":1,""viewing_time"":682},{""page_index"":0,""viewing_time"":618},{""page_index"":1,""viewing_time"":584},{""page_index"":0,""viewing_time"":554},{""page_index"":1,""viewing_time"":578},{""page_index"":0,""viewing_time"":810},{""page_index"":1,""viewing_time"":1197},{""page_index"":2,""viewing_time"":495}]",136
,,,,,,,,,,,,,,,37915,,37922,,,instructions,"[{""page_index"":0,""viewing_time"":15054},{""page_index"":1,""viewing_time"":6174},{""page_index"":2,""viewing_time"":6293},{""page_index"":3,""viewing_time"":10383}]",137
,,,,,,,,,,,,,,,192499,,264158,,,instructions,"[{""page_index"":0,""viewing_time"":42659},{""page_index"":1,""viewing_time"":110797},{""page_index"":2,""viewing_time"":12359},{""page_index"":3,""viewing_time"":26680}]",137
,,,,,,,,,,,,,,,81450,,81451,,,instructions,"[{""page_index"":0,""viewing_time"":29413},{""page_index"":1,""viewing_time"":19442},{""page_index"":2,""viewing_time"":20103},{""page_index"":1,""viewing_time"":2864},{""page_index"":0,""viewing_time"":3528},{""page_index"":1,""viewing_time"":2724},{""page_index"":2,""viewing_time"":3375}]",138
,,,,,,,,,,,,,,,82697,,82698,,,instructions,"[{""page_index"":0,""viewing_time"":23439},{""page_index"":1,""viewing_time"":29018},{""page_index"":2,""viewing_time"":13783},{""page_index"":3,""viewing_time"":16457}]",139
,,,,,,,,,,,,,,,63944,,171145,,,instructions,"[{""page_index"":0,""viewing_time"":20313},{""page_index"":1,""viewing_time"":11614},{""page_index"":2,""viewing_time"":17455},{""page_index"":3,""viewing_time"":14562}]",139
,,,,,,,,,,,,,,,174660,,174663,,,instructions,"[{""page_index"":0,""viewing_time"":81545},{""page_index"":1,""viewing_time"":41857},{""page_index"":2,""viewing_time"":26524},{""page_index"":3,""viewing_time"":24731}]",140
,,,,,,,,,,,,,,,33136,,33137,,,instructions,"[{""page_index"":0,""viewing_time"":11791},{""page_index"":1,""viewing_time"":12424},{""page_index"":2,""viewing_time"":8921}]",141
,,,,,,,,,,,,,,,33502,,80720,,,instructions,"[{""page_index"":0,""viewing_time"":18685},{""page_index"":1,""viewing_time"":10056},{""page_index"":2,""viewing_time"":4760}]",141
,,,,,,,,,,,,,,,109737,,109738,,,instructions,"[{""page_index"":0,""viewing_time"":50890},{""page_index"":1,""viewing_time"":36279},{""page_index"":2,""viewing_time"":22568}]",142
,,,,,,,,,,,,,,,146462,,146466,,,instructions,"[{""page_index"":0,""viewing_time"":63319},{""page_index"":1,""viewing_time"":43950},{""page_index"":2,""viewing_time"":30442},{""page_index"":1,""viewing_time"":6329},{""page_index"":2,""viewing_time"":2419}]",143
,,,,,,,,,,,,,,,142538,,142540,,,instructions,"[{""page_index"":0,""viewing_time"":79652},{""page_index"":1,""viewing_time"":42524},{""page_index"":2,""viewing_time"":20359}]",144
,,,,,,,,,,,,,,,142157,,142159,,,instructions,"[{""page_index"":0,""viewing_time"":52678},{""page_index"":1,""viewing_time"":57709},{""page_index"":2,""viewing_time"":31769}]",145
,,,,,,,,,,,,,,,544277,,544277,,,instructions,"[{""page_index"":0,""viewing_time"":277536},{""page_index"":1,""viewing_time"":160941},{""page_index"":2,""viewing_time"":89447},{""page_index"":3,""viewing_time"":16352}]",146
,,,,,,,,,,,,,,,161531,,161532,,,instructions,"[{""page_index"":0,""viewing_time"":71835},{""page_index"":1,""viewing_time"":34202},{""page_index"":2,""viewing_time"":36069},{""page_index"":3,""viewing_time"":19424}]",147
,,,,,,,,,,,,,,,6378,,200264,,,instructions,"[{""page_index"":0,""viewing_time"":2074},{""page_index"":1,""viewing_time"":836},{""page_index"":2,""viewing_time"":1670},{""page_index"":3,""viewing_time"":1798}]",147
,,,,,,,,,,,,,,,155211,,155215,,,instructions,"[{""page_index"":0,""viewing_time"":54423},{""page_index"":1,""viewing_time"":35495},{""page_index"":2,""viewing_time"":41157},{""page_index"":3,""viewing_time"":24132}]",148
,,,,,,,,,,,,,,,69570,,69571,,,instructions,"[{""page_index"":0,""viewing_time"":15184},{""page_index"":1,""viewing_time"":22816},{""page_index"":2,""viewing_time"":18784},{""page_index"":3,""viewing_time"":12784}]",149
,,,,,,,,,,,,,,,29284,,29286,,,instructions,"[{""page_index"":0,""viewing_time"":6795},{""page_index"":1,""viewing_time"":18762},{""page_index"":2,""viewing_time"":3725}]",150
,,,,,,,,,,,,,,,214354,,214355,,,instructions,"[{""page_index"":0,""viewing_time"":99355},{""page_index"":1,""viewing_time"":31394},{""page_index"":2,""viewing_time"":48202},{""page_index"":3,""viewing_time"":35402}]",151
,,,,,,,,,,,,,,,44172,,310310,,,instructions,"[{""page_index"":0,""viewing_time"":19884},{""page_index"":1,""viewing_time"":20054},{""page_index"":2,""viewing_time"":2184},{""page_index"":3,""viewing_time"":2050}]",151
,,,,,,,,,,,,,,,234366,,234368,,,instructions,"[{""page_index"":0,""viewing_time"":35638},{""page_index"":1,""viewing_time"":109863},{""page_index"":2,""viewing_time"":48264},{""page_index"":3,""viewing_time"":40600}]",152
,,,,,,,,,,,,,,,218102,,218103,,,instructions,"[{""page_index"":0,""viewing_time"":80394},{""page_index"":1,""viewing_time"":41906},{""page_index"":2,""viewing_time"":60786},{""page_index"":3,""viewing_time"":35016}]",153
,,,,,,,,,,,,,,,151809,,151811,,,instructions,"[{""page_index"":0,""viewing_time"":65672},{""page_index"":1,""viewing_time"":31449},{""page_index"":2,""viewing_time"":38197},{""page_index"":3,""viewing_time"":16490}]",154
,,,,,,,,,,,,,,,6457,,184915,,,instructions,"[{""page_index"":0,""viewing_time"":2783},{""page_index"":1,""viewing_time"":1218},{""page_index"":2,""viewing_time"":1203},{""page_index"":3,""viewing_time"":1252}]",154
,,,,,,,,,,,,,,,86106,,86106,,,instructions,"[{""page_index"":0,""viewing_time"":23656},{""page_index"":1,""viewing_time"":28137},{""page_index"":2,""viewing_time"":16363},{""page_index"":1,""viewing_time"":16124},{""page_index"":2,""viewing_time"":1825}]",155
,,,,,,,,,,,,,,,171534,,171535,,,instructions,"[{""page_index"":0,""viewing_time"":71611},{""page_index"":1,""viewing_time"":38616},{""page_index"":2,""viewing_time"":31664},{""page_index"":3,""viewing_time"":29642}]",156
,,,,,,,,,,,,,,,59590,,59591,,,instructions,"[{""page_index"":0,""viewing_time"":4014},{""page_index"":1,""viewing_time"":3172},{""page_index"":2,""viewing_time"":2452},{""page_index"":1,""viewing_time"":2419},{""page_index"":0,""viewing_time"":27450},{""page_index"":1,""viewing_time"":3083},{""page_index"":2,""viewing_time"":5086},{""page_index"":3,""viewing_time"":11913}]",157
,,,,,,,,,,,,,,,54305,,144304,,,instructions,"[{""page_index"":0,""viewing_time"":5344},{""page_index"":1,""viewing_time"":38137},{""page_index"":2,""viewing_time"":9766},{""page_index"":3,""viewing_time"":1057}]",157
,,,,,,,,,,,,,,,157544,,157545,,,instructions,"[{""page_index"":0,""viewing_time"":55219},{""page_index"":1,""viewing_time"":37004},{""page_index"":2,""viewing_time"":36511},{""page_index"":3,""viewing_time"":28808}]",158
,,,,,,,,,,,,,,,264611,,264614,,,instructions,"[{""page_index"":0,""viewing_time"":87862},{""page_index"":1,""viewing_time"":123806},{""page_index"":2,""viewing_time"":26072},{""page_index"":3,""viewing_time"":26868}]",159
,,,,,,,,,,,,,,,86380,,440603,,,instructions,"[{""page_index"":0,""viewing_time"":24029},{""page_index"":1,""viewing_time"":18510},{""page_index"":2,""viewing_time"":24409},{""page_index"":3,""viewing_time"":19430}]",159
,,,,,,,,,,,,,,,87874,,593275,,,instructions,"[{""page_index"":0,""viewing_time"":16559},{""page_index"":1,""viewing_time"":6518},{""page_index"":2,""viewing_time"":37958},{""page_index"":3,""viewing_time"":26838}]",159
,,,,,,,,,,,,,,,107198,,794002,,,instructions,"[{""page_index"":0,""viewing_time"":24672},{""page_index"":1,""viewing_time"":26333},{""page_index"":2,""viewing_time"":24434},{""page_index"":3,""viewing_time"":31758}]",159
,,,,,,,,,,,,,,,102187,,1007302,,,instructions,"[{""page_index"":0,""viewing_time"":28454},{""page_index"":1,""viewing_time"":21804},{""page_index"":2,""viewing_time"":37409},{""page_index"":3,""viewing_time"":14518}]",159
,,,,,,,,,,,,,,,102960,,102965,,,instructions,"[{""page_index"":0,""viewing_time"":46765},{""page_index"":1,""viewing_time"":35687},{""page_index"":2,""viewing_time"":20502}]",160
,,,,,,,,,,,,,,,17725,,150880,,,instructions,"[{""page_index"":0,""viewing_time"":5787},{""page_index"":1,""viewing_time"":8513},{""page_index"":2,""viewing_time"":3423}]",160
,,,,,,,,,,,,,,,74960,,74961,,,instructions,"[{""page_index"":0,""viewing_time"":35043},{""page_index"":1,""viewing_time"":26260},{""page_index"":2,""viewing_time"":13655}]",161
,,,,,,,,,,,,,,,40103,,166307,,,instructions,"[{""page_index"":0,""viewing_time"":10563},{""page_index"":1,""viewing_time"":16234},{""page_index"":2,""viewing_time"":13305}]",161
,,,,,,,,,,,,,,,276329,,276329,,,instructions,"[{""page_index"":0,""viewing_time"":112002},{""page_index"":1,""viewing_time"":63867},{""page_index"":2,""viewing_time"":100459}]",162
,,,,,,,,,,,,,,,181649,,181650,,,instructions,"[{""page_index"":0,""viewing_time"":47111},{""page_index"":1,""viewing_time"":59021},{""page_index"":2,""viewing_time"":44738},{""page_index"":3,""viewing_time"":30779}]",163
,,,,,,,,,,,,,,,153149,,153152,,,instructions,"[{""page_index"":0,""viewing_time"":23881},{""page_index"":1,""viewing_time"":32879},{""page_index"":2,""viewing_time"":13070},{""page_index"":3,""viewing_time"":83317}]",164
,,,,,,,,,,,,,,,30782,,214457,,,instructions,"[{""page_index"":0,""viewing_time"":14832},{""page_index"":1,""viewing_time"":3513},{""page_index"":2,""viewing_time"":7750},{""page_index"":3,""viewing_time"":4686}]",164
,,,,,,,,,,,,,,,274285,,274286,,,instructions,"[{""page_index"":0,""viewing_time"":77715},{""page_index"":1,""viewing_time"":76032},{""page_index"":2,""viewing_time"":76650},{""page_index"":3,""viewing_time"":43887}]",165
,,,,,,,,,,,,,,,240011,,240011,,,instructions,"[{""page_index"":0,""viewing_time"":81808},{""page_index"":1,""viewing_time"":76658},{""page_index"":2,""viewing_time"":43945},{""page_index"":3,""viewing_time"":37599}]",166
,,,,,,,,,,,,,,,72849,,72850,,,instructions,"[{""page_index"":0,""viewing_time"":18040},{""page_index"":1,""viewing_time"":3520},{""page_index"":2,""viewing_time"":2023},{""page_index"":1,""viewing_time"":10730},{""page_index"":2,""viewing_time"":25984},{""page_index"":3,""viewing_time"":12552}]",167
,,,,,,,,,,,,,,,99662,,99664,,,instructions,"[{""page_index"":0,""viewing_time"":37500},{""page_index"":1,""viewing_time"":20329},{""page_index"":2,""viewing_time"":41830}]",168
,,,,,,,,,,,,,,,21239,,159831,,,instructions,"[{""page_index"":0,""viewing_time"":18669},{""page_index"":1,""viewing_time"":1647},{""page_index"":2,""viewing_time"":921}]",168
,,,,,,,,,,,,,,,33556,,211287,,,instructions,"[{""page_index"":0,""viewing_time"":18475},{""page_index"":1,""viewing_time"":5014},{""page_index"":2,""viewing_time"":10065}]",168
,,,,,,,,,,,,,,,26187,,253637,,,instructions,"[{""page_index"":0,""viewing_time"":16889},{""page_index"":1,""viewing_time"":5825},{""page_index"":2,""viewing_time"":3472}]",168
,,,,,,,,,,,,,,,338568,,338570,,,instructions,"[{""page_index"":0,""viewing_time"":56348},{""page_index"":1,""viewing_time"":145721},{""page_index"":2,""viewing_time"":103854},{""page_index"":3,""viewing_time"":32642}]",169
,,,,,,,,,,,,,,,146857,,146859,,,instructions,"[{""page_index"":0,""viewing_time"":64629},{""page_index"":1,""viewing_time"":26972},{""page_index"":2,""viewing_time"":33481},{""page_index"":3,""viewing_time"":21775}]",170
,,,,,,,,,,,,,,,48547,,232531,,,instructions,"[{""page_index"":0,""viewing_time"":12138},{""page_index"":1,""viewing_time"":4728},{""page_index"":2,""viewing_time"":13922},{""page_index"":3,""viewing_time"":17759}]",170
,,,,,,,,,,,,,,,218415,,218417,,,instructions,"[{""page_index"":0,""viewing_time"":72129},{""page_index"":1,""viewing_time"":37670},{""page_index"":2,""viewing_time"":74562},{""page_index"":3,""viewing_time"":34053}]",171
,,,,,,,,,,,,,,,5977,,359981,,,instructions,"[{""page_index"":0,""viewing_time"":1613},{""page_index"":1,""viewing_time"":943},{""page_index"":2,""viewing_time"":2390},{""page_index"":3,""viewing_time"":1030}]",171
,,,,,,,,,,,,,,,84988,,84991,,,instructions,"[{""page_index"":0,""viewing_time"":38761},{""page_index"":1,""viewing_time"":18479},{""page_index"":2,""viewing_time"":14687},{""page_index"":3,""viewing_time"":13057}]",172
,,,,,,,,,,,,,,,52856,,160564,,,instructions,"[{""page_index"":0,""viewing_time"":15845},{""page_index"":1,""viewing_time"":15024},{""page_index"":2,""viewing_time"":14640},{""page_index"":3,""viewing_time"":7344}]",172
,,,,,,,,,,,,,,,118823,,118825,,,instructions,"[{""page_index"":0,""viewing_time"":39478},{""page_index"":1,""viewing_time"":31479},{""page_index"":2,""viewing_time"":22000},{""page_index"":3,""viewing_time"":25864}]",173
,,,,,,,,,,,,,,,23284,,196175,,,instructions,"[{""page_index"":0,""viewing_time"":3739},{""page_index"":1,""viewing_time"":4929},{""page_index"":2,""viewing_time"":8415},{""page_index"":3,""viewing_time"":6200}]",173
,,,,,,,,,,,,,,,82987,,82988,,,instructions,"[{""page_index"":0,""viewing_time"":30209},{""page_index"":1,""viewing_time"":13834},{""page_index"":2,""viewing_time"":27286},{""page_index"":3,""viewing_time"":11658}]",174
,,,,,,,,,,,,,,,30915,,153016,,,instructions,"[{""page_index"":0,""viewing_time"":7470},{""page_index"":1,""viewing_time"":15259},{""page_index"":2,""viewing_time"":5351},{""page_index"":3,""viewing_time"":2835}]",174
,,,,,,,,,,,,,,,137593,,137594,,,instructions,"[{""page_index"":0,""viewing_time"":38052},{""page_index"":1,""viewing_time"":46222},{""page_index"":2,""viewing_time"":31439},{""page_index"":3,""viewing_time"":21878}]",175
,,,,,,,,,,,,,,,212807,,212807,,,instructions,"[{""page_index"":0,""viewing_time"":75754},{""page_index"":1,""viewing_time"":55721},{""page_index"":2,""viewing_time"":49638},{""page_index"":3,""viewing_time"":31693}]",176
,,,,,,,,,,,,,,,106674,,358604,,,instructions,"[{""page_index"":0,""viewing_time"":35833},{""page_index"":1,""viewing_time"":24594},{""page_index"":2,""viewing_time"":28493},{""page_index"":3,""viewing_time"":17753}]",176
,,,,,,,,,,,,,,,5971,,416935,,,instructions,"[{""page_index"":0,""viewing_time"":2151},{""page_index"":1,""viewing_time"":912},{""page_index"":2,""viewing_time"":1860},{""page_index"":3,""viewing_time"":1048}]",176
,,,,,,,,,,,,,,,98255,,98256,,,instructions,"[{""page_index"":0,""viewing_time"":41649},{""page_index"":1,""viewing_time"":30894},{""page_index"":2,""viewing_time"":25711}]",177
,,,,,,,,,,,,,,,112519,,112520,,,instructions,"[{""page_index"":0,""viewing_time"":38829},{""page_index"":1,""viewing_time"":19264},{""page_index"":2,""viewing_time"":19233},{""page_index"":1,""viewing_time"":19526},{""page_index"":0,""viewing_time"":12514},{""page_index"":1,""viewing_time"":2113},{""page_index"":2,""viewing_time"":1039}]",178
,,,,,,,,,,,,,,,65283,,65286,,,instructions,"[{""page_index"":0,""viewing_time"":25901},{""page_index"":1,""viewing_time"":17903},{""page_index"":2,""viewing_time"":21475}]",179
,,,,,,,,,,,,,,,77575,,194687,,,instructions,"[{""page_index"":0,""viewing_time"":19445},{""page_index"":1,""viewing_time"":18530},{""page_index"":2,""viewing_time"":10945},{""page_index"":1,""viewing_time"":4621},{""page_index"":0,""viewing_time"":14289},{""page_index"":1,""viewing_time"":5445},{""page_index"":2,""viewing_time"":4298}]",179
,,,,,,,,,,,,,,,11632,,11634,,,instructions,"[{""page_index"":0,""viewing_time"":2632},{""page_index"":1,""viewing_time"":3907},{""page_index"":2,""viewing_time"":2870},{""page_index"":3,""viewing_time"":2223}]",180
,,,,,,,,,,,,,,,105854,,105856,,,instructions,"[{""page_index"":0,""viewing_time"":29858},{""page_index"":1,""viewing_time"":22140},{""page_index"":2,""viewing_time"":35609},{""page_index"":3,""viewing_time"":18247}]",181
,,,,,,,,,,,,,,,18469,,161319,,,instructions,"[{""page_index"":0,""viewing_time"":7101},{""page_index"":1,""viewing_time"":8715},{""page_index"":2,""viewing_time"":1911},{""page_index"":3,""viewing_time"":741}]",181
,,,,,,,,,,,,,,,20459,,20460,,,instructions,"[{""page_index"":0,""viewing_time"":1885},{""page_index"":1,""viewing_time"":1271},{""page_index"":2,""viewing_time"":1124},{""page_index"":3,""viewing_time"":16178}]",182
,,,,,,,,,,,,,,,17338,,86004,,,instructions,"[{""page_index"":0,""viewing_time"":12352},{""page_index"":1,""viewing_time"":2171},{""page_index"":0,""viewing_time"":765},{""page_index"":1,""viewing_time"":551},{""page_index"":2,""viewing_time"":788},{""page_index"":3,""viewing_time"":710}]",182
,,,,,,,,,,,,,,,3981,,109223,,,instructions,"[{""page_index"":0,""viewing_time"":1944},{""page_index"":1,""viewing_time"":618},{""page_index"":2,""viewing_time"":720},{""page_index"":3,""viewing_time"":698}]",182
,,,,,,,,,,,,,,,161569,,161571,,,instructions,"[{""page_index"":0,""viewing_time"":54390},{""page_index"":1,""viewing_time"":62581},{""page_index"":2,""viewing_time"":24765},{""page_index"":3,""viewing_time"":19831}]",183
,,,,,,,,,,,,,,,37614,,247014,,,instructions,"[{""page_index"":0,""viewing_time"":2567},{""page_index"":1,""viewing_time"":20654},{""page_index"":2,""viewing_time"":5848},{""page_index"":3,""viewing_time"":8544}]",183
,,,,,,,,,,,,,,,192644,,192645,,,instructions,"[{""page_index"":0,""viewing_time"":93343},{""page_index"":1,""viewing_time"":36860},{""page_index"":2,""viewing_time"":33205},{""page_index"":3,""viewing_time"":29235}]",184
,,,,,,,,,,,,,,,199305,,199307,,,instructions,"[{""page_index"":0,""viewing_time"":59820},{""page_index"":1,""viewing_time"":45942},{""page_index"":2,""viewing_time"":52505},{""page_index"":3,""viewing_time"":41036}]",185
,,,,,,,,,,,,,,,179689,,179691,,,instructions,"[{""page_index"":0,""viewing_time"":77524},{""page_index"":1,""viewing_time"":72766},{""page_index"":2,""viewing_time"":29397}]",186
,,,,,,,,,,,,,,,81350,,81350,,,instructions,"[{""page_index"":0,""viewing_time"":28669},{""page_index"":1,""viewing_time"":915},{""page_index"":0,""viewing_time"":845},{""page_index"":1,""viewing_time"":1995},{""page_index"":0,""viewing_time"":2943},{""page_index"":1,""viewing_time"":26367},{""page_index"":2,""viewing_time"":19615}]",187
,,,,,,,,,,,,,,,101268,,101269,,,instructions,"[{""page_index"":0,""viewing_time"":34869},{""page_index"":1,""viewing_time"":32299},{""page_index"":2,""viewing_time"":13628},{""page_index"":3,""viewing_time"":20469}]",188
,,,,,,,,,,,,,,,368949,,368951,,,instructions,"[{""page_index"":0,""viewing_time"":150146},{""page_index"":1,""viewing_time"":72327},{""page_index"":2,""viewing_time"":90041},{""page_index"":3,""viewing_time"":56434}]",189
,,,,,,,,,,,,,,,192201,,192201,,,instructions,"[{""page_index"":0,""viewing_time"":68613},{""page_index"":1,""viewing_time"":37856},{""page_index"":2,""viewing_time"":55646},{""page_index"":3,""viewing_time"":30086}]",190
,,,,,,,,,,,,,,,24491,,24491,,,instructions,"[{""page_index"":0,""viewing_time"":11404},{""page_index"":1,""viewing_time"":6646},{""page_index"":2,""viewing_time"":6440}]",191
,,,,,,,,,,,,,,,89893,,89895,,,instructions,"[{""page_index"":0,""viewing_time"":26822},{""page_index"":1,""viewing_time"":24760},{""page_index"":2,""viewing_time"":22283},{""page_index"":3,""viewing_time"":16027}]",192
,,,,,,,,,,,,,,,53088,,53098,,,instructions,"[{""page_index"":0,""viewing_time"":19771},{""page_index"":1,""viewing_time"":12204},{""page_index"":2,""viewing_time"":21110}]",193
,,,,,,,,,,,,,,,42205,,133670,,,instructions,"[{""page_index"":0,""viewing_time"":18733},{""page_index"":1,""viewing_time"":21811},{""page_index"":2,""viewing_time"":1659}]",193
,,,,,,,,,,,,,,,123952,,123954,,,instructions,"[{""page_index"":0,""viewing_time"":21237},{""page_index"":1,""viewing_time"":77674},{""page_index"":2,""viewing_time"":18860},{""page_index"":3,""viewing_time"":6180}]",194
,,,,,,,,,,,,,,,74461,,231727,,,instructions,"[{""page_index"":0,""viewing_time"":6615},{""page_index"":1,""viewing_time"":8184},{""page_index"":2,""viewing_time"":10240},{""page_index"":3,""viewing_time"":8233},{""page_index"":2,""viewing_time"":1952},{""page_index"":1,""viewing_time"":7212},{""page_index"":0,""viewing_time"":27157},{""page_index"":1,""viewing_time"":1394},{""page_index"":2,""viewing_time"":2102},{""page_index"":3,""viewing_time"":1371}]",194
,,,,,,,,,,,,,,,31234,,287777,,,instructions,"[{""page_index"":0,""viewing_time"":19513},{""page_index"":1,""viewing_time"":708},{""page_index"":2,""viewing_time"":7824},{""page_index"":3,""viewing_time"":3188}]",194
,,,,,,,,,,,,,,,48762,,370535,,,instructions,"[{""page_index"":0,""viewing_time"":4465},{""page_index"":1,""viewing_time"":1255},{""page_index"":0,""viewing_time"":759},{""page_index"":1,""viewing_time"":21378},{""page_index"":2,""viewing_time"":10096},{""page_index"":3,""viewing_time"":10808}]",194
,,,,,,,,,,,,,,,200670,,200672,,,instructions,"[{""page_index"":0,""viewing_time"":85853},{""page_index"":1,""viewing_time"":64423},{""page_index"":2,""viewing_time"":50394}]",195
,,,,,,,,,,,,,,,159718,,159718,,,instructions,"[{""page_index"":0,""viewing_time"":54440},{""page_index"":1,""viewing_time"":37073},{""page_index"":2,""viewing_time"":29890},{""page_index"":3,""viewing_time"":38313}]",196
,,,,,,,,,,,,,,,26862,,226386,,,instructions,"[{""page_index"":0,""viewing_time"":10413},{""page_index"":1,""viewing_time"":4156},{""page_index"":2,""viewing_time"":10003},{""page_index"":3,""viewing_time"":2289}]",196
,,,,,,,,,,,,,,,53431,,300235,,,instructions,"[{""page_index"":0,""viewing_time"":18012},{""page_index"":1,""viewing_time"":18398},{""page_index"":2,""viewing_time"":8018},{""page_index"":3,""viewing_time"":9003}]",196
,,,,,,,,,,,,,,,52550,,386830,,,instructions,"[{""page_index"":0,""viewing_time"":32331},{""page_index"":1,""viewing_time"":5793},{""page_index"":2,""viewing_time"":12673},{""page_index"":3,""viewing_time"":1752}]",196
,,,,,,,,,,,,,,,42624,,463857,,,instructions,"[{""page_index"":0,""viewing_time"":6260},{""page_index"":1,""viewing_time"":11510},{""page_index"":2,""viewing_time"":16722},{""page_index"":3,""viewing_time"":8132}]",196
,,,,,,,,,,,,,,,10599,,515955,,,instructions,"[{""page_index"":0,""viewing_time"":6534},{""page_index"":1,""viewing_time"":1098},{""page_index"":2,""viewing_time"":1587},{""page_index"":3,""viewing_time"":1379}]",196
,,,,,,,,,,,,,,,162083,,162084,,,instructions,"[{""page_index"":0,""viewing_time"":53574},{""page_index"":1,""viewing_time"":46376},{""page_index"":2,""viewing_time"":32684},{""page_index"":3,""viewing_time"":29448}]",197
,,,,,,,,,,,,,,,29790,,236161,,,instructions,"[{""page_index"":0,""viewing_time"":7815},{""page_index"":1,""viewing_time"":3564},{""page_index"":2,""viewing_time"":13659},{""page_index"":3,""viewing_time"":4751}]",197
,,,,,,,,,,,,,,,102610,,102612,,,instructions,"[{""page_index"":0,""viewing_time"":32422},{""page_index"":1,""viewing_time"":30599},{""page_index"":2,""viewing_time"":20499},{""page_index"":3,""viewing_time"":19089}]",198
,,,,,,,,,,,,,,,39157,,169256,,,instructions,"[{""page_index"":0,""viewing_time"":15745},{""page_index"":1,""viewing_time"":11419},{""page_index"":2,""viewing_time"":10696},{""page_index"":3,""viewing_time"":1295}]",198
,,,,,,,,,,,,,,,70841,,70842,,,instructions,"[{""page_index"":0,""viewing_time"":34873},{""page_index"":1,""viewing_time"":23450},{""page_index"":2,""viewing_time"":12517}]",199
,,,,,,,,,,,,,,,100264,,100272,,,instructions,"[{""page_index"":0,""viewing_time"":36258},{""page_index"":1,""viewing_time"":16039},{""page_index"":2,""viewing_time"":28464},{""page_index"":3,""viewing_time"":19497}]",200
,,,,,,,,,,,,,,,44701,,179448,,,instructions,"[{""page_index"":0,""viewing_time"":16954},{""page_index"":1,""viewing_time"":21692},{""page_index"":2,""viewing_time"":4037},{""page_index"":3,""viewing_time"":2013}]",200
,,,,,,,,,,,,,,,95779,,95782,,,instructions,"[{""page_index"":0,""viewing_time"":47962},{""page_index"":1,""viewing_time"":31851},{""page_index"":2,""viewing_time"":15962}]",201
,,,,,,,,,,,,,,,7745,,138427,,,instructions,"[{""page_index"":0,""viewing_time"":5531},{""page_index"":1,""viewing_time"":1529},{""page_index"":2,""viewing_time"":683}]",201
,,,,,,,,,,,,,,,109179,,109180,,,instructions,"[{""page_index"":0,""viewing_time"":47832},{""page_index"":1,""viewing_time"":29389},{""page_index"":2,""viewing_time"":19017},{""page_index"":3,""viewing_time"":12941}]",202
,,,,,,,,,,,,,,,142774,,142776,,,instructions,"[{""page_index"":0,""viewing_time"":83958},{""page_index"":1,""viewing_time"":832},{""page_index"":0,""viewing_time"":807},{""page_index"":1,""viewing_time"":472},{""page_index"":0,""viewing_time"":1929},{""page_index"":1,""viewing_time"":37945},{""page_index"":2,""viewing_time"":16830}]",203
,,,,,,,,,,,,,,,52694,,239648,,,instructions,"[{""page_index"":0,""viewing_time"":3095},{""page_index"":1,""viewing_time"":17509},{""page_index"":2,""viewing_time"":32090}]",203
,,,,,,,,,,,,,,,40103,,332669,,,instructions,"[{""page_index"":0,""viewing_time"":7678},{""page_index"":1,""viewing_time"":21813},{""page_index"":2,""viewing_time"":10612}]",203
,,,,,,,,,,,,,,,138421,,138423,,,instructions,"[{""page_index"":0,""viewing_time"":49022},{""page_index"":1,""viewing_time"":38329},{""page_index"":2,""viewing_time"":33480},{""page_index"":3,""viewing_time"":17587}]",204
,,,,,,,,,,,,,,,66217,,66219,,,instructions,"[{""page_index"":0,""viewing_time"":27547},{""page_index"":1,""viewing_time"":23080},{""page_index"":2,""viewing_time"":15587}]",205
,,,,,,,,,,,,,,,158209,,158213,,,instructions,"[{""page_index"":0,""viewing_time"":43067},{""page_index"":1,""viewing_time"":36921},{""page_index"":2,""viewing_time"":49892},{""page_index"":3,""viewing_time"":28327}]",206
,,,,,,,,,,,,,,,88932,,88933,,,instructions,"[{""page_index"":0,""viewing_time"":49781},{""page_index"":1,""viewing_time"":162},{""page_index"":2,""viewing_time"":1569},{""page_index"":1,""viewing_time"":26124},{""page_index"":2,""viewing_time"":11295}]",207
,,,,,,,,,,,,,,,60591,,60591,,,instructions,"[{""page_index"":0,""viewing_time"":13984},{""page_index"":1,""viewing_time"":23463},{""page_index"":2,""viewing_time"":23143}]",208
,,,,,,,,,,,,,,,47346,,130014,,,instructions,"[{""page_index"":0,""viewing_time"":7602},{""page_index"":1,""viewing_time"":7730},{""page_index"":2,""viewing_time"":18045},{""page_index"":1,""viewing_time"":661},{""page_index"":0,""viewing_time"":11864},{""page_index"":1,""viewing_time"":982},{""page_index"":2,""viewing_time"":461}]",208
,,,,,,,,,,,,,,,472726,,472728,,,instructions,"[{""page_index"":0,""viewing_time"":234742},{""page_index"":1,""viewing_time"":117671},{""page_index"":2,""viewing_time"":50825},{""page_index"":3,""viewing_time"":44058},{""page_index"":2,""viewing_time"":6494},{""page_index"":1,""viewing_time"":5263},{""page_index"":2,""viewing_time"":4168},{""page_index"":3,""viewing_time"":9503}]",209
,,,,,,,,,,,,,,,117474,,117475,,,instructions,"[{""page_index"":0,""viewing_time"":69514},{""page_index"":1,""viewing_time"":31175},{""page_index"":2,""viewing_time"":16784}]",210
,,,,,,,,,,,,,,,102477,,102479,,,instructions,"[{""page_index"":0,""viewing_time"":29485},{""page_index"":1,""viewing_time"":40153},{""page_index"":2,""viewing_time"":21225},{""page_index"":3,""viewing_time"":11612}]",211
,,,,,,,,,,,,,,,145420,,145420,,,instructions,"[{""page_index"":0,""viewing_time"":36867},{""page_index"":1,""viewing_time"":48250},{""page_index"":2,""viewing_time"":34887},{""page_index"":3,""viewing_time"":25415}]",212
,,,,,,,,,,,,,,,265613,,265613,,,instructions,"[{""page_index"":0,""viewing_time"":119779},{""page_index"":1,""viewing_time"":75887},{""page_index"":2,""viewing_time"":46673},{""page_index"":3,""viewing_time"":23274}]",213
,,,,,,,,,,,,,,,15735,,312747,,,instructions,"[{""page_index"":0,""viewing_time"":4103},{""page_index"":1,""viewing_time"":2920},{""page_index"":2,""viewing_time"":7967},{""page_index"":3,""viewing_time"":744}]",213
,,,,,,,,,,,,,,,219473,,219476,,,instructions,"[{""page_index"":0,""viewing_time"":22347},{""page_index"":1,""viewing_time"":17732},{""page_index"":2,""viewing_time"":16048},{""page_index"":1,""viewing_time"":140848},{""page_index"":2,""viewing_time"":22494}]",214
,,,,,,,,,,,,,,,229866,,229869,,,instructions,"[{""page_index"":0,""viewing_time"":81237},{""page_index"":1,""viewing_time"":49573},{""page_index"":2,""viewing_time"":58525},{""page_index"":3,""viewing_time"":40528}]",215
,,,,,,,,,,,,,,,11706,,11707,,,instructions,"[{""page_index"":0,""viewing_time"":1890},{""page_index"":1,""viewing_time"":6944},{""page_index"":2,""viewing_time"":2871}]",216
,,,,,,,,,,,,,,,112330,,112330,,,instructions,"[{""page_index"":0,""viewing_time"":30721},{""page_index"":1,""viewing_time"":24922},{""page_index"":2,""viewing_time"":45013},{""page_index"":3,""viewing_time"":11673}]",217
,,,,,,,,,,,,,,,62119,,210998,,,instructions,"[{""page_index"":0,""viewing_time"":8800},{""page_index"":1,""viewing_time"":19140},{""page_index"":2,""viewing_time"":24738},{""page_index"":3,""viewing_time"":9441}]",217
,,,,,,,,,,,,,,,24682,,262546,,,instructions,"[{""page_index"":0,""viewing_time"":6132},{""page_index"":1,""viewing_time"":2739},{""page_index"":2,""viewing_time"":12889},{""page_index"":3,""viewing_time"":2921}]",217
,,,,,,,,,,,,,,,7143,,290220,,,instructions,"[{""page_index"":0,""viewing_time"":1142},{""page_index"":1,""viewing_time"":1514},{""page_index"":2,""viewing_time"":1604},{""page_index"":3,""viewing_time"":2883}]",217
,,,,,,,,,,,,,,,156347,,471971,,,instructions,"[{""page_index"":0,""viewing_time"":72420},{""page_index"":1,""viewing_time"":37173},{""page_index"":2,""viewing_time"":36147},{""page_index"":3,""viewing_time"":10607}]",217
,,,,,,,,,,,,,,,4956,,501064,,,instructions,"[{""page_index"":0,""viewing_time"":2271},{""page_index"":1,""viewing_time"":1134},{""page_index"":2,""viewing_time"":726},{""page_index"":3,""viewing_time"":824}]",217
,,,,,,,,,,,,,,,4467,,529241,,,instructions,"[{""page_index"":0,""viewing_time"":1136},{""page_index"":1,""viewing_time"":1178},{""page_index"":2,""viewing_time"":1134},{""page_index"":3,""viewing_time"":1019}]",217
,,,,,,,,,,,,,,,6424,,637253,,,instructions,"[{""page_index"":0,""viewing_time"":1806},{""page_index"":1,""viewing_time"":1682},{""page_index"":2,""viewing_time"":1480},{""page_index"":3,""viewing_time"":1455}]",217
,,,,,,,,,,,,,,,106027,,106029,,,instructions,"[{""page_index"":0,""viewing_time"":42673},{""page_index"":1,""viewing_time"":45346},{""page_index"":2,""viewing_time"":18006}]",218
,,,,,,,,,,,,,,,170554,,170557,,,instructions,"[{""page_index"":0,""viewing_time"":66958},{""page_index"":1,""viewing_time"":31084},{""page_index"":2,""viewing_time"":39167},{""page_index"":3,""viewing_time"":33341}]",219
,,,,,,,,,,,,,,,62684,,275069,,,instructions,"[{""page_index"":0,""viewing_time"":11710},{""page_index"":1,""viewing_time"":23038},{""page_index"":2,""viewing_time"":13680},{""page_index"":3,""viewing_time"":14254}]",219
,,,,,,,,,,,,,,,18275,,336109,,,instructions,"[{""page_index"":0,""viewing_time"":2599},{""page_index"":1,""viewing_time"":2483},{""page_index"":2,""viewing_time"":3120},{""page_index"":1,""viewing_time"":7264},{""page_index"":2,""viewing_time"":1680},{""page_index"":3,""viewing_time"":1127}]",219
,,,,,,,,,,,,,,,126935,,126937,,,instructions,"[{""page_index"":0,""viewing_time"":64180},{""page_index"":1,""viewing_time"":35032},{""page_index"":2,""viewing_time"":27722}]",220
,,,,,,,,,,,,,,,182408,,182410,,,instructions,"[{""page_index"":0,""viewing_time"":72616},{""page_index"":1,""viewing_time"":64764},{""page_index"":2,""viewing_time"":25031},{""page_index"":3,""viewing_time"":19997}]",221
,,,,,,,,,,,,,,,27454,,245899,,,instructions,"[{""page_index"":0,""viewing_time"":4200},{""page_index"":1,""viewing_time"":1094},{""page_index"":2,""viewing_time"":21489},{""page_index"":3,""viewing_time"":670}]",221
,,,,,,,,,,,,,,,124823,,124825,,,instructions,"[{""page_index"":0,""viewing_time"":44245},{""page_index"":1,""viewing_time"":38857},{""page_index"":2,""viewing_time"":15902},{""page_index"":3,""viewing_time"":25815}]",222
,,,,,,,,,,,,,,,379467,,379468,,,instructions,"[{""page_index"":0,""viewing_time"":72458},{""page_index"":1,""viewing_time"":194199},{""page_index"":2,""viewing_time"":82888},{""page_index"":3,""viewing_time"":29921}]",223
,,,,,,,,,,,,,,,81427,,519242,,,instructions,"[{""page_index"":0,""viewing_time"":30907},{""page_index"":1,""viewing_time"":10623},{""page_index"":2,""viewing_time"":34224},{""page_index"":3,""viewing_time"":5672}]",223
,,,,,,,,,,,,,,,50503,,50505,,,instructions,"[{""page_index"":0,""viewing_time"":19526},{""page_index"":1,""viewing_time"":7946},{""page_index"":2,""viewing_time"":7342},{""page_index"":3,""viewing_time"":15689}]",224
,,,,,,,,,,,,,,,32352,,111450,,,instructions,"[{""page_index"":0,""viewing_time"":6757},{""page_index"":1,""viewing_time"":11698},{""page_index"":2,""viewing_time"":9904},{""page_index"":3,""viewing_time"":3992}]",224
,,,,,,,,,,,,,,,115299,,115299,,,instructions,"[{""page_index"":0,""viewing_time"":55321},{""page_index"":1,""viewing_time"":1416},{""page_index"":0,""viewing_time"":8697},{""page_index"":1,""viewing_time"":40695},{""page_index"":2,""viewing_time"":9170}]",225
,,,,,,,,,,,,,,,130446,,130447,,,instructions,"[{""page_index"":0,""viewing_time"":52220},{""page_index"":1,""viewing_time"":42586},{""page_index"":2,""viewing_time"":35638}]",226
,,,,,,,,,,,,,,,85699,,85700,,,instructions,"[{""page_index"":0,""viewing_time"":32607},{""page_index"":1,""viewing_time"":31456},{""page_index"":2,""viewing_time"":5396},{""page_index"":3,""viewing_time"":16238}]",227
,,,,,,,,,,,,,,,91644,,91647,,,instructions,"[{""page_index"":0,""viewing_time"":41798},{""page_index"":1,""viewing_time"":30874},{""page_index"":2,""viewing_time"":18970}]",228
,,,,,,,,,,,,,,,156886,,156889,,,instructions,"[{""page_index"":0,""viewing_time"":50839},{""page_index"":1,""viewing_time"":54952},{""page_index"":2,""viewing_time"":30895},{""page_index"":3,""viewing_time"":20196}]",229
,,,,,,,,,,,,,,,177872,,177873,,,instructions,"[{""page_index"":0,""viewing_time"":58782},{""page_index"":1,""viewing_time"":56497},{""page_index"":2,""viewing_time"":29815},{""page_index"":3,""viewing_time"":32776}]",230
,,,,,,,,,,,,,,,99581,,328294,,,instructions,"[{""page_index"":0,""viewing_time"":23861},{""page_index"":1,""viewing_time"":25056},{""page_index"":2,""viewing_time"":37952},{""page_index"":3,""viewing_time"":12711}]",230
,,,,,,,,,,,,,,,61322,,61325,,,instructions,"[{""page_index"":0,""viewing_time"":39153},{""page_index"":1,""viewing_time"":3990},{""page_index"":2,""viewing_time"":1546},{""page_index"":1,""viewing_time"":711},{""page_index"":0,""viewing_time"":1970},{""page_index"":1,""viewing_time"":5360},{""page_index"":2,""viewing_time"":8591}]",231
,,,,,,,,,,,,,,,115687,,218715,,,instructions,"[{""page_index"":0,""viewing_time"":36118},{""page_index"":1,""viewing_time"":47767},{""page_index"":2,""viewing_time"":31801}]",231
,,,,,,,,,,,,,,,170788,,170788,,,instructions,"[{""page_index"":0,""viewing_time"":22855},{""page_index"":1,""viewing_time"":18638},{""page_index"":2,""viewing_time"":17871},{""page_index"":3,""viewing_time"":111422}]",232
,,,,,,,,,,,,,,,143227,,143229,,,instructions,"[{""page_index"":0,""viewing_time"":61599},{""page_index"":1,""viewing_time"":38155},{""page_index"":2,""viewing_time"":27918},{""page_index"":3,""viewing_time"":15554}]",233
,,,,,,,,,,,,,,,200797,,200802,,,instructions,"[{""page_index"":0,""viewing_time"":59330},{""page_index"":1,""viewing_time"":85511},{""page_index"":2,""viewing_time"":32473},{""page_index"":3,""viewing_time"":23481}]",234
,,,,,,,,,,,,,,,185252,,453035,,,instructions,"[{""page_index"":0,""viewing_time"":46877},{""page_index"":1,""viewing_time"":44849},{""page_index"":2,""viewing_time"":53652},{""page_index"":3,""viewing_time"":39872}]",234
,,,,,,,,,,,,,,,29410,,531801,,,instructions,"[{""page_index"":0,""viewing_time"":4403},{""page_index"":1,""viewing_time"":5155},{""page_index"":2,""viewing_time"":14024},{""page_index"":3,""viewing_time"":5827}]",234
,,,,,,,,,,,,,,,429631,,429633,,,instructions,"[{""page_index"":0,""viewing_time"":94847},{""page_index"":1,""viewing_time"":37459},{""page_index"":2,""viewing_time"":42655},{""page_index"":3,""viewing_time"":41553},{""page_index"":2,""viewing_time"":2117},{""page_index"":1,""viewing_time"":19880},{""page_index"":0,""viewing_time"":39100},{""page_index"":1,""viewing_time"":22484},{""page_index"":2,""viewing_time"":89594},{""page_index"":3,""viewing_time"":39941}]",235
,,,,,,,,,,,,,,,238756,,238758,,,instructions,"[{""page_index"":0,""viewing_time"":132228},{""page_index"":1,""viewing_time"":51872},{""page_index"":2,""viewing_time"":22864},{""page_index"":3,""viewing_time"":31792}]",236
,,,,,,,,,,,,,,,4926,,314036,,,instructions,"[{""page_index"":0,""viewing_time"":1702},{""page_index"":1,""viewing_time"":1656},{""page_index"":2,""viewing_time"":840},{""page_index"":3,""viewing_time"":728}]",236
,,,,,,,,,,,,,,,18222,,352204,,,instructions,"[{""page_index"":0,""viewing_time"":7037},{""page_index"":1,""viewing_time"":2192},{""page_index"":2,""viewing_time"":5209},{""page_index"":3,""viewing_time"":3783}]",236
,,,,,,,,,,,,,,,175045,,175046,,,instructions,"[{""page_index"":0,""viewing_time"":102258},{""page_index"":1,""viewing_time"":24447},{""page_index"":2,""viewing_time"":14570},{""page_index"":3,""viewing_time"":33769}]",237
,,,,,,,,,,,,,,,168927,,168929,,,instructions,"[{""page_index"":0,""viewing_time"":63755},{""page_index"":1,""viewing_time"":54273},{""page_index"":2,""viewing_time"":26647},{""page_index"":3,""viewing_time"":24249}]",238
,,,,,,,,,,,,,,,38930,,38932,,,instructions,"[{""page_index"":0,""viewing_time"":16720},{""page_index"":1,""viewing_time"":12200},{""page_index"":2,""viewing_time"":10009}]",239
,,,,,,,,,,,,,,,30889,,100699,,,instructions,"[{""page_index"":0,""viewing_time"":8509},{""page_index"":1,""viewing_time"":17081},{""page_index"":2,""viewing_time"":5299}]",239
,,,,,,,,,,,,,,,91954,,91956,,,instructions,"[{""page_index"":0,""viewing_time"":37907},{""page_index"":1,""viewing_time"":26017},{""page_index"":2,""viewing_time"":28025}]",240
,,,,,,,,,,,,,,,31607,,147544,,,instructions,"[{""page_index"":0,""viewing_time"":19771},{""page_index"":1,""viewing_time"":8753},{""page_index"":2,""viewing_time"":3081}]",240
,,,,,,,,,,,,,,,107621,,107621,,,instructions,"[{""page_index"":0,""viewing_time"":32723},{""page_index"":1,""viewing_time"":49584},{""page_index"":2,""viewing_time"":25313}]",241
,,,,,,,,,,,,,,,50349,,50351,,,instructions,"[{""page_index"":0,""viewing_time"":19751},{""page_index"":1,""viewing_time"":22230},{""page_index"":2,""viewing_time"":8367}]",242
,,,,,,,,,,,,,,,372546,,372547,,,instructions,"[{""page_index"":0,""viewing_time"":100269},{""page_index"":1,""viewing_time"":91772},{""page_index"":2,""viewing_time"":112280},{""page_index"":3,""viewing_time"":68225}]",243
,,,,,,,,,,,,,,,73426,,73428,,,instructions,"[{""page_index"":0,""viewing_time"":21678},{""page_index"":1,""viewing_time"":19316},{""page_index"":2,""viewing_time"":19277},{""page_index"":3,""viewing_time"":13155}]",244
,,,,,,,,,,,,,,,204989,,204990,,,instructions,"[{""page_index"":0,""viewing_time"":77614},{""page_index"":1,""viewing_time"":42319},{""page_index"":2,""viewing_time"":48656},{""page_index"":3,""viewing_time"":36399}]",245
,,,,,,,,,,,,,,,336607,,336609,,,instructions,"[{""page_index"":0,""viewing_time"":118885},{""page_index"":1,""viewing_time"":116231},{""page_index"":2,""viewing_time"":61141},{""page_index"":3,""viewing_time"":40349}]",246
,,,,,,,,,,,,,,,134134,,134135,,,instructions,"[{""page_index"":0,""viewing_time"":43393},{""page_index"":1,""viewing_time"":30170},{""page_index"":2,""viewing_time"":33335},{""page_index"":3,""viewing_time"":27234}]",247
,,,,,,,,,,,,,,,54400,,54403,,,instructions,"[{""page_index"":0,""viewing_time"":8366},{""page_index"":1,""viewing_time"":19377},{""page_index"":2,""viewing_time"":26655}]",248
,,,,,,,,,,,,,,,61054,,61056,,,instructions,"[{""page_index"":0,""viewing_time"":7045},{""page_index"":1,""viewing_time"":45400},{""page_index"":2,""viewing_time"":5152},{""page_index"":3,""viewing_time"":3455}]",249
,,,,,,,,,,,,,,,98339,,98341,,,instructions,"[{""page_index"":0,""viewing_time"":40626},{""page_index"":1,""viewing_time"":24135},{""page_index"":2,""viewing_time"":19512},{""page_index"":3,""viewing_time"":14064}]",250
,,,,,,,,,,,,,,,45432,,45433,,,instructions,"[{""page_index"":0,""viewing_time"":13960},{""page_index"":1,""viewing_time"":16568},{""page_index"":2,""viewing_time"":9391},{""page_index"":3,""viewing_time"":5512}]",251
,,,,,,,,,,,,,,,16399,,84296,,,instructions,"[{""page_index"":0,""viewing_time"":7063},{""page_index"":1,""viewing_time"":4808},{""page_index"":2,""viewing_time"":2200},{""page_index"":3,""viewing_time"":2328}]",251
,,,,,,,,,,,,,,,23070,,121960,,,instructions,"[{""page_index"":0,""viewing_time"":9175},{""page_index"":1,""viewing_time"":4319},{""page_index"":2,""viewing_time"":5936},{""page_index"":3,""viewing_time"":3640}]",251
,,,,,,,,,,,,,,,211967,,211971,,,instructions,"[{""page_index"":0,""viewing_time"":59868},{""page_index"":1,""viewing_time"":44305},{""page_index"":2,""viewing_time"":68090},{""page_index"":3,""viewing_time"":39700}]",252
,,,,,,,,,,,,,,,71039,,71041,,,instructions,"[{""page_index"":0,""viewing_time"":28001},{""page_index"":1,""viewing_time"":1440},{""page_index"":0,""viewing_time"":1144},{""page_index"":1,""viewing_time"":24518},{""page_index"":2,""viewing_time"":15935}]",253
,,,,,,,,,,,,,,,449423,,449423,,,instructions,"[{""page_index"":0,""viewing_time"":174659},{""page_index"":1,""viewing_time"":109186},{""page_index"":2,""viewing_time"":108598},{""page_index"":3,""viewing_time"":56979}]",254
,,,,,,,,,,,,,,,198855,,722769,,,instructions,"[{""page_index"":0,""viewing_time"":43947},{""page_index"":1,""viewing_time"":28684},{""page_index"":2,""viewing_time"":106675},{""page_index"":3,""viewing_time"":19549}]",254
,,,,,,,,,,,,,,,88937,,88938,,,instructions,"[{""page_index"":0,""viewing_time"":44013},{""page_index"":1,""viewing_time"":10016},{""page_index"":2,""viewing_time"":34907}]",255
,,,,,,,,,,,,,,,138719,,272230,,,instructions,"[{""page_index"":0,""viewing_time"":62648},{""page_index"":1,""viewing_time"":59745},{""page_index"":2,""viewing_time"":16326}]",255
,,,,,,,,,,,,,,,325279,,325283,,,instructions,"[{""page_index"":0,""viewing_time"":109770},{""page_index"":1,""viewing_time"":118949},{""page_index"":2,""viewing_time"":62288},{""page_index"":3,""viewing_time"":34269}]",256
