p_rdata,action_times,actions,beliefs,correct,delays,information_used_correctly,key_press,meta_actions,path,planned_too_little,planned_too_much,queries,questions,responses,rt,score,time_elapsed,trial_index,trial_id,trial_type,view_history,pid
,,,,"[True, True, False, False, False]",,,,,,,,,"[""True or false: The hidden values will change each time I start a new round."",""How much does it cost to observe each hidden value?"",""How many hidden values am I allowed to observe in each round?"",""How is your bonus determined?"",""What does the feedback teach you?""]","[""True"",""$1.25"",""At most 5"",""10% of my best score on any round"",""Whether I chose the move that was best according to the information I had.""]",24776,,97568,,,survey-multi-choice,,0
,,,,"[False, True, False, True, True]",,,,,,,,,"[""True or false: The hidden values will change each time I start a new round."",""How much does it cost to observe each hidden value?"",""How many hidden values am I allowed to observe in each round?"",""How is your bonus determined?"",""What does the feedback teach you?""]","[""False"",""$1.25"",""At most 5"",""1 cent for every $1 I earn in each round"",""All of the above.""]",20059,,148281,,,survey-multi-choice,,0
,,,,"[True, True, True, True, True]",,,,,,,,,"[""True or false: The hidden values will change each time I start a new round."",""How much does it cost to observe each hidden value?"",""How many hidden values am I allowed to observe in each round?"",""How is your bonus determined?"",""What does the feedback teach you?""]","[""True"",""$1.25"",""As many or as few as I wish"",""1 cent for every $1 I earn in each round"",""All of the above.""]",11524,,203220,,,survey-multi-choice,,0
,,,,"[True, True, True, True, True]",,,,,,,,,"[""True or false: The hidden values will change each time I start a new round."",""How much does it cost to observe each hidden value?"",""How many hidden values am I allowed to observe in each round?"",""How is your bonus determined?"",""What does the feedback teach you?""]","[""True"",""$4.00"",""As many or as few as I wish"",""1 cent for every $1 I earn in each round"",""All of the above.""]",29115,,166030,,,survey-multi-choice,,1
,,,,"[True, True, True, True]",,,,,,,,,"[""True or false: The hidden values will change each time I start a new round."",""How much does it cost to observe each hidden value?"",""How many hidden values am I allowed to observe in each round?"",""How is your bonus determined?""]","[""True"",""$0.10"",""As many or as few as I wish"",""1 cent for every $1 I earn in each round""]",19328,,85844,,,survey-multi-choice,,2
,,,,"[True, True, True, True]",,,,,,,,,"[""True or false: The hidden values will change each time I start a new round."",""How much does it cost to observe each hidden value?"",""How many hidden values am I allowed to observe in each round?"",""How is your bonus determined?""]","[""True"",""$4.00"",""As many or as few as I wish"",""1 cent for every $1 I earn in each round""]",25345,,214847,,,survey-multi-choice,,3
,,,,"[True, True, True, True]",,,,,,,,,"[""True or false: The hidden values will change each time I start a new round."",""How much does it cost to observe each hidden value?"",""How many hidden values am I allowed to observe in each round?"",""How is your bonus determined?""]","[""True"",""$1.25"",""As many or as few as I wish"",""1 cent for every $1 I earn in each round""]",12755,,139149,,,survey-multi-choice,,4
,,,,"[True, True, False, True, True]",,,,,,,,,"[""True or false: The hidden values will change each time I start a new round."",""How much does it cost to observe each hidden value?"",""How many hidden values am I allowed to observe in each round?"",""How is your bonus determined?"",""What does the feedback teach you?""]","[""True"",""$0.10"",""At most 5"",""1 cent for every $1 I earn in each round"",""All of the above.""]",49746,,115839,,,survey-multi-choice,,5
,,,,"[True, True, True, True, False]",,,,,,,,,"[""True or false: The hidden values will change each time I start a new round."",""How much does it cost to observe each hidden value?"",""How many hidden values am I allowed to observe in each round?"",""How is your bonus determined?"",""What does the feedback teach you?""]","[""True"",""$0.10"",""As many or as few as I wish"",""1 cent for every $1 I earn in each round"",""Whether I chose the move that was best.""]",17706,,180577,,,survey-multi-choice,,5
,,,,"[True, True, True, True, False]",,,,,,,,,"[""True or false: The hidden values will change each time I start a new round."",""How much does it cost to observe each hidden value?"",""How many hidden values am I allowed to observe in each round?"",""How is your bonus determined?"",""What does the feedback teach you?""]","[""True"",""$0.10"",""As many or as few as I wish"",""1 cent for every $1 I earn in each round"",""Whether I chose the move that was best.""]",12291,,249614,,,survey-multi-choice,,5
,,,,"[True, True, True, True, True]",,,,,,,,,"[""True or false: The hidden values will change each time I start a new round."",""How much does it cost to observe each hidden value?"",""How many hidden values am I allowed to observe in each round?"",""How is your bonus determined?"",""What does the feedback teach you?""]","[""True"",""$0.10"",""As many or as few as I wish"",""1 cent for every $1 I earn in each round"",""All of the above.""]",7089,,262489,,,survey-multi-choice,,5
,,,,"[True, True, True, True, True]",,,,,,,,,"[""True or false: The hidden values will change each time I start a new round."",""How much does it cost to observe each hidden value?"",""How many hidden values am I allowed to observe in each round?"",""How is your bonus determined?"",""What does the feedback teach you?""]","[""True"",""$0.10"",""As many or as few as I wish"",""1 cent for every $1 I earn in each round"",""All of the above.""]",39617,,328522,,,survey-multi-choice,,6
,,,,"[True, True, True, True, True]",,,,,,,,,"[""True or false: The hidden values will change each time I start a new round."",""How much does it cost to observe each hidden value?"",""How many hidden values am I allowed to observe in each round?"",""How is your bonus determined?"",""What does the feedback teach you?""]","[""True"",""$4.00"",""As many or as few as I wish"",""1 cent for every $1 I earn in each round"",""All of the above.""]",29088,,206789,,,survey-multi-choice,,7
,,,,"[True, False, False, False]",,,,,,,,,"[""True or false: The hidden values will change each time I start a new round."",""How much does it cost to observe each hidden value?"",""How many hidden values am I allowed to observe in each round?"",""How is your bonus determined?""]","[""True"",""$0.25"",""At most 5"",""1% of my best score on any round""]",26016,,47954,,,survey-multi-choice,,8
,,,,"[True, True, True, True]",,,,,,,,,"[""True or false: The hidden values will change each time I start a new round."",""How much does it cost to observe each hidden value?"",""How many hidden values am I allowed to observe in each round?"",""How is your bonus determined?""]","[""True"",""$1.25"",""As many or as few as I wish"",""1 cent for every $1 I earn in each round""]",20241,,98216,,,survey-multi-choice,,8
,,,,"[True, True, True, True, False]",,,,,,,,,"[""True or false: The hidden values will change each time I start a new round."",""How much does it cost to observe each hidden value?"",""How many hidden values am I allowed to observe in each round?"",""How is your bonus determined?"",""What does the feedback teach you?""]","[""True"",""$1.25"",""As many or as few as I wish"",""1 cent for every $1 I earn in each round"",""Whether I chose the move that was best.""]",137665,,306605,,,survey-multi-choice,,9
,,,,"[True, True, True, True, True]",,,,,,,,,"[""True or false: The hidden values will change each time I start a new round."",""How much does it cost to observe each hidden value?"",""How many hidden values am I allowed to observe in each round?"",""How is your bonus determined?"",""What does the feedback teach you?""]","[""True"",""$1.25"",""As many or as few as I wish"",""1 cent for every $1 I earn in each round"",""All of the above.""]",27289,,479254,,,survey-multi-choice,,9
,,,,"[True, True, True, True, True]",,,,,,,,,"[""True or false: The hidden values will change each time I start a new round."",""How much does it cost to observe each hidden value?"",""How many hidden values am I allowed to observe in each round?"",""How is your bonus determined?"",""What does the feedback teach you?""]","[""True"",""$1.25"",""As many or as few as I wish"",""1 cent for every $1 I earn in each round"",""All of the above.""]",38796,,220212,,,survey-multi-choice,,10
,,,,"[True, True, True, True, True]",,,,,,,,,"[""True or false: The hidden values will change each time I start a new round."",""How much does it cost to observe each hidden value?"",""How many hidden values am I allowed to observe in each round?"",""How is your bonus determined?"",""What does the feedback teach you?""]","[""True"",""$1.25"",""As many or as few as I wish"",""1 cent for every $1 I earn in each round"",""All of the above.""]",22046,,169308,,,survey-multi-choice,,11
,,,,"[True, True, True, True]",,,,,,,,,"[""True or false: The hidden values will change each time I start a new round."",""How much does it cost to observe each hidden value?"",""How many hidden values am I allowed to observe in each round?"",""How is your bonus determined?""]","[""True"",""$4.00"",""As many or as few as I wish"",""1 cent for every $1 I earn in each round""]",19800,,160433,,,survey-multi-choice,,12
,,,,"[True, True, True, True, False]",,,,,,,,,"[""True or false: The hidden values will change each time I start a new round."",""How much does it cost to observe each hidden value?"",""How many hidden values am I allowed to observe in each round?"",""How is your bonus determined?"",""What does the feedback teach you?""]","[""True"",""$0.10"",""As many or as few as I wish"",""1 cent for every $1 I earn in each round"",""Whether I chose the move that was best.""]",40118,,229122,,,survey-multi-choice,,13
,,,,"[True, True, False, True, False]",,,,,,,,,"[""True or false: The hidden values will change each time I start a new round."",""How much does it cost to observe each hidden value?"",""How many hidden values am I allowed to observe in each round?"",""How is your bonus determined?"",""What does the feedback teach you?""]","[""True"",""$0.10"",""At most 15"",""1 cent for every $1 I earn in each round"",""Whether I chose the move that was best.""]",166588,,462833,,,survey-multi-choice,,13
,,,,"[False, True, True, True, False]",,,,,,,,,"[""True or false: The hidden values will change each time I start a new round."",""How much does it cost to observe each hidden value?"",""How many hidden values am I allowed to observe in each round?"",""How is your bonus determined?"",""What does the feedback teach you?""]","[""False"",""$0.10"",""As many or as few as I wish"",""1 cent for every $1 I earn in each round"",""Whether I chose the move that was best.""]",19563,,550533,,,survey-multi-choice,,13
,,,,"[False, True, False, True, False]",,,,,,,,,"[""True or false: The hidden values will change each time I start a new round."",""How much does it cost to observe each hidden value?"",""How many hidden values am I allowed to observe in each round?"",""How is your bonus determined?"",""What does the feedback teach you?""]","[""False"",""$0.10"",""At most 1"",""1 cent for every $1 I earn in each round"",""The length of the delay is based on how much more money I could have earned.""]",19525,,608572,,,survey-multi-choice,,13
,,,,"[True, True, True, True, False]",,,,,,,,,"[""True or false: The hidden values will change each time I start a new round."",""How much does it cost to observe each hidden value?"",""How many hidden values am I allowed to observe in each round?"",""How is your bonus determined?"",""What does the feedback teach you?""]","[""True"",""$0.10"",""As many or as few as I wish"",""1 cent for every $1 I earn in each round"",""Whether I chose the move that was best.""]",59137,,703477,,,survey-multi-choice,,13
,,,,"[True, True, False, True, False]",,,,,,,,,"[""True or false: The hidden values will change each time I start a new round."",""How much does it cost to observe each hidden value?"",""How many hidden values am I allowed to observe in each round?"",""How is your bonus determined?"",""What does the feedback teach you?""]","[""True"",""$0.10"",""At most 15"",""1 cent for every $1 I earn in each round"",""Whether I chose the move that was best.""]",11007,,723013,,,survey-multi-choice,,13
,,,,"[True, True, False, True, False]",,,,,,,,,"[""True or false: The hidden values will change each time I start a new round."",""How much does it cost to observe each hidden value?"",""How many hidden values am I allowed to observe in each round?"",""How is your bonus determined?"",""What does the feedback teach you?""]","[""True"",""$0.10"",""At most 10"",""1 cent for every $1 I earn in each round"",""Whether I chose the move that was best.""]",12222,,743050,,,survey-multi-choice,,13
,,,,"[False, True, True, True, True]",,,,,,,,,"[""True or false: The hidden values will change each time I start a new round."",""How much does it cost to observe each hidden value?"",""How many hidden values am I allowed to observe in each round?"",""How is your bonus determined?"",""What does the feedback teach you?""]","[""False"",""$0.10"",""As many or as few as I wish"",""1 cent for every $1 I earn in each round"",""All of the above.""]",16025,,768773,,,survey-multi-choice,,13
,,,,"[True, True, True, True, True]",,,,,,,,,"[""True or false: The hidden values will change each time I start a new round."",""How much does it cost to observe each hidden value?"",""How many hidden values am I allowed to observe in each round?"",""How is your bonus determined?"",""What does the feedback teach you?""]","[""True"",""$0.10"",""As many or as few as I wish"",""1 cent for every $1 I earn in each round"",""All of the above.""]",6710,,781572,,,survey-multi-choice,,13
,,,,"[True, True, True, True, True]",,,,,,,,,"[""True or false: The hidden values will change each time I start a new round."",""How much does it cost to observe each hidden value?"",""How many hidden values am I allowed to observe in each round?"",""How is your bonus determined?"",""What does the feedback teach you?""]","[""True"",""$0.10"",""As many or as few as I wish"",""1 cent for every $1 I earn in each round"",""All of the above.""]",38825,,466412,,,survey-multi-choice,,14
,,,,"[True, True, False, True]",,,,,,,,,"[""True or false: The hidden values will change each time I start a new round."",""How much does it cost to observe each hidden value?"",""How many hidden values am I allowed to observe in each round?"",""How is your bonus determined?""]","[""True"",""$4.00"",""At most 10"",""1 cent for every $1 I earn in each round""]",22440,,100026,,,survey-multi-choice,,15
,,,,"[True, True, True, True]",,,,,,,,,"[""True or false: The hidden values will change each time I start a new round."",""How much does it cost to observe each hidden value?"",""How many hidden values am I allowed to observe in each round?"",""How is your bonus determined?""]","[""True"",""$4.00"",""As many or as few as I wish"",""1 cent for every $1 I earn in each round""]",13143,,129611,,,survey-multi-choice,,15
,,,,"[True, False, False, True, False]",,,,,,,,,"[""True or false: The hidden values will change each time I start a new round."",""How much does it cost to observe each hidden value?"",""How many hidden values am I allowed to observe in each round?"",""How is your bonus determined?"",""What does the feedback teach you?""]","[""True"",""$0.01"",""At most 1"",""1 cent for every $1 I earn in each round"",""Whether I chose the move that was best.""]",47238,,230906,,,survey-multi-choice,,16
,,,,"[True, True, True, True, False]",,,,,,,,,"[""True or false: The hidden values will change each time I start a new round."",""How much does it cost to observe each hidden value?"",""How many hidden values am I allowed to observe in each round?"",""How is your bonus determined?"",""What does the feedback teach you?""]","[""True"",""$0.10"",""As many or as few as I wish"",""1 cent for every $1 I earn in each round"",""Whether I chose the move that was best.""]",21091,,324978,,,survey-multi-choice,,16
,,,,"[True, True, True, True, True]",,,,,,,,,"[""True or false: The hidden values will change each time I start a new round."",""How much does it cost to observe each hidden value?"",""How many hidden values am I allowed to observe in each round?"",""How is your bonus determined?"",""What does the feedback teach you?""]","[""True"",""$0.10"",""As many or as few as I wish"",""1 cent for every $1 I earn in each round"",""All of the above.""]",10848,,357227,,,survey-multi-choice,,16
,,,,"[True, True, True, True]",,,,,,,,,"[""True or false: The hidden values will change each time I start a new round."",""How much does it cost to observe each hidden value?"",""How many hidden values am I allowed to observe in each round?"",""How is your bonus determined?""]","[""True"",""$0.10"",""As many or as few as I wish"",""1 cent for every $1 I earn in each round""]",11181,,64571,,,survey-multi-choice,,17
,,,,"[True, False, False, False, True]",,,,,,,,,"[""True or false: The hidden values will change each time I start a new round."",""How much does it cost to observe each hidden value?"",""How many hidden values am I allowed to observe in each round?"",""How is your bonus determined?"",""What does the feedback teach you?""]","[""True"",""$1.00"",""At most 1"",""10% of my best score on any round"",""All of the above.""]",25315,,120471,,,survey-multi-choice,,18
,,,,"[True, True, True, False, True]",,,,,,,,,"[""True or false: The hidden values will change each time I start a new round."",""How much does it cost to observe each hidden value?"",""How many hidden values am I allowed to observe in each round?"",""How is your bonus determined?"",""What does the feedback teach you?""]","[""True"",""$4.00"",""As many or as few as I wish"",""1% of my best score on any round"",""All of the above.""]",33524,,235597,,,survey-multi-choice,,18
,,,,"[True, True, True, True, False]",,,,,,,,,"[""True or false: The hidden values will change each time I start a new round."",""How much does it cost to observe each hidden value?"",""How many hidden values am I allowed to observe in each round?"",""How is your bonus determined?"",""What does the feedback teach you?""]","[""True"",""$4.00"",""As many or as few as I wish"",""1 cent for every $1 I earn in each round"",""Whether I chose the move that was best.""]",26947,,314600,,,survey-multi-choice,,18
,,,,"[True, True, True, True, False]",,,,,,,,,"[""True or false: The hidden values will change each time I start a new round."",""How much does it cost to observe each hidden value?"",""How many hidden values am I allowed to observe in each round?"",""How is your bonus determined?"",""What does the feedback teach you?""]","[""True"",""$4.00"",""As many or as few as I wish"",""1 cent for every $1 I earn in each round"",""Whether I chose the move that was best.""]",25936,,447130,,,survey-multi-choice,,18
,,,,"[True, True, False, True, False]",,,,,,,,,"[""True or false: The hidden values will change each time I start a new round."",""How much does it cost to observe each hidden value?"",""How many hidden values am I allowed to observe in each round?"",""How is your bonus determined?"",""What does the feedback teach you?""]","[""True"",""$4.00"",""At most 1"",""1 cent for every $1 I earn in each round"",""Whether I chose the move that was best.""]",22666,,500610,,,survey-multi-choice,,18
,,,,"[True, True, True, True, True]",,,,,,,,,"[""True or false: The hidden values will change each time I start a new round."",""How much does it cost to observe each hidden value?"",""How many hidden values am I allowed to observe in each round?"",""How is your bonus determined?"",""What does the feedback teach you?""]","[""True"",""$4.00"",""As many or as few as I wish"",""1 cent for every $1 I earn in each round"",""All of the above.""]",18430,,587890,,,survey-multi-choice,,18
,,,,"[True, True, True, True, False]",,,,,,,,,"[""True or false: The hidden values will change each time I start a new round."",""How much does it cost to observe each hidden value?"",""How many hidden values am I allowed to observe in each round?"",""How is your bonus determined?"",""What does the feedback teach you?""]","[""True"",""$4.00"",""As many or as few as I wish"",""1 cent for every $1 I earn in each round"",""The length of the delay is based on how much more money I could have earned by planning and deciding better.""]",61575,,289869,,,survey-multi-choice,,19
,,,,"[True, True, True, True, True]",,,,,,,,,"[""True or false: The hidden values will change each time I start a new round."",""How much does it cost to observe each hidden value?"",""How many hidden values am I allowed to observe in each round?"",""How is your bonus determined?"",""What does the feedback teach you?""]","[""True"",""$4.00"",""As many or as few as I wish"",""1 cent for every $1 I earn in each round"",""All of the above.""]",34658,,479316,,,survey-multi-choice,,19
,,,,"[True, False, True, True, False]",,,,,,,,,"[""True or false: The hidden values will change each time I start a new round."",""How much does it cost to observe each hidden value?"",""How many hidden values am I allowed to observe in each round?"",""How is your bonus determined?"",""What does the feedback teach you?""]","[""True"",""$4.00"",""As many or as few as I wish"",""1 cent for every $1 I earn in each round"",""Whether I chose the move that was best.""]",103108,,268508,,,survey-multi-choice,,20
,,,,"[True, True, True, True, False]",,,,,,,,,"[""True or false: The hidden values will change each time I start a new round."",""How much does it cost to observe each hidden value?"",""How many hidden values am I allowed to observe in each round?"",""How is your bonus determined?"",""What does the feedback teach you?""]","[""True"",""$0.10"",""As many or as few as I wish"",""1 cent for every $1 I earn in each round"",""Whether I chose the move that was best.""]",18321,,318157,,,survey-multi-choice,,20
,,,,"[True, True, False, True, False]",,,,,,,,,"[""True or false: The hidden values will change each time I start a new round."",""How much does it cost to observe each hidden value?"",""How many hidden values am I allowed to observe in each round?"",""How is your bonus determined?"",""What does the feedback teach you?""]","[""True"",""$0.10"",""At most 10"",""1 cent for every $1 I earn in each round"",""Whether I chose the move that was best.""]",25419,,419761,,,survey-multi-choice,,20
,,,,"[True, True, False, True, False]",,,,,,,,,"[""True or false: The hidden values will change each time I start a new round."",""How much does it cost to observe each hidden value?"",""How many hidden values am I allowed to observe in each round?"",""How is your bonus determined?"",""What does the feedback teach you?""]","[""True"",""$0.10"",""At most 5"",""1 cent for every $1 I earn in each round"",""Whether I chose the move that was best.""]",25604,,474935,,,survey-multi-choice,,20
,,,,"[True, True, True, True, True]",,,,,,,,,"[""True or false: The hidden values will change each time I start a new round."",""How much does it cost to observe each hidden value?"",""How many hidden values am I allowed to observe in each round?"",""How is your bonus determined?"",""What does the feedback teach you?""]","[""True"",""$0.10"",""As many or as few as I wish"",""1 cent for every $1 I earn in each round"",""All of the above.""]",17362,,579436,,,survey-multi-choice,,20
,,,,"[True, True, True, True, False]",,,,,,,,,"[""True or false: The hidden values will change each time I start a new round."",""How much does it cost to observe each hidden value?"",""How many hidden values am I allowed to observe in each round?"",""How is your bonus determined?"",""What does the feedback teach you?""]","[""True"",""$0.10"",""As many or as few as I wish"",""1 cent for every $1 I earn in each round"",""Whether I chose the move that was best according to the information I had.""]",89012,,299247,,,survey-multi-choice,,21
,,,,"[True, True, True, True, True]",,,,,,,,,"[""True or false: The hidden values will change each time I start a new round."",""How much does it cost to observe each hidden value?"",""How many hidden values am I allowed to observe in each round?"",""How is your bonus determined?"",""What does the feedback teach you?""]","[""True"",""$0.10"",""As many or as few as I wish"",""1 cent for every $1 I earn in each round"",""All of the above.""]",15277,,387055,,,survey-multi-choice,,21
,,,,"[True, True, True, True]",,,,,,,,,"[""True or false: The hidden values will change each time I start a new round."",""How much does it cost to observe each hidden value?"",""How many hidden values am I allowed to observe in each round?"",""How is your bonus determined?""]","[""True"",""$0.10"",""As many or as few as I wish"",""1 cent for every $1 I earn in each round""]",13262,,147843,,,survey-multi-choice,,22
,,,,"[True, True, True, True, True]",,,,,,,,,"[""True or false: The hidden values will change each time I start a new round."",""How much does it cost to observe each hidden value?"",""How many hidden values am I allowed to observe in each round?"",""How is your bonus determined?"",""What does the feedback teach you?""]","[""True"",""$1.25"",""As many or as few as I wish"",""1 cent for every $1 I earn in each round"",""All of the above.""]",33763,,261664,,,survey-multi-choice,,23
,,,,"[True, True, True, True]",,,,,,,,,"[""True or false: The hidden values will change each time I start a new round."",""How much does it cost to observe each hidden value?"",""How many hidden values am I allowed to observe in each round?"",""How is your bonus determined?""]","[""True"",""$1.25"",""As many or as few as I wish"",""1 cent for every $1 I earn in each round""]",15336,,231596,,,survey-multi-choice,,24
,,,,"[True, True, True, True, True]",,,,,,,,,"[""True or false: The hidden values will change each time I start a new round."",""How much does it cost to observe each hidden value?"",""How many hidden values am I allowed to observe in each round?"",""How is your bonus determined?"",""What does the feedback teach you?""]","[""True"",""$1.25"",""As many or as few as I wish"",""1 cent for every $1 I earn in each round"",""All of the above.""]",29323,,179669,,,survey-multi-choice,,25
,,,,"[True, False, False, True]",,,,,,,,,"[""True or false: The hidden values will change each time I start a new round."",""How much does it cost to observe each hidden value?"",""How many hidden values am I allowed to observe in each round?"",""How is your bonus determined?""]","[""True"",""$0.01"",""At most 1"",""1 cent for every $1 I earn in each round""]",25827,,329956,,,survey-multi-choice,,26
,,,,"[True, False, True, True]",,,,,,,,,"[""True or false: The hidden values will change each time I start a new round."",""How much does it cost to observe each hidden value?"",""How many hidden values am I allowed to observe in each round?"",""How is your bonus determined?""]","[""True"",""$0.01"",""As many or as few as I wish"",""1 cent for every $1 I earn in each round""]",14453,,557636,,,survey-multi-choice,,26
,,,,"[True, True, True, True]",,,,,,,,,"[""True or false: The hidden values will change each time I start a new round."",""How much does it cost to observe each hidden value?"",""How many hidden values am I allowed to observe in each round?"",""How is your bonus determined?""]","[""True"",""$0.10"",""As many or as few as I wish"",""1 cent for every $1 I earn in each round""]",15331,,637525,,,survey-multi-choice,,26
,,,,"[True, True, True, True, True]",,,,,,,,,"[""True or false: The hidden values will change each time I start a new round."",""How much does it cost to observe each hidden value?"",""How many hidden values am I allowed to observe in each round?"",""How is your bonus determined?"",""What does the feedback teach you?""]","[""True"",""$0.10"",""As many or as few as I wish"",""1 cent for every $1 I earn in each round"",""All of the above.""]",56361,,240274,,,survey-multi-choice,,27
,,,,"[True, False, True, True]",,,,,,,,,"[""True or false: The hidden values will change each time I start a new round."",""How much does it cost to observe each hidden value?"",""How many hidden values am I allowed to observe in each round?"",""How is your bonus determined?""]","[""True"",""$0.01"",""As many or as few as I wish"",""1 cent for every $1 I earn in each round""]",18808,,124393,,,survey-multi-choice,,28
,,,,"[True, True, True, True]",,,,,,,,,"[""True or false: The hidden values will change each time I start a new round."",""How much does it cost to observe each hidden value?"",""How many hidden values am I allowed to observe in each round?"",""How is your bonus determined?""]","[""True"",""$4.00"",""As many or as few as I wish"",""1 cent for every $1 I earn in each round""]",10602,,169893,,,survey-multi-choice,,28
,,,,"[True, False, True, True, True]",,,,,,,,,"[""True or false: The hidden values will change each time I start a new round."",""How much does it cost to observe each hidden value?"",""How many hidden values am I allowed to observe in each round?"",""How is your bonus determined?"",""What does the feedback teach you?""]","[""True"",""$0.01"",""As many or as few as I wish"",""1 cent for every $1 I earn in each round"",""All of the above.""]",25908,,80206,,,survey-multi-choice,,29
,,,,"[True, True, True, True, True]",,,,,,,,,"[""True or false: The hidden values will change each time I start a new round."",""How much does it cost to observe each hidden value?"",""How many hidden values am I allowed to observe in each round?"",""How is your bonus determined?"",""What does the feedback teach you?""]","[""True"",""$4.00"",""As many or as few as I wish"",""1 cent for every $1 I earn in each round"",""All of the above.""]",14987,,129404,,,survey-multi-choice,,29
,,,,"[True, True, True, True, True]",,,,,,,,,"[""True or false: The hidden values will change each time I start a new round."",""How much does it cost to observe each hidden value?"",""How many hidden values am I allowed to observe in each round?"",""How is your bonus determined?"",""What does the feedback teach you?""]","[""True"",""$4.00"",""As many or as few as I wish"",""1 cent for every $1 I earn in each round"",""All of the above.""]",21156,,138059,,,survey-multi-choice,,30
,,,,"[True, True, True, True]",,,,,,,,,"[""True or false: The hidden values will change each time I start a new round."",""How much does it cost to observe each hidden value?"",""How many hidden values am I allowed to observe in each round?"",""How is your bonus determined?""]","[""True"",""$0.10"",""As many or as few as I wish"",""1 cent for every $1 I earn in each round""]",32211,,264570,,,survey-multi-choice,,31
,,,,"[True, True, True, True]",,,,,,,,,"[""True or false: The hidden values will change each time I start a new round."",""How much does it cost to observe each hidden value?"",""How many hidden values am I allowed to observe in each round?"",""How is your bonus determined?""]","[""True"",""$0.10"",""As many or as few as I wish"",""1 cent for every $1 I earn in each round""]",11954,,193603,,,survey-multi-choice,,32
,,,,"[True, True, True, True, True]",,,,,,,,,"[""True or false: The hidden values will change each time I start a new round."",""How much does it cost to observe each hidden value?"",""How many hidden values am I allowed to observe in each round?"",""How is your bonus determined?"",""What does the feedback teach you?""]","[""True"",""$0.10"",""As many or as few as I wish"",""1 cent for every $1 I earn in each round"",""All of the above.""]",53427,,361078,,,survey-multi-choice,,33
,,,,"[True, True, True, True, False]",,,,,,,,,"[""True or false: The hidden values will change each time I start a new round."",""How much does it cost to observe each hidden value?"",""How many hidden values am I allowed to observe in each round?"",""How is your bonus determined?"",""What does the feedback teach you?""]","[""True"",""$0.10"",""As many or as few as I wish"",""1 cent for every $1 I earn in each round"",""Whether I chose the move that was best according to the information I had.""]",39305,,182166,,,survey-multi-choice,,34
,,,,"[True, True, False, True, True]",,,,,,,,,"[""True or false: The hidden values will change each time I start a new round."",""How much does it cost to observe each hidden value?"",""How many hidden values am I allowed to observe in each round?"",""How is your bonus determined?"",""What does the feedback teach you?""]","[""True"",""$0.10"",""At most 10"",""1 cent for every $1 I earn in each round"",""All of the above.""]",14484,,210574,,,survey-multi-choice,,34
,,,,"[False, True, True, True, False]",,,,,,,,,"[""True or false: The hidden values will change each time I start a new round."",""How much does it cost to observe each hidden value?"",""How many hidden values am I allowed to observe in each round?"",""How is your bonus determined?"",""What does the feedback teach you?""]","[""False"",""$0.10"",""As many or as few as I wish"",""1 cent for every $1 I earn in each round"",""Whether I chose the move that was best according to the information I had.""]",14683,,264646,,,survey-multi-choice,,34
,,,,"[False, True, True, True, True]",,,,,,,,,"[""True or false: The hidden values will change each time I start a new round."",""How much does it cost to observe each hidden value?"",""How many hidden values am I allowed to observe in each round?"",""How is your bonus determined?"",""What does the feedback teach you?""]","[""False"",""$0.10"",""As many or as few as I wish"",""1 cent for every $1 I earn in each round"",""All of the above.""]",17804,,309646,,,survey-multi-choice,,34
,,,,"[True, True, True, True, True]",,,,,,,,,"[""True or false: The hidden values will change each time I start a new round."",""How much does it cost to observe each hidden value?"",""How many hidden values am I allowed to observe in each round?"",""How is your bonus determined?"",""What does the feedback teach you?""]","[""True"",""$0.10"",""As many or as few as I wish"",""1 cent for every $1 I earn in each round"",""All of the above.""]",18341,,340287,,,survey-multi-choice,,34
,,,,"[True, True, True, True, True]",,,,,,,,,"[""True or false: The hidden values will change each time I start a new round."",""How much does it cost to observe each hidden value?"",""How many hidden values am I allowed to observe in each round?"",""How is your bonus determined?"",""What does the feedback teach you?""]","[""True"",""$4.00"",""As many or as few as I wish"",""1 cent for every $1 I earn in each round"",""All of the above.""]",28580,,159796,,,survey-multi-choice,,35
,,,,"[False, False, False, True, True]",,,,,,,,,"[""True or false: The hidden values will change each time I start a new round."",""How much does it cost to observe each hidden value?"",""How many hidden values am I allowed to observe in each round?"",""How is your bonus determined?"",""What does the feedback teach you?""]","[""False"",""$0.01"",""At most 1"",""1 cent for every $1 I earn in each round"",""All of the above.""]",18683,,115268,,,survey-multi-choice,,36
,,,,"[True, True, True, True, True]",,,,,,,,,"[""True or false: The hidden values will change each time I start a new round."",""How much does it cost to observe each hidden value?"",""How many hidden values am I allowed to observe in each round?"",""How is your bonus determined?"",""What does the feedback teach you?""]","[""True"",""$4.00"",""As many or as few as I wish"",""1 cent for every $1 I earn in each round"",""All of the above.""]",16692,,189558,,,survey-multi-choice,,36
,,,,"[False, False, False, False, True]",,,,,,,,,"[""True or false: The hidden values will change each time I start a new round."",""How much does it cost to observe each hidden value?"",""How many hidden values am I allowed to observe in each round?"",""How is your bonus determined?"",""What does the feedback teach you?""]","[""False"",""$1.00"",""At most 5"",""1% of my best score on any round"",""All of the above.""]",66385,,162809,,,survey-multi-choice,,37
,,,,"[False, False, False, True, False]",,,,,,,,,"[""True or false: The hidden values will change each time I start a new round."",""How much does it cost to observe each hidden value?"",""How many hidden values am I allowed to observe in each round?"",""How is your bonus determined?"",""What does the feedback teach you?""]","[""False"",""$0.01"",""At most 5"",""1 cent for every $1 I earn in each round"",""Whether I chose the move that was best.""]",28882,,329268,,,survey-multi-choice,,37
,,,,"[True, True, False, True, False]",,,,,,,,,"[""True or false: The hidden values will change each time I start a new round."",""How much does it cost to observe each hidden value?"",""How many hidden values am I allowed to observe in each round?"",""How is your bonus determined?"",""What does the feedback teach you?""]","[""True"",""$1.25"",""At most 1"",""1 cent for every $1 I earn in each round"",""Whether I chose the move that was best.""]",30125,,592580,,,survey-multi-choice,,37
,,,,"[True, True, True, True, False]",,,,,,,,,"[""True or false: The hidden values will change each time I start a new round."",""How much does it cost to observe each hidden value?"",""How many hidden values am I allowed to observe in each round?"",""How is your bonus determined?"",""What does the feedback teach you?""]","[""True"",""$1.25"",""As many or as few as I wish"",""1 cent for every $1 I earn in each round"",""Whether I chose the move that was best.""]",37663,,774561,,,survey-multi-choice,,37
,,,,"[True, True, True, True, True]",,,,,,,,,"[""True or false: The hidden values will change each time I start a new round."",""How much does it cost to observe each hidden value?"",""How many hidden values am I allowed to observe in each round?"",""How is your bonus determined?"",""What does the feedback teach you?""]","[""True"",""$1.25"",""As many or as few as I wish"",""1 cent for every $1 I earn in each round"",""All of the above.""]",18563,,801901,,,survey-multi-choice,,37
,,,,"[True, True, True, True, False]",,,,,,,,,"[""True or false: The hidden values will change each time I start a new round."",""How much does it cost to observe each hidden value?"",""How many hidden values am I allowed to observe in each round?"",""How is your bonus determined?"",""What does the feedback teach you?""]","[""True"",""$4.00"",""As many or as few as I wish"",""1 cent for every $1 I earn in each round"",""Whether I chose the move that was best.""]",162862,,506633,,,survey-multi-choice,,38
,,,,"[True, True, True, True, True]",,,,,,,,,"[""True or false: The hidden values will change each time I start a new round."",""How much does it cost to observe each hidden value?"",""How many hidden values am I allowed to observe in each round?"",""How is your bonus determined?"",""What does the feedback teach you?""]","[""True"",""$4.00"",""As many or as few as I wish"",""1 cent for every $1 I earn in each round"",""All of the above.""]",55853,,572195,,,survey-multi-choice,,38
,,,,"[True, True, True, True, False]",,,,,,,,,"[""True or false: The hidden values will change each time I start a new round."",""How much does it cost to observe each hidden value?"",""How many hidden values am I allowed to observe in each round?"",""How is your bonus determined?"",""What does the feedback teach you?""]","[""True"",""$0.10"",""As many or as few as I wish"",""1 cent for every $1 I earn in each round"",""Whether I chose the move that was best.""]",22776,,187870,,,survey-multi-choice,,39
,,,,"[True, True, True, True, True]",,,,,,,,,"[""True or false: The hidden values will change each time I start a new round."",""How much does it cost to observe each hidden value?"",""How many hidden values am I allowed to observe in each round?"",""How is your bonus determined?"",""What does the feedback teach you?""]","[""True"",""$0.10"",""As many or as few as I wish"",""1 cent for every $1 I earn in each round"",""All of the above.""]",20297,,306278,,,survey-multi-choice,,39
,,,,"[True, True, False, True]",,,,,,,,,"[""True or false: The hidden values will change each time I start a new round."",""How much does it cost to observe each hidden value?"",""How many hidden values am I allowed to observe in each round?"",""How is your bonus determined?""]","[""True"",""$4.00"",""At most 1"",""1 cent for every $1 I earn in each round""]",45164,,262775,,,survey-multi-choice,,40
,,,,"[True, True, False, True]",,,,,,,,,"[""True or false: The hidden values will change each time I start a new round."",""How much does it cost to observe each hidden value?"",""How many hidden values am I allowed to observe in each round?"",""How is your bonus determined?""]","[""True"",""$4.00"",""At most 1"",""1 cent for every $1 I earn in each round""]",40366,,406232,,,survey-multi-choice,,40
,,,,"[True, True, True, True]",,,,,,,,,"[""True or false: The hidden values will change each time I start a new round."",""How much does it cost to observe each hidden value?"",""How many hidden values am I allowed to observe in each round?"",""How is your bonus determined?""]","[""True"",""$4.00"",""As many or as few as I wish"",""1 cent for every $1 I earn in each round""]",67545,,581834,,,survey-multi-choice,,40
,,,,"[True, True, True, False, True]",,,,,,,,,"[""True or false: The hidden values will change each time I start a new round."",""How much does it cost to observe each hidden value?"",""How many hidden values am I allowed to observe in each round?"",""How is your bonus determined?"",""What does the feedback teach you?""]","[""True"",""$0.10"",""As many or as few as I wish"",""10% of my best score on any round"",""All of the above.""]",92018,,269905,,,survey-multi-choice,,41
,,,,"[False, True, True, False, True]",,,,,,,,,"[""True or false: The hidden values will change each time I start a new round."",""How much does it cost to observe each hidden value?"",""How many hidden values am I allowed to observe in each round?"",""How is your bonus determined?"",""What does the feedback teach you?""]","[""False"",""$0.10"",""As many or as few as I wish"",""1% of my best score on any round"",""All of the above.""]",39875,,421776,,,survey-multi-choice,,41
,,,,"[True, True, True, True, True]",,,,,,,,,"[""True or false: The hidden values will change each time I start a new round."",""How much does it cost to observe each hidden value?"",""How many hidden values am I allowed to observe in each round?"",""How is your bonus determined?"",""What does the feedback teach you?""]","[""True"",""$0.10"",""As many or as few as I wish"",""1 cent for every $1 I earn in each round"",""All of the above.""]",12523,,441515,,,survey-multi-choice,,41
,,,,"[True, True, True, True, False]",,,,,,,,,"[""True or false: The hidden values will change each time I start a new round."",""How much does it cost to observe each hidden value?"",""How many hidden values am I allowed to observe in each round?"",""How is your bonus determined?"",""What does the feedback teach you?""]","[""True"",""$0.10"",""As many or as few as I wish"",""1 cent for every $1 I earn in each round"",""Whether I chose the move that was best according to the information I had.""]",28901,,124374,,,survey-multi-choice,,42
,,,,"[True, True, True, True, True]",,,,,,,,,"[""True or false: The hidden values will change each time I start a new round."",""How much does it cost to observe each hidden value?"",""How many hidden values am I allowed to observe in each round?"",""How is your bonus determined?"",""What does the feedback teach you?""]","[""True"",""$0.10"",""As many or as few as I wish"",""1 cent for every $1 I earn in each round"",""All of the above.""]",9295,,201656,,,survey-multi-choice,,42
,,,,"[True, False, True, True, False]",,,,,,,,,"[""True or false: The hidden values will change each time I start a new round."",""How much does it cost to observe each hidden value?"",""How many hidden values am I allowed to observe in each round?"",""How is your bonus determined?"",""What does the feedback teach you?""]","[""True"",""$1.00"",""As many or as few as I wish"",""1 cent for every $1 I earn in each round"",""Whether I chose the move that was best according to the information I had.""]",84549,,294664,,,survey-multi-choice,,43
,,,,"[True, True, True, True, False]",,,,,,,,,"[""True or false: The hidden values will change each time I start a new round."",""How much does it cost to observe each hidden value?"",""How many hidden values am I allowed to observe in each round?"",""How is your bonus determined?"",""What does the feedback teach you?""]","[""True"",""$4.00"",""As many or as few as I wish"",""1 cent for every $1 I earn in each round"",""Whether I chose the move that was best according to the information I had.""]",18514,,421260,,,survey-multi-choice,,43
,,,,"[True, True, True, True, True]",,,,,,,,,"[""True or false: The hidden values will change each time I start a new round."",""How much does it cost to observe each hidden value?"",""How many hidden values am I allowed to observe in each round?"",""How is your bonus determined?"",""What does the feedback teach you?""]","[""True"",""$4.00"",""As many or as few as I wish"",""1 cent for every $1 I earn in each round"",""All of the above.""]",18478,,447441,,,survey-multi-choice,,43
,,,,"[True, True, True, True, True]",,,,,,,,,"[""True or false: The hidden values will change each time I start a new round."",""How much does it cost to observe each hidden value?"",""How many hidden values am I allowed to observe in each round?"",""How is your bonus determined?"",""What does the feedback teach you?""]","[""True"",""$1.25"",""As many or as few as I wish"",""1 cent for every $1 I earn in each round"",""All of the above.""]",26763,,231582,,,survey-multi-choice,,44
,,,,"[True, True, True, True, False]",,,,,,,,,"[""True or false: The hidden values will change each time I start a new round."",""How much does it cost to observe each hidden value?"",""How many hidden values am I allowed to observe in each round?"",""How is your bonus determined?"",""What does the feedback teach you?""]","[""True"",""$0.10"",""As many or as few as I wish"",""1 cent for every $1 I earn in each round"",""Whether I chose the move that was best according to the information I had.""]",26843,,143293,,,survey-multi-choice,,45
,,,,"[True, True, True, True, True]",,,,,,,,,"[""True or false: The hidden values will change each time I start a new round."",""How much does it cost to observe each hidden value?"",""How many hidden values am I allowed to observe in each round?"",""How is your bonus determined?"",""What does the feedback teach you?""]","[""True"",""$0.10"",""As many or as few as I wish"",""1 cent for every $1 I earn in each round"",""All of the above.""]",9940,,164732,,,survey-multi-choice,,45
,,,,"[True, True, True, True, True]",,,,,,,,,"[""True or false: The hidden values will change each time I start a new round."",""How much does it cost to observe each hidden value?"",""How many hidden values am I allowed to observe in each round?"",""How is your bonus determined?"",""What does the feedback teach you?""]","[""True"",""$4.00"",""As many or as few as I wish"",""1 cent for every $1 I earn in each round"",""All of the above.""]",27262,,146305,,,survey-multi-choice,,46
,,,,"[True, True, True, True, True]",,,,,,,,,"[""True or false: The hidden values will change each time I start a new round."",""How much does it cost to observe each hidden value?"",""How many hidden values am I allowed to observe in each round?"",""How is your bonus determined?"",""What does the feedback teach you?""]","[""True"",""$1.25"",""As many or as few as I wish"",""1 cent for every $1 I earn in each round"",""All of the above.""]",337541,,593822,,,survey-multi-choice,,47
,,,,"[True, False, True, True, True]",,,,,,,,,"[""True or false: The hidden values will change each time I start a new round."",""How much does it cost to observe each hidden value?"",""How many hidden values am I allowed to observe in each round?"",""How is your bonus determined?"",""What does the feedback teach you?""]","[""True"",""$1.50"",""As many or as few as I wish"",""1 cent for every $1 I earn in each round"",""All of the above.""]",39444,,110837,,,survey-multi-choice,,48
,,,,"[True, True, True, True, False]",,,,,,,,,"[""True or false: The hidden values will change each time I start a new round."",""How much does it cost to observe each hidden value?"",""How many hidden values am I allowed to observe in each round?"",""How is your bonus determined?"",""What does the feedback teach you?""]","[""True"",""$1.25"",""As many or as few as I wish"",""1 cent for every $1 I earn in each round"",""Whether I chose the move that was best according to the information I had.""]",40046,,358377,,,survey-multi-choice,,48
,,,,"[True, True, True, True, False]",,,,,,,,,"[""True or false: The hidden values will change each time I start a new round."",""How much does it cost to observe each hidden value?"",""How many hidden values am I allowed to observe in each round?"",""How is your bonus determined?"",""What does the feedback teach you?""]","[""True"",""$1.25"",""As many or as few as I wish"",""1 cent for every $1 I earn in each round"",""The length of the delay is based on how much more money I could have earned by planning and deciding better.""]",25985,,464038,,,survey-multi-choice,,48
,,,,"[True, True, True, True, True]",,,,,,,,,"[""True or false: The hidden values will change each time I start a new round."",""How much does it cost to observe each hidden value?"",""How many hidden values am I allowed to observe in each round?"",""How is your bonus determined?"",""What does the feedback teach you?""]","[""True"",""$1.25"",""As many or as few as I wish"",""1 cent for every $1 I earn in each round"",""All of the above.""]",30435,,526759,,,survey-multi-choice,,48
,,,,"[True, True, True, True, False]",,,,,,,,,"[""True or false: The hidden values will change each time I start a new round."",""How much does it cost to observe each hidden value?"",""How many hidden values am I allowed to observe in each round?"",""How is your bonus determined?"",""What does the feedback teach you?""]","[""True"",""$4.00"",""As many or as few as I wish"",""1 cent for every $1 I earn in each round"",""Whether I chose the move that was best according to the information I had.""]",39249,,397011,,,survey-multi-choice,,49
,,,,"[True, True, True, True, True]",,,,,,,,,"[""True or false: The hidden values will change each time I start a new round."",""How much does it cost to observe each hidden value?"",""How many hidden values am I allowed to observe in each round?"",""How is your bonus determined?"",""What does the feedback teach you?""]","[""True"",""$4.00"",""As many or as few as I wish"",""1 cent for every $1 I earn in each round"",""All of the above.""]",17303,,440645,,,survey-multi-choice,,49
,,,,"[True, True, False, False, True]",,,,,,,,,"[""True or false: The hidden values will change each time I start a new round."",""How much does it cost to observe each hidden value?"",""How many hidden values am I allowed to observe in each round?"",""How is your bonus determined?"",""What does the feedback teach you?""]","[""True"",""$4.00"",""At most 1"",""10% of my best score on any round"",""All of the above.""]",26690,,92467,,,survey-multi-choice,,50
,,,,"[True, True, False, True, True]",,,,,,,,,"[""True or false: The hidden values will change each time I start a new round."",""How much does it cost to observe each hidden value?"",""How many hidden values am I allowed to observe in each round?"",""How is your bonus determined?"",""What does the feedback teach you?""]","[""True"",""$4.00"",""At most 1"",""1 cent for every $1 I earn in each round"",""All of the above.""]",23284,,201844,,,survey-multi-choice,,50
,,,,"[True, True, False, True, False]",,,,,,,,,"[""True or false: The hidden values will change each time I start a new round."",""How much does it cost to observe each hidden value?"",""How many hidden values am I allowed to observe in each round?"",""How is your bonus determined?"",""What does the feedback teach you?""]","[""True"",""$4.00"",""At most 1"",""1 cent for every $1 I earn in each round"",""The length of the delay is based on how much more money I could have earned.""]",21845,,231532,,,survey-multi-choice,,50
,,,,"[True, True, True, True, True]",,,,,,,,,"[""True or false: The hidden values will change each time I start a new round."",""How much does it cost to observe each hidden value?"",""How many hidden values am I allowed to observe in each round?"",""How is your bonus determined?"",""What does the feedback teach you?""]","[""True"",""$4.00"",""As many or as few as I wish"",""1 cent for every $1 I earn in each round"",""All of the above.""]",16647,,262013,,,survey-multi-choice,,50
,,,,"[True, True, True, True, True]",,,,,,,,,"[""True or false: The hidden values will change each time I start a new round."",""How much does it cost to observe each hidden value?"",""How many hidden values am I allowed to observe in each round?"",""How is your bonus determined?"",""What does the feedback teach you?""]","[""True"",""$4.00"",""As many or as few as I wish"",""1 cent for every $1 I earn in each round"",""All of the above.""]",34806,,205048,,,survey-multi-choice,,51
,,,,"[True, True, True, True, True]",,,,,,,,,"[""True or false: The hidden values will change each time I start a new round."",""How much does it cost to observe each hidden value?"",""How many hidden values am I allowed to observe in each round?"",""How is your bonus determined?"",""What does the feedback teach you?""]","[""True"",""$4.00"",""As many or as few as I wish"",""1 cent for every $1 I earn in each round"",""All of the above.""]",33837,,283173,,,survey-multi-choice,,52
,,,,"[True, True, True, True, False]",,,,,,,,,"[""True or false: The hidden values will change each time I start a new round."",""How much does it cost to observe each hidden value?"",""How many hidden values am I allowed to observe in each round?"",""How is your bonus determined?"",""What does the feedback teach you?""]","[""True"",""$4.00"",""As many or as few as I wish"",""1 cent for every $1 I earn in each round"",""Whether I chose the move that was best.""]",28639,,227462,,,survey-multi-choice,,53
,,,,"[True, True, True, True, True]",,,,,,,,,"[""True or false: The hidden values will change each time I start a new round."",""How much does it cost to observe each hidden value?"",""How many hidden values am I allowed to observe in each round?"",""How is your bonus determined?"",""What does the feedback teach you?""]","[""True"",""$4.00"",""As many or as few as I wish"",""1 cent for every $1 I earn in each round"",""All of the above.""]",34636,,355805,,,survey-multi-choice,,53
,,,,"[True, True, True, True, False]",,,,,,,,,"[""True or false: The hidden values will change each time I start a new round."",""How much does it cost to observe each hidden value?"",""How many hidden values am I allowed to observe in each round?"",""How is your bonus determined?"",""What does the feedback teach you?""]","[""True"",""$0.10"",""As many or as few as I wish"",""1 cent for every $1 I earn in each round"",""Whether I chose the move that was best according to the information I had.""]",28077,,281782,,,survey-multi-choice,,54
,,,,"[True, True, True, True, True]",,,,,,,,,"[""True or false: The hidden values will change each time I start a new round."",""How much does it cost to observe each hidden value?"",""How many hidden values am I allowed to observe in each round?"",""How is your bonus determined?"",""What does the feedback teach you?""]","[""True"",""$0.10"",""As many or as few as I wish"",""1 cent for every $1 I earn in each round"",""All of the above.""]",46870,,411407,,,survey-multi-choice,,54
,,,,"[True, True, True, True]",,,,,,,,,"[""True or false: The hidden values will change each time I start a new round."",""How much does it cost to observe each hidden value?"",""How many hidden values am I allowed to observe in each round?"",""How is your bonus determined?""]","[""True"",""$4.00"",""As many or as few as I wish"",""1 cent for every $1 I earn in each round""]",78079,,238677,,,survey-multi-choice,,55
,,,,"[True, True, True, True]",,,,,,,,,"[""True or false: The hidden values will change each time I start a new round."",""How much does it cost to observe each hidden value?"",""How many hidden values am I allowed to observe in each round?"",""How is your bonus determined?""]","[""True"",""$1.25"",""As many or as few as I wish"",""1 cent for every $1 I earn in each round""]",13203,,62455,,,survey-multi-choice,,56
,,,,"[True, False, True, True, True]",,,,,,,,,"[""True or false: The hidden values will change each time I start a new round."",""How much does it cost to observe each hidden value?"",""How many hidden values am I allowed to observe in each round?"",""How is your bonus determined?"",""What does the feedback teach you?""]","[""True"",""$1.50"",""As many or as few as I wish"",""1 cent for every $1 I earn in each round"",""All of the above.""]",25829,,150505,,,survey-multi-choice,,57
,,,,"[True, False, True, True, False]",,,,,,,,,"[""True or false: The hidden values will change each time I start a new round."",""How much does it cost to observe each hidden value?"",""How many hidden values am I allowed to observe in each round?"",""How is your bonus determined?"",""What does the feedback teach you?""]","[""True"",""$1.50"",""As many or as few as I wish"",""1 cent for every $1 I earn in each round"",""The length of the delay is based on how much more money I could have earned by planning and deciding better.""]",25385,,230274,,,survey-multi-choice,,57
,,,,"[True, True, True, True, True]",,,,,,,,,"[""True or false: The hidden values will change each time I start a new round."",""How much does it cost to observe each hidden value?"",""How many hidden values am I allowed to observe in each round?"",""How is your bonus determined?"",""What does the feedback teach you?""]","[""True"",""$1.25"",""As many or as few as I wish"",""1 cent for every $1 I earn in each round"",""All of the above.""]",11917,,257576,,,survey-multi-choice,,57
,,,,"[True, True, True, True, True]",,,,,,,,,"[""True or false: The hidden values will change each time I start a new round."",""How much does it cost to observe each hidden value?"",""How many hidden values am I allowed to observe in each round?"",""How is your bonus determined?"",""What does the feedback teach you?""]","[""True"",""$0.10"",""As many or as few as I wish"",""1 cent for every $1 I earn in each round"",""All of the above.""]",39518,,118255,,,survey-multi-choice,,58
,,,,"[True, True, True, True, False]",,,,,,,,,"[""True or false: The hidden values will change each time I start a new round."",""How much does it cost to observe each hidden value?"",""How many hidden values am I allowed to observe in each round?"",""How is your bonus determined?"",""What does the feedback teach you?""]","[""True"",""$0.10"",""As many or as few as I wish"",""1 cent for every $1 I earn in each round"",""Whether I chose the move that was best.""]",34743,,209257,,,survey-multi-choice,,59
,,,,"[True, True, True, True, True]",,,,,,,,,"[""True or false: The hidden values will change each time I start a new round."",""How much does it cost to observe each hidden value?"",""How many hidden values am I allowed to observe in each round?"",""How is your bonus determined?"",""What does the feedback teach you?""]","[""True"",""$0.10"",""As many or as few as I wish"",""1 cent for every $1 I earn in each round"",""All of the above.""]",25828,,345858,,,survey-multi-choice,,59
,,,,"[True, True, True, True, True]",,,,,,,,,"[""True or false: The hidden values will change each time I start a new round."",""How much does it cost to observe each hidden value?"",""How many hidden values am I allowed to observe in each round?"",""How is your bonus determined?"",""What does the feedback teach you?""]","[""True"",""$0.10"",""As many or as few as I wish"",""1 cent for every $1 I earn in each round"",""All of the above.""]",28814,,117978,,,survey-multi-choice,,60
,,,,"[True, True, True, True, False]",,,,,,,,,"[""True or false: The hidden values will change each time I start a new round."",""How much does it cost to observe each hidden value?"",""How many hidden values am I allowed to observe in each round?"",""How is your bonus determined?"",""What does the feedback teach you?""]","[""True"",""$0.10"",""As many or as few as I wish"",""1 cent for every $1 I earn in each round"",""The length of the delay is based on how much more money I could have earned.""]",29177,,139586,,,survey-multi-choice,,61
,,,,"[True, True, True, True, True]",,,,,,,,,"[""True or false: The hidden values will change each time I start a new round."",""How much does it cost to observe each hidden value?"",""How many hidden values am I allowed to observe in each round?"",""How is your bonus determined?"",""What does the feedback teach you?""]","[""True"",""$0.10"",""As many or as few as I wish"",""1 cent for every $1 I earn in each round"",""All of the above.""]",14457,,171051,,,survey-multi-choice,,61
,,,,"[True, True, True, True]",,,,,,,,,"[""True or false: The hidden values will change each time I start a new round."",""How much does it cost to observe each hidden value?"",""How many hidden values am I allowed to observe in each round?"",""How is your bonus determined?""]","[""True"",""$1.25"",""As many or as few as I wish"",""1 cent for every $1 I earn in each round""]",20228,,163502,,,survey-multi-choice,,62
,,,,"[True, False, True, True, False]",,,,,,,,,"[""True or false: The hidden values will change each time I start a new round."",""How much does it cost to observe each hidden value?"",""How many hidden values am I allowed to observe in each round?"",""How is your bonus determined?"",""What does the feedback teach you?""]","[""True"",""$0.25"",""As many or as few as I wish"",""1 cent for every $1 I earn in each round"",""Whether I chose the move that was best according to the information I had.""]",48165,,129559,,,survey-multi-choice,,63
,,,,"[True, True, True, True, True]",,,,,,,,,"[""True or false: The hidden values will change each time I start a new round."",""How much does it cost to observe each hidden value?"",""How many hidden values am I allowed to observe in each round?"",""How is your bonus determined?"",""What does the feedback teach you?""]","[""True"",""$0.10"",""As many or as few as I wish"",""1 cent for every $1 I earn in each round"",""All of the above.""]",15846,,180194,,,survey-multi-choice,,63
,,,,"[True, True, True, True, False]",,,,,,,,,"[""True or false: The hidden values will change each time I start a new round."",""How much does it cost to observe each hidden value?"",""How many hidden values am I allowed to observe in each round?"",""How is your bonus determined?"",""What does the feedback teach you?""]","[""True"",""$0.10"",""As many or as few as I wish"",""1 cent for every $1 I earn in each round"",""The length of the delay is based on how much more money I could have earned.""]",31450,,416699,,,survey-multi-choice,,64
,,,,"[True, True, True, True, True]",,,,,,,,,"[""True or false: The hidden values will change each time I start a new round."",""How much does it cost to observe each hidden value?"",""How many hidden values am I allowed to observe in each round?"",""How is your bonus determined?"",""What does the feedback teach you?""]","[""True"",""$0.10"",""As many or as few as I wish"",""1 cent for every $1 I earn in each round"",""All of the above.""]",35834,,568141,,,survey-multi-choice,,64
,,,,"[True, True, True, True]",,,,,,,,,"[""True or false: The hidden values will change each time I start a new round."",""How much does it cost to observe each hidden value?"",""How many hidden values am I allowed to observe in each round?"",""How is your bonus determined?""]","[""True"",""$1.25"",""As many or as few as I wish"",""1 cent for every $1 I earn in each round""]",50779,,134577,,,survey-multi-choice,,65
,,,,"[True, True, True, True, True]",,,,,,,,,"[""True or false: The hidden values will change each time I start a new round."",""How much does it cost to observe each hidden value?"",""How many hidden values am I allowed to observe in each round?"",""How is your bonus determined?"",""What does the feedback teach you?""]","[""True"",""$4.00"",""As many or as few as I wish"",""1 cent for every $1 I earn in each round"",""All of the above.""]",39420,,266468,,,survey-multi-choice,,66
,,,,"[True, False, True, True, True]",,,,,,,,,"[""True or false: The hidden values will change each time I start a new round."",""How much does it cost to observe each hidden value?"",""How many hidden values am I allowed to observe in each round?"",""How is your bonus determined?"",""What does the feedback teach you?""]","[""True"",""$0.01"",""As many or as few as I wish"",""1 cent for every $1 I earn in each round"",""All of the above.""]",34982,,227607,,,survey-multi-choice,,67
,,,,"[True, True, True, True, False]",,,,,,,,,"[""True or false: The hidden values will change each time I start a new round."",""How much does it cost to observe each hidden value?"",""How many hidden values am I allowed to observe in each round?"",""How is your bonus determined?"",""What does the feedback teach you?""]","[""True"",""$1.25"",""As many or as few as I wish"",""1 cent for every $1 I earn in each round"",""The length of the delay is based on how much more money I could have earned by planning and deciding better.""]",23066,,309620,,,survey-multi-choice,,67
,,,,"[True, True, True, True, True]",,,,,,,,,"[""True or false: The hidden values will change each time I start a new round."",""How much does it cost to observe each hidden value?"",""How many hidden values am I allowed to observe in each round?"",""How is your bonus determined?"",""What does the feedback teach you?""]","[""True"",""$1.25"",""As many or as few as I wish"",""1 cent for every $1 I earn in each round"",""All of the above.""]",16934,,365694,,,survey-multi-choice,,67
,,,,"[True, True, True, True]",,,,,,,,,"[""True or false: The hidden values will change each time I start a new round."",""How much does it cost to observe each hidden value?"",""How many hidden values am I allowed to observe in each round?"",""How is your bonus determined?""]","[""True"",""$1.25"",""As many or as few as I wish"",""1 cent for every $1 I earn in each round""]",15916,,139446,,,survey-multi-choice,,68
,,,,"[False, True, True, True]",,,,,,,,,"[""True or false: The hidden values will change each time I start a new round."",""How much does it cost to observe each hidden value?"",""How many hidden values am I allowed to observe in each round?"",""How is your bonus determined?""]","[""False"",""$0.10"",""As many or as few as I wish"",""1 cent for every $1 I earn in each round""]",20262,,162994,,,survey-multi-choice,,69
,,,,"[True, True, True, True]",,,,,,,,,"[""True or false: The hidden values will change each time I start a new round."",""How much does it cost to observe each hidden value?"",""How many hidden values am I allowed to observe in each round?"",""How is your bonus determined?""]","[""True"",""$0.10"",""As many or as few as I wish"",""1 cent for every $1 I earn in each round""]",16681,,190985,,,survey-multi-choice,,69
,,,,"[True, True, True, True, True]",,,,,,,,,"[""True or false: The hidden values will change each time I start a new round."",""How much does it cost to observe each hidden value?"",""How many hidden values am I allowed to observe in each round?"",""How is your bonus determined?"",""What does the feedback teach you?""]","[""True"",""$1.25"",""As many or as few as I wish"",""1 cent for every $1 I earn in each round"",""All of the above.""]",48621,,405931,,,survey-multi-choice,,70
,,,,"[True, True, True, True]",,,,,,,,,"[""True or false: The hidden values will change each time I start a new round."",""How much does it cost to observe each hidden value?"",""How many hidden values am I allowed to observe in each round?"",""How is your bonus determined?""]","[""True"",""$0.10"",""As many or as few as I wish"",""1 cent for every $1 I earn in each round""]",34600,,148588,,,survey-multi-choice,,71
,,,,"[True, False, True, True]",,,,,,,,,"[""True or false: The hidden values will change each time I start a new round."",""How much does it cost to observe each hidden value?"",""How many hidden values am I allowed to observe in each round?"",""How is your bonus determined?""]","[""True"",""$1.00"",""As many or as few as I wish"",""1 cent for every $1 I earn in each round""]",30684,,124052,,,survey-multi-choice,,72
,,,,"[True, True, True, True]",,,,,,,,,"[""True or false: The hidden values will change each time I start a new round."",""How much does it cost to observe each hidden value?"",""How many hidden values am I allowed to observe in each round?"",""How is your bonus determined?""]","[""True"",""$0.10"",""As many or as few as I wish"",""1 cent for every $1 I earn in each round""]",8149,,157080,,,survey-multi-choice,,72
,,,,"[True, True, True, True, True]",,,,,,,,,"[""True or false: The hidden values will change each time I start a new round."",""How much does it cost to observe each hidden value?"",""How many hidden values am I allowed to observe in each round?"",""How is your bonus determined?"",""What does the feedback teach you?""]","[""True"",""$1.25"",""As many or as few as I wish"",""1 cent for every $1 I earn in each round"",""All of the above.""]",33737,,339118,,,survey-multi-choice,,73
,,,,"[True, True, True, True, True]",,,,,,,,,"[""True or false: The hidden values will change each time I start a new round."",""How much does it cost to observe each hidden value?"",""How many hidden values am I allowed to observe in each round?"",""How is your bonus determined?"",""What does the feedback teach you?""]","[""True"",""$4.00"",""As many or as few as I wish"",""1 cent for every $1 I earn in each round"",""All of the above.""]",23719,,222108,,,survey-multi-choice,,74
,,,,"[True, True, True, True, False]",,,,,,,,,"[""True or false: The hidden values will change each time I start a new round."",""How much does it cost to observe each hidden value?"",""How many hidden values am I allowed to observe in each round?"",""How is your bonus determined?"",""What does the feedback teach you?""]","[""True"",""$1.25"",""As many or as few as I wish"",""1 cent for every $1 I earn in each round"",""Whether I chose the move that was best according to the information I had.""]",35467,,197748,,,survey-multi-choice,,75
,,,,"[True, True, True, True, True]",,,,,,,,,"[""True or false: The hidden values will change each time I start a new round."",""How much does it cost to observe each hidden value?"",""How many hidden values am I allowed to observe in each round?"",""How is your bonus determined?"",""What does the feedback teach you?""]","[""True"",""$1.25"",""As many or as few as I wish"",""1 cent for every $1 I earn in each round"",""All of the above.""]",18930,,265025,,,survey-multi-choice,,75
,,,,"[True, True, True, True, True]",,,,,,,,,"[""True or false: The hidden values will change each time I start a new round."",""How much does it cost to observe each hidden value?"",""How many hidden values am I allowed to observe in each round?"",""How is your bonus determined?"",""What does the feedback teach you?""]","[""True"",""$4.00"",""As many or as few as I wish"",""1 cent for every $1 I earn in each round"",""All of the above.""]",21843,,193934,,,survey-multi-choice,,76
,,,,"[True, True, True, False, True]",,,,,,,,,"[""True or false: The hidden values will change each time I start a new round."",""How much does it cost to observe each hidden value?"",""How many hidden values am I allowed to observe in each round?"",""How is your bonus determined?"",""What does the feedback teach you?""]","[""True"",""$0.10"",""As many or as few as I wish"",""10% of my best score on any round"",""All of the above.""]",27052,,137908,,,survey-multi-choice,,77
,,,,"[True, True, False, True, True]",,,,,,,,,"[""True or false: The hidden values will change each time I start a new round."",""How much does it cost to observe each hidden value?"",""How many hidden values am I allowed to observe in each round?"",""How is your bonus determined?"",""What does the feedback teach you?""]","[""True"",""$0.10"",""At most 10"",""1 cent for every $1 I earn in each round"",""All of the above.""]",18535,,223815,,,survey-multi-choice,,77
,,,,"[True, True, True, True, False]",,,,,,,,,"[""True or false: The hidden values will change each time I start a new round."",""How much does it cost to observe each hidden value?"",""How many hidden values am I allowed to observe in each round?"",""How is your bonus determined?"",""What does the feedback teach you?""]","[""True"",""$0.10"",""As many or as few as I wish"",""1 cent for every $1 I earn in each round"",""The length of the delay is based on how much more money I could have earned.""]",22121,,318713,,,survey-multi-choice,,77
,,,,"[True, True, True, True, False]",,,,,,,,,"[""True or false: The hidden values will change each time I start a new round."",""How much does it cost to observe each hidden value?"",""How many hidden values am I allowed to observe in each round?"",""How is your bonus determined?"",""What does the feedback teach you?""]","[""True"",""$0.10"",""As many or as few as I wish"",""1 cent for every $1 I earn in each round"",""Whether I chose the move that was best.""]",9589,,400077,,,survey-multi-choice,,77
,,,,"[True, True, True, True, True]",,,,,,,,,"[""True or false: The hidden values will change each time I start a new round."",""How much does it cost to observe each hidden value?"",""How many hidden values am I allowed to observe in each round?"",""How is your bonus determined?"",""What does the feedback teach you?""]","[""True"",""$0.10"",""As many or as few as I wish"",""1 cent for every $1 I earn in each round"",""All of the above.""]",11009,,428630,,,survey-multi-choice,,77
,,,,"[True, True, False, True]",,,,,,,,,"[""True or false: The hidden values will change each time I start a new round."",""How much does it cost to observe each hidden value?"",""How many hidden values am I allowed to observe in each round?"",""How is your bonus determined?""]","[""True"",""$1.25"",""At most 1"",""1 cent for every $1 I earn in each round""]",23581,,107589,,,survey-multi-choice,,78
,,,,"[True, True, True, True]",,,,,,,,,"[""True or false: The hidden values will change each time I start a new round."",""How much does it cost to observe each hidden value?"",""How many hidden values am I allowed to observe in each round?"",""How is your bonus determined?""]","[""True"",""$1.25"",""As many or as few as I wish"",""1 cent for every $1 I earn in each round""]",19060,,194304,,,survey-multi-choice,,78
,,,,"[True, True, True, True]",,,,,,,,,"[""True or false: The hidden values will change each time I start a new round."",""How much does it cost to observe each hidden value?"",""How many hidden values am I allowed to observe in each round?"",""How is your bonus determined?""]","[""True"",""$1.25"",""As many or as few as I wish"",""1 cent for every $1 I earn in each round""]",17519,,284659,,,survey-multi-choice,,79
,,,,"[True, True, True, True, True]",,,,,,,,,"[""True or false: The hidden values will change each time I start a new round."",""How much does it cost to observe each hidden value?"",""How many hidden values am I allowed to observe in each round?"",""How is your bonus determined?"",""What does the feedback teach you?""]","[""True"",""$1.25"",""As many or as few as I wish"",""1 cent for every $1 I earn in each round"",""All of the above.""]",23061,,125913,,,survey-multi-choice,,80
,,,,"[True, True, True, True]",,,,,,,,,"[""True or false: The hidden values will change each time I start a new round."",""How much does it cost to observe each hidden value?"",""How many hidden values am I allowed to observe in each round?"",""How is your bonus determined?""]","[""True"",""$4.00"",""As many or as few as I wish"",""1 cent for every $1 I earn in each round""]",111624,,185529,,,survey-multi-choice,,81
,,,,"[True, True, True, True, True]",,,,,,,,,"[""True or false: The hidden values will change each time I start a new round."",""How much does it cost to observe each hidden value?"",""How many hidden values am I allowed to observe in each round?"",""How is your bonus determined?"",""What does the feedback teach you?""]","[""True"",""$1.25"",""As many or as few as I wish"",""1 cent for every $1 I earn in each round"",""All of the above.""]",20595,,178758,,,survey-multi-choice,,82
,,,,"[True, True, True, False, True]",,,,,,,,,"[""True or false: The hidden values will change each time I start a new round."",""How much does it cost to observe each hidden value?"",""How many hidden values am I allowed to observe in each round?"",""How is your bonus determined?"",""What does the feedback teach you?""]","[""True"",""$4.00"",""As many or as few as I wish"",""10% of my best score on any round"",""All of the above.""]",41737,,154942,,,survey-multi-choice,,83
,,,,"[True, True, True, True, False]",,,,,,,,,"[""True or false: The hidden values will change each time I start a new round."",""How much does it cost to observe each hidden value?"",""How many hidden values am I allowed to observe in each round?"",""How is your bonus determined?"",""What does the feedback teach you?""]","[""True"",""$4.00"",""As many or as few as I wish"",""1 cent for every $1 I earn in each round"",""Whether I chose the move that was best according to the information I had.""]",151202,,338652,,,survey-multi-choice,,83
,,,,"[True, True, True, True, False]",,,,,,,,,"[""True or false: The hidden values will change each time I start a new round."",""How much does it cost to observe each hidden value?"",""How many hidden values am I allowed to observe in each round?"",""How is your bonus determined?"",""What does the feedback teach you?""]","[""True"",""$4.00"",""As many or as few as I wish"",""1 cent for every $1 I earn in each round"",""Whether I observed the rewards of relevant locations.""]",12936,,361608,,,survey-multi-choice,,83
,,,,"[True, True, True, True, True]",,,,,,,,,"[""True or false: The hidden values will change each time I start a new round."",""How much does it cost to observe each hidden value?"",""How many hidden values am I allowed to observe in each round?"",""How is your bonus determined?"",""What does the feedback teach you?""]","[""True"",""$4.00"",""As many or as few as I wish"",""1 cent for every $1 I earn in each round"",""All of the above.""]",13487,,383277,,,survey-multi-choice,,83
,,,,"[True, True, True, True]",,,,,,,,,"[""True or false: The hidden values will change each time I start a new round."",""How much does it cost to observe each hidden value?"",""How many hidden values am I allowed to observe in each round?"",""How is your bonus determined?""]","[""True"",""$4.00"",""As many or as few as I wish"",""1 cent for every $1 I earn in each round""]",21581,,290705,,,survey-multi-choice,,84
,,,,"[True, True, True, True, True]",,,,,,,,,"[""True or false: The hidden values will change each time I start a new round."",""How much does it cost to observe each hidden value?"",""How many hidden values am I allowed to observe in each round?"",""How is your bonus determined?"",""What does the feedback teach you?""]","[""True"",""$0.10"",""As many or as few as I wish"",""1 cent for every $1 I earn in each round"",""All of the above.""]",50004,,1626340,,,survey-multi-choice,,85
,,,,"[True, False, True, True, True]",,,,,,,,,"[""True or false: The hidden values will change each time I start a new round."",""How much does it cost to observe each hidden value?"",""How many hidden values am I allowed to observe in each round?"",""How is your bonus determined?"",""What does the feedback teach you?""]","[""True"",""$1.00"",""As many or as few as I wish"",""1 cent for every $1 I earn in each round"",""All of the above.""]",88055,,459854,,,survey-multi-choice,,86
,,,,"[True, True, True, True, True]",,,,,,,,,"[""True or false: The hidden values will change each time I start a new round."",""How much does it cost to observe each hidden value?"",""How many hidden values am I allowed to observe in each round?"",""How is your bonus determined?"",""What does the feedback teach you?""]","[""True"",""$4.00"",""As many or as few as I wish"",""1 cent for every $1 I earn in each round"",""All of the above.""]",13394,,531159,,,survey-multi-choice,,86
,,,,"[True, True, True, True, True]",,,,,,,,,"[""True or false: The hidden values will change each time I start a new round."",""How much does it cost to observe each hidden value?"",""How many hidden values am I allowed to observe in each round?"",""How is your bonus determined?"",""What does the feedback teach you?""]","[""True"",""$1.25"",""As many or as few as I wish"",""1 cent for every $1 I earn in each round"",""All of the above.""]",18791,,118908,,,survey-multi-choice,,87
,,,,"[True, False, True, False, False]",,,,,,,,,"[""True or false: The hidden values will change each time I start a new round."",""How much does it cost to observe each hidden value?"",""How many hidden values am I allowed to observe in each round?"",""How is your bonus determined?"",""What does the feedback teach you?""]","[""True"",""$0.05"",""As many or as few as I wish"",""10% of my best score on any round"",""Whether I chose the move that was best according to the information I had.""]",50004,,134831,,,survey-multi-choice,,88
,,,,"[True, True, True, False, True]",,,,,,,,,"[""True or false: The hidden values will change each time I start a new round."",""How much does it cost to observe each hidden value?"",""How many hidden values am I allowed to observe in each round?"",""How is your bonus determined?"",""What does the feedback teach you?""]","[""True"",""$1.25"",""As many or as few as I wish"",""10% of my best score on any round"",""All of the above.""]",11681,,237641,,,survey-multi-choice,,88
,,,,"[True, True, True, True, True]",,,,,,,,,"[""True or false: The hidden values will change each time I start a new round."",""How much does it cost to observe each hidden value?"",""How many hidden values am I allowed to observe in each round?"",""How is your bonus determined?"",""What does the feedback teach you?""]","[""True"",""$1.25"",""As many or as few as I wish"",""1 cent for every $1 I earn in each round"",""All of the above.""]",9062,,291293,,,survey-multi-choice,,88
,,,,"[True, True, True, True]",,,,,,,,,"[""True or false: The hidden values will change each time I start a new round."",""How much does it cost to observe each hidden value?"",""How many hidden values am I allowed to observe in each round?"",""How is your bonus determined?""]","[""True"",""$4.00"",""As many or as few as I wish"",""1 cent for every $1 I earn in each round""]",14183,,254294,,,survey-multi-choice,,89
,,,,"[True, True, True, True, True]",,,,,,,,,"[""True or false: The hidden values will change each time I start a new round."",""How much does it cost to observe each hidden value?"",""How many hidden values am I allowed to observe in each round?"",""How is your bonus determined?"",""What does the feedback teach you?""]","[""True"",""$4.00"",""As many or as few as I wish"",""1 cent for every $1 I earn in each round"",""All of the above.""]",31992,,160617,,,survey-multi-choice,,90
,,,,"[True, True, True, False, False]",,,,,,,,,"[""True or false: The hidden values will change each time I start a new round."",""How much does it cost to observe each hidden value?"",""How many hidden values am I allowed to observe in each round?"",""How is your bonus determined?"",""What does the feedback teach you?""]","[""True"",""$4.00"",""As many or as few as I wish"",""10% of my best score on any round"",""Whether I observed the rewards of relevant locations.""]",32560,,108749,,,survey-multi-choice,,91
,,,,"[True, True, True, True, True]",,,,,,,,,"[""True or false: The hidden values will change each time I start a new round."",""How much does it cost to observe each hidden value?"",""How many hidden values am I allowed to observe in each round?"",""How is your bonus determined?"",""What does the feedback teach you?""]","[""True"",""$4.00"",""As many or as few as I wish"",""1 cent for every $1 I earn in each round"",""All of the above.""]",14749,,162498,,,survey-multi-choice,,91
,,,,"[True, True, True, False]",,,,,,,,,"[""True or false: The hidden values will change each time I start a new round."",""How much does it cost to observe each hidden value?"",""How many hidden values am I allowed to observe in each round?"",""How is your bonus determined?""]","[""True"",""$1.25"",""As many or as few as I wish"",""1% of my best score on any round""]",22699,,38532,,,survey-multi-choice,,92
,,,,"[False, True, False, True]",,,,,,,,,"[""True or false: The hidden values will change each time I start a new round."",""How much does it cost to observe each hidden value?"",""How many hidden values am I allowed to observe in each round?"",""How is your bonus determined?""]","[""False"",""$1.25"",""At most 15"",""1 cent for every $1 I earn in each round""]",16686,,213701,,,survey-multi-choice,,92
,,,,"[True, True, False, True]",,,,,,,,,"[""True or false: The hidden values will change each time I start a new round."",""How much does it cost to observe each hidden value?"",""How many hidden values am I allowed to observe in each round?"",""How is your bonus determined?""]","[""True"",""$1.25"",""At most 1"",""1 cent for every $1 I earn in each round""]",28772,,257047,,,survey-multi-choice,,92
,,,,"[False, True, False, True]",,,,,,,,,"[""True or false: The hidden values will change each time I start a new round."",""How much does it cost to observe each hidden value?"",""How many hidden values am I allowed to observe in each round?"",""How is your bonus determined?""]","[""False"",""$1.25"",""At most 15"",""1 cent for every $1 I earn in each round""]",12084,,276787,,,survey-multi-choice,,92
,,,,"[False, True, False, True]",,,,,,,,,"[""True or false: The hidden values will change each time I start a new round."",""How much does it cost to observe each hidden value?"",""How many hidden values am I allowed to observe in each round?"",""How is your bonus determined?""]","[""False"",""$1.25"",""At most 10"",""1 cent for every $1 I earn in each round""]",10250,,321203,,,survey-multi-choice,,92
,,,,"[True, True, True, True]",,,,,,,,,"[""True or false: The hidden values will change each time I start a new round."",""How much does it cost to observe each hidden value?"",""How many hidden values am I allowed to observe in each round?"",""How is your bonus determined?""]","[""True"",""$1.25"",""As many or as few as I wish"",""1 cent for every $1 I earn in each round""]",13889,,367347,,,survey-multi-choice,,92
,,,,"[True, True, True, True, True]",,,,,,,,,"[""True or false: The hidden values will change each time I start a new round."",""How much does it cost to observe each hidden value?"",""How many hidden values am I allowed to observe in each round?"",""How is your bonus determined?"",""What does the feedback teach you?""]","[""True"",""$1.25"",""As many or as few as I wish"",""1 cent for every $1 I earn in each round"",""All of the above.""]",26916,,181909,,,survey-multi-choice,,93
,,,,"[True, True, True, True]",,,,,,,,,"[""True or false: The hidden values will change each time I start a new round."",""How much does it cost to observe each hidden value?"",""How many hidden values am I allowed to observe in each round?"",""How is your bonus determined?""]","[""True"",""$1.25"",""As many or as few as I wish"",""1 cent for every $1 I earn in each round""]",14604,,114633,,,survey-multi-choice,,94
,,,,"[True, True, True, False]",,,,,,,,,"[""True or false: The hidden values will change each time I start a new round."",""How much does it cost to observe each hidden value?"",""How many hidden values am I allowed to observe in each round?"",""How is your bonus determined?""]","[""True"",""$1.25"",""As many or as few as I wish"",""1% of my best score on any round""]",14986,,101993,,,survey-multi-choice,,95
,,,,"[True, True, True, True]",,,,,,,,,"[""True or false: The hidden values will change each time I start a new round."",""How much does it cost to observe each hidden value?"",""How many hidden values am I allowed to observe in each round?"",""How is your bonus determined?""]","[""True"",""$1.25"",""As many or as few as I wish"",""1 cent for every $1 I earn in each round""]",7785,,127299,,,survey-multi-choice,,95
,,,,"[True, True, True, True]",,,,,,,,,"[""True or false: The hidden values will change each time I start a new round."",""How much does it cost to observe each hidden value?"",""How many hidden values am I allowed to observe in each round?"",""How is your bonus determined?""]","[""True"",""$4.00"",""As many or as few as I wish"",""1 cent for every $1 I earn in each round""]",15898,,132215,,,survey-multi-choice,,96
,,,,"[True, True, True, True]",,,,,,,,,"[""True or false: The hidden values will change each time I start a new round."",""How much does it cost to observe each hidden value?"",""How many hidden values am I allowed to observe in each round?"",""How is your bonus determined?""]","[""True"",""$1.25"",""As many or as few as I wish"",""1 cent for every $1 I earn in each round""]",17734,,120213,,,survey-multi-choice,,97
,,,,"[True, True, True, True]",,,,,,,,,"[""True or false: The hidden values will change each time I start a new round."",""How much does it cost to observe each hidden value?"",""How many hidden values am I allowed to observe in each round?"",""How is your bonus determined?""]","[""True"",""$0.10"",""As many or as few as I wish"",""1 cent for every $1 I earn in each round""]",21815,,163409,,,survey-multi-choice,,98
,,,,"[True, False, True, True, True]",,,,,,,,,"[""True or false: The hidden values will change each time I start a new round."",""How much does it cost to observe each hidden value?"",""How many hidden values am I allowed to observe in each round?"",""How is your bonus determined?"",""What does the feedback teach you?""]","[""True"",""$0.05"",""As many or as few as I wish"",""1 cent for every $1 I earn in each round"",""All of the above.""]",34776,,154968,,,survey-multi-choice,,99
,,,,"[True, True, True, True, True]",,,,,,,,,"[""True or false: The hidden values will change each time I start a new round."",""How much does it cost to observe each hidden value?"",""How many hidden values am I allowed to observe in each round?"",""How is your bonus determined?"",""What does the feedback teach you?""]","[""True"",""$0.10"",""As many or as few as I wish"",""1 cent for every $1 I earn in each round"",""All of the above.""]",14508,,241108,,,survey-multi-choice,,99
,,,,"[True, True, True, True]",,,,,,,,,"[""True or false: The hidden values will change each time I start a new round."",""How much does it cost to observe each hidden value?"",""How many hidden values am I allowed to observe in each round?"",""How is your bonus determined?""]","[""True"",""$0.10"",""As many or as few as I wish"",""1 cent for every $1 I earn in each round""]",12828,,142274,,,survey-multi-choice,,100
,,,,"[True, True, True, True, True]",,,,,,,,,"[""True or false: The hidden values will change each time I start a new round."",""How much does it cost to observe each hidden value?"",""How many hidden values am I allowed to observe in each round?"",""How is your bonus determined?"",""What does the feedback teach you?""]","[""True"",""$4.00"",""As many or as few as I wish"",""1 cent for every $1 I earn in each round"",""All of the above.""]",34771,,270558,,,survey-multi-choice,,101
,,,,"[True, True, True, False, True]",,,,,,,,,"[""True or false: The hidden values will change each time I start a new round."",""How much does it cost to observe each hidden value?"",""How many hidden values am I allowed to observe in each round?"",""How is your bonus determined?"",""What does the feedback teach you?""]","[""True"",""$4.00"",""As many or as few as I wish"",""10% of my best score on any round"",""All of the above.""]",48185,,129797,,,survey-multi-choice,,102
,,,,"[True, True, True, True, True]",,,,,,,,,"[""True or false: The hidden values will change each time I start a new round."",""How much does it cost to observe each hidden value?"",""How many hidden values am I allowed to observe in each round?"",""How is your bonus determined?"",""What does the feedback teach you?""]","[""True"",""$4.00"",""As many or as few as I wish"",""1 cent for every $1 I earn in each round"",""All of the above.""]",25409,,216874,,,survey-multi-choice,,102
,,,,"[True, True, True, False, False]",,,,,,,,,"[""True or false: The hidden values will change each time I start a new round."",""How much does it cost to observe each hidden value?"",""How many hidden values am I allowed to observe in each round?"",""How is your bonus determined?"",""What does the feedback teach you?""]","[""True"",""$1.25"",""As many or as few as I wish"",""10% of my best score on any round"",""Whether I observed the rewards of relevant locations.""]",61610,,262401,,,survey-multi-choice,,103
,,,,"[True, True, True, False, True]",,,,,,,,,"[""True or false: The hidden values will change each time I start a new round."",""How much does it cost to observe each hidden value?"",""How many hidden values am I allowed to observe in each round?"",""How is your bonus determined?"",""What does the feedback teach you?""]","[""True"",""$1.25"",""As many or as few as I wish"",""10% of my best score on any round"",""All of the above.""]",35866,,391325,,,survey-multi-choice,,103
,,,,"[True, True, True, False, True]",,,,,,,,,"[""True or false: The hidden values will change each time I start a new round."",""How much does it cost to observe each hidden value?"",""How many hidden values am I allowed to observe in each round?"",""How is your bonus determined?"",""What does the feedback teach you?""]","[""True"",""$1.25"",""As many or as few as I wish"",""1% of my best score on any round"",""All of the above.""]",26533,,539193,,,survey-multi-choice,,103
,,,,"[True, True, True, True, True]",,,,,,,,,"[""True or false: The hidden values will change each time I start a new round."",""How much does it cost to observe each hidden value?"",""How many hidden values am I allowed to observe in each round?"",""How is your bonus determined?"",""What does the feedback teach you?""]","[""True"",""$1.25"",""As many or as few as I wish"",""1 cent for every $1 I earn in each round"",""All of the above.""]",11853,,555142,,,survey-multi-choice,,103
,,,,"[True, True, True, True, True]",,,,,,,,,"[""True or false: The hidden values will change each time I start a new round."",""How much does it cost to observe each hidden value?"",""How many hidden values am I allowed to observe in each round?"",""How is your bonus determined?"",""What does the feedback teach you?""]","[""True"",""$1.25"",""As many or as few as I wish"",""1 cent for every $1 I earn in each round"",""All of the above.""]",35189,,112461,,,survey-multi-choice,,104
,,,,"[True, False, True, True, True]",,,,,,,,,"[""True or false: The hidden values will change each time I start a new round."",""How much does it cost to observe each hidden value?"",""How many hidden values am I allowed to observe in each round?"",""How is your bonus determined?"",""What does the feedback teach you?""]","[""True"",""$0.01"",""As many or as few as I wish"",""1 cent for every $1 I earn in each round"",""All of the above.""]",26830,,82431,,,survey-multi-choice,,105
,,,,"[True, True, True, True, True]",,,,,,,,,"[""True or false: The hidden values will change each time I start a new round."",""How much does it cost to observe each hidden value?"",""How many hidden values am I allowed to observe in each round?"",""How is your bonus determined?"",""What does the feedback teach you?""]","[""True"",""$0.10"",""As many or as few as I wish"",""1 cent for every $1 I earn in each round"",""All of the above.""]",7176,,106739,,,survey-multi-choice,,105
,,,,"[False, True, True, True, True]",,,,,,,,,"[""True or false: The hidden values will change each time I start a new round."",""How much does it cost to observe each hidden value?"",""How many hidden values am I allowed to observe in each round?"",""How is your bonus determined?"",""What does the feedback teach you?""]","[""False"",""$4.00"",""As many or as few as I wish"",""1 cent for every $1 I earn in each round"",""All of the above.""]",28980,,175407,,,survey-multi-choice,,106
,,,,"[True, True, True, True, True]",,,,,,,,,"[""True or false: The hidden values will change each time I start a new round."",""How much does it cost to observe each hidden value?"",""How many hidden values am I allowed to observe in each round?"",""How is your bonus determined?"",""What does the feedback teach you?""]","[""True"",""$4.00"",""As many or as few as I wish"",""1 cent for every $1 I earn in each round"",""All of the above.""]",21545,,255156,,,survey-multi-choice,,106
,,,,"[True, True, True, True]",,,,,,,,,"[""True or false: The hidden values will change each time I start a new round."",""How much does it cost to observe each hidden value?"",""How many hidden values am I allowed to observe in each round?"",""How is your bonus determined?""]","[""True"",""$4.00"",""As many or as few as I wish"",""1 cent for every $1 I earn in each round""]",18565,,165682,,,survey-multi-choice,,107
,,,,"[True, True, True, True, True]",,,,,,,,,"[""True or false: The hidden values will change each time I start a new round."",""How much does it cost to observe each hidden value?"",""How many hidden values am I allowed to observe in each round?"",""How is your bonus determined?"",""What does the feedback teach you?""]","[""True"",""$1.25"",""As many or as few as I wish"",""1 cent for every $1 I earn in each round"",""All of the above.""]",33202,,231860,,,survey-multi-choice,,108
,,,,"[True, True, True, True, True]",,,,,,,,,"[""True or false: The hidden values will change each time I start a new round."",""How much does it cost to observe each hidden value?"",""How many hidden values am I allowed to observe in each round?"",""How is your bonus determined?"",""What does the feedback teach you?""]","[""True"",""$1.25"",""As many or as few as I wish"",""1 cent for every $1 I earn in each round"",""All of the above.""]",71767,,364014,,,survey-multi-choice,,109
,,,,"[True, True, True, True, True]",,,,,,,,,"[""True or false: The hidden values will change each time I start a new round."",""How much does it cost to observe each hidden value?"",""How many hidden values am I allowed to observe in each round?"",""How is your bonus determined?"",""What does the feedback teach you?""]","[""True"",""$4.00"",""As many or as few as I wish"",""1 cent for every $1 I earn in each round"",""All of the above.""]",27213,,257654,,,survey-multi-choice,,110
,,,,"[True, True, True, True]",,,,,,,,,"[""True or false: The hidden values will change each time I start a new round."",""How much does it cost to observe each hidden value?"",""How many hidden values am I allowed to observe in each round?"",""How is your bonus determined?""]","[""True"",""$1.25"",""As many or as few as I wish"",""1 cent for every $1 I earn in each round""]",19072,,200293,,,survey-multi-choice,,111
