action_times,actions,button_pressed,correct,delays,key_press,path,queries,questions,responses,rt,score,stimulus,time_elapsed,trial_index,trial_i,trial_type,view_history,pid
,,0.0,,,,,,,,1447,,"<h1 id=""youvecompletedthehit"">You've completed the HIT</h1>

<p>Thanks again for participating. We hope you had fun!</p>

<p>Based on your performance, you will be
awarded a bonus of <strong>$3.33</strong>.</p>",1248580,,,button-response,,0
,,0.0,,,,,,,,1354,,"<h1 id=""youvecompletedthehit"">You've completed the HIT</h1>

<p>Thanks again for participating. We hope you had fun!</p>

<p>Based on your performance, you will be
awarded a bonus of <strong>$3.27</strong>.</p>",1312464,,,button-response,,2
,,0.0,,,,,,,,7019,,"<h1 id=""youvecompletedthehit"">You've completed the HIT</h1>

<p>Thanks again for participating. We hope you had fun!</p>

<p>Based on your performance, you will be
awarded a bonus of <strong>$2.44</strong>.</p>",1171931,,,button-response,,3
,,0.0,,,,,,,,3765,,"<h1 id=""youvecompletedthehit"">You've completed the HIT</h1>

<p>Thanks again for participating. We hope you had fun!</p>

<p>Based on your performance, you will be
awarded a bonus of <strong>$2.24</strong>.</p>",1315401,,,button-response,,4
,,0.0,,,,,,,,7511,,"<h1 id=""youvecompletedthehit"">You've completed the HIT</h1>

<p>Thanks again for participating. We hope you had fun!</p>

<p>Based on your performance, you will be
awarded a bonus of <strong>$1.91</strong>.</p>",1318895,,,button-response,,6
,,0.0,,,,,,,,5776,,"<h1 id=""youvecompletedthehit"">You've completed the HIT</h1>

<p>Thanks again for participating. We hope you had fun!</p>

<p>Based on your performance, you will be
awarded a bonus of <strong>$3.27</strong>.</p>",1115438,,,button-response,,7
,,0.0,,,,,,,,7120,,"<h1 id=""youvecompletedthehit"">You've completed the HIT</h1>

<p>Thanks again for participating. We hope you had fun!</p>

<p>Based on your performance, you will be
awarded a bonus of <strong>$3.33</strong>.</p>",1158602,,,button-response,,8
,,0.0,,,,,,,,5729,,"<h1 id=""youvecompletedthehit"">You've completed the HIT</h1>

<p>Thanks again for participating. We hope you had fun!</p>

<p>Based on your performance, you will be
awarded a bonus of <strong>$3.03</strong>.</p>",1140641,,,button-response,,9
,,0.0,,,,,,,,3567,,"<h1 id=""youvecompletedthehit"">You've completed the HIT</h1>

<p>Thanks again for participating. We hope you had fun!</p>

<p>Based on your performance, you will be
awarded a bonus of <strong>$2.53</strong>.</p>",1034724,,,button-response,,10
,,0.0,,,,,,,,10187,,"<h1 id=""youvecompletedthehit"">You've completed the HIT</h1>

<p>Thanks again for participating. We hope you had fun!</p>

<p>Based on your performance, you will be
awarded a bonus of <strong>$2.91</strong>.</p>",1301200,,,button-response,,11
,,0.0,,,,,,,,4927,,"<h1 id=""youvecompletedthehit"">You've completed the HIT</h1>

<p>Thanks again for participating. We hope you had fun!</p>

<p>Based on your performance, you will be
awarded a bonus of <strong>$2.84</strong>.</p>",1111139,,,button-response,,12
,,0.0,,,,,,,,3480,,"<h1 id=""youvecompletedthehit"">You've completed the HIT</h1>

<p>Thanks again for participating. We hope you had fun!</p>

<p>Based on your performance, you will be
awarded a bonus of <strong>$1.90</strong>.</p>",1248314,,,button-response,,13
,,0.0,,,,,,,,8700,,"<h1 id=""youvecompletedthehit"">You've completed the HIT</h1>

<p>Thanks again for participating. We hope you had fun!</p>

<p>Based on your performance, you will be
awarded a bonus of <strong>$3.14</strong>.</p>",1464227,,,button-response,,14
,,0.0,,,,,,,,3374,,"<h1 id=""youvecompletedthehit"">You've completed the HIT</h1>

<p>Thanks again for participating. We hope you had fun!</p>

<p>Based on your performance, you will be
awarded a bonus of <strong>$0.73</strong>.</p>",1515286,,,button-response,,15
,,0.0,,,,,,,,1956,,"<h1 id=""youvecompletedthehit"">You've completed the HIT</h1>

<p>Thanks again for participating. We hope you had fun!</p>

<p>Based on your performance, you will be
awarded a bonus of <strong>$2.84</strong>.</p>",1008188,,,button-response,,16
,,0.0,,,,,,,,1806,,"<h1 id=""youvecompletedthehit"">You've completed the HIT</h1>

<p>Thanks again for participating. We hope you had fun!</p>

<p>Based on your performance, you will be
awarded a bonus of <strong>$3.42</strong>.</p>",1267447,,,button-response,,18
,,0.0,,,,,,,,3765,,"<h1 id=""youvecompletedthehit"">You've completed the HIT</h1>

<p>Thanks again for participating. We hope you had fun!</p>

<p>Based on your performance, you will be
awarded a bonus of <strong>$2.91</strong>.</p>",1332846,,,button-response,,19
,,0.0,,,,,,,,3253,,"<h1 id=""youvecompletedthehit"">You've completed the HIT</h1>

<p>Thanks again for participating. We hope you had fun!</p>

<p>Based on your performance, you will be
awarded a bonus of <strong>$2.87</strong>.</p>",1157772,,,button-response,,20
,,0.0,,,,,,,,23363,,"<h1 id=""youvecompletedthehit"">You've completed the HIT</h1>

<p>Thanks again for participating. We hope you had fun!</p>

<p>Based on your performance, you will be
awarded a bonus of <strong>$3.36</strong>.</p>",1290192,,,button-response,,21
,,0.0,,,,,,,,3774,,"<h1 id=""youvecompletedthehit"">You've completed the HIT</h1>

<p>Thanks again for participating. We hope you had fun!</p>

<p>Based on your performance, you will be
awarded a bonus of <strong>$2.75</strong>.</p>",1251471,,,button-response,,22
,,0.0,,,,,,,,3659,,"<h1 id=""youvecompletedthehit"">You've completed the HIT</h1>

<p>Thanks again for participating. We hope you had fun!</p>

<p>Based on your performance, you will be
awarded a bonus of <strong>$1.29</strong>.</p>",1604803,,,button-response,,23
,,0.0,,,,,,,,5956,,"<h1 id=""youvecompletedthehit"">You've completed the HIT</h1>

<p>Thanks again for participating. We hope you had fun!</p>

<p>Based on your performance, you will be
awarded a bonus of <strong>$1.18</strong>.</p>",2458669,,,button-response,,24
,,0.0,,,,,,,,999,,"<h1 id=""youvecompletedthehit"">You've completed the HIT</h1>

<p>Thanks again for participating. We hope you had fun!</p>

<p>Based on your performance, you will be
awarded a bonus of <strong>$2.64</strong>.</p>",1213358,,,button-response,,25
,,0.0,,,,,,,,9764,,"<h1 id=""youvecompletedthehit"">You've completed the HIT</h1>

<p>Thanks again for participating. We hope you had fun!</p>

<p>Based on your performance, you will be
awarded a bonus of <strong>$2.34</strong>.</p>",1121999,,,button-response,,26
,,0.0,,,,,,,,2884,,"<h1 id=""youvecompletedthehit"">You've completed the HIT</h1>

<p>Thanks again for participating. We hope you had fun!</p>

<p>Based on your performance, you will be
awarded a bonus of <strong>$2.83</strong>.</p>",903664,,,button-response,,27
,,0.0,,,,,,,,6834,,"<h1 id=""youvecompletedthehit"">You've completed the HIT</h1>

<p>Thanks again for participating. We hope you had fun!</p>

<p>Based on your performance, you will be
awarded a bonus of <strong>$3.05</strong>.</p>",1756534,,,button-response,,28
,,0.0,,,,,,,,6532,,"<h1 id=""youvecompletedthehit"">You've completed the HIT</h1>

<p>Thanks again for participating. We hope you had fun!</p>

<p>Based on your performance, you will be
awarded a bonus of <strong>$0.68</strong>.</p>",1366977,,,button-response,,29
,,0.0,,,,,,,,5565,,"<h1 id=""youvecompletedthehit"">You've completed the HIT</h1>

<p>Thanks again for participating. We hope you had fun!</p>

<p>Based on your performance, you will be
awarded a bonus of <strong>$2.34</strong>.</p>",1830933,,,button-response,,31
,,0.0,,,,,,,,2927,,"<h1 id=""youvecompletedthehit"">You've completed the HIT</h1>

<p>Thanks again for participating. We hope you had fun!</p>

<p>Based on your performance, you will be
awarded a bonus of <strong>$3.42</strong>.</p>",1258630,,,button-response,,32
,,0.0,,,,,,,,6385,,"<h1 id=""youvecompletedthehit"">You've completed the HIT</h1>

<p>Thanks again for participating. We hope you had fun!</p>

<p>Based on your performance, you will be
awarded a bonus of <strong>$2.75</strong>.</p>",982579,,,button-response,,33
,,0.0,,,,,,,,1607,,"<h1 id=""youvecompletedthehit"">You've completed the HIT</h1>

<p>Thanks again for participating. We hope you had fun!</p>

<p>Based on your performance, you will be
awarded a bonus of <strong>$2.84</strong>.</p>",1222420,,,button-response,,34
,,0.0,,,,,,,,9304,,"<h1 id=""youvecompletedthehit"">You've completed the HIT</h1>

<p>Thanks again for participating. We hope you had fun!</p>

<p>Based on your performance, you will be
awarded a bonus of <strong>$1.64</strong>.</p>",1522816,,,button-response,,35
,,0.0,,,,,,,,8899,,"<h1 id=""youvecompletedthehit"">You've completed the HIT</h1>

<p>Thanks again for participating. We hope you had fun!</p>

<p>Based on your performance, you will be
awarded a bonus of <strong>$2.73</strong>.</p>",1301271,,,button-response,,36
,,0.0,,,,,,,,2383,,"<h1 id=""youvecompletedthehit"">You've completed the HIT</h1>

<p>Thanks again for participating. We hope you had fun!</p>

<p>Based on your performance, you will be
awarded a bonus of <strong>$1.49</strong>.</p>",1714147,,,button-response,,37
,,0.0,,,,,,,,4221,,"<h1 id=""youvecompletedthehit"">You've completed the HIT</h1>

<p>Thanks again for participating. We hope you had fun!</p>

<p>Based on your performance, you will be
awarded a bonus of <strong>$2.43</strong>.</p>",1079039,,,button-response,,38
,,0.0,,,,,,,,3489,,"<h1 id=""youvecompletedthehit"">You've completed the HIT</h1>

<p>Thanks again for participating. We hope you had fun!</p>

<p>Based on your performance, you will be
awarded a bonus of <strong>$2.45</strong>.</p>",1330378,,,button-response,,39
,,0.0,,,,,,,,2722,,"<h1 id=""youvecompletedthehit"">You've completed the HIT</h1>

<p>Thanks again for participating. We hope you had fun!</p>

<p>Based on your performance, you will be
awarded a bonus of <strong>$3.24</strong>.</p>",1213533,,,button-response,,40
,,0.0,,,,,,,,4569,,"<h1 id=""youvecompletedthehit"">You've completed the HIT</h1>

<p>Thanks again for participating. We hope you had fun!</p>

<p>Based on your performance, you will be
awarded a bonus of <strong>$3.02</strong>.</p>",1025916,,,button-response,,41
,,0.0,,,,,,,,5943,,"<h1 id=""youvecompletedthehit"">You've completed the HIT</h1>

<p>Thanks again for participating. We hope you had fun!</p>

<p>Based on your performance, you will be
awarded a bonus of <strong>$1.53</strong>.</p>",1376971,,,button-response,,43
,,0.0,,,,,,,,2263,,"<h1 id=""youvecompletedthehit"">You've completed the HIT</h1>

<p>Thanks again for participating. We hope you had fun!</p>

<p>Based on your performance, you will be
awarded a bonus of <strong>$2.91</strong>.</p>",2428328,,,button-response,,44
,,0.0,,,,,,,,8173,,"<h1 id=""youvecompletedthehit"">You've completed the HIT</h1>

<p>Thanks again for participating. We hope you had fun!</p>

<p>Based on your performance, you will be
awarded a bonus of <strong>$2.67</strong>.</p>",1615411,,,button-response,,45
,,0.0,,,,,,,,5239,,"<h1 id=""youvecompletedthehit"">You've completed the HIT</h1>

<p>Thanks again for participating. We hope you had fun!</p>

<p>Based on your performance, you will be
awarded a bonus of <strong>$2.95</strong>.</p>",1122325,,,button-response,,46
,,0.0,,,,,,,,10808,,"<h1 id=""youvecompletedthehit"">You've completed the HIT</h1>

<p>Thanks again for participating. We hope you had fun!</p>

<p>Based on your performance, you will be
awarded a bonus of <strong>$3.22</strong>.</p>",1328308,,,button-response,,47
,,0.0,,,,,,,,2781,,"<h1 id=""youvecompletedthehit"">You've completed the HIT</h1>

<p>Thanks again for participating. We hope you had fun!</p>

<p>Based on your performance, you will be
awarded a bonus of <strong>$2.55</strong>.</p>",1232077,,,button-response,,48
,,0.0,,,,,,,,4079,,"<h1 id=""youvecompletedthehit"">You've completed the HIT</h1>

<p>Thanks again for participating. We hope you had fun!</p>

<p>Based on your performance, you will be
awarded a bonus of <strong>$1.82</strong>.</p>",1318951,,,button-response,,49
,,0.0,,,,,,,,2464,,"<h1 id=""youvecompletedthehit"">You've completed the HIT</h1>

<p>Thanks again for participating. We hope you had fun!</p>

<p>Based on your performance, you will be
awarded a bonus of <strong>$0.88</strong>.</p>",1195831,,,button-response,,50
,,0.0,,,,,,,,2997,,"<h1 id=""youvecompletedthehit"">You've completed the HIT</h1>

<p>Thanks again for participating. We hope you had fun!</p>

<p>Based on your performance, you will be
awarded a bonus of <strong>$1.91</strong>.</p>",1384401,,,button-response,,51
,,0.0,,,,,,,,1695,,"<h1 id=""youvecompletedthehit"">You've completed the HIT</h1>

<p>Thanks again for participating. We hope you had fun!</p>

<p>Based on your performance, you will be
awarded a bonus of <strong>$2.57</strong>.</p>",1183269,,,button-response,,52
,,0.0,,,,,,,,3884,,"<h1 id=""youvecompletedthehit"">You've completed the HIT</h1>

<p>Thanks again for participating. We hope you had fun!</p>

<p>Based on your performance, you will be
awarded a bonus of <strong>$3.13</strong>.</p>",964380,,,button-response,,53
,,0.0,,,,,,,,6041,,"<h1 id=""youvecompletedthehit"">You've completed the HIT</h1>

<p>Thanks again for participating. We hope you had fun!</p>

<p>Based on your performance, you will be
awarded a bonus of <strong>$3.04</strong>.</p>",1474641,,,button-response,,54
,,0.0,,,,,,,,8190,,"<h1 id=""youvecompletedthehit"">You've completed the HIT</h1>

<p>Thanks again for participating. We hope you had fun!</p>

<p>Based on your performance, you will be
awarded a bonus of <strong>$3.38</strong>.</p>",995484,,,button-response,,55
,,0.0,,,,,,,,1920,,"<h1 id=""youvecompletedthehit"">You've completed the HIT</h1>

<p>Thanks again for participating. We hope you had fun!</p>

<p>Based on your performance, you will be
awarded a bonus of <strong>$2.54</strong>.</p>",1529470,,,button-response,,56
,,0.0,,,,,,,,5650,,"<h1 id=""youvecompletedthehit"">You've completed the HIT</h1>

<p>Thanks again for participating. We hope you had fun!</p>

<p>Based on your performance, you will be
awarded a bonus of <strong>$2.36</strong>.</p>",1222889,,,button-response,,57
,,0.0,,,,,,,,4158,,"<h1 id=""youvecompletedthehit"">You've completed the HIT</h1>

<p>Thanks again for participating. We hope you had fun!</p>

<p>Based on your performance, you will be
awarded a bonus of <strong>$2.63</strong>.</p>",1063766,,,button-response,,58
,,0.0,,,,,,,,6301,,"<h1 id=""youvecompletedthehit"">You've completed the HIT</h1>

<p>Thanks again for participating. We hope you had fun!</p>

<p>Based on your performance, you will be
awarded a bonus of <strong>$2.87</strong>.</p>",1037416,,,button-response,,59
,,0.0,,,,,,,,4325,,"<h1 id=""youvecompletedthehit"">You've completed the HIT</h1>

<p>Thanks again for participating. We hope you had fun!</p>

<p>Based on your performance, you will be
awarded a bonus of <strong>$3.16</strong>.</p>",1019969,,,button-response,,60
,,0.0,,,,,,,,3350,,"<h1 id=""youvecompletedthehit"">You've completed the HIT</h1>

<p>Thanks again for participating. We hope you had fun!</p>

<p>Based on your performance, you will be
awarded a bonus of <strong>$3.29</strong>.</p>",1391726,,,button-response,,61
,,0.0,,,,,,,,9445,,"<h1 id=""youvecompletedthehit"">You've completed the HIT</h1>

<p>Thanks again for participating. We hope you had fun!</p>

<p>Based on your performance, you will be
awarded a bonus of <strong>$3.26</strong>.</p>",2180311,,,button-response,,62
,,0.0,,,,,,,,2756,,"<h1 id=""youvecompletedthehit"">You've completed the HIT</h1>

<p>Thanks again for participating. We hope you had fun!</p>

<p>Based on your performance, you will be
awarded a bonus of <strong>$1.32</strong>.</p>",1204708,,,button-response,,66
,,0.0,,,,,,,,4574,,"<h1 id=""youvecompletedthehit"">You've completed the HIT</h1>

<p>Thanks again for participating. We hope you had fun!</p>

<p>Based on your performance, you will be
awarded a bonus of <strong>$3.07</strong>.</p>",1329853,,,button-response,,67
,,0.0,,,,,,,,2149,,"<h1 id=""youvecompletedthehit"">You've completed the HIT</h1>

<p>Thanks again for participating. We hope you had fun!</p>

<p>Based on your performance, you will be
awarded a bonus of <strong>$3.05</strong>.</p>",997478,,,button-response,,68
,,0.0,,,,,,,,2209,,"<h1 id=""youvecompletedthehit"">You've completed the HIT</h1>

<p>Thanks again for participating. We hope you had fun!</p>

<p>Based on your performance, you will be
awarded a bonus of <strong>$2.98</strong>.</p>",1142170,,,button-response,,69
,,0.0,,,,,,,,2957,,"<h1 id=""youvecompletedthehit"">You've completed the HIT</h1>

<p>Thanks again for participating. We hope you had fun!</p>

<p>Based on your performance, you will be
awarded a bonus of <strong>$1.24</strong>.</p>",1579365,,,button-response,,70
,,0.0,,,,,,,,2785,,"<h1 id=""youvecompletedthehit"">You've completed the HIT</h1>

<p>Thanks again for participating. We hope you had fun!</p>

<p>Based on your performance, you will be
awarded a bonus of <strong>$2.99</strong>.</p>",1191379,,,button-response,,71
,,0.0,,,,,,,,4774,,"<h1 id=""youvecompletedthehit"">You've completed the HIT</h1>

<p>Thanks again for participating. We hope you had fun!</p>

<p>Based on your performance, you will be
awarded a bonus of <strong>$2.49</strong>.</p>",1298216,,,button-response,,72
,,0.0,,,,,,,,4546,,"<h1 id=""youvecompletedthehit"">You've completed the HIT</h1>

<p>Thanks again for participating. We hope you had fun!</p>

<p>Based on your performance, you will be
awarded a bonus of <strong>$2.41</strong>.</p>",1239283,,,button-response,,73
,,0.0,,,,,,,,2771,,"<h1 id=""youvecompletedthehit"">You've completed the HIT</h1>

<p>Thanks again for participating. We hope you had fun!</p>

<p>Based on your performance, you will be
awarded a bonus of <strong>$1.87</strong>.</p>",1289935,,,button-response,,74
,,0.0,,,,,,,,2278,,"<h1 id=""youvecompletedthehit"">You've completed the HIT</h1>

<p>Thanks again for participating. We hope you had fun!</p>

<p>Based on your performance, you will be
awarded a bonus of <strong>$3.26</strong>.</p>",1095721,,,button-response,,75
,,0.0,,,,,,,,4638,,"<h1 id=""youvecompletedthehit"">You've completed the HIT</h1>

<p>Thanks again for participating. We hope you had fun!</p>

<p>Based on your performance, you will be
awarded a bonus of <strong>$3.23</strong>.</p>",1175396,,,button-response,,76
,,0.0,,,,,,,,1991,,"<h1 id=""youvecompletedthehit"">You've completed the HIT</h1>

<p>Thanks again for participating. We hope you had fun!</p>

<p>Based on your performance, you will be
awarded a bonus of <strong>$3.09</strong>.</p>",945985,,,button-response,,77
,,0.0,,,,,,,,6991,,"<h1 id=""youvecompletedthehit"">You've completed the HIT</h1>

<p>Thanks again for participating. We hope you had fun!</p>

<p>Based on your performance, you will be
awarded a bonus of <strong>$2.18</strong>.</p>",1754448,,,button-response,,78
,,0.0,,,,,,,,1545,,"<h1 id=""youvecompletedthehit"">You've completed the HIT</h1>

<p>Thanks again for participating. We hope you had fun!</p>

<p>Based on your performance, you will be
awarded a bonus of <strong>$2.15</strong>.</p>",2857617,,,button-response,,80
,,0.0,,,,,,,,5644,,"<h1 id=""youvecompletedthehit"">You've completed the HIT</h1>

<p>Thanks again for participating. We hope you had fun!</p>

<p>Based on your performance, you will be
awarded a bonus of <strong>$2.94</strong>.</p>",2598936,,,button-response,,81
,,0.0,,,,,,,,7911,,"<h1 id=""youvecompletedthehit"">You've completed the HIT</h1>

<p>Thanks again for participating. We hope you had fun!</p>

<p>Based on your performance, you will be
awarded a bonus of <strong>$2.05</strong>.</p>",1303381,,,button-response,,82
,,0.0,,,,,,,,3864,,"<h1 id=""youvecompletedthehit"">You've completed the HIT</h1>

<p>Thanks again for participating. We hope you had fun!</p>

<p>Based on your performance, you will be
awarded a bonus of <strong>$2.45</strong>.</p>",1169228,,,button-response,,83
,,0.0,,,,,,,,2745,,"<h1 id=""youvecompletedthehit"">You've completed the HIT</h1>

<p>Thanks again for participating. We hope you had fun!</p>

<p>Based on your performance, you will be
awarded a bonus of <strong>$3.12</strong>.</p>",1158149,,,button-response,,84
,,0.0,,,,,,,,3223,,"<h1 id=""youvecompletedthehit"">You've completed the HIT</h1>

<p>Thanks again for participating. We hope you had fun!</p>

<p>Based on your performance, you will be
awarded a bonus of <strong>$1.76</strong>.</p>",1690062,,,button-response,,85
,,0.0,,,,,,,,3148,,"<h1 id=""youvecompletedthehit"">You've completed the HIT</h1>

<p>Thanks again for participating. We hope you had fun!</p>

<p>Based on your performance, you will be
awarded a bonus of <strong>$2.10</strong>.</p>",1512242,,,button-response,,86
,,0.0,,,,,,,,4487,,"<h1 id=""youvecompletedthehit"">You've completed the HIT</h1>

<p>Thanks again for participating. We hope you had fun!</p>

<p>Based on your performance, you will be
awarded a bonus of <strong>$2.91</strong>.</p>",1228324,,,button-response,,87
,,0.0,,,,,,,,3554,,"<h1 id=""youvecompletedthehit"">You've completed the HIT</h1>

<p>Thanks again for participating. We hope you had fun!</p>

<p>Based on your performance, you will be
awarded a bonus of <strong>$1.82</strong>.</p>",1243690,,,button-response,,88
,,0.0,,,,,,,,8189,,"<h1 id=""youvecompletedthehit"">You've completed the HIT</h1>

<p>Thanks again for participating. We hope you had fun!</p>

<p>Based on your performance, you will be
awarded a bonus of <strong>$3.16</strong>.</p>",1603539,,,button-response,,90
,,0.0,,,,,,,,3639,,"<h1 id=""youvecompletedthehit"">You've completed the HIT</h1>

<p>Thanks again for participating. We hope you had fun!</p>

<p>Based on your performance, you will be
awarded a bonus of <strong>$2.22</strong>.</p>",1259371,,,button-response,,92
,,0.0,,,,,,,,1703,,"<h1 id=""youvecompletedthehit"">You've completed the HIT</h1>

<p>Thanks again for participating. We hope you had fun!</p>

<p>Based on your performance, you will be
awarded a bonus of <strong>$1.09</strong>.</p>",1147848,,,button-response,,93
,,0.0,,,,,,,,11898,,"<h1 id=""youvecompletedthehit"">You've completed the HIT</h1>

<p>Thanks again for participating. We hope you had fun!</p>

<p>Based on your performance, you will be
awarded a bonus of <strong>$3.13</strong>.</p>",1220507,,,button-response,,94
,,0.0,,,,,,,,11518,,"<h1 id=""youvecompletedthehit"">You've completed the HIT</h1>

<p>Thanks again for participating. We hope you had fun!</p>

<p>Based on your performance, you will be
awarded a bonus of <strong>$2.95</strong>.</p>",1128935,,,button-response,,95
,,0.0,,,,,,,,2423,,"<h1 id=""youvecompletedthehit"">You've completed the HIT</h1>

<p>Thanks again for participating. We hope you had fun!</p>

<p>Based on your performance, you will be
awarded a bonus of <strong>$3.16</strong>.</p>",1115004,,,button-response,,96
,,0.0,,,,,,,,1108,,"<h1 id=""youvecompletedthehit"">You've completed the HIT</h1>

<p>Thanks again for participating. We hope you had fun!</p>

<p>Based on your performance, you will be
awarded a bonus of <strong>$3.03</strong>.</p>",1185810,,,button-response,,97
,,0.0,,,,,,,,6933,,"<h1 id=""youvecompletedthehit"">You've completed the HIT</h1>

<p>Thanks again for participating. We hope you had fun!</p>

<p>Based on your performance, you will be
awarded a bonus of <strong>$1.27</strong>.</p>",1490295,,,button-response,,98
,,0.0,,,,,,,,5301,,"<h1 id=""youvecompletedthehit"">You've completed the HIT</h1>

<p>Thanks again for participating. We hope you had fun!</p>

<p>Based on your performance, you will be
awarded a bonus of <strong>$1.50</strong>.</p>",1185048,,,button-response,,99
,,0.0,,,,,,,,2462,,"<h1 id=""youvecompletedthehit"">You've completed the HIT</h1>

<p>Thanks again for participating. We hope you had fun!</p>

<p>Based on your performance, you will be
awarded a bonus of <strong>$3.19</strong>.</p>",1392547,,,button-response,,100
,,0.0,,,,,,,,2765,,"<h1 id=""youvecompletedthehit"">You've completed the HIT</h1>

<p>Thanks again for participating. We hope you had fun!</p>

<p>Based on your performance, you will be
awarded a bonus of <strong>$3.12</strong>.</p>",1002041,,,button-response,,101
,,0.0,,,,,,,,4111,,"<h1 id=""youvecompletedthehit"">You've completed the HIT</h1>

<p>Thanks again for participating. We hope you had fun!</p>

<p>Based on your performance, you will be
awarded a bonus of <strong>$1.96</strong>.</p>",1368098,,,button-response,,103
,,0.0,,,,,,,,1000,,"<h1 id=""youvecompletedthehit"">You've completed the HIT</h1>

<p>Thanks again for participating. We hope you had fun!</p>

<p>Based on your performance, you will be
awarded a bonus of <strong>$3.20</strong>.</p>",1154231,,,button-response,,105
,,0.0,,,,,,,,12041,,"<h1 id=""youvecompletedthehit"">You've completed the HIT</h1>

<p>Thanks again for participating. We hope you had fun!</p>

<p>Based on your performance, you will be
awarded a bonus of <strong>$1.72</strong>.</p>",1661982,,,button-response,,106
,,0.0,,,,,,,,3831,,"<h1 id=""youvecompletedthehit"">You've completed the HIT</h1>

<p>Thanks again for participating. We hope you had fun!</p>

<p>Based on your performance, you will be
awarded a bonus of <strong>$3.07</strong>.</p>",1101563,,,button-response,,107
,,0.0,,,,,,,,2016,,"<h1 id=""youvecompletedthehit"">You've completed the HIT</h1>

<p>Thanks again for participating. We hope you had fun!</p>

<p>Based on your performance, you will be
awarded a bonus of <strong>$3.34</strong>.</p>",1206983,,,button-response,,108
,,0.0,,,,,,,,5953,,"<h1 id=""youvecompletedthehit"">You've completed the HIT</h1>

<p>Thanks again for participating. We hope you had fun!</p>

<p>Based on your performance, you will be
awarded a bonus of <strong>$2.84</strong>.</p>",1044293,,,button-response,,110
,,0.0,,,,,,,,4020,,"<h1 id=""youvecompletedthehit"">You've completed the HIT</h1>

<p>Thanks again for participating. We hope you had fun!</p>

<p>Based on your performance, you will be
awarded a bonus of <strong>$2.97</strong>.</p>",1063916,,,button-response,,111
,,0.0,,,,,,,,4305,,"<h1 id=""youvecompletedthehit"">You've completed the HIT</h1>

<p>Thanks again for participating. We hope you had fun!</p>

<p>Based on your performance, you will be
awarded a bonus of <strong>$2.42</strong>.</p>",1274406,,,button-response,,112
,,0.0,,,,,,,,3008,,"<h1 id=""youvecompletedthehit"">You've completed the HIT</h1>

<p>Thanks again for participating. We hope you had fun!</p>

<p>Based on your performance, you will be
awarded a bonus of <strong>$3.10</strong>.</p>",1081239,,,button-response,,113
,,0.0,,,,,,,,26612,,"<h1 id=""youvecompletedthehit"">You've completed the HIT</h1>

<p>Thanks again for participating. We hope you had fun!</p>

<p>Based on your performance, you will be
awarded a bonus of <strong>$2.42</strong>.</p>",1999656,,,button-response,,114
,,0.0,,,,,,,,1790,,"<h1 id=""youvecompletedthehit"">You've completed the HIT</h1>

<p>Thanks again for participating. We hope you had fun!</p>

<p>Based on your performance, you will be
awarded a bonus of <strong>$1.20</strong>.</p>",1058010,,,button-response,,115
,,0.0,,,,,,,,4489,,"<h1 id=""youvecompletedthehit"">You've completed the HIT</h1>

<p>Thanks again for participating. We hope you had fun!</p>

<p>Based on your performance, you will be
awarded a bonus of <strong>$2.55</strong>.</p>",946474,,,button-response,,116
,,0.0,,,,,,,,1212,,"<h1 id=""youvecompletedthehit"">You've completed the HIT</h1>

<p>Thanks again for participating. We hope you had fun!</p>

<p>Based on your performance, you will be
awarded a bonus of <strong>$3.04</strong>.</p>",1119793,,,button-response,,117
,,0.0,,,,,,,,3353,,"<h1 id=""youvecompletedthehit"">You've completed the HIT</h1>

<p>Thanks again for participating. We hope you had fun!</p>

<p>Based on your performance, you will be
awarded a bonus of <strong>$1.59</strong>.</p>",1627120,,,button-response,,119
,,0.0,,,,,,,,7187,,"<h1 id=""youvecompletedthehit"">You've completed the HIT</h1>

<p>Thanks again for participating. We hope you had fun!</p>

<p>Based on your performance, you will be
awarded a bonus of <strong>$2.56</strong>.</p>",1182702,,,button-response,,120
,,0.0,,,,,,,,3327,,"<h1 id=""youvecompletedthehit"">You've completed the HIT</h1>

<p>Thanks again for participating. We hope you had fun!</p>

<p>Based on your performance, you will be
awarded a bonus of <strong>$2.92</strong>.</p>",1171813,,,button-response,,121
,,0.0,,,,,,,,21970,,"<h1 id=""youvecompletedthehit"">You've completed the HIT</h1>

<p>Thanks again for participating. We hope you had fun!</p>

<p>Based on your performance, you will be
awarded a bonus of <strong>$2.27</strong>.</p>",4205619,,,button-response,,122
,,0.0,,,,,,,,2813,,"<h1 id=""youvecompletedthehit"">You've completed the HIT</h1>

<p>Thanks again for participating. We hope you had fun!</p>

<p>Based on your performance, you will be
awarded a bonus of <strong>$1.35</strong>.</p>",940696,,,button-response,,123
,,0.0,,,,,,,,2564,,"<h1 id=""youvecompletedthehit"">You've completed the HIT</h1>

<p>Thanks again for participating. We hope you had fun!</p>

<p>Based on your performance, you will be
awarded a bonus of <strong>$2.90</strong>.</p>",1181322,,,button-response,,124
,,0.0,,,,,,,,3754,,"<h1 id=""youvecompletedthehit"">You've completed the HIT</h1>

<p>Thanks again for participating. We hope you had fun!</p>

<p>Based on your performance, you will be
awarded a bonus of <strong>$2.77</strong>.</p>",1114449,,,button-response,,125
,,0.0,,,,,,,,6224,,"<h1 id=""youvecompletedthehit"">You've completed the HIT</h1>

<p>Thanks again for participating. We hope you had fun!</p>

<p>Based on your performance, you will be
awarded a bonus of <strong>$2.23</strong>.</p>",1163047,,,button-response,,126
,,0.0,,,,,,,,2855,,"<h1 id=""youvecompletedthehit"">You've completed the HIT</h1>

<p>Thanks again for participating. We hope you had fun!</p>

<p>Based on your performance, you will be
awarded a bonus of <strong>$3.10</strong>.</p>",1376333,,,button-response,,127
,,0.0,,,,,,,,2720,,"<h1 id=""youvecompletedthehit"">You've completed the HIT</h1>

<p>Thanks again for participating. We hope you had fun!</p>

<p>Based on your performance, you will be
awarded a bonus of <strong>$2.56</strong>.</p>",2199360,,,button-response,,128
,,0.0,,,,,,,,2330,,"<h1 id=""youvecompletedthehit"">You've completed the HIT</h1>

<p>Thanks again for participating. We hope you had fun!</p>

<p>Based on your performance, you will be
awarded a bonus of <strong>$2.84</strong>.</p>",1131837,,,button-response,,130
,,0.0,,,,,,,,3074,,"<h1 id=""youvecompletedthehit"">You've completed the HIT</h1>

<p>Thanks again for participating. We hope you had fun!</p>

<p>Based on your performance, you will be
awarded a bonus of <strong>$2.03</strong>.</p>",1194198,,,button-response,,131
,,0.0,,,,,,,,5317,,"<h1 id=""youvecompletedthehit"">You've completed the HIT</h1>

<p>Thanks again for participating. We hope you had fun!</p>

<p>Based on your performance, you will be
awarded a bonus of <strong>$3.38</strong>.</p>",1196345,,,button-response,,132
,,0.0,,,,,,,,3739,,"<h1 id=""youvecompletedthehit"">You've completed the HIT</h1>

<p>Thanks again for participating. We hope you had fun!</p>

<p>Based on your performance, you will be
awarded a bonus of <strong>$1.79</strong>.</p>",1477869,,,button-response,,134
,,0.0,,,,,,,,2689,,"<h1 id=""youvecompletedthehit"">You've completed the HIT</h1>

<p>Thanks again for participating. We hope you had fun!</p>

<p>Based on your performance, you will be
awarded a bonus of <strong>$1.96</strong>.</p>",1206618,,,button-response,,135
,,0.0,,,,,,,,1431,,"<h1 id=""youvecompletedthehit"">You've completed the HIT</h1>

<p>Thanks again for participating. We hope you had fun!</p>

<p>Based on your performance, you will be
awarded a bonus of <strong>$3.29</strong>.</p>",1119940,,,button-response,,136
,,0.0,,,,,,,,13239,,"<h1 id=""youvecompletedthehit"">You've completed the HIT</h1>

<p>Thanks again for participating. We hope you had fun!</p>

<p>Based on your performance, you will be
awarded a bonus of <strong>$2.24</strong>.</p>",1149396,,,button-response,,137
,,0.0,,,,,,,,11758,,"<h1 id=""youvecompletedthehit"">You've completed the HIT</h1>

<p>Thanks again for participating. We hope you had fun!</p>

<p>Based on your performance, you will be
awarded a bonus of <strong>$0.91</strong>.</p>",2367572,,,button-response,,138
,,0.0,,,,,,,,7273,,"<h1 id=""youvecompletedthehit"">You've completed the HIT</h1>

<p>Thanks again for participating. We hope you had fun!</p>

<p>Based on your performance, you will be
awarded a bonus of <strong>$0.53</strong>.</p>",1362544,,,button-response,,139
,,0.0,,,,,,,,3487,,"<h1 id=""youvecompletedthehit"">You've completed the HIT</h1>

<p>Thanks again for participating. We hope you had fun!</p>

<p>Based on your performance, you will be
awarded a bonus of <strong>$3.43</strong>.</p>",1062363,,,button-response,,140
,,0.0,,,,,,,,2467,,"<h1 id=""youvecompletedthehit"">You've completed the HIT</h1>

<p>Thanks again for participating. We hope you had fun!</p>

<p>Based on your performance, you will be
awarded a bonus of <strong>$2.61</strong>.</p>",1704747,,,button-response,,141
,,0.0,,,,,,,,2145,,"<h1 id=""youvecompletedthehit"">You've completed the HIT</h1>

<p>Thanks again for participating. We hope you had fun!</p>

<p>Based on your performance, you will be
awarded a bonus of <strong>$2.96</strong>.</p>",1191085,,,button-response,,142
,,0.0,,,,,,,,6943,,"<h1 id=""youvecompletedthehit"">You've completed the HIT</h1>

<p>Thanks again for participating. We hope you had fun!</p>

<p>Based on your performance, you will be
awarded a bonus of <strong>$2.97</strong>.</p>",1500991,,,button-response,,143
,,0.0,,,,,,,,3011,,"<h1 id=""youvecompletedthehit"">You've completed the HIT</h1>

<p>Thanks again for participating. We hope you had fun!</p>

<p>Based on your performance, you will be
awarded a bonus of <strong>$1.37</strong>.</p>",1058646,,,button-response,,144
,,0.0,,,,,,,,2647,,"<h1 id=""youvecompletedthehit"">You've completed the HIT</h1>

<p>Thanks again for participating. We hope you had fun!</p>

<p>Based on your performance, you will be
awarded a bonus of <strong>$2.61</strong>.</p>",1033664,,,button-response,,145
