action_times,actions,button_pressed,correct,delays,key_press,path,queries,questions,responses,rt,score,stimulus,time_elapsed,trial_index,trial_i,trial_type,view_history,pid
,,,,,,,,,,81351,,,81353,,,instructions,"[{""page_index"":0,""viewing_time"":19418},{""page_index"":1,""viewing_time"":35495},{""page_index"":2,""viewing_time"":9597},{""page_index"":3,""viewing_time"":16839}]",0
,,,,,,,,,,302324,,,302325,,,instructions,"[{""page_index"":0,""viewing_time"":189429},{""page_index"":1,""viewing_time"":16470},{""page_index"":2,""viewing_time"":96425}]",1
,,,,,,,,,,165781,,,165783,,,instructions,"[{""page_index"":0,""viewing_time"":109981},{""page_index"":1,""viewing_time"":48611},{""page_index"":2,""viewing_time"":7188}]",2
,,,,,,,,,,189663,,,189663,,,instructions,"[{""page_index"":0,""viewing_time"":51970},{""page_index"":1,""viewing_time"":56675},{""page_index"":2,""viewing_time"":49638},{""page_index"":3,""viewing_time"":31380}]",3
,,,,,,,,,,53422,,,53425,,,instructions,"[{""page_index"":0,""viewing_time"":36080},{""page_index"":1,""viewing_time"":9955},{""page_index"":2,""viewing_time"":2669},{""page_index"":3,""viewing_time"":4716}]",4
,,,,,,,,,,24391,,,98715,,,instructions,"[{""page_index"":0,""viewing_time"":5308},{""page_index"":1,""viewing_time"":5867},{""page_index"":2,""viewing_time"":6437},{""page_index"":3,""viewing_time"":6777}]",4
,,,,,,,,,,28363,,,173452,,,instructions,"[{""page_index"":0,""viewing_time"":9735},{""page_index"":1,""viewing_time"":5465},{""page_index"":2,""viewing_time"":6775},{""page_index"":3,""viewing_time"":6387}]",4
,,,,,,,,,,191834,,,191836,,,instructions,"[{""page_index"":0,""viewing_time"":67759},{""page_index"":1,""viewing_time"":96357},{""page_index"":2,""viewing_time"":27715}]",5
,,,,,,,,,,151077,,,151081,,,instructions,"[{""page_index"":0,""viewing_time"":27012},{""page_index"":1,""viewing_time"":43367},{""page_index"":0,""viewing_time"":8724},{""page_index"":1,""viewing_time"":6828},{""page_index"":0,""viewing_time"":13238},{""page_index"":1,""viewing_time"":3718},{""page_index"":2,""viewing_time"":23969},{""page_index"":3,""viewing_time"":24218}]",6
,,,,,,,,,,61165,,,255609,,,instructions,"[{""page_index"":0,""viewing_time"":7346},{""page_index"":1,""viewing_time"":20656},{""page_index"":2,""viewing_time"":25782},{""page_index"":3,""viewing_time"":7379}]",6
,,,,,,,,,,185353,,,185355,,,instructions,"[{""page_index"":0,""viewing_time"":48812},{""page_index"":1,""viewing_time"":67597},{""page_index"":2,""viewing_time"":38115},{""page_index"":3,""viewing_time"":30827}]",7
,,,,,,,,,,63197,,,300879,,,instructions,"[{""page_index"":0,""viewing_time"":14887},{""page_index"":1,""viewing_time"":20545},{""page_index"":2,""viewing_time"":18876},{""page_index"":3,""viewing_time"":8888}]",7
,,,,,,,,,,101567,,,101568,,,instructions,"[{""page_index"":0,""viewing_time"":37250},{""page_index"":1,""viewing_time"":24044},{""page_index"":2,""viewing_time"":24984},{""page_index"":3,""viewing_time"":15289}]",8
,,,,,,,,,,115418,,,115420,,,instructions,"[{""page_index"":0,""viewing_time"":56230},{""page_index"":1,""viewing_time"":35662},{""page_index"":2,""viewing_time"":23525}]",9
,,,,,,,,,,102872,,,102874,,,instructions,"[{""page_index"":0,""viewing_time"":34120},{""page_index"":1,""viewing_time"":30886},{""page_index"":2,""viewing_time"":22505},{""page_index"":3,""viewing_time"":15360}]",10
,,,,,,,,,,197189,,,197190,,,instructions,"[{""page_index"":0,""viewing_time"":46707},{""page_index"":1,""viewing_time"":39253},{""page_index"":2,""viewing_time"":51561},{""page_index"":3,""viewing_time"":34648},{""page_index"":2,""viewing_time"":1989},{""page_index"":1,""viewing_time"":9857},{""page_index"":2,""viewing_time"":10187},{""page_index"":3,""viewing_time"":2987}]",11
,,,,,,,,,,151350,,,392347,,,instructions,"[{""page_index"":0,""viewing_time"":33820},{""page_index"":1,""viewing_time"":33958},{""page_index"":2,""viewing_time"":71801},{""page_index"":3,""viewing_time"":11771}]",11
,,,,,,,,,,186595,,,186596,,,instructions,"[{""page_index"":0,""viewing_time"":48375},{""page_index"":1,""viewing_time"":42192},{""page_index"":2,""viewing_time"":67725},{""page_index"":3,""viewing_time"":28301}]",12
,,,,,,,,,,133277,,,133280,,,instructions,"[{""page_index"":0,""viewing_time"":53002},{""page_index"":1,""viewing_time"":31177},{""page_index"":2,""viewing_time"":30828},{""page_index"":3,""viewing_time"":18260}]",13
,,,,,,,,,,22473,,,190901,,,instructions,"[{""page_index"":0,""viewing_time"":4488},{""page_index"":1,""viewing_time"":1905},{""page_index"":0,""viewing_time"":2615},{""page_index"":1,""viewing_time"":3665},{""page_index"":2,""viewing_time"":5892},{""page_index"":3,""viewing_time"":3908}]",13
,,,,,,,,,,95266,,,95267,,,instructions,"[{""page_index"":0,""viewing_time"":35588},{""page_index"":1,""viewing_time"":28471},{""page_index"":2,""viewing_time"":16212},{""page_index"":3,""viewing_time"":14994}]",14
,,,,,,,,,,271394,,,271394,,,instructions,"[{""page_index"":0,""viewing_time"":116209},{""page_index"":1,""viewing_time"":85895},{""page_index"":2,""viewing_time"":69289}]",15
,,,,,,,,,,119805,,,457850,,,instructions,"[{""page_index"":0,""viewing_time"":23668},{""page_index"":1,""viewing_time"":37360},{""page_index"":2,""viewing_time"":58776}]",15
,,,,,,,,,,23668,,,23669,,,instructions,"[{""page_index"":0,""viewing_time"":8768},{""page_index"":1,""viewing_time"":5505},{""page_index"":2,""viewing_time"":9394}]",16
,,,,,,,,,,32355,,,81023,,,instructions,"[{""page_index"":0,""viewing_time"":7184},{""page_index"":1,""viewing_time"":18502},{""page_index"":2,""viewing_time"":6669}]",16
,,,,,,,,,,1733759,,,1733760,,,instructions,"[{""page_index"":0,""viewing_time"":1667156},{""page_index"":1,""viewing_time"":25097},{""page_index"":2,""viewing_time"":20348},{""page_index"":3,""viewing_time"":21158}]",17
,,,,,,,,,,64285,,,1832923,,,instructions,"[{""page_index"":0,""viewing_time"":10449},{""page_index"":1,""viewing_time"":32949},{""page_index"":2,""viewing_time"":10975},{""page_index"":3,""viewing_time"":9912}]",17
,,,,,,,,,,89098,,,89103,,,instructions,"[{""page_index"":0,""viewing_time"":27392},{""page_index"":1,""viewing_time"":22317},{""page_index"":2,""viewing_time"":20350},{""page_index"":3,""viewing_time"":19033}]",18
,,,,,,,,,,8682,,,118195,,,instructions,"[{""page_index"":0,""viewing_time"":6004},{""page_index"":1,""viewing_time"":570},{""page_index"":2,""viewing_time"":1599},{""page_index"":3,""viewing_time"":506}]",18
,,,,,,,,,,73470,,,73472,,,instructions,"[{""page_index"":0,""viewing_time"":28299},{""page_index"":1,""viewing_time"":16729},{""page_index"":2,""viewing_time"":15290},{""page_index"":3,""viewing_time"":13151}]",19
,,,,,,,,,,31193,,,135158,,,instructions,"[{""page_index"":0,""viewing_time"":8568},{""page_index"":1,""viewing_time"":5906},{""page_index"":2,""viewing_time"":10486},{""page_index"":3,""viewing_time"":6232}]",19
,,,,,,,,,,23612,,,182119,,,instructions,"[{""page_index"":0,""viewing_time"":4575},{""page_index"":1,""viewing_time"":3206},{""page_index"":2,""viewing_time"":13254},{""page_index"":3,""viewing_time"":2576}]",19
,,,,,,,,,,23171,,,220325,,,instructions,"[{""page_index"":0,""viewing_time"":10571},{""page_index"":1,""viewing_time"":3757},{""page_index"":2,""viewing_time"":3262},{""page_index"":3,""viewing_time"":5581}]",19
,,,,,,,,,,5306,,,295998,,,instructions,"[{""page_index"":0,""viewing_time"":1390},{""page_index"":1,""viewing_time"":1552},{""page_index"":2,""viewing_time"":1294},{""page_index"":3,""viewing_time"":1069}]",19
,,,,,,,,,,22497,,,349427,,,instructions,"[{""page_index"":0,""viewing_time"":6532},{""page_index"":1,""viewing_time"":6356},{""page_index"":2,""viewing_time"":6998},{""page_index"":3,""viewing_time"":2610}]",19
,,,,,,,,,,3473,,,375506,,,instructions,"[{""page_index"":0,""viewing_time"":840},{""page_index"":1,""viewing_time"":664},{""page_index"":2,""viewing_time"":996},{""page_index"":3,""viewing_time"":972}]",19
,,,,,,,,,,3334,,,394058,,,instructions,"[{""page_index"":0,""viewing_time"":813},{""page_index"":1,""viewing_time"":844},{""page_index"":2,""viewing_time"":810},{""page_index"":3,""viewing_time"":867}]",19
,,,,,,,,,,3302,,,410124,,,instructions,"[{""page_index"":0,""viewing_time"":961},{""page_index"":1,""viewing_time"":687},{""page_index"":2,""viewing_time"":866},{""page_index"":3,""viewing_time"":788}]",19
,,,,,,,,,,3957,,,427517,,,instructions,"[{""page_index"":0,""viewing_time"":1190},{""page_index"":1,""viewing_time"":764},{""page_index"":2,""viewing_time"":1238},{""page_index"":3,""viewing_time"":765}]",19
,,,,,,,,,,6622,,,447150,,,instructions,"[{""page_index"":0,""viewing_time"":3989},{""page_index"":1,""viewing_time"":889},{""page_index"":2,""viewing_time"":945},{""page_index"":3,""viewing_time"":799}]",19
,,,,,,,,,,93101,,,93102,,,instructions,"[{""page_index"":0,""viewing_time"":29066},{""page_index"":1,""viewing_time"":15851},{""page_index"":2,""viewing_time"":32415},{""page_index"":3,""viewing_time"":15768}]",20
,,,,,,,,,,24279,,,148138,,,instructions,"[{""page_index"":0,""viewing_time"":11700},{""page_index"":1,""viewing_time"":8511},{""page_index"":2,""viewing_time"":2301},{""page_index"":3,""viewing_time"":1766}]",20
,,,,,,,,,,322574,,,322576,,,instructions,"[{""page_index"":0,""viewing_time"":120955},{""page_index"":1,""viewing_time"":109367},{""page_index"":2,""viewing_time"":62520},{""page_index"":3,""viewing_time"":29729}]",21
,,,,,,,,,,121288,,,121289,,,instructions,"[{""page_index"":0,""viewing_time"":44272},{""page_index"":1,""viewing_time"":31995},{""page_index"":2,""viewing_time"":28236},{""page_index"":3,""viewing_time"":16783}]",22
,,,,,,,,,,212715,,,212720,,,instructions,"[{""page_index"":0,""viewing_time"":72703},{""page_index"":1,""viewing_time"":63503},{""page_index"":2,""viewing_time"":44725},{""page_index"":3,""viewing_time"":31781}]",23
,,,,,,,,,,620457,,,620460,,,instructions,"[{""page_index"":0,""viewing_time"":150420},{""page_index"":1,""viewing_time"":251918},{""page_index"":2,""viewing_time"":134307},{""page_index"":3,""viewing_time"":83810}]",24
,,,,,,,,,,354171,,,1074865,,,instructions,"[{""page_index"":0,""viewing_time"":104399},{""page_index"":1,""viewing_time"":51644},{""page_index"":2,""viewing_time"":32015},{""page_index"":3,""viewing_time"":106232},{""page_index"":2,""viewing_time"":13678},{""page_index"":1,""viewing_time"":37806},{""page_index"":2,""viewing_time"":5942},{""page_index"":3,""viewing_time"":2453}]",24
,,,,,,,,,,35205,,,35207,,,instructions,"[{""page_index"":0,""viewing_time"":15220},{""page_index"":1,""viewing_time"":7442},{""page_index"":2,""viewing_time"":6179},{""page_index"":3,""viewing_time"":6363}]",25
,,,,,,,,,,68898,,,68900,,,instructions,"[{""page_index"":0,""viewing_time"":6359},{""page_index"":1,""viewing_time"":18983},{""page_index"":2,""viewing_time"":35868},{""page_index"":3,""viewing_time"":7686}]",26
,,,,,,,,,,91815,,,91816,,,instructions,"[{""page_index"":0,""viewing_time"":18704},{""page_index"":1,""viewing_time"":31686},{""page_index"":2,""viewing_time"":22504},{""page_index"":3,""viewing_time"":18921}]",27
,,,,,,,,,,226177,,,226179,,,instructions,"[{""page_index"":0,""viewing_time"":127982},{""page_index"":1,""viewing_time"":54919},{""page_index"":2,""viewing_time"":43274}]",28
,,,,,,,,,,11852,,,283141,,,instructions,"[{""page_index"":0,""viewing_time"":8119},{""page_index"":1,""viewing_time"":2560},{""page_index"":2,""viewing_time"":1173}]",28
,,,,,,,,,,141926,,,462539,,,instructions,"[{""page_index"":0,""viewing_time"":53480},{""page_index"":1,""viewing_time"":42790},{""page_index"":2,""viewing_time"":45656}]",28
,,,,,,,,,,6297,,,502358,,,instructions,"[{""page_index"":0,""viewing_time"":3826},{""page_index"":1,""viewing_time"":1464},{""page_index"":2,""viewing_time"":1007}]",28
,,,,,,,,,,7290,,,526510,,,instructions,"[{""page_index"":0,""viewing_time"":5138},{""page_index"":1,""viewing_time"":1030},{""page_index"":2,""viewing_time"":1121}]",28
,,,,,,,,,,12668,,,583303,,,instructions,"[{""page_index"":0,""viewing_time"":7127},{""page_index"":1,""viewing_time"":4151},{""page_index"":2,""viewing_time"":1389}]",28
,,,,,,,,,,219359,,,219361,,,instructions,"[{""page_index"":0,""viewing_time"":60616},{""page_index"":1,""viewing_time"":1464},{""page_index"":0,""viewing_time"":650},{""page_index"":1,""viewing_time"":661},{""page_index"":0,""viewing_time"":3783},{""page_index"":1,""viewing_time"":75074},{""page_index"":2,""viewing_time"":33903},{""page_index"":1,""viewing_time"":24680},{""page_index"":2,""viewing_time"":18528}]",29
,,,,,,,,,,130093,,,130094,,,instructions,"[{""page_index"":0,""viewing_time"":49802},{""page_index"":1,""viewing_time"":28448},{""page_index"":2,""viewing_time"":29184},{""page_index"":3,""viewing_time"":22656}]",30
,,,,,,,,,,31752,,,222872,,,instructions,"[{""page_index"":0,""viewing_time"":7165},{""page_index"":1,""viewing_time"":9445},{""page_index"":2,""viewing_time"":12083},{""page_index"":3,""viewing_time"":3058}]",30
,,,,,,,,,,209337,,,209339,,,instructions,"[{""page_index"":0,""viewing_time"":87923},{""page_index"":1,""viewing_time"":58850},{""page_index"":2,""viewing_time"":62561}]",31
,,,,,,,,,,31891,,,310353,,,instructions,"[{""page_index"":0,""viewing_time"":18208},{""page_index"":1,""viewing_time"":6506},{""page_index"":2,""viewing_time"":7175}]",31
,,,,,,,,,,53193,,,413019,,,instructions,"[{""page_index"":0,""viewing_time"":11950},{""page_index"":1,""viewing_time"":12168},{""page_index"":2,""viewing_time"":1312},{""page_index"":1,""viewing_time"":12913},{""page_index"":2,""viewing_time"":14848}]",31
,,,,,,,,,,75582,,,520733,,,instructions,"[{""page_index"":0,""viewing_time"":25995},{""page_index"":1,""viewing_time"":43228},{""page_index"":2,""viewing_time"":6357}]",31
,,,,,,,,,,38076,,,602718,,,instructions,"[{""page_index"":0,""viewing_time"":6020},{""page_index"":1,""viewing_time"":23095},{""page_index"":2,""viewing_time"":8960}]",31
,,,,,,,,,,3439,,,627792,,,instructions,"[{""page_index"":0,""viewing_time"":2054},{""page_index"":1,""viewing_time"":864},{""page_index"":2,""viewing_time"":520}]",31
,,,,,,,,,,175054,,,175056,,,instructions,"[{""page_index"":0,""viewing_time"":77496},{""page_index"":1,""viewing_time"":51946},{""page_index"":2,""viewing_time"":45610}]",32
,,,,,,,,,,90595,,,90596,,,instructions,"[{""page_index"":0,""viewing_time"":43221},{""page_index"":1,""viewing_time"":29012},{""page_index"":2,""viewing_time"":18361}]",33
,,,,,,,,,,170929,,,170929,,,instructions,"[{""page_index"":0,""viewing_time"":66105},{""page_index"":1,""viewing_time"":1688},{""page_index"":0,""viewing_time"":4967},{""page_index"":1,""viewing_time"":31396},{""page_index"":2,""viewing_time"":23984},{""page_index"":3,""viewing_time"":29424},{""page_index"":2,""viewing_time"":1028},{""page_index"":1,""viewing_time"":296},{""page_index"":0,""viewing_time"":8912},{""page_index"":1,""viewing_time"":2328},{""page_index"":2,""viewing_time"":536},{""page_index"":3,""viewing_time"":264}]",34
,,,,,,,,,,23119,,,23121,,,instructions,"[{""page_index"":0,""viewing_time"":18335},{""page_index"":1,""viewing_time"":2744},{""page_index"":2,""viewing_time"":1135},{""page_index"":3,""viewing_time"":904}]",35
,,,,,,,,,,25333,,,95022,,,instructions,"[{""page_index"":0,""viewing_time"":6132},{""page_index"":1,""viewing_time"":5277},{""page_index"":2,""viewing_time"":9331},{""page_index"":3,""viewing_time"":4592}]",35
,,,,,,,,,,246045,,,246046,,,instructions,"[{""page_index"":0,""viewing_time"":61126},{""page_index"":1,""viewing_time"":73108},{""page_index"":2,""viewing_time"":65525},{""page_index"":3,""viewing_time"":46285}]",36
,,,,,,,,,,574760,,,574760,,,instructions,"[{""page_index"":0,""viewing_time"":528128},{""page_index"":1,""viewing_time"":15243},{""page_index"":2,""viewing_time"":31388}]",37
,,,,,,,,,,59577,,,657696,,,instructions,"[{""page_index"":0,""viewing_time"":13901},{""page_index"":1,""viewing_time"":34919},{""page_index"":2,""viewing_time"":10755}]",37
,,,,,,,,,,50872,,,50873,,,instructions,"[{""page_index"":0,""viewing_time"":46610},{""page_index"":1,""viewing_time"":1797},{""page_index"":2,""viewing_time"":1285},{""page_index"":3,""viewing_time"":1180}]",38
,,,,,,,,,,211427,,,211428,,,instructions,"[{""page_index"":0,""viewing_time"":108262},{""page_index"":1,""viewing_time"":47726},{""page_index"":2,""viewing_time"":24557},{""page_index"":3,""viewing_time"":30880}]",39
,,,,,,,,,,98818,,,98819,,,instructions,"[{""page_index"":0,""viewing_time"":35341},{""page_index"":1,""viewing_time"":27200},{""page_index"":2,""viewing_time"":13870},{""page_index"":3,""viewing_time"":22406}]",40
,,,,,,,,,,52780,,,189358,,,instructions,"[{""page_index"":0,""viewing_time"":17782},{""page_index"":1,""viewing_time"":12913},{""page_index"":2,""viewing_time"":16011},{""page_index"":3,""viewing_time"":6073}]",40
,,,,,,,,,,55205,,,260659,,,instructions,"[{""page_index"":0,""viewing_time"":14681},{""page_index"":1,""viewing_time"":8245},{""page_index"":2,""viewing_time"":13535},{""page_index"":3,""viewing_time"":18744}]",40
,,,,,,,,,,161992,,,161994,,,instructions,"[{""page_index"":0,""viewing_time"":40214},{""page_index"":1,""viewing_time"":42203},{""page_index"":2,""viewing_time"":50618},{""page_index"":3,""viewing_time"":28956}]",41
,,,,,,,,,,156125,,,156126,,,instructions,"[{""page_index"":0,""viewing_time"":105228},{""page_index"":1,""viewing_time"":10080},{""page_index"":2,""viewing_time"":40817}]",42
,,,,,,,,,,9349,,,205425,,,instructions,"[{""page_index"":0,""viewing_time"":2980},{""page_index"":1,""viewing_time"":4535},{""page_index"":2,""viewing_time"":1833}]",42
,,,,,,,,,,132554,,,132554,,,instructions,"[{""page_index"":0,""viewing_time"":80405},{""page_index"":1,""viewing_time"":19547},{""page_index"":2,""viewing_time"":13210},{""page_index"":3,""viewing_time"":19390}]",43
,,,,,,,,,,114993,,,114995,,,instructions,"[{""page_index"":0,""viewing_time"":19597},{""page_index"":1,""viewing_time"":35554},{""page_index"":2,""viewing_time"":36248},{""page_index"":3,""viewing_time"":23591}]",44
,,,,,,,,,,64518,,,267842,,,instructions,"[{""page_index"":0,""viewing_time"":14768},{""page_index"":1,""viewing_time"":8097},{""page_index"":2,""viewing_time"":35823},{""page_index"":3,""viewing_time"":5829}]",44
,,,,,,,,,,342313,,,342317,,,instructions,"[{""page_index"":0,""viewing_time"":101532},{""page_index"":1,""viewing_time"":2500},{""page_index"":0,""viewing_time"":1035},{""page_index"":1,""viewing_time"":8886},{""page_index"":0,""viewing_time"":8090},{""page_index"":1,""viewing_time"":63797},{""page_index"":2,""viewing_time"":83839},{""page_index"":3,""viewing_time"":72631}]",45
,,,,,,,,,,95968,,,95969,,,instructions,"[{""page_index"":0,""viewing_time"":38709},{""page_index"":1,""viewing_time"":39761},{""page_index"":2,""viewing_time"":17496}]",46
,,,,,,,,,,197100,,,197100,,,instructions,"[{""page_index"":0,""viewing_time"":72194},{""page_index"":1,""viewing_time"":49147},{""page_index"":2,""viewing_time"":35263},{""page_index"":3,""viewing_time"":40496}]",47
,,,,,,,,,,18613,,,248919,,,instructions,"[{""page_index"":0,""viewing_time"":5028},{""page_index"":1,""viewing_time"":10411},{""page_index"":2,""viewing_time"":2678},{""page_index"":3,""viewing_time"":496}]",47
,,,,,,,,,,154061,,,154063,,,instructions,"[{""page_index"":0,""viewing_time"":41363},{""page_index"":1,""viewing_time"":57214},{""page_index"":2,""viewing_time"":26050},{""page_index"":3,""viewing_time"":29434}]",48
,,,,,,,,,,36536,,,230203,,,instructions,"[{""page_index"":0,""viewing_time"":8272},{""page_index"":1,""viewing_time"":6985},{""page_index"":2,""viewing_time"":16193},{""page_index"":3,""viewing_time"":5086}]",48
,,,,,,,,,,188021,,,188022,,,instructions,"[{""page_index"":0,""viewing_time"":39088},{""page_index"":1,""viewing_time"":35422},{""page_index"":0,""viewing_time"":5547},{""page_index"":1,""viewing_time"":12490},{""page_index"":2,""viewing_time"":63715},{""page_index"":3,""viewing_time"":31749}]",49
,,,,,,,,,,94811,,,94811,,,instructions,"[{""page_index"":0,""viewing_time"":28749},{""page_index"":1,""viewing_time"":22605},{""page_index"":2,""viewing_time"":22228},{""page_index"":3,""viewing_time"":21228}]",50
,,,,,,,,,,74518,,,192513,,,instructions,"[{""page_index"":0,""viewing_time"":36021},{""page_index"":1,""viewing_time"":18123},{""page_index"":2,""viewing_time"":7423},{""page_index"":3,""viewing_time"":12948}]",50
,,,,,,,,,,70558,,,70562,,,instructions,"[{""page_index"":0,""viewing_time"":35381},{""page_index"":1,""viewing_time"":14754},{""page_index"":2,""viewing_time"":13447},{""page_index"":3,""viewing_time"":6972}]",51
,,,,,,,,,,114402,,,114404,,,instructions,"[{""page_index"":0,""viewing_time"":29009},{""page_index"":1,""viewing_time"":36576},{""page_index"":2,""viewing_time"":27019},{""page_index"":3,""viewing_time"":21796}]",52
,,,,,,,,,,16156,,,152487,,,instructions,"[{""page_index"":0,""viewing_time"":4942},{""page_index"":1,""viewing_time"":2304},{""page_index"":2,""viewing_time"":4805},{""page_index"":3,""viewing_time"":4104}]",52
,,,,,,,,,,3884,,,181678,,,instructions,"[{""page_index"":0,""viewing_time"":1215},{""page_index"":1,""viewing_time"":813},{""page_index"":2,""viewing_time"":809},{""page_index"":3,""viewing_time"":1046}]",52
,,,,,,,,,,79860,,,79861,,,instructions,"[{""page_index"":0,""viewing_time"":28153},{""page_index"":1,""viewing_time"":21275},{""page_index"":2,""viewing_time"":10672},{""page_index"":3,""viewing_time"":19760}]",53
,,,,,,,,,,225871,,,225872,,,instructions,"[{""page_index"":0,""viewing_time"":89755},{""page_index"":1,""viewing_time"":55672},{""page_index"":2,""viewing_time"":52036},{""page_index"":3,""viewing_time"":28407}]",54
,,,,,,,,,,76106,,,349401,,,instructions,"[{""page_index"":0,""viewing_time"":22033},{""page_index"":1,""viewing_time"":15412},{""page_index"":2,""viewing_time"":33032},{""page_index"":3,""viewing_time"":5628}]",54
,,,,,,,,,,78458,,,459564,,,instructions,"[{""page_index"":0,""viewing_time"":8570},{""page_index"":1,""viewing_time"":10966},{""page_index"":2,""viewing_time"":18147},{""page_index"":1,""viewing_time"":7076},{""page_index"":0,""viewing_time"":12954},{""page_index"":1,""viewing_time"":1306},{""page_index"":2,""viewing_time"":11408},{""page_index"":3,""viewing_time"":8030}]",54
,,,,,,,,,,33163,,,528361,,,instructions,"[{""page_index"":0,""viewing_time"":5939},{""page_index"":1,""viewing_time"":17580},{""page_index"":2,""viewing_time"":8831},{""page_index"":3,""viewing_time"":812}]",54
,,,,,,,,,,120552,,,120554,,,instructions,"[{""page_index"":0,""viewing_time"":35936},{""page_index"":1,""viewing_time"":27607},{""page_index"":2,""viewing_time"":31655},{""page_index"":3,""viewing_time"":25351}]",55
,,,,,,,,,,4873,,,159143,,,instructions,"[{""page_index"":0,""viewing_time"":1543},{""page_index"":1,""viewing_time"":864},{""page_index"":2,""viewing_time"":1348},{""page_index"":3,""viewing_time"":1117}]",55
,,,,,,,,,,311686,,,311690,,,instructions,"[{""page_index"":0,""viewing_time"":46579},{""page_index"":1,""viewing_time"":63104},{""page_index"":2,""viewing_time"":110327},{""page_index"":3,""viewing_time"":91673}]",56
,,,,,,,,,,24602,,,377765,,,instructions,"[{""page_index"":0,""viewing_time"":9074},{""page_index"":1,""viewing_time"":6499},{""page_index"":2,""viewing_time"":4549},{""page_index"":3,""viewing_time"":4479}]",56
,,,,,,,,,,120349,,,120350,,,instructions,"[{""page_index"":0,""viewing_time"":47905},{""page_index"":1,""viewing_time"":26987},{""page_index"":2,""viewing_time"":21517},{""page_index"":3,""viewing_time"":23940}]",57
,,,,,,,,,,69358,,,230579,,,instructions,"[{""page_index"":0,""viewing_time"":34208},{""page_index"":1,""viewing_time"":24646},{""page_index"":2,""viewing_time"":5441},{""page_index"":3,""viewing_time"":5063}]",57
,,,,,,,,,,98127,,,98129,,,instructions,"[{""page_index"":0,""viewing_time"":37876},{""page_index"":1,""viewing_time"":33875},{""page_index"":2,""viewing_time"":26374}]",58
,,,,,,,,,,65555,,,65556,,,instructions,"[{""page_index"":0,""viewing_time"":4438},{""page_index"":1,""viewing_time"":11389},{""page_index"":2,""viewing_time"":14137},{""page_index"":1,""viewing_time"":20148},{""page_index"":2,""viewing_time"":15443}]",59
,,,,,,,,,,105704,,,105707,,,instructions,"[{""page_index"":0,""viewing_time"":52567},{""page_index"":1,""viewing_time"":30789},{""page_index"":2,""viewing_time"":22346}]",60
,,,,,,,,,,16196,,,16197,,,instructions,"[{""page_index"":0,""viewing_time"":3826},{""page_index"":1,""viewing_time"":1079},{""page_index"":2,""viewing_time"":5609},{""page_index"":3,""viewing_time"":5679}]",61
,,,,,,,,,,292525,,,292527,,,instructions,"[{""page_index"":0,""viewing_time"":72356},{""page_index"":1,""viewing_time"":55311},{""page_index"":2,""viewing_time"":109384},{""page_index"":3,""viewing_time"":55472}]",62
,,,,,,,,,,82309,,,498956,,,instructions,"[{""page_index"":0,""viewing_time"":33165},{""page_index"":1,""viewing_time"":14295},{""page_index"":2,""viewing_time"":33584},{""page_index"":3,""viewing_time"":1264}]",62
,,,,,,,,,,320795,,,320796,,,instructions,"[{""page_index"":0,""viewing_time"":206765},{""page_index"":1,""viewing_time"":19086},{""page_index"":0,""viewing_time"":3588},{""page_index"":1,""viewing_time"":6359},{""page_index"":0,""viewing_time"":4498},{""page_index"":1,""viewing_time"":46316},{""page_index"":2,""viewing_time"":34182}]",63
,,,,,,,,,,24525,,,410917,,,instructions,"[{""page_index"":0,""viewing_time"":17379},{""page_index"":1,""viewing_time"":6034},{""page_index"":2,""viewing_time"":1111}]",63
,,,,,,,,,,70089,,,497766,,,instructions,"[{""page_index"":0,""viewing_time"":6486},{""page_index"":1,""viewing_time"":23270},{""page_index"":2,""viewing_time"":15386},{""page_index"":1,""viewing_time"":24260},{""page_index"":2,""viewing_time"":687}]",63
,,,,,,,,,,84969,,,84970,,,instructions,"[{""page_index"":0,""viewing_time"":29831},{""page_index"":1,""viewing_time"":23617},{""page_index"":2,""viewing_time"":18862},{""page_index"":3,""viewing_time"":12656}]",64
,,,,,,,,,,32529,,,150553,,,instructions,"[{""page_index"":0,""viewing_time"":10291},{""page_index"":1,""viewing_time"":7814},{""page_index"":2,""viewing_time"":11953},{""page_index"":3,""viewing_time"":2471}]",64
,,,,,,,,,,95268,,,95269,,,instructions,"[{""page_index"":0,""viewing_time"":35495},{""page_index"":1,""viewing_time"":34301},{""page_index"":2,""viewing_time"":10344},{""page_index"":3,""viewing_time"":15126}]",65
,,,,,,,,,,111763,,,111763,,,instructions,"[{""page_index"":0,""viewing_time"":26898},{""page_index"":1,""viewing_time"":34545},{""page_index"":2,""viewing_time"":28098},{""page_index"":3,""viewing_time"":22221}]",66
,,,,,,,,,,53201,,,53202,,,instructions,"[{""page_index"":0,""viewing_time"":17826},{""page_index"":1,""viewing_time"":13262},{""page_index"":2,""viewing_time"":7776},{""page_index"":3,""viewing_time"":14336}]",67
,,,,,,,,,,72036,,,72038,,,instructions,"[{""page_index"":0,""viewing_time"":19624},{""page_index"":1,""viewing_time"":24889},{""page_index"":2,""viewing_time"":12483},{""page_index"":3,""viewing_time"":15036}]",68
,,,,,,,,,,104078,,,104082,,,instructions,"[{""page_index"":0,""viewing_time"":35244},{""page_index"":1,""viewing_time"":35520},{""page_index"":2,""viewing_time"":21191},{""page_index"":3,""viewing_time"":12121}]",69
,,,,,,,,,,114096,,,114104,,,instructions,"[{""page_index"":0,""viewing_time"":33670},{""page_index"":1,""viewing_time"":533},{""page_index"":0,""viewing_time"":1769},{""page_index"":1,""viewing_time"":21528},{""page_index"":0,""viewing_time"":3923},{""page_index"":1,""viewing_time"":20575},{""page_index"":2,""viewing_time"":18704},{""page_index"":3,""viewing_time"":13387}]",70
,,,,,,,,,,45905,,,192505,,,instructions,"[{""page_index"":0,""viewing_time"":9702},{""page_index"":1,""viewing_time"":5355},{""page_index"":2,""viewing_time"":18351},{""page_index"":3,""viewing_time"":12494}]",70
,,,,,,,,,,19759,,,235149,,,instructions,"[{""page_index"":0,""viewing_time"":12509},{""page_index"":1,""viewing_time"":1054},{""page_index"":2,""viewing_time"":5006},{""page_index"":3,""viewing_time"":1187}]",70
,,,,,,,,,,200826,,,200826,,,instructions,"[{""page_index"":0,""viewing_time"":77544},{""page_index"":1,""viewing_time"":54352},{""page_index"":2,""viewing_time"":43009},{""page_index"":3,""viewing_time"":25920}]",71
,,,,,,,,,,14781,,,258851,,,instructions,"[{""page_index"":0,""viewing_time"":6275},{""page_index"":1,""viewing_time"":2750},{""page_index"":2,""viewing_time"":1778},{""page_index"":3,""viewing_time"":3978}]",71
,,,,,,,,,,123106,,,123108,,,instructions,"[{""page_index"":0,""viewing_time"":52847},{""page_index"":1,""viewing_time"":28292},{""page_index"":2,""viewing_time"":14883},{""page_index"":3,""viewing_time"":27083}]",72
,,,,,,,,,,25909,,,195122,,,instructions,"[{""page_index"":0,""viewing_time"":17402},{""page_index"":1,""viewing_time"":5901},{""page_index"":2,""viewing_time"":1904},{""page_index"":3,""viewing_time"":701}]",72
,,,,,,,,,,60377,,,272466,,,instructions,"[{""page_index"":0,""viewing_time"":10606},{""page_index"":1,""viewing_time"":14918},{""page_index"":2,""viewing_time"":26333},{""page_index"":3,""viewing_time"":8520}]",72
,,,,,,,,,,222386,,,222391,,,instructions,"[{""page_index"":0,""viewing_time"":62095},{""page_index"":1,""viewing_time"":43621},{""page_index"":2,""viewing_time"":52516},{""page_index"":3,""viewing_time"":64150}]",73
,,,,,,,,,,260539,,,260542,,,instructions,"[{""page_index"":0,""viewing_time"":253921},{""page_index"":1,""viewing_time"":5188},{""page_index"":2,""viewing_time"":1427}]",74
,,,,,,,,,,190750,,,190752,,,instructions,"[{""page_index"":0,""viewing_time"":63038},{""page_index"":1,""viewing_time"":62917},{""page_index"":2,""viewing_time"":37831},{""page_index"":3,""viewing_time"":26962}]",75
,,,,,,,,,,253094,,,253095,,,instructions,"[{""page_index"":0,""viewing_time"":75216},{""page_index"":1,""viewing_time"":72487},{""page_index"":2,""viewing_time"":72815},{""page_index"":3,""viewing_time"":32575}]",76
,,,,,,,,,,44984,,,44986,,,instructions,"[{""page_index"":0,""viewing_time"":5305},{""page_index"":1,""viewing_time"":14432},{""page_index"":2,""viewing_time"":11746},{""page_index"":3,""viewing_time"":13484}]",77
,,,,,,,,,,119919,,,119920,,,instructions,"[{""page_index"":0,""viewing_time"":37087},{""page_index"":1,""viewing_time"":207},{""page_index"":0,""viewing_time"":927},{""page_index"":1,""viewing_time"":656},{""page_index"":0,""viewing_time"":824},{""page_index"":1,""viewing_time"":1047},{""page_index"":0,""viewing_time"":1000},{""page_index"":1,""viewing_time"":23736},{""page_index"":2,""viewing_time"":19169},{""page_index"":3,""viewing_time"":35263}]",78
,,,,,,,,,,103493,,,315294,,,instructions,"[{""page_index"":0,""viewing_time"":43931},{""page_index"":1,""viewing_time"":19635},{""page_index"":2,""viewing_time"":29685},{""page_index"":3,""viewing_time"":10241}]",78
,,,,,,,,,,1619,,,530073,,,instructions,"[{""page_index"":0,""viewing_time"":939},{""page_index"":1,""viewing_time"":238},{""page_index"":2,""viewing_time"":256},{""page_index"":3,""viewing_time"":185}]",78
,,,,,,,,,,779,,,556209,,,instructions,"[{""page_index"":0,""viewing_time"":251},{""page_index"":1,""viewing_time"":183},{""page_index"":2,""viewing_time"":184},{""page_index"":3,""viewing_time"":160}]",78
,,,,,,,,,,9939,,,643457,,,instructions,"[{""page_index"":0,""viewing_time"":3012},{""page_index"":1,""viewing_time"":5630},{""page_index"":2,""viewing_time"":632},{""page_index"":3,""viewing_time"":664}]",78
,,,,,,,,,,1544,,,714869,,,instructions,"[{""page_index"":0,""viewing_time"":890},{""page_index"":1,""viewing_time"":248},{""page_index"":2,""viewing_time"":208},{""page_index"":3,""viewing_time"":197}]",78
,,,,,,,,,,91251,,,91254,,,instructions,"[{""page_index"":0,""viewing_time"":43675},{""page_index"":1,""viewing_time"":24471},{""page_index"":2,""viewing_time"":23104}]",79
,,,,,,,,,,56058,,,56059,,,instructions,"[{""page_index"":0,""viewing_time"":28842},{""page_index"":1,""viewing_time"":7047},{""page_index"":2,""viewing_time"":13544},{""page_index"":3,""viewing_time"":6625}]",80
,,,,,,,,,,76407,,,166850,,,instructions,"[{""page_index"":0,""viewing_time"":22623},{""page_index"":1,""viewing_time"":17368},{""page_index"":2,""viewing_time"":27744},{""page_index"":3,""viewing_time"":8672}]",80
,,,,,,,,,,4008,,,198705,,,instructions,"[{""page_index"":0,""viewing_time"":1376},{""page_index"":1,""viewing_time"":703},{""page_index"":2,""viewing_time"":1384},{""page_index"":3,""viewing_time"":545}]",80
,,,,,,,,,,46191,,,263586,,,instructions,"[{""page_index"":0,""viewing_time"":8389},{""page_index"":1,""viewing_time"":5304},{""page_index"":2,""viewing_time"":24969},{""page_index"":3,""viewing_time"":7528}]",80
,,,,,,,,,,4479,,,285537,,,instructions,"[{""page_index"":0,""viewing_time"":1679},{""page_index"":1,""viewing_time"":776},{""page_index"":2,""viewing_time"":1528},{""page_index"":3,""viewing_time"":496}]",80
,,,,,,,,,,104005,,,104006,,,instructions,"[{""page_index"":0,""viewing_time"":52899},{""page_index"":1,""viewing_time"":30826},{""page_index"":2,""viewing_time"":20279}]",81
,,,,,,,,,,126453,,,126454,,,instructions,"[{""page_index"":0,""viewing_time"":55163},{""page_index"":1,""viewing_time"":46691},{""page_index"":2,""viewing_time"":14407},{""page_index"":3,""viewing_time"":10192}]",82
,,,,,,,,,,126247,,,126251,,,instructions,"[{""page_index"":0,""viewing_time"":27563},{""page_index"":1,""viewing_time"":56682},{""page_index"":2,""viewing_time"":29649},{""page_index"":3,""viewing_time"":12348}]",83
,,,,,,,,,,85314,,,85317,,,instructions,"[{""page_index"":0,""viewing_time"":38684},{""page_index"":1,""viewing_time"":22203},{""page_index"":2,""viewing_time"":11769},{""page_index"":3,""viewing_time"":12655}]",84
,,,,,,,,,,90154,,,90158,,,instructions,"[{""page_index"":0,""viewing_time"":32626},{""page_index"":1,""viewing_time"":31374},{""page_index"":2,""viewing_time"":14048},{""page_index"":3,""viewing_time"":12104}]",85
,,,,,,,,,,110545,,,110547,,,instructions,"[{""page_index"":0,""viewing_time"":53654},{""page_index"":1,""viewing_time"":8738},{""page_index"":0,""viewing_time"":5566},{""page_index"":1,""viewing_time"":21825},{""page_index"":2,""viewing_time"":9269},{""page_index"":3,""viewing_time"":11492}]",86
,,,,,,,,,,40555,,,193898,,,instructions,"[{""page_index"":0,""viewing_time"":5354},{""page_index"":1,""viewing_time"":11383},{""page_index"":2,""viewing_time"":14889},{""page_index"":3,""viewing_time"":8929}]",86
,,,,,,,,,,134899,,,134901,,,instructions,"[{""page_index"":0,""viewing_time"":50264},{""page_index"":1,""viewing_time"":28510},{""page_index"":2,""viewing_time"":27731},{""page_index"":3,""viewing_time"":28392}]",87
,,,,,,,,,,109565,,,109567,,,instructions,"[{""page_index"":0,""viewing_time"":33636},{""page_index"":1,""viewing_time"":37242},{""page_index"":2,""viewing_time"":23401},{""page_index"":3,""viewing_time"":15286}]",88
,,,,,,,,,,17996,,,148109,,,instructions,"[{""page_index"":0,""viewing_time"":7620},{""page_index"":1,""viewing_time"":4476},{""page_index"":2,""viewing_time"":5218},{""page_index"":3,""viewing_time"":681}]",88
,,,,,,,,,,145861,,,308814,,,instructions,"[{""page_index"":0,""viewing_time"":121904},{""page_index"":1,""viewing_time"":5179},{""page_index"":2,""viewing_time"":17433},{""page_index"":3,""viewing_time"":1345}]",88
,,,,,,,,,,8100,,,339171,,,instructions,"[{""page_index"":0,""viewing_time"":3390},{""page_index"":1,""viewing_time"":705},{""page_index"":2,""viewing_time"":2311},{""page_index"":3,""viewing_time"":1693}]",88
,,,,,,,,,,10155,,,10157,,,instructions,"[{""page_index"":0,""viewing_time"":3014},{""page_index"":1,""viewing_time"":2339},{""page_index"":2,""viewing_time"":2590},{""page_index"":3,""viewing_time"":2210}]",89
,,,,,,,,,,26361,,,354457,,,instructions,"[{""page_index"":0,""viewing_time"":4595},{""page_index"":1,""viewing_time"":7141},{""page_index"":2,""viewing_time"":11726},{""page_index"":3,""viewing_time"":2897}]",89
,,,,,,,,,,89882,,,542280,,,instructions,"[{""page_index"":0,""viewing_time"":50866},{""page_index"":1,""viewing_time"":10437},{""page_index"":2,""viewing_time"":18846},{""page_index"":3,""viewing_time"":9733}]",89
,,,,,,,,,,6477,,,606126,,,instructions,"[{""page_index"":0,""viewing_time"":2531},{""page_index"":1,""viewing_time"":1109},{""page_index"":2,""viewing_time"":1780},{""page_index"":3,""viewing_time"":1056}]",89
,,,,,,,,,,6227,,,757039,,,instructions,"[{""page_index"":0,""viewing_time"":1993},{""page_index"":1,""viewing_time"":896},{""page_index"":2,""viewing_time"":1571},{""page_index"":3,""viewing_time"":1766}]",89
,,,,,,,,,,30796,,,818256,,,instructions,"[{""page_index"":0,""viewing_time"":25645},{""page_index"":1,""viewing_time"":2016},{""page_index"":2,""viewing_time"":1688},{""page_index"":3,""viewing_time"":1446}]",89
,,,,,,,,,,30568,,,890292,,,instructions,"[{""page_index"":0,""viewing_time"":26880},{""page_index"":1,""viewing_time"":782},{""page_index"":2,""viewing_time"":1865},{""page_index"":3,""viewing_time"":1040}]",89
,,,,,,,,,,9835,,,913925,,,instructions,"[{""page_index"":0,""viewing_time"":4123},{""page_index"":1,""viewing_time"":1803},{""page_index"":2,""viewing_time"":1634},{""page_index"":3,""viewing_time"":2274}]",89
,,,,,,,,,,313538,,,313539,,,instructions,"[{""page_index"":0,""viewing_time"":80411},{""page_index"":1,""viewing_time"":94338},{""page_index"":2,""viewing_time"":93365},{""page_index"":3,""viewing_time"":45422}]",90
,,,,,,,,,,231122,,,591744,,,instructions,"[{""page_index"":0,""viewing_time"":22729},{""page_index"":1,""viewing_time"":173967},{""page_index"":2,""viewing_time"":15346},{""page_index"":3,""viewing_time"":19079}]",90
,,,,,,,,,,333824,,,333824,,,instructions,"[{""page_index"":0,""viewing_time"":130413},{""page_index"":1,""viewing_time"":99536},{""page_index"":2,""viewing_time"":62634},{""page_index"":3,""viewing_time"":41239}]",91
,,,,,,,,,,125679,,,125679,,,instructions,"[{""page_index"":0,""viewing_time"":29739},{""page_index"":1,""viewing_time"":9404},{""page_index"":2,""viewing_time"":11253},{""page_index"":1,""viewing_time"":22994},{""page_index"":2,""viewing_time"":26443},{""page_index"":3,""viewing_time"":25844}]",92
,,,,,,,,,,66131,,,226638,,,instructions,"[{""page_index"":0,""viewing_time"":21991},{""page_index"":1,""viewing_time"":14956},{""page_index"":2,""viewing_time"":19911},{""page_index"":3,""viewing_time"":9272}]",92
,,,,,,,,,,201346,,,201348,,,instructions,"[{""page_index"":0,""viewing_time"":170380},{""page_index"":1,""viewing_time"":15916},{""page_index"":2,""viewing_time"":15048}]",93
,,,,,,,,,,270401,,,270402,,,instructions,"[{""page_index"":0,""viewing_time"":87464},{""page_index"":1,""viewing_time"":61952},{""page_index"":2,""viewing_time"":33936},{""page_index"":3,""viewing_time"":26401},{""page_index"":2,""viewing_time"":1166},{""page_index"":1,""viewing_time"":1376},{""page_index"":0,""viewing_time"":23889},{""page_index"":1,""viewing_time"":27528},{""page_index"":2,""viewing_time"":143},{""page_index"":3,""viewing_time"":6545}]",94
,,,,,,,,,,174458,,,174459,,,instructions,"[{""page_index"":0,""viewing_time"":34358},{""page_index"":1,""viewing_time"":52313},{""page_index"":2,""viewing_time"":60499},{""page_index"":3,""viewing_time"":27288}]",95
,,,,,,,,,,97674,,,97675,,,instructions,"[{""page_index"":0,""viewing_time"":47960},{""page_index"":1,""viewing_time"":16948},{""page_index"":2,""viewing_time"":26291},{""page_index"":3,""viewing_time"":6474}]",96
,,,,,,,,,,243486,,,243487,,,instructions,"[{""page_index"":0,""viewing_time"":60344},{""page_index"":1,""viewing_time"":81536},{""page_index"":2,""viewing_time"":74447},{""page_index"":3,""viewing_time"":27158}]",97
,,,,,,,,,,230276,,,230277,,,instructions,"[{""page_index"":0,""viewing_time"":99214},{""page_index"":1,""viewing_time"":55497},{""page_index"":2,""viewing_time"":45517},{""page_index"":3,""viewing_time"":30047}]",98
,,,,,,,,,,104397,,,104401,,,instructions,"[{""page_index"":0,""viewing_time"":40160},{""page_index"":1,""viewing_time"":31850},{""page_index"":2,""viewing_time"":16398},{""page_index"":3,""viewing_time"":15986}]",99
,,,,,,,,,,246297,,,246299,,,instructions,"[{""page_index"":0,""viewing_time"":99360},{""page_index"":1,""viewing_time"":56286},{""page_index"":2,""viewing_time"":54986},{""page_index"":3,""viewing_time"":35664}]",100
,,,,,,,,,,58980,,,420657,,,instructions,"[{""page_index"":0,""viewing_time"":15348},{""page_index"":1,""viewing_time"":11856},{""page_index"":2,""viewing_time"":26111},{""page_index"":3,""viewing_time"":5665}]",100
,,,,,,,,,,86860,,,86861,,,instructions,"[{""page_index"":0,""viewing_time"":22594},{""page_index"":1,""viewing_time"":32387},{""page_index"":2,""viewing_time"":20674},{""page_index"":3,""viewing_time"":11204}]",101
,,,,,,,,,,38687,,,38688,,,instructions,"[{""page_index"":0,""viewing_time"":11644},{""page_index"":1,""viewing_time"":9113},{""page_index"":2,""viewing_time"":9298},{""page_index"":3,""viewing_time"":8630}]",102
,,,,,,,,,,78226,,,78228,,,instructions,"[{""page_index"":0,""viewing_time"":26169},{""page_index"":1,""viewing_time"":23122},{""page_index"":2,""viewing_time"":12432},{""page_index"":3,""viewing_time"":16501}]",103
,,,,,,,,,,36062,,,146141,,,instructions,"[{""page_index"":0,""viewing_time"":6573},{""page_index"":1,""viewing_time"":8628},{""page_index"":2,""viewing_time"":10930},{""page_index"":3,""viewing_time"":9929}]",103
,,,,,,,,,,23400,,,195818,,,instructions,"[{""page_index"":0,""viewing_time"":12741},{""page_index"":1,""viewing_time"":6891},{""page_index"":2,""viewing_time"":2971},{""page_index"":3,""viewing_time"":796}]",103
,,,,,,,,,,196020,,,196024,,,instructions,"[{""page_index"":0,""viewing_time"":72722},{""page_index"":1,""viewing_time"":70432},{""page_index"":2,""viewing_time"":20247},{""page_index"":3,""viewing_time"":32615}]",104
,,,,,,,,,,115014,,,364954,,,instructions,"[{""page_index"":0,""viewing_time"":36439},{""page_index"":1,""viewing_time"":35783},{""page_index"":2,""viewing_time"":27675},{""page_index"":3,""viewing_time"":15113}]",104
,,,,,,,,,,59220,,,489989,,,instructions,"[{""page_index"":0,""viewing_time"":5146},{""page_index"":1,""viewing_time"":6139},{""page_index"":2,""viewing_time"":43518},{""page_index"":3,""viewing_time"":4414}]",104
,,,,,,,,,,72843,,,619820,,,instructions,"[{""page_index"":0,""viewing_time"":11964},{""page_index"":1,""viewing_time"":42667},{""page_index"":2,""viewing_time"":7401},{""page_index"":3,""viewing_time"":10809}]",104
,,,,,,,,,,59860,,,722393,,,instructions,"[{""page_index"":0,""viewing_time"":9511},{""page_index"":1,""viewing_time"":24974},{""page_index"":2,""viewing_time"":17390},{""page_index"":3,""viewing_time"":7984}]",104
,,,,,,,,,,13580,,,783167,,,instructions,"[{""page_index"":0,""viewing_time"":3569},{""page_index"":1,""viewing_time"":2483},{""page_index"":2,""viewing_time"":3557},{""page_index"":3,""viewing_time"":3970}]",104
,,,,,,,,,,40866,,,2028079,,,instructions,"[{""page_index"":0,""viewing_time"":3724},{""page_index"":1,""viewing_time"":28065},{""page_index"":2,""viewing_time"":6990},{""page_index"":3,""viewing_time"":2086}]",104
,,,,,,,,,,90782,,,90782,,,instructions,"[{""page_index"":0,""viewing_time"":11261},{""page_index"":1,""viewing_time"":14153},{""page_index"":2,""viewing_time"":30079},{""page_index"":3,""viewing_time"":35288}]",105
,,,,,,,,,,170374,,,170376,,,instructions,"[{""page_index"":0,""viewing_time"":111405},{""page_index"":1,""viewing_time"":33201},{""page_index"":2,""viewing_time"":10352},{""page_index"":3,""viewing_time"":15414}]",106
,,,,,,,,,,25478,,,238943,,,instructions,"[{""page_index"":0,""viewing_time"":11521},{""page_index"":1,""viewing_time"":11014},{""page_index"":2,""viewing_time"":1944},{""page_index"":3,""viewing_time"":997}]",106
,,,,,,,,,,96504,,,96504,,,instructions,"[{""page_index"":0,""viewing_time"":48279},{""page_index"":1,""viewing_time"":25092},{""page_index"":2,""viewing_time"":23132}]",107
,,,,,,,,,,38151,,,164807,,,instructions,"[{""page_index"":0,""viewing_time"":9942},{""page_index"":1,""viewing_time"":24049},{""page_index"":2,""viewing_time"":4159}]",107
,,,,,,,,,,69780,,,69782,,,instructions,"[{""page_index"":0,""viewing_time"":27880},{""page_index"":1,""viewing_time"":25088},{""page_index"":2,""viewing_time"":16810}]",108
,,,,,,,,,,70500,,,164548,,,instructions,"[{""page_index"":0,""viewing_time"":7988},{""page_index"":1,""viewing_time"":5732},{""page_index"":2,""viewing_time"":5868},{""page_index"":1,""viewing_time"":2424},{""page_index"":0,""viewing_time"":21698},{""page_index"":1,""viewing_time"":20191},{""page_index"":2,""viewing_time"":6598}]",108
,,,,,,,,,,194836,,,194837,,,instructions,"[{""page_index"":0,""viewing_time"":63263},{""page_index"":1,""viewing_time"":85755},{""page_index"":2,""viewing_time"":21761},{""page_index"":3,""viewing_time"":24047}]",109
,,,,,,,,,,25703,,,549669,,,instructions,"[{""page_index"":0,""viewing_time"":5886},{""page_index"":1,""viewing_time"":11988},{""page_index"":2,""viewing_time"":4882},{""page_index"":3,""viewing_time"":2947}]",109
,,,,,,,,,,8499,,,768004,,,instructions,"[{""page_index"":0,""viewing_time"":3074},{""page_index"":1,""viewing_time"":1024},{""page_index"":2,""viewing_time"":2173},{""page_index"":3,""viewing_time"":2228}]",109
,,,,,,,,,,7299,,,792220,,,instructions,"[{""page_index"":0,""viewing_time"":2581},{""page_index"":1,""viewing_time"":1077},{""page_index"":2,""viewing_time"":2264},{""page_index"":3,""viewing_time"":1376}]",109
,,,,,,,,,,7152,,,813820,,,instructions,"[{""page_index"":0,""viewing_time"":2312},{""page_index"":1,""viewing_time"":1166},{""page_index"":2,""viewing_time"":2567},{""page_index"":3,""viewing_time"":1107}]",109
,,,,,,,,,,6455,,,1002659,,,instructions,"[{""page_index"":0,""viewing_time"":2201},{""page_index"":1,""viewing_time"":1072},{""page_index"":2,""viewing_time"":2054},{""page_index"":3,""viewing_time"":1128}]",109
,,,,,,,,,,8992,,,1023692,,,instructions,"[{""page_index"":0,""viewing_time"":1806},{""page_index"":1,""viewing_time"":1216},{""page_index"":2,""viewing_time"":2034},{""page_index"":3,""viewing_time"":3935}]",109
,,,,,,,,,,7048,,,1222399,,,instructions,"[{""page_index"":0,""viewing_time"":2499},{""page_index"":1,""viewing_time"":1017},{""page_index"":2,""viewing_time"":2363},{""page_index"":3,""viewing_time"":1169}]",109
,,,,,,,,,,11391,,,1250934,,,instructions,"[{""page_index"":0,""viewing_time"":1822},{""page_index"":1,""viewing_time"":989},{""page_index"":2,""viewing_time"":3489},{""page_index"":3,""viewing_time"":5091}]",109
,,,,,,,,,,6617,,,1297339,,,instructions,"[{""page_index"":0,""viewing_time"":2771},{""page_index"":1,""viewing_time"":844},{""page_index"":2,""viewing_time"":2126},{""page_index"":3,""viewing_time"":876}]",109
,,,,,,,,,,5213,,,1336179,,,instructions,"[{""page_index"":0,""viewing_time"":1770},{""page_index"":1,""viewing_time"":866},{""page_index"":2,""viewing_time"":1822},{""page_index"":3,""viewing_time"":755}]",109
,,,,,,,,,,6427,,,1363637,,,instructions,"[{""page_index"":0,""viewing_time"":2172},{""page_index"":1,""viewing_time"":975},{""page_index"":2,""viewing_time"":2342},{""page_index"":3,""viewing_time"":938}]",109
,,,,,,,,,,111271,,,111272,,,instructions,"[{""page_index"":0,""viewing_time"":45348},{""page_index"":1,""viewing_time"":30212},{""page_index"":2,""viewing_time"":21633},{""page_index"":3,""viewing_time"":14077}]",110
,,,,,,,,,,196932,,,196933,,,instructions,"[{""page_index"":0,""viewing_time"":62840},{""page_index"":1,""viewing_time"":59613},{""page_index"":2,""viewing_time"":38996},{""page_index"":3,""viewing_time"":35482}]",111
,,,,,,,,,,249364,,,249366,,,instructions,"[{""page_index"":0,""viewing_time"":96587},{""page_index"":1,""viewing_time"":15759},{""page_index"":0,""viewing_time"":13922},{""page_index"":1,""viewing_time"":18133},{""page_index"":0,""viewing_time"":17697},{""page_index"":1,""viewing_time"":22904},{""page_index"":2,""viewing_time"":25305},{""page_index"":3,""viewing_time"":39055}]",112
,,,,,,,,,,96927,,,96928,,,instructions,"[{""page_index"":0,""viewing_time"":31197},{""page_index"":1,""viewing_time"":25802},{""page_index"":2,""viewing_time"":21288},{""page_index"":3,""viewing_time"":18640}]",113
,,,,,,,,,,9549,,,130855,,,instructions,"[{""page_index"":0,""viewing_time"":4533},{""page_index"":1,""viewing_time"":2824},{""page_index"":2,""viewing_time"":1176},{""page_index"":3,""viewing_time"":1015}]",113
,,,,,,,,,,11808,,,157392,,,instructions,"[{""page_index"":0,""viewing_time"":9018},{""page_index"":1,""viewing_time"":485},{""page_index"":2,""viewing_time"":1296},{""page_index"":3,""viewing_time"":1008}]",113
,,,,,,,,,,132029,,,132030,,,instructions,"[{""page_index"":0,""viewing_time"":93834},{""page_index"":1,""viewing_time"":23788},{""page_index"":2,""viewing_time"":14407}]",114
,,,,,,,,,,23763,,,465941,,,instructions,"[{""page_index"":0,""viewing_time"":6580},{""page_index"":1,""viewing_time"":659},{""page_index"":0,""viewing_time"":599},{""page_index"":1,""viewing_time"":1813},{""page_index"":2,""viewing_time"":14112}]",114
,,,,,,,,,,2719,,,480819,,,instructions,"[{""page_index"":0,""viewing_time"":1661},{""page_index"":1,""viewing_time"":592},{""page_index"":2,""viewing_time"":465}]",114
,,,,,,,,,,3335,,,498245,,,instructions,"[{""page_index"":0,""viewing_time"":2204},{""page_index"":1,""viewing_time"":593},{""page_index"":2,""viewing_time"":538}]",114
,,,,,,,,,,100742,,,100742,,,instructions,"[{""page_index"":0,""viewing_time"":43155},{""page_index"":1,""viewing_time"":35492},{""page_index"":2,""viewing_time"":22093}]",115
,,,,,,,,,,39022,,,165946,,,instructions,"[{""page_index"":0,""viewing_time"":15996},{""page_index"":1,""viewing_time"":20007},{""page_index"":2,""viewing_time"":3018}]",115
,,,,,,,,,,53969,,,53969,,,instructions,"[{""page_index"":0,""viewing_time"":18713},{""page_index"":1,""viewing_time"":18911},{""page_index"":2,""viewing_time"":16344}]",116
,,,,,,,,,,70160,,,70161,,,instructions,"[{""page_index"":0,""viewing_time"":20331},{""page_index"":1,""viewing_time"":38463},{""page_index"":2,""viewing_time"":11365}]",117
,,,,,,,,,,186679,,,186684,,,instructions,"[{""page_index"":0,""viewing_time"":33207},{""page_index"":1,""viewing_time"":71230},{""page_index"":2,""viewing_time"":54525},{""page_index"":3,""viewing_time"":27712}]",118
,,,,,,,,,,152408,,,152409,,,instructions,"[{""page_index"":0,""viewing_time"":52322},{""page_index"":1,""viewing_time"":1397},{""page_index"":2,""viewing_time"":4740},{""page_index"":1,""viewing_time"":36747},{""page_index"":2,""viewing_time"":22584},{""page_index"":3,""viewing_time"":34616}]",119
,,,,,,,,,,42490,,,274198,,,instructions,"[{""page_index"":0,""viewing_time"":19737},{""page_index"":1,""viewing_time"":7440},{""page_index"":2,""viewing_time"":12909},{""page_index"":3,""viewing_time"":2403}]",119
,,,,,,,,,,62702,,,370999,,,instructions,"[{""page_index"":0,""viewing_time"":14785},{""page_index"":1,""viewing_time"":13016},{""page_index"":2,""viewing_time"":13836},{""page_index"":3,""viewing_time"":21064}]",119
,,,,,,,,,,172286,,,172286,,,instructions,"[{""page_index"":0,""viewing_time"":49763},{""page_index"":1,""viewing_time"":31992},{""page_index"":2,""viewing_time"":60195},{""page_index"":3,""viewing_time"":30335}]",120
,,,,,,,,,,68934,,,293656,,,instructions,"[{""page_index"":0,""viewing_time"":30164},{""page_index"":1,""viewing_time"":15385},{""page_index"":2,""viewing_time"":17531},{""page_index"":3,""viewing_time"":5854}]",120
,,,,,,,,,,173672,,,173672,,,instructions,"[{""page_index"":0,""viewing_time"":40241},{""page_index"":1,""viewing_time"":38472},{""page_index"":2,""viewing_time"":49279},{""page_index"":3,""viewing_time"":45670}]",121
,,,,,,,,,,91141,,,91142,,,instructions,"[{""page_index"":0,""viewing_time"":7713},{""page_index"":1,""viewing_time"":44452},{""page_index"":2,""viewing_time"":38974}]",122
,,,,,,,,,,53763,,,184539,,,instructions,"[{""page_index"":0,""viewing_time"":14592},{""page_index"":1,""viewing_time"":24131},{""page_index"":2,""viewing_time"":15039}]",122
,,,,,,,,,,102937,,,305347,,,instructions,"[{""page_index"":0,""viewing_time"":44309},{""page_index"":1,""viewing_time"":44705},{""page_index"":2,""viewing_time"":13922}]",122
,,,,,,,,,,1613299,,,1947689,,,instructions,"[{""page_index"":0,""viewing_time"":1560258},{""page_index"":1,""viewing_time"":30505},{""page_index"":2,""viewing_time"":22534}]",122
,,,,,,,,,,255154,,,2222015,,,instructions,"[{""page_index"":0,""viewing_time"":183487},{""page_index"":1,""viewing_time"":35368},{""page_index"":2,""viewing_time"":36298}]",122
,,,,,,,,,,51112,,,51113,,,instructions,"[{""page_index"":0,""viewing_time"":27460},{""page_index"":1,""viewing_time"":17897},{""page_index"":2,""viewing_time"":5754}]",123
,,,,,,,,,,182635,,,182636,,,instructions,"[{""page_index"":0,""viewing_time"":56366},{""page_index"":1,""viewing_time"":50084},{""page_index"":2,""viewing_time"":45827},{""page_index"":3,""viewing_time"":30357}]",124
,,,,,,,,,,123006,,,123008,,,instructions,"[{""page_index"":0,""viewing_time"":34939},{""page_index"":1,""viewing_time"":35513},{""page_index"":2,""viewing_time"":27424},{""page_index"":3,""viewing_time"":25128}]",125
,,,,,,,,,,121302,,,121303,,,instructions,"[{""page_index"":0,""viewing_time"":47267},{""page_index"":1,""viewing_time"":52323},{""page_index"":2,""viewing_time"":19118},{""page_index"":3,""viewing_time"":2593}]",126
,,,,,,,,,,24739,,,207702,,,instructions,"[{""page_index"":0,""viewing_time"":1939},{""page_index"":1,""viewing_time"":1314},{""page_index"":0,""viewing_time"":2276},{""page_index"":1,""viewing_time"":3738},{""page_index"":2,""viewing_time"":7508},{""page_index"":3,""viewing_time"":7963}]",126
,,,,,,,,,,209472,,,209477,,,instructions,"[{""page_index"":0,""viewing_time"":92943},{""page_index"":1,""viewing_time"":43715},{""page_index"":2,""viewing_time"":46627},{""page_index"":3,""viewing_time"":26184}]",127
,,,,,,,,,,73202,,,73204,,,instructions,"[{""page_index"":0,""viewing_time"":28095},{""page_index"":1,""viewing_time"":27566},{""page_index"":2,""viewing_time"":17540}]",128
,,,,,,,,,,176515,,,176516,,,instructions,"[{""page_index"":0,""viewing_time"":10358},{""page_index"":1,""viewing_time"":21585},{""page_index"":2,""viewing_time"":12281},{""page_index"":3,""viewing_time"":5209},{""page_index"":2,""viewing_time"":11535},{""page_index"":1,""viewing_time"":15976},{""page_index"":0,""viewing_time"":28286},{""page_index"":1,""viewing_time"":17248},{""page_index"":2,""viewing_time"":29836},{""page_index"":3,""viewing_time"":24200}]",129
,,,,,,,,,,49424,,,252663,,,instructions,"[{""page_index"":0,""viewing_time"":21656},{""page_index"":1,""viewing_time"":24527},{""page_index"":2,""viewing_time"":1968},{""page_index"":3,""viewing_time"":1272}]",129
,,,,,,,,,,59628,,,337153,,,instructions,"[{""page_index"":0,""viewing_time"":15134},{""page_index"":1,""viewing_time"":10096},{""page_index"":2,""viewing_time"":17639},{""page_index"":3,""viewing_time"":16758}]",129
,,,,,,,,,,96974,,,96974,,,instructions,"[{""page_index"":0,""viewing_time"":38402},{""page_index"":1,""viewing_time"":42499},{""page_index"":2,""viewing_time"":16071}]",130
,,,,,,,,,,119013,,,119014,,,instructions,"[{""page_index"":0,""viewing_time"":32594},{""page_index"":1,""viewing_time"":33816},{""page_index"":2,""viewing_time"":28483},{""page_index"":3,""viewing_time"":24118}]",131
,,,,,,,,,,22794,,,177926,,,instructions,"[{""page_index"":0,""viewing_time"":9297},{""page_index"":1,""viewing_time"":4353},{""page_index"":2,""viewing_time"":7992},{""page_index"":3,""viewing_time"":1151}]",131
,,,,,,,,,,28674,,,243599,,,instructions,"[{""page_index"":0,""viewing_time"":12740},{""page_index"":1,""viewing_time"":2888},{""page_index"":2,""viewing_time"":6359},{""page_index"":3,""viewing_time"":6686}]",131
,,,,,,,,,,101933,,,101934,,,instructions,"[{""page_index"":0,""viewing_time"":41929},{""page_index"":1,""viewing_time"":30919},{""page_index"":2,""viewing_time"":29084}]",132
,,,,,,,,,,119508,,,119509,,,instructions,"[{""page_index"":0,""viewing_time"":31892},{""page_index"":1,""viewing_time"":223},{""page_index"":0,""viewing_time"":2797},{""page_index"":1,""viewing_time"":41957},{""page_index"":2,""viewing_time"":26460},{""page_index"":3,""viewing_time"":16179}]",133
,,,,,,,,,,93741,,,93743,,,instructions,"[{""page_index"":0,""viewing_time"":20809},{""page_index"":1,""viewing_time"":34398},{""page_index"":2,""viewing_time"":24228},{""page_index"":3,""viewing_time"":14305}]",134
,,,,,,,,,,249959,,,367378,,,instructions,"[{""page_index"":0,""viewing_time"":106543},{""page_index"":1,""viewing_time"":64250},{""page_index"":2,""viewing_time"":10256},{""page_index"":3,""viewing_time"":68909}]",134
,,,,,,,,,,232067,,,232068,,,instructions,"[{""page_index"":0,""viewing_time"":85459},{""page_index"":1,""viewing_time"":59129},{""page_index"":2,""viewing_time"":45684},{""page_index"":3,""viewing_time"":41793}]",135
,,,,,,,,,,68656,,,68657,,,instructions,"[{""page_index"":0,""viewing_time"":23687},{""page_index"":1,""viewing_time"":24730},{""page_index"":2,""viewing_time"":20238}]",136
,,,,,,,,,,206310,,,206312,,,instructions,"[{""page_index"":0,""viewing_time"":71439},{""page_index"":1,""viewing_time"":45084},{""page_index"":2,""viewing_time"":55183},{""page_index"":3,""viewing_time"":34604}]",137
,,,,,,,,,,51355,,,51357,,,instructions,"[{""page_index"":0,""viewing_time"":12698},{""page_index"":1,""viewing_time"":18463},{""page_index"":2,""viewing_time"":20193}]",138
,,,,,,,,,,921687,,,1021291,,,instructions,"[{""page_index"":0,""viewing_time"":857144},{""page_index"":1,""viewing_time"":29175},{""page_index"":2,""viewing_time"":35368}]",138
,,,,,,,,,,48911,,,1302163,,,instructions,"[{""page_index"":0,""viewing_time"":6975},{""page_index"":1,""viewing_time"":9864},{""page_index"":2,""viewing_time"":1000},{""page_index"":1,""viewing_time"":10879},{""page_index"":2,""viewing_time"":20192}]",138
,,,,,,,,,,28456,,,1358002,,,instructions,"[{""page_index"":0,""viewing_time"":1864},{""page_index"":1,""viewing_time"":7360},{""page_index"":2,""viewing_time"":19232}]",138
,,,,,,,,,,114356,,,114360,,,instructions,"[{""page_index"":0,""viewing_time"":37293},{""page_index"":1,""viewing_time"":45662},{""page_index"":2,""viewing_time"":31396}]",139
,,,,,,,,,,179793,,,179794,,,instructions,"[{""page_index"":0,""viewing_time"":59553},{""page_index"":1,""viewing_time"":44791},{""page_index"":2,""viewing_time"":40561},{""page_index"":3,""viewing_time"":34887}]",140
,,,,,,,,,,271317,,,271319,,,instructions,"[{""page_index"":0,""viewing_time"":32467},{""page_index"":1,""viewing_time"":11809},{""page_index"":0,""viewing_time"":983},{""page_index"":1,""viewing_time"":42686},{""page_index"":2,""viewing_time"":29450},{""page_index"":3,""viewing_time"":153921}]",141
,,,,,,,,,,178937,,,178937,,,instructions,"[{""page_index"":0,""viewing_time"":43868},{""page_index"":1,""viewing_time"":44152},{""page_index"":2,""viewing_time"":39327},{""page_index"":3,""viewing_time"":16106},{""page_index"":2,""viewing_time"":4342},{""page_index"":3,""viewing_time"":31141}]",142
,,,,,,,,,,69109,,,278022,,,instructions,"[{""page_index"":0,""viewing_time"":30522},{""page_index"":1,""viewing_time"":13170},{""page_index"":2,""viewing_time"":21826},{""page_index"":3,""viewing_time"":3590}]",142
,,,,,,,,,,221205,,,221206,,,instructions,"[{""page_index"":0,""viewing_time"":111287},{""page_index"":1,""viewing_time"":63509},{""page_index"":2,""viewing_time"":37877},{""page_index"":3,""viewing_time"":8532}]",143
,,,,,,,,,,136370,,,448073,,,instructions,"[{""page_index"":0,""viewing_time"":15159},{""page_index"":1,""viewing_time"":33588},{""page_index"":2,""viewing_time"":53902},{""page_index"":3,""viewing_time"":33721}]",143
,,,,,,,,,,150289,,,150292,,,instructions,"[{""page_index"":0,""viewing_time"":37775},{""page_index"":1,""viewing_time"":57488},{""page_index"":2,""viewing_time"":27428},{""page_index"":3,""viewing_time"":27597}]",144
,,,,,,,,,,99888,,,99889,,,instructions,"[{""page_index"":0,""viewing_time"":40651},{""page_index"":1,""viewing_time"":37303},{""page_index"":2,""viewing_time"":21934}]",145
