action_times,actions,button_pressed,correct,delays,key_press,path,queries,questions,responses,rt,score,stimulus,time_elapsed,trial_index,trial_i,trial_type,view_history,pid
,,,,,,,,,,81351,,,81353,,,instructions,"[{""page_index"":0,""viewing_time"":19418},{""page_index"":1,""viewing_time"":35495},{""page_index"":2,""viewing_time"":9597},{""page_index"":3,""viewing_time"":16839}]",0
,,,,,,,,,,302324,,,302325,,,instructions,"[{""page_index"":0,""viewing_time"":189429},{""page_index"":1,""viewing_time"":16470},{""page_index"":2,""viewing_time"":96425}]",1
,,,,,,,,,,165781,,,165783,,,instructions,"[{""page_index"":0,""viewing_time"":109981},{""page_index"":1,""viewing_time"":48611},{""page_index"":2,""viewing_time"":7188}]",2
,,,,,,,,,,112652,,,112652,,,instructions,"[{""page_index"":0,""viewing_time"":64435},{""page_index"":1,""viewing_time"":22676},{""page_index"":2,""viewing_time"":14583},{""page_index"":3,""viewing_time"":10957}]",3
,,,,,,,,,,189663,,,189663,,,instructions,"[{""page_index"":0,""viewing_time"":51970},{""page_index"":1,""viewing_time"":56675},{""page_index"":2,""viewing_time"":49638},{""page_index"":3,""viewing_time"":31380}]",4
,,,,,,,,,,53422,,,53425,,,instructions,"[{""page_index"":0,""viewing_time"":36080},{""page_index"":1,""viewing_time"":9955},{""page_index"":2,""viewing_time"":2669},{""page_index"":3,""viewing_time"":4716}]",5
,,,,,,,,,,24391,,,98715,,,instructions,"[{""page_index"":0,""viewing_time"":5308},{""page_index"":1,""viewing_time"":5867},{""page_index"":2,""viewing_time"":6437},{""page_index"":3,""viewing_time"":6777}]",5
,,,,,,,,,,28363,,,173452,,,instructions,"[{""page_index"":0,""viewing_time"":9735},{""page_index"":1,""viewing_time"":5465},{""page_index"":2,""viewing_time"":6775},{""page_index"":3,""viewing_time"":6387}]",5
,,,,,,,,,,153956,,,153960,,,instructions,"[{""page_index"":0,""viewing_time"":78644},{""page_index"":1,""viewing_time"":43335},{""page_index"":2,""viewing_time"":31976}]",6
,,,,,,,,,,191834,,,191836,,,instructions,"[{""page_index"":0,""viewing_time"":67759},{""page_index"":1,""viewing_time"":96357},{""page_index"":2,""viewing_time"":27715}]",7
,,,,,,,,,,70734,,,70739,,,instructions,"[{""page_index"":0,""viewing_time"":41062},{""page_index"":1,""viewing_time"":17566},{""page_index"":2,""viewing_time"":12104}]",8
,,,,,,,,,,71480,,,71481,,,instructions,"[{""page_index"":0,""viewing_time"":29839},{""page_index"":1,""viewing_time"":25758},{""page_index"":2,""viewing_time"":15882}]",9
,,,,,,,,,,77947,,,77947,,,instructions,"[{""page_index"":0,""viewing_time"":23749},{""page_index"":1,""viewing_time"":33128},{""page_index"":2,""viewing_time"":7281},{""page_index"":3,""viewing_time"":13788}]",10
,,,,,,,,,,46174,,,159678,,,instructions,"[{""page_index"":0,""viewing_time"":11576},{""page_index"":1,""viewing_time"":1685},{""page_index"":0,""viewing_time"":5720},{""page_index"":1,""viewing_time"":13653},{""page_index"":2,""viewing_time"":7672},{""page_index"":3,""viewing_time"":5868}]",10
,,,,,,,,,,151077,,,151081,,,instructions,"[{""page_index"":0,""viewing_time"":27012},{""page_index"":1,""viewing_time"":43367},{""page_index"":0,""viewing_time"":8724},{""page_index"":1,""viewing_time"":6828},{""page_index"":0,""viewing_time"":13238},{""page_index"":1,""viewing_time"":3718},{""page_index"":2,""viewing_time"":23969},{""page_index"":3,""viewing_time"":24218}]",11
,,,,,,,,,,61165,,,255609,,,instructions,"[{""page_index"":0,""viewing_time"":7346},{""page_index"":1,""viewing_time"":20656},{""page_index"":2,""viewing_time"":25782},{""page_index"":3,""viewing_time"":7379}]",11
,,,,,,,,,,222675,,,222677,,,instructions,"[{""page_index"":0,""viewing_time"":54797},{""page_index"":1,""viewing_time"":82299},{""page_index"":2,""viewing_time"":45986},{""page_index"":3,""viewing_time"":39591}]",12
,,,,,,,,,,185353,,,185355,,,instructions,"[{""page_index"":0,""viewing_time"":48812},{""page_index"":1,""viewing_time"":67597},{""page_index"":2,""viewing_time"":38115},{""page_index"":3,""viewing_time"":30827}]",13
,,,,,,,,,,63197,,,300879,,,instructions,"[{""page_index"":0,""viewing_time"":14887},{""page_index"":1,""viewing_time"":20545},{""page_index"":2,""viewing_time"":18876},{""page_index"":3,""viewing_time"":8888}]",13
,,,,,,,,,,132796,,,132799,,,instructions,"[{""page_index"":0,""viewing_time"":97386},{""page_index"":1,""viewing_time"":10788},{""page_index"":2,""viewing_time"":5359},{""page_index"":3,""viewing_time"":19262}]",14
,,,,,,,,,,102322,,,273332,,,instructions,"[{""page_index"":0,""viewing_time"":20921},{""page_index"":1,""viewing_time"":62309},{""page_index"":2,""viewing_time"":15712},{""page_index"":3,""viewing_time"":3379}]",14
,,,,,,,,,,28785,,,323093,,,instructions,"[{""page_index"":0,""viewing_time"":19272},{""page_index"":1,""viewing_time"":7129},{""page_index"":2,""viewing_time"":1728},{""page_index"":3,""viewing_time"":655}]",14
,,,,,,,,,,4068,,,343108,,,instructions,"[{""page_index"":0,""viewing_time"":1301},{""page_index"":1,""viewing_time"":545},{""page_index"":2,""viewing_time"":1548},{""page_index"":3,""viewing_time"":673}]",14
,,,,,,,,,,78315,,,78315,,,instructions,"[{""page_index"":0,""viewing_time"":34635},{""page_index"":1,""viewing_time"":25393},{""page_index"":2,""viewing_time"":18286}]",15
,,,,,,,,,,101580,,,101581,,,instructions,"[{""page_index"":0,""viewing_time"":31944},{""page_index"":1,""viewing_time"":426},{""page_index"":0,""viewing_time"":24880},{""page_index"":1,""viewing_time"":24942},{""page_index"":2,""viewing_time"":19388}]",16
,,,,,,,,,,101567,,,101568,,,instructions,"[{""page_index"":0,""viewing_time"":37250},{""page_index"":1,""viewing_time"":24044},{""page_index"":2,""viewing_time"":24984},{""page_index"":3,""viewing_time"":15289}]",17
,,,,,,,,,,115418,,,115420,,,instructions,"[{""page_index"":0,""viewing_time"":56230},{""page_index"":1,""viewing_time"":35662},{""page_index"":2,""viewing_time"":23525}]",18
,,,,,,,,,,97512,,,97519,,,instructions,"[{""page_index"":0,""viewing_time"":12847},{""page_index"":1,""viewing_time"":12789},{""page_index"":2,""viewing_time"":11592},{""page_index"":3,""viewing_time"":11069},{""page_index"":2,""viewing_time"":1831},{""page_index"":1,""viewing_time"":762},{""page_index"":0,""viewing_time"":13957},{""page_index"":1,""viewing_time"":10156},{""page_index"":2,""viewing_time"":11315},{""page_index"":3,""viewing_time"":11190}]",19
,,,,,,,,,,102872,,,102874,,,instructions,"[{""page_index"":0,""viewing_time"":34120},{""page_index"":1,""viewing_time"":30886},{""page_index"":2,""viewing_time"":22505},{""page_index"":3,""viewing_time"":15360}]",20
,,,,,,,,,,197189,,,197190,,,instructions,"[{""page_index"":0,""viewing_time"":46707},{""page_index"":1,""viewing_time"":39253},{""page_index"":2,""viewing_time"":51561},{""page_index"":3,""viewing_time"":34648},{""page_index"":2,""viewing_time"":1989},{""page_index"":1,""viewing_time"":9857},{""page_index"":2,""viewing_time"":10187},{""page_index"":3,""viewing_time"":2987}]",21
,,,,,,,,,,151350,,,392347,,,instructions,"[{""page_index"":0,""viewing_time"":33820},{""page_index"":1,""viewing_time"":33958},{""page_index"":2,""viewing_time"":71801},{""page_index"":3,""viewing_time"":11771}]",21
,,,,,,,,,,130370,,,130372,,,instructions,"[{""page_index"":0,""viewing_time"":75787},{""page_index"":1,""viewing_time"":38639},{""page_index"":2,""viewing_time"":15943}]",22
,,,,,,,,,,369649,,,369651,,,instructions,"[{""page_index"":0,""viewing_time"":85261},{""page_index"":1,""viewing_time"":49715},{""page_index"":2,""viewing_time"":222096},{""page_index"":3,""viewing_time"":12574}]",23
,,,,,,,,,,312030,,,312032,,,instructions,"[{""page_index"":0,""viewing_time"":61280},{""page_index"":1,""viewing_time"":163785},{""page_index"":2,""viewing_time"":59489},{""page_index"":3,""viewing_time"":27474}]",24
,,,,,,,,,,165260,,,540047,,,instructions,"[{""page_index"":0,""viewing_time"":56334},{""page_index"":1,""viewing_time"":32962},{""page_index"":2,""viewing_time"":56903},{""page_index"":3,""viewing_time"":19060}]",24
,,,,,,,,,,186595,,,186596,,,instructions,"[{""page_index"":0,""viewing_time"":48375},{""page_index"":1,""viewing_time"":42192},{""page_index"":2,""viewing_time"":67725},{""page_index"":3,""viewing_time"":28301}]",25
,,,,,,,,,,99474,,,99475,,,instructions,"[{""page_index"":0,""viewing_time"":57440},{""page_index"":1,""viewing_time"":20276},{""page_index"":2,""viewing_time"":12589},{""page_index"":3,""viewing_time"":9169}]",26
,,,,,,,,,,130174,,,130174,,,instructions,"[{""page_index"":0,""viewing_time"":26618},{""page_index"":1,""viewing_time"":28315},{""page_index"":2,""viewing_time"":20835},{""page_index"":1,""viewing_time"":218},{""page_index"":0,""viewing_time"":10500},{""page_index"":1,""viewing_time"":12034},{""page_index"":2,""viewing_time"":18172},{""page_index"":3,""viewing_time"":13481}]",27
,,,,,,,,,,8195,,,159541,,,instructions,"[{""page_index"":0,""viewing_time"":2382},{""page_index"":1,""viewing_time"":168},{""page_index"":0,""viewing_time"":164},{""page_index"":1,""viewing_time"":831},{""page_index"":2,""viewing_time"":1535},{""page_index"":3,""viewing_time"":3114}]",27
,,,,,,,,,,133277,,,133280,,,instructions,"[{""page_index"":0,""viewing_time"":53002},{""page_index"":1,""viewing_time"":31177},{""page_index"":2,""viewing_time"":30828},{""page_index"":3,""viewing_time"":18260}]",28
,,,,,,,,,,22473,,,190901,,,instructions,"[{""page_index"":0,""viewing_time"":4488},{""page_index"":1,""viewing_time"":1905},{""page_index"":0,""viewing_time"":2615},{""page_index"":1,""viewing_time"":3665},{""page_index"":2,""viewing_time"":5892},{""page_index"":3,""viewing_time"":3908}]",28
,,,,,,,,,,153312,,,153323,,,instructions,"[{""page_index"":0,""viewing_time"":49655},{""page_index"":1,""viewing_time"":39038},{""page_index"":2,""viewing_time"":31929},{""page_index"":3,""viewing_time"":32690}]",29
,,,,,,,,,,95266,,,95267,,,instructions,"[{""page_index"":0,""viewing_time"":35588},{""page_index"":1,""viewing_time"":28471},{""page_index"":2,""viewing_time"":16212},{""page_index"":3,""viewing_time"":14994}]",30
,,,,,,,,,,271394,,,271394,,,instructions,"[{""page_index"":0,""viewing_time"":116209},{""page_index"":1,""viewing_time"":85895},{""page_index"":2,""viewing_time"":69289}]",31
,,,,,,,,,,119805,,,457850,,,instructions,"[{""page_index"":0,""viewing_time"":23668},{""page_index"":1,""viewing_time"":37360},{""page_index"":2,""viewing_time"":58776}]",31
,,,,,,,,,,107242,,,107245,,,instructions,"[{""page_index"":0,""viewing_time"":92101},{""page_index"":1,""viewing_time"":3731},{""page_index"":2,""viewing_time"":11408}]",32
,,,,,,,,,,23668,,,23669,,,instructions,"[{""page_index"":0,""viewing_time"":8768},{""page_index"":1,""viewing_time"":5505},{""page_index"":2,""viewing_time"":9394}]",33
,,,,,,,,,,32355,,,81023,,,instructions,"[{""page_index"":0,""viewing_time"":7184},{""page_index"":1,""viewing_time"":18502},{""page_index"":2,""viewing_time"":6669}]",33
,,,,,,,,,,1733759,,,1733760,,,instructions,"[{""page_index"":0,""viewing_time"":1667156},{""page_index"":1,""viewing_time"":25097},{""page_index"":2,""viewing_time"":20348},{""page_index"":3,""viewing_time"":21158}]",34
,,,,,,,,,,64285,,,1832923,,,instructions,"[{""page_index"":0,""viewing_time"":10449},{""page_index"":1,""viewing_time"":32949},{""page_index"":2,""viewing_time"":10975},{""page_index"":3,""viewing_time"":9912}]",34
,,,,,,,,,,89098,,,89103,,,instructions,"[{""page_index"":0,""viewing_time"":27392},{""page_index"":1,""viewing_time"":22317},{""page_index"":2,""viewing_time"":20350},{""page_index"":3,""viewing_time"":19033}]",35
,,,,,,,,,,8682,,,118195,,,instructions,"[{""page_index"":0,""viewing_time"":6004},{""page_index"":1,""viewing_time"":570},{""page_index"":2,""viewing_time"":1599},{""page_index"":3,""viewing_time"":506}]",35
,,,,,,,,,,73470,,,73472,,,instructions,"[{""page_index"":0,""viewing_time"":28299},{""page_index"":1,""viewing_time"":16729},{""page_index"":2,""viewing_time"":15290},{""page_index"":3,""viewing_time"":13151}]",36
,,,,,,,,,,31193,,,135158,,,instructions,"[{""page_index"":0,""viewing_time"":8568},{""page_index"":1,""viewing_time"":5906},{""page_index"":2,""viewing_time"":10486},{""page_index"":3,""viewing_time"":6232}]",36
,,,,,,,,,,23612,,,182119,,,instructions,"[{""page_index"":0,""viewing_time"":4575},{""page_index"":1,""viewing_time"":3206},{""page_index"":2,""viewing_time"":13254},{""page_index"":3,""viewing_time"":2576}]",36
,,,,,,,,,,23171,,,220325,,,instructions,"[{""page_index"":0,""viewing_time"":10571},{""page_index"":1,""viewing_time"":3757},{""page_index"":2,""viewing_time"":3262},{""page_index"":3,""viewing_time"":5581}]",36
,,,,,,,,,,5306,,,295998,,,instructions,"[{""page_index"":0,""viewing_time"":1390},{""page_index"":1,""viewing_time"":1552},{""page_index"":2,""viewing_time"":1294},{""page_index"":3,""viewing_time"":1069}]",36
,,,,,,,,,,22497,,,349427,,,instructions,"[{""page_index"":0,""viewing_time"":6532},{""page_index"":1,""viewing_time"":6356},{""page_index"":2,""viewing_time"":6998},{""page_index"":3,""viewing_time"":2610}]",36
,,,,,,,,,,3473,,,375506,,,instructions,"[{""page_index"":0,""viewing_time"":840},{""page_index"":1,""viewing_time"":664},{""page_index"":2,""viewing_time"":996},{""page_index"":3,""viewing_time"":972}]",36
,,,,,,,,,,3334,,,394058,,,instructions,"[{""page_index"":0,""viewing_time"":813},{""page_index"":1,""viewing_time"":844},{""page_index"":2,""viewing_time"":810},{""page_index"":3,""viewing_time"":867}]",36
,,,,,,,,,,3302,,,410124,,,instructions,"[{""page_index"":0,""viewing_time"":961},{""page_index"":1,""viewing_time"":687},{""page_index"":2,""viewing_time"":866},{""page_index"":3,""viewing_time"":788}]",36
,,,,,,,,,,3957,,,427517,,,instructions,"[{""page_index"":0,""viewing_time"":1190},{""page_index"":1,""viewing_time"":764},{""page_index"":2,""viewing_time"":1238},{""page_index"":3,""viewing_time"":765}]",36
,,,,,,,,,,6622,,,447150,,,instructions,"[{""page_index"":0,""viewing_time"":3989},{""page_index"":1,""viewing_time"":889},{""page_index"":2,""viewing_time"":945},{""page_index"":3,""viewing_time"":799}]",36
,,,,,,,,,,93101,,,93102,,,instructions,"[{""page_index"":0,""viewing_time"":29066},{""page_index"":1,""viewing_time"":15851},{""page_index"":2,""viewing_time"":32415},{""page_index"":3,""viewing_time"":15768}]",37
,,,,,,,,,,24279,,,148138,,,instructions,"[{""page_index"":0,""viewing_time"":11700},{""page_index"":1,""viewing_time"":8511},{""page_index"":2,""viewing_time"":2301},{""page_index"":3,""viewing_time"":1766}]",37
,,,,,,,,,,100286,,,100287,,,instructions,"[{""page_index"":0,""viewing_time"":15870},{""page_index"":1,""viewing_time"":10976},{""page_index"":2,""viewing_time"":30671},{""page_index"":3,""viewing_time"":42768}]",38
,,,,,,,,,,45200,,,180255,,,instructions,"[{""page_index"":0,""viewing_time"":5391},{""page_index"":1,""viewing_time"":21688},{""page_index"":2,""viewing_time"":13936},{""page_index"":3,""viewing_time"":4185}]",38
,,,,,,,,,,59968,,,268311,,,instructions,"[{""page_index"":0,""viewing_time"":24448},{""page_index"":1,""viewing_time"":15631},{""page_index"":2,""viewing_time"":17481},{""page_index"":3,""viewing_time"":2408}]",38
,,,,,,,,,,322574,,,322576,,,instructions,"[{""page_index"":0,""viewing_time"":120955},{""page_index"":1,""viewing_time"":109367},{""page_index"":2,""viewing_time"":62520},{""page_index"":3,""viewing_time"":29729}]",39
,,,,,,,,,,47935,,,47936,,,instructions,"[{""page_index"":0,""viewing_time"":13567},{""page_index"":1,""viewing_time"":24935},{""page_index"":2,""viewing_time"":7416},{""page_index"":3,""viewing_time"":2016}]",40
,,,,,,,,,,121288,,,121289,,,instructions,"[{""page_index"":0,""viewing_time"":44272},{""page_index"":1,""viewing_time"":31995},{""page_index"":2,""viewing_time"":28236},{""page_index"":3,""viewing_time"":16783}]",41
,,,,,,,,,,97759,,,97760,,,instructions,"[{""page_index"":0,""viewing_time"":47662},{""page_index"":1,""viewing_time"":20035},{""page_index"":2,""viewing_time"":24467},{""page_index"":3,""viewing_time"":5595}]",42
,,,,,,,,,,34968,,,165760,,,instructions,"[{""page_index"":0,""viewing_time"":4059},{""page_index"":1,""viewing_time"":9339},{""page_index"":2,""viewing_time"":11674},{""page_index"":3,""viewing_time"":9895}]",42
,,,,,,,,,,212715,,,212720,,,instructions,"[{""page_index"":0,""viewing_time"":72703},{""page_index"":1,""viewing_time"":63503},{""page_index"":2,""viewing_time"":44725},{""page_index"":3,""viewing_time"":31781}]",43
,,,,,,,,,,620457,,,620460,,,instructions,"[{""page_index"":0,""viewing_time"":150420},{""page_index"":1,""viewing_time"":251918},{""page_index"":2,""viewing_time"":134307},{""page_index"":3,""viewing_time"":83810}]",44
,,,,,,,,,,354171,,,1074865,,,instructions,"[{""page_index"":0,""viewing_time"":104399},{""page_index"":1,""viewing_time"":51644},{""page_index"":2,""viewing_time"":32015},{""page_index"":3,""viewing_time"":106232},{""page_index"":2,""viewing_time"":13678},{""page_index"":1,""viewing_time"":37806},{""page_index"":2,""viewing_time"":5942},{""page_index"":3,""viewing_time"":2453}]",44
,,,,,,,,,,97948,,,97950,,,instructions,"[{""page_index"":0,""viewing_time"":39339},{""page_index"":1,""viewing_time"":8282},{""page_index"":0,""viewing_time"":2208},{""page_index"":1,""viewing_time"":23375},{""page_index"":0,""viewing_time"":1904},{""page_index"":1,""viewing_time"":840},{""page_index"":2,""viewing_time"":10000},{""page_index"":3,""viewing_time"":11998}]",45
,,,,,,,,,,169422,,,169424,,,instructions,"[{""page_index"":0,""viewing_time"":61026},{""page_index"":1,""viewing_time"":37294},{""page_index"":2,""viewing_time"":32516},{""page_index"":3,""viewing_time"":38585}]",46
,,,,,,,,,,9516,,,205430,,,instructions,"[{""page_index"":0,""viewing_time"":3131},{""page_index"":1,""viewing_time"":3898},{""page_index"":2,""viewing_time"":1973},{""page_index"":3,""viewing_time"":513}]",46
,,,,,,,,,,35205,,,35207,,,instructions,"[{""page_index"":0,""viewing_time"":15220},{""page_index"":1,""viewing_time"":7442},{""page_index"":2,""viewing_time"":6179},{""page_index"":3,""viewing_time"":6363}]",47
,,,,,,,,,,68898,,,68900,,,instructions,"[{""page_index"":0,""viewing_time"":6359},{""page_index"":1,""viewing_time"":18983},{""page_index"":2,""viewing_time"":35868},{""page_index"":3,""viewing_time"":7686}]",48
,,,,,,,,,,91815,,,91816,,,instructions,"[{""page_index"":0,""viewing_time"":18704},{""page_index"":1,""viewing_time"":31686},{""page_index"":2,""viewing_time"":22504},{""page_index"":3,""viewing_time"":18921}]",49
,,,,,,,,,,226177,,,226179,,,instructions,"[{""page_index"":0,""viewing_time"":127982},{""page_index"":1,""viewing_time"":54919},{""page_index"":2,""viewing_time"":43274}]",50
,,,,,,,,,,11852,,,283141,,,instructions,"[{""page_index"":0,""viewing_time"":8119},{""page_index"":1,""viewing_time"":2560},{""page_index"":2,""viewing_time"":1173}]",50
,,,,,,,,,,141926,,,462539,,,instructions,"[{""page_index"":0,""viewing_time"":53480},{""page_index"":1,""viewing_time"":42790},{""page_index"":2,""viewing_time"":45656}]",50
,,,,,,,,,,6297,,,502358,,,instructions,"[{""page_index"":0,""viewing_time"":3826},{""page_index"":1,""viewing_time"":1464},{""page_index"":2,""viewing_time"":1007}]",50
,,,,,,,,,,7290,,,526510,,,instructions,"[{""page_index"":0,""viewing_time"":5138},{""page_index"":1,""viewing_time"":1030},{""page_index"":2,""viewing_time"":1121}]",50
,,,,,,,,,,12668,,,583303,,,instructions,"[{""page_index"":0,""viewing_time"":7127},{""page_index"":1,""viewing_time"":4151},{""page_index"":2,""viewing_time"":1389}]",50
,,,,,,,,,,219359,,,219361,,,instructions,"[{""page_index"":0,""viewing_time"":60616},{""page_index"":1,""viewing_time"":1464},{""page_index"":0,""viewing_time"":650},{""page_index"":1,""viewing_time"":661},{""page_index"":0,""viewing_time"":3783},{""page_index"":1,""viewing_time"":75074},{""page_index"":2,""viewing_time"":33903},{""page_index"":1,""viewing_time"":24680},{""page_index"":2,""viewing_time"":18528}]",51
,,,,,,,,,,248315,,,248315,,,instructions,"[{""page_index"":0,""viewing_time"":75884},{""page_index"":1,""viewing_time"":127334},{""page_index"":2,""viewing_time"":24144},{""page_index"":3,""viewing_time"":20952}]",52
,,,,,,,,,,111197,,,111198,,,instructions,"[{""page_index"":0,""viewing_time"":30597},{""page_index"":1,""viewing_time"":31883},{""page_index"":2,""viewing_time"":21232},{""page_index"":3,""viewing_time"":27484}]",53
,,,,,,,,,,125536,,,125537,,,instructions,"[{""page_index"":0,""viewing_time"":39776},{""page_index"":1,""viewing_time"":43334},{""page_index"":2,""viewing_time"":30629},{""page_index"":1,""viewing_time"":8588},{""page_index"":2,""viewing_time"":3209}]",54
,,,,,,,,,,338542,,,338544,,,instructions,"[{""page_index"":0,""viewing_time"":211415},{""page_index"":1,""viewing_time"":74065},{""page_index"":2,""viewing_time"":53059}]",55
,,,,,,,,,,130093,,,130094,,,instructions,"[{""page_index"":0,""viewing_time"":49802},{""page_index"":1,""viewing_time"":28448},{""page_index"":2,""viewing_time"":29184},{""page_index"":3,""viewing_time"":22656}]",56
,,,,,,,,,,31752,,,222872,,,instructions,"[{""page_index"":0,""viewing_time"":7165},{""page_index"":1,""viewing_time"":9445},{""page_index"":2,""viewing_time"":12083},{""page_index"":3,""viewing_time"":3058}]",56
,,,,,,,,,,209337,,,209339,,,instructions,"[{""page_index"":0,""viewing_time"":87923},{""page_index"":1,""viewing_time"":58850},{""page_index"":2,""viewing_time"":62561}]",57
,,,,,,,,,,31891,,,310353,,,instructions,"[{""page_index"":0,""viewing_time"":18208},{""page_index"":1,""viewing_time"":6506},{""page_index"":2,""viewing_time"":7175}]",57
,,,,,,,,,,53193,,,413019,,,instructions,"[{""page_index"":0,""viewing_time"":11950},{""page_index"":1,""viewing_time"":12168},{""page_index"":2,""viewing_time"":1312},{""page_index"":1,""viewing_time"":12913},{""page_index"":2,""viewing_time"":14848}]",57
,,,,,,,,,,75582,,,520733,,,instructions,"[{""page_index"":0,""viewing_time"":25995},{""page_index"":1,""viewing_time"":43228},{""page_index"":2,""viewing_time"":6357}]",57
,,,,,,,,,,38076,,,602718,,,instructions,"[{""page_index"":0,""viewing_time"":6020},{""page_index"":1,""viewing_time"":23095},{""page_index"":2,""viewing_time"":8960}]",57
,,,,,,,,,,3439,,,627792,,,instructions,"[{""page_index"":0,""viewing_time"":2054},{""page_index"":1,""viewing_time"":864},{""page_index"":2,""viewing_time"":520}]",57
,,,,,,,,,,175054,,,175056,,,instructions,"[{""page_index"":0,""viewing_time"":77496},{""page_index"":1,""viewing_time"":51946},{""page_index"":2,""viewing_time"":45610}]",58
,,,,,,,,,,90595,,,90596,,,instructions,"[{""page_index"":0,""viewing_time"":43221},{""page_index"":1,""viewing_time"":29012},{""page_index"":2,""viewing_time"":18361}]",59
,,,,,,,,,,170929,,,170929,,,instructions,"[{""page_index"":0,""viewing_time"":66105},{""page_index"":1,""viewing_time"":1688},{""page_index"":0,""viewing_time"":4967},{""page_index"":1,""viewing_time"":31396},{""page_index"":2,""viewing_time"":23984},{""page_index"":3,""viewing_time"":29424},{""page_index"":2,""viewing_time"":1028},{""page_index"":1,""viewing_time"":296},{""page_index"":0,""viewing_time"":8912},{""page_index"":1,""viewing_time"":2328},{""page_index"":2,""viewing_time"":536},{""page_index"":3,""viewing_time"":264}]",60
,,,,,,,,,,23119,,,23121,,,instructions,"[{""page_index"":0,""viewing_time"":18335},{""page_index"":1,""viewing_time"":2744},{""page_index"":2,""viewing_time"":1135},{""page_index"":3,""viewing_time"":904}]",61
,,,,,,,,,,25333,,,95022,,,instructions,"[{""page_index"":0,""viewing_time"":6132},{""page_index"":1,""viewing_time"":5277},{""page_index"":2,""viewing_time"":9331},{""page_index"":3,""viewing_time"":4592}]",61
,,,,,,,,,,246045,,,246046,,,instructions,"[{""page_index"":0,""viewing_time"":61126},{""page_index"":1,""viewing_time"":73108},{""page_index"":2,""viewing_time"":65525},{""page_index"":3,""viewing_time"":46285}]",62
,,,,,,,,,,574760,,,574760,,,instructions,"[{""page_index"":0,""viewing_time"":528128},{""page_index"":1,""viewing_time"":15243},{""page_index"":2,""viewing_time"":31388}]",63
,,,,,,,,,,59577,,,657696,,,instructions,"[{""page_index"":0,""viewing_time"":13901},{""page_index"":1,""viewing_time"":34919},{""page_index"":2,""viewing_time"":10755}]",63
,,,,,,,,,,50872,,,50873,,,instructions,"[{""page_index"":0,""viewing_time"":46610},{""page_index"":1,""viewing_time"":1797},{""page_index"":2,""viewing_time"":1285},{""page_index"":3,""viewing_time"":1180}]",64
,,,,,,,,,,211427,,,211428,,,instructions,"[{""page_index"":0,""viewing_time"":108262},{""page_index"":1,""viewing_time"":47726},{""page_index"":2,""viewing_time"":24557},{""page_index"":3,""viewing_time"":30880}]",65
,,,,,,,,,,98981,,,98983,,,instructions,"[{""page_index"":0,""viewing_time"":27317},{""page_index"":1,""viewing_time"":36159},{""page_index"":2,""viewing_time"":25162},{""page_index"":3,""viewing_time"":10340}]",66
,,,,,,,,,,98818,,,98819,,,instructions,"[{""page_index"":0,""viewing_time"":35341},{""page_index"":1,""viewing_time"":27200},{""page_index"":2,""viewing_time"":13870},{""page_index"":3,""viewing_time"":22406}]",67
,,,,,,,,,,52780,,,189358,,,instructions,"[{""page_index"":0,""viewing_time"":17782},{""page_index"":1,""viewing_time"":12913},{""page_index"":2,""viewing_time"":16011},{""page_index"":3,""viewing_time"":6073}]",67
,,,,,,,,,,55205,,,260659,,,instructions,"[{""page_index"":0,""viewing_time"":14681},{""page_index"":1,""viewing_time"":8245},{""page_index"":2,""viewing_time"":13535},{""page_index"":3,""viewing_time"":18744}]",67
,,,,,,,,,,111587,,,111589,,,instructions,"[{""page_index"":0,""viewing_time"":50452},{""page_index"":1,""viewing_time"":33204},{""page_index"":2,""viewing_time"":1371},{""page_index"":1,""viewing_time"":2051},{""page_index"":2,""viewing_time"":24508}]",68
,,,,,,,,,,161992,,,161994,,,instructions,"[{""page_index"":0,""viewing_time"":40214},{""page_index"":1,""viewing_time"":42203},{""page_index"":2,""viewing_time"":50618},{""page_index"":3,""viewing_time"":28956}]",69
,,,,,,,,,,156125,,,156126,,,instructions,"[{""page_index"":0,""viewing_time"":105228},{""page_index"":1,""viewing_time"":10080},{""page_index"":2,""viewing_time"":40817}]",70
,,,,,,,,,,9349,,,205425,,,instructions,"[{""page_index"":0,""viewing_time"":2980},{""page_index"":1,""viewing_time"":4535},{""page_index"":2,""viewing_time"":1833}]",70
,,,,,,,,,,112997,,,112998,,,instructions,"[{""page_index"":0,""viewing_time"":40440},{""page_index"":1,""viewing_time"":51323},{""page_index"":2,""viewing_time"":21233}]",71
,,,,,,,,,,394233,,,394234,,,instructions,"[{""page_index"":0,""viewing_time"":215197},{""page_index"":1,""viewing_time"":76182},{""page_index"":2,""viewing_time"":62119},{""page_index"":3,""viewing_time"":40735}]",72
,,,,,,,,,,67481,,,572390,,,instructions,"[{""page_index"":0,""viewing_time"":13488},{""page_index"":1,""viewing_time"":22234},{""page_index"":2,""viewing_time"":24743},{""page_index"":3,""viewing_time"":7007}]",72
,,,,,,,,,,148341,,,759842,,,instructions,"[{""page_index"":0,""viewing_time"":85107},{""page_index"":1,""viewing_time"":21848},{""page_index"":2,""viewing_time"":27125},{""page_index"":3,""viewing_time"":14261}]",72
,,,,,,,,,,5212,,,813874,,,instructions,"[{""page_index"":0,""viewing_time"":1742},{""page_index"":1,""viewing_time"":1192},{""page_index"":2,""viewing_time"":1035},{""page_index"":3,""viewing_time"":1235}]",72
,,,,,,,,,,55382,,,55383,,,instructions,"[{""page_index"":0,""viewing_time"":14963},{""page_index"":1,""viewing_time"":17259},{""page_index"":2,""viewing_time"":8155},{""page_index"":3,""viewing_time"":15005}]",73
,,,,,,,,,,62008,,,140664,,,instructions,"[{""page_index"":0,""viewing_time"":17486},{""page_index"":1,""viewing_time"":4504},{""page_index"":2,""viewing_time"":16586},{""page_index"":3,""viewing_time"":23432}]",73
,,,,,,,,,,132554,,,132554,,,instructions,"[{""page_index"":0,""viewing_time"":80405},{""page_index"":1,""viewing_time"":19547},{""page_index"":2,""viewing_time"":13210},{""page_index"":3,""viewing_time"":19390}]",74
,,,,,,,,,,114993,,,114995,,,instructions,"[{""page_index"":0,""viewing_time"":19597},{""page_index"":1,""viewing_time"":35554},{""page_index"":2,""viewing_time"":36248},{""page_index"":3,""viewing_time"":23591}]",75
,,,,,,,,,,64518,,,267842,,,instructions,"[{""page_index"":0,""viewing_time"":14768},{""page_index"":1,""viewing_time"":8097},{""page_index"":2,""viewing_time"":35823},{""page_index"":3,""viewing_time"":5829}]",75
,,,,,,,,,,342313,,,342317,,,instructions,"[{""page_index"":0,""viewing_time"":101532},{""page_index"":1,""viewing_time"":2500},{""page_index"":0,""viewing_time"":1035},{""page_index"":1,""viewing_time"":8886},{""page_index"":0,""viewing_time"":8090},{""page_index"":1,""viewing_time"":63797},{""page_index"":2,""viewing_time"":83839},{""page_index"":3,""viewing_time"":72631}]",76
,,,,,,,,,,117381,,,117383,,,instructions,"[{""page_index"":0,""viewing_time"":53945},{""page_index"":1,""viewing_time"":40688},{""page_index"":2,""viewing_time"":22747}]",77
,,,,,,,,,,95968,,,95969,,,instructions,"[{""page_index"":0,""viewing_time"":38709},{""page_index"":1,""viewing_time"":39761},{""page_index"":2,""viewing_time"":17496}]",78
,,,,,,,,,,197100,,,197100,,,instructions,"[{""page_index"":0,""viewing_time"":72194},{""page_index"":1,""viewing_time"":49147},{""page_index"":2,""viewing_time"":35263},{""page_index"":3,""viewing_time"":40496}]",79
,,,,,,,,,,18613,,,248919,,,instructions,"[{""page_index"":0,""viewing_time"":5028},{""page_index"":1,""viewing_time"":10411},{""page_index"":2,""viewing_time"":2678},{""page_index"":3,""viewing_time"":496}]",79
,,,,,,,,,,154061,,,154063,,,instructions,"[{""page_index"":0,""viewing_time"":41363},{""page_index"":1,""viewing_time"":57214},{""page_index"":2,""viewing_time"":26050},{""page_index"":3,""viewing_time"":29434}]",80
,,,,,,,,,,36536,,,230203,,,instructions,"[{""page_index"":0,""viewing_time"":8272},{""page_index"":1,""viewing_time"":6985},{""page_index"":2,""viewing_time"":16193},{""page_index"":3,""viewing_time"":5086}]",80
,,,,,,,,,,188021,,,188022,,,instructions,"[{""page_index"":0,""viewing_time"":39088},{""page_index"":1,""viewing_time"":35422},{""page_index"":0,""viewing_time"":5547},{""page_index"":1,""viewing_time"":12490},{""page_index"":2,""viewing_time"":63715},{""page_index"":3,""viewing_time"":31749}]",81
,,,,,,,,,,94811,,,94811,,,instructions,"[{""page_index"":0,""viewing_time"":28749},{""page_index"":1,""viewing_time"":22605},{""page_index"":2,""viewing_time"":22228},{""page_index"":3,""viewing_time"":21228}]",82
,,,,,,,,,,74518,,,192513,,,instructions,"[{""page_index"":0,""viewing_time"":36021},{""page_index"":1,""viewing_time"":18123},{""page_index"":2,""viewing_time"":7423},{""page_index"":3,""viewing_time"":12948}]",82
,,,,,,,,,,320229,,,320230,,,instructions,"[{""page_index"":0,""viewing_time"":129806},{""page_index"":1,""viewing_time"":122391},{""page_index"":2,""viewing_time"":68031}]",83
,,,,,,,,,,16617,,,16617,,,instructions,"[{""page_index"":0,""viewing_time"":4973},{""page_index"":1,""viewing_time"":2972},{""page_index"":2,""viewing_time"":4514},{""page_index"":3,""viewing_time"":4157}]",84
,,,,,,,,,,70558,,,70562,,,instructions,"[{""page_index"":0,""viewing_time"":35381},{""page_index"":1,""viewing_time"":14754},{""page_index"":2,""viewing_time"":13447},{""page_index"":3,""viewing_time"":6972}]",85
,,,,,,,,,,149050,,,149055,,,instructions,"[{""page_index"":0,""viewing_time"":42230},{""page_index"":1,""viewing_time"":49284},{""page_index"":2,""viewing_time"":25827},{""page_index"":3,""viewing_time"":31705}]",86
,,,,,,,,,,165546,,,372843,,,instructions,"[{""page_index"":0,""viewing_time"":52481},{""page_index"":1,""viewing_time"":26772},{""page_index"":2,""viewing_time"":36380},{""page_index"":3,""viewing_time"":13033},{""page_index"":2,""viewing_time"":35925},{""page_index"":3,""viewing_time"":953}]",86
,,,,,,,,,,81990,,,499308,,,instructions,"[{""page_index"":0,""viewing_time"":14030},{""page_index"":1,""viewing_time"":10587},{""page_index"":2,""viewing_time"":31992},{""page_index"":3,""viewing_time"":15735},{""page_index"":2,""viewing_time"":7421},{""page_index"":3,""viewing_time"":2224}]",86
,,,,,,,,,,256868,,,256870,,,instructions,"[{""page_index"":0,""viewing_time"":70185},{""page_index"":1,""viewing_time"":92674},{""page_index"":2,""viewing_time"":51219},{""page_index"":3,""viewing_time"":42789}]",87
,,,,,,,,,,114402,,,114404,,,instructions,"[{""page_index"":0,""viewing_time"":29009},{""page_index"":1,""viewing_time"":36576},{""page_index"":2,""viewing_time"":27019},{""page_index"":3,""viewing_time"":21796}]",88
,,,,,,,,,,16156,,,152487,,,instructions,"[{""page_index"":0,""viewing_time"":4942},{""page_index"":1,""viewing_time"":2304},{""page_index"":2,""viewing_time"":4805},{""page_index"":3,""viewing_time"":4104}]",88
,,,,,,,,,,3884,,,181678,,,instructions,"[{""page_index"":0,""viewing_time"":1215},{""page_index"":1,""viewing_time"":813},{""page_index"":2,""viewing_time"":809},{""page_index"":3,""viewing_time"":1046}]",88
,,,,,,,,,,79860,,,79861,,,instructions,"[{""page_index"":0,""viewing_time"":28153},{""page_index"":1,""viewing_time"":21275},{""page_index"":2,""viewing_time"":10672},{""page_index"":3,""viewing_time"":19760}]",89
,,,,,,,,,,225871,,,225872,,,instructions,"[{""page_index"":0,""viewing_time"":89755},{""page_index"":1,""viewing_time"":55672},{""page_index"":2,""viewing_time"":52036},{""page_index"":3,""viewing_time"":28407}]",90
,,,,,,,,,,76106,,,349401,,,instructions,"[{""page_index"":0,""viewing_time"":22033},{""page_index"":1,""viewing_time"":15412},{""page_index"":2,""viewing_time"":33032},{""page_index"":3,""viewing_time"":5628}]",90
,,,,,,,,,,78458,,,459564,,,instructions,"[{""page_index"":0,""viewing_time"":8570},{""page_index"":1,""viewing_time"":10966},{""page_index"":2,""viewing_time"":18147},{""page_index"":1,""viewing_time"":7076},{""page_index"":0,""viewing_time"":12954},{""page_index"":1,""viewing_time"":1306},{""page_index"":2,""viewing_time"":11408},{""page_index"":3,""viewing_time"":8030}]",90
,,,,,,,,,,33163,,,528361,,,instructions,"[{""page_index"":0,""viewing_time"":5939},{""page_index"":1,""viewing_time"":17580},{""page_index"":2,""viewing_time"":8831},{""page_index"":3,""viewing_time"":812}]",90
,,,,,,,,,,120552,,,120554,,,instructions,"[{""page_index"":0,""viewing_time"":35936},{""page_index"":1,""viewing_time"":27607},{""page_index"":2,""viewing_time"":31655},{""page_index"":3,""viewing_time"":25351}]",91
,,,,,,,,,,4873,,,159143,,,instructions,"[{""page_index"":0,""viewing_time"":1543},{""page_index"":1,""viewing_time"":864},{""page_index"":2,""viewing_time"":1348},{""page_index"":3,""viewing_time"":1117}]",91
,,,,,,,,,,140746,,,140751,,,instructions,"[{""page_index"":0,""viewing_time"":67228},{""page_index"":1,""viewing_time"":27426},{""page_index"":2,""viewing_time"":20055},{""page_index"":3,""viewing_time"":26034}]",92
,,,,,,,,,,44148,,,240693,,,instructions,"[{""page_index"":0,""viewing_time"":16057},{""page_index"":1,""viewing_time"":6673},{""page_index"":2,""viewing_time"":14928},{""page_index"":3,""viewing_time"":6488}]",92
,,,,,,,,,,38325,,,316576,,,instructions,"[{""page_index"":0,""viewing_time"":14761},{""page_index"":1,""viewing_time"":9764},{""page_index"":2,""viewing_time"":7726},{""page_index"":3,""viewing_time"":6072}]",92
,,,,,,,,,,11548,,,11552,,,instructions,"[{""page_index"":0,""viewing_time"":3953},{""page_index"":1,""viewing_time"":1975},{""page_index"":2,""viewing_time"":2768},{""page_index"":3,""viewing_time"":2849}]",92
,,,,,,,,,,311686,,,311690,,,instructions,"[{""page_index"":0,""viewing_time"":46579},{""page_index"":1,""viewing_time"":63104},{""page_index"":2,""viewing_time"":110327},{""page_index"":3,""viewing_time"":91673}]",93
,,,,,,,,,,24602,,,377765,,,instructions,"[{""page_index"":0,""viewing_time"":9074},{""page_index"":1,""viewing_time"":6499},{""page_index"":2,""viewing_time"":4549},{""page_index"":3,""viewing_time"":4479}]",93
,,,,,,,,,,105017,,,105019,,,instructions,"[{""page_index"":0,""viewing_time"":25984},{""page_index"":1,""viewing_time"":32864},{""page_index"":2,""viewing_time"":20994},{""page_index"":3,""viewing_time"":25171}]",94
,,,,,,,,,,53221,,,195340,,,instructions,"[{""page_index"":0,""viewing_time"":18380},{""page_index"":1,""viewing_time"":8014},{""page_index"":2,""viewing_time"":19758},{""page_index"":3,""viewing_time"":7067}]",94
,,,,,,,,,,586814,,,586817,,,instructions,"[{""page_index"":0,""viewing_time"":88483},{""page_index"":1,""viewing_time"":122992},{""page_index"":2,""viewing_time"":132014},{""page_index"":3,""viewing_time"":243324}]",95
,,,,,,,,,,42130,,,679397,,,instructions,"[{""page_index"":0,""viewing_time"":6887},{""page_index"":1,""viewing_time"":11937},{""page_index"":2,""viewing_time"":13717},{""page_index"":3,""viewing_time"":9589}]",95
,,,,,,,,,,120349,,,120350,,,instructions,"[{""page_index"":0,""viewing_time"":47905},{""page_index"":1,""viewing_time"":26987},{""page_index"":2,""viewing_time"":21517},{""page_index"":3,""viewing_time"":23940}]",96
,,,,,,,,,,69358,,,230579,,,instructions,"[{""page_index"":0,""viewing_time"":34208},{""page_index"":1,""viewing_time"":24646},{""page_index"":2,""viewing_time"":5441},{""page_index"":3,""viewing_time"":5063}]",96
,,,,,,,,,,98127,,,98129,,,instructions,"[{""page_index"":0,""viewing_time"":37876},{""page_index"":1,""viewing_time"":33875},{""page_index"":2,""viewing_time"":26374}]",97
,,,,,,,,,,61928,,,61930,,,instructions,"[{""page_index"":0,""viewing_time"":24609},{""page_index"":1,""viewing_time"":27634},{""page_index"":2,""viewing_time"":9681}]",98
,,,,,,,,,,65555,,,65556,,,instructions,"[{""page_index"":0,""viewing_time"":4438},{""page_index"":1,""viewing_time"":11389},{""page_index"":2,""viewing_time"":14137},{""page_index"":1,""viewing_time"":20148},{""page_index"":2,""viewing_time"":15443}]",99
,,,,,,,,,,105704,,,105707,,,instructions,"[{""page_index"":0,""viewing_time"":52567},{""page_index"":1,""viewing_time"":30789},{""page_index"":2,""viewing_time"":22346}]",100
,,,,,,,,,,16196,,,16197,,,instructions,"[{""page_index"":0,""viewing_time"":3826},{""page_index"":1,""viewing_time"":1079},{""page_index"":2,""viewing_time"":5609},{""page_index"":3,""viewing_time"":5679}]",101
,,,,,,,,,,292525,,,292527,,,instructions,"[{""page_index"":0,""viewing_time"":72356},{""page_index"":1,""viewing_time"":55311},{""page_index"":2,""viewing_time"":109384},{""page_index"":3,""viewing_time"":55472}]",102
,,,,,,,,,,82309,,,498956,,,instructions,"[{""page_index"":0,""viewing_time"":33165},{""page_index"":1,""viewing_time"":14295},{""page_index"":2,""viewing_time"":33584},{""page_index"":3,""viewing_time"":1264}]",102
,,,,,,,,,,101277,,,101279,,,instructions,"[{""page_index"":0,""viewing_time"":29996},{""page_index"":1,""viewing_time"":16062},{""page_index"":2,""viewing_time"":40433},{""page_index"":3,""viewing_time"":14784}]",103
,,,,,,,,,,166354,,,166356,,,instructions,"[{""page_index"":0,""viewing_time"":41575},{""page_index"":1,""viewing_time"":46017},{""page_index"":0,""viewing_time"":2174},{""page_index"":1,""viewing_time"":8224},{""page_index"":2,""viewing_time"":46730},{""page_index"":3,""viewing_time"":21633}]",104
,,,,,,,,,,106875,,,106875,,,instructions,"[{""page_index"":0,""viewing_time"":51707},{""page_index"":1,""viewing_time"":25595},{""page_index"":2,""viewing_time"":14386},{""page_index"":3,""viewing_time"":15186}]",105
,,,,,,,,,,24978,,,170158,,,instructions,"[{""page_index"":0,""viewing_time"":9248},{""page_index"":1,""viewing_time"":11018},{""page_index"":2,""viewing_time"":4632},{""page_index"":3,""viewing_time"":80}]",105
,,,,,,,,,,32038,,,239524,,,instructions,"[{""page_index"":0,""viewing_time"":3546},{""page_index"":1,""viewing_time"":16624},{""page_index"":2,""viewing_time"":4984},{""page_index"":3,""viewing_time"":6884}]",105
,,,,,,,,,,14519,,,274050,,,instructions,"[{""page_index"":0,""viewing_time"":11014},{""page_index"":1,""viewing_time"":856},{""page_index"":2,""viewing_time"":1752},{""page_index"":3,""viewing_time"":896}]",105
,,,,,,,,,,320795,,,320796,,,instructions,"[{""page_index"":0,""viewing_time"":206765},{""page_index"":1,""viewing_time"":19086},{""page_index"":0,""viewing_time"":3588},{""page_index"":1,""viewing_time"":6359},{""page_index"":0,""viewing_time"":4498},{""page_index"":1,""viewing_time"":46316},{""page_index"":2,""viewing_time"":34182}]",106
,,,,,,,,,,24525,,,410917,,,instructions,"[{""page_index"":0,""viewing_time"":17379},{""page_index"":1,""viewing_time"":6034},{""page_index"":2,""viewing_time"":1111}]",106
,,,,,,,,,,70089,,,497766,,,instructions,"[{""page_index"":0,""viewing_time"":6486},{""page_index"":1,""viewing_time"":23270},{""page_index"":2,""viewing_time"":15386},{""page_index"":1,""viewing_time"":24260},{""page_index"":2,""viewing_time"":687}]",106
,,,,,,,,,,84969,,,84970,,,instructions,"[{""page_index"":0,""viewing_time"":29831},{""page_index"":1,""viewing_time"":23617},{""page_index"":2,""viewing_time"":18862},{""page_index"":3,""viewing_time"":12656}]",107
,,,,,,,,,,32529,,,150553,,,instructions,"[{""page_index"":0,""viewing_time"":10291},{""page_index"":1,""viewing_time"":7814},{""page_index"":2,""viewing_time"":11953},{""page_index"":3,""viewing_time"":2471}]",107
,,,,,,,,,,95268,,,95269,,,instructions,"[{""page_index"":0,""viewing_time"":35495},{""page_index"":1,""viewing_time"":34301},{""page_index"":2,""viewing_time"":10344},{""page_index"":3,""viewing_time"":15126}]",108
,,,,,,,,,,111763,,,111763,,,instructions,"[{""page_index"":0,""viewing_time"":26898},{""page_index"":1,""viewing_time"":34545},{""page_index"":2,""viewing_time"":28098},{""page_index"":3,""viewing_time"":22221}]",109
,,,,,,,,,,53201,,,53202,,,instructions,"[{""page_index"":0,""viewing_time"":17826},{""page_index"":1,""viewing_time"":13262},{""page_index"":2,""viewing_time"":7776},{""page_index"":3,""viewing_time"":14336}]",110
,,,,,,,,,,221627,,,221629,,,instructions,"[{""page_index"":0,""viewing_time"":72147},{""page_index"":1,""viewing_time"":23335},{""page_index"":0,""viewing_time"":16472},{""page_index"":1,""viewing_time"":38230},{""page_index"":2,""viewing_time"":44634},{""page_index"":3,""viewing_time"":26808}]",111
,,,,,,,,,,72036,,,72038,,,instructions,"[{""page_index"":0,""viewing_time"":19624},{""page_index"":1,""viewing_time"":24889},{""page_index"":2,""viewing_time"":12483},{""page_index"":3,""viewing_time"":15036}]",112
,,,,,,,,,,104078,,,104082,,,instructions,"[{""page_index"":0,""viewing_time"":35244},{""page_index"":1,""viewing_time"":35520},{""page_index"":2,""viewing_time"":21191},{""page_index"":3,""viewing_time"":12121}]",113
,,,,,,,,,,114096,,,114104,,,instructions,"[{""page_index"":0,""viewing_time"":33670},{""page_index"":1,""viewing_time"":533},{""page_index"":0,""viewing_time"":1769},{""page_index"":1,""viewing_time"":21528},{""page_index"":0,""viewing_time"":3923},{""page_index"":1,""viewing_time"":20575},{""page_index"":2,""viewing_time"":18704},{""page_index"":3,""viewing_time"":13387}]",114
,,,,,,,,,,45905,,,192505,,,instructions,"[{""page_index"":0,""viewing_time"":9702},{""page_index"":1,""viewing_time"":5355},{""page_index"":2,""viewing_time"":18351},{""page_index"":3,""viewing_time"":12494}]",114
,,,,,,,,,,19759,,,235149,,,instructions,"[{""page_index"":0,""viewing_time"":12509},{""page_index"":1,""viewing_time"":1054},{""page_index"":2,""viewing_time"":5006},{""page_index"":3,""viewing_time"":1187}]",114
,,,,,,,,,,200826,,,200826,,,instructions,"[{""page_index"":0,""viewing_time"":77544},{""page_index"":1,""viewing_time"":54352},{""page_index"":2,""viewing_time"":43009},{""page_index"":3,""viewing_time"":25920}]",115
,,,,,,,,,,14781,,,258851,,,instructions,"[{""page_index"":0,""viewing_time"":6275},{""page_index"":1,""viewing_time"":2750},{""page_index"":2,""viewing_time"":1778},{""page_index"":3,""viewing_time"":3978}]",115
,,,,,,,,,,123106,,,123108,,,instructions,"[{""page_index"":0,""viewing_time"":52847},{""page_index"":1,""viewing_time"":28292},{""page_index"":2,""viewing_time"":14883},{""page_index"":3,""viewing_time"":27083}]",116
,,,,,,,,,,25909,,,195122,,,instructions,"[{""page_index"":0,""viewing_time"":17402},{""page_index"":1,""viewing_time"":5901},{""page_index"":2,""viewing_time"":1904},{""page_index"":3,""viewing_time"":701}]",116
,,,,,,,,,,60377,,,272466,,,instructions,"[{""page_index"":0,""viewing_time"":10606},{""page_index"":1,""viewing_time"":14918},{""page_index"":2,""viewing_time"":26333},{""page_index"":3,""viewing_time"":8520}]",116
,,,,,,,,,,167918,,,167922,,,instructions,"[{""page_index"":0,""viewing_time"":73916},{""page_index"":1,""viewing_time"":40653},{""page_index"":2,""viewing_time"":21235},{""page_index"":3,""viewing_time"":32114}]",117
,,,,,,,,,,379218,,,629156,,,instructions,"[{""page_index"":0,""viewing_time"":104596},{""page_index"":1,""viewing_time"":53359},{""page_index"":2,""viewing_time"":210038},{""page_index"":3,""viewing_time"":11224}]",117
,,,,,,,,,,131737,,,131740,,,instructions,"[{""page_index"":0,""viewing_time"":44282},{""page_index"":1,""viewing_time"":39221},{""page_index"":2,""viewing_time"":48229}]",118
,,,,,,,,,,222386,,,222391,,,instructions,"[{""page_index"":0,""viewing_time"":62095},{""page_index"":1,""viewing_time"":43621},{""page_index"":2,""viewing_time"":52516},{""page_index"":3,""viewing_time"":64150}]",119
,,,,,,,,,,260539,,,260542,,,instructions,"[{""page_index"":0,""viewing_time"":253921},{""page_index"":1,""viewing_time"":5188},{""page_index"":2,""viewing_time"":1427}]",120
,,,,,,,,,,190750,,,190752,,,instructions,"[{""page_index"":0,""viewing_time"":63038},{""page_index"":1,""viewing_time"":62917},{""page_index"":2,""viewing_time"":37831},{""page_index"":3,""viewing_time"":26962}]",121
,,,,,,,,,,253094,,,253095,,,instructions,"[{""page_index"":0,""viewing_time"":75216},{""page_index"":1,""viewing_time"":72487},{""page_index"":2,""viewing_time"":72815},{""page_index"":3,""viewing_time"":32575}]",122
,,,,,,,,,,44984,,,44986,,,instructions,"[{""page_index"":0,""viewing_time"":5305},{""page_index"":1,""viewing_time"":14432},{""page_index"":2,""viewing_time"":11746},{""page_index"":3,""viewing_time"":13484}]",123
,,,,,,,,,,119919,,,119920,,,instructions,"[{""page_index"":0,""viewing_time"":37087},{""page_index"":1,""viewing_time"":207},{""page_index"":0,""viewing_time"":927},{""page_index"":1,""viewing_time"":656},{""page_index"":0,""viewing_time"":824},{""page_index"":1,""viewing_time"":1047},{""page_index"":0,""viewing_time"":1000},{""page_index"":1,""viewing_time"":23736},{""page_index"":2,""viewing_time"":19169},{""page_index"":3,""viewing_time"":35263}]",124
,,,,,,,,,,103493,,,315294,,,instructions,"[{""page_index"":0,""viewing_time"":43931},{""page_index"":1,""viewing_time"":19635},{""page_index"":2,""viewing_time"":29685},{""page_index"":3,""viewing_time"":10241}]",124
,,,,,,,,,,1619,,,530073,,,instructions,"[{""page_index"":0,""viewing_time"":939},{""page_index"":1,""viewing_time"":238},{""page_index"":2,""viewing_time"":256},{""page_index"":3,""viewing_time"":185}]",124
,,,,,,,,,,779,,,556209,,,instructions,"[{""page_index"":0,""viewing_time"":251},{""page_index"":1,""viewing_time"":183},{""page_index"":2,""viewing_time"":184},{""page_index"":3,""viewing_time"":160}]",124
,,,,,,,,,,9939,,,643457,,,instructions,"[{""page_index"":0,""viewing_time"":3012},{""page_index"":1,""viewing_time"":5630},{""page_index"":2,""viewing_time"":632},{""page_index"":3,""viewing_time"":664}]",124
,,,,,,,,,,1544,,,714869,,,instructions,"[{""page_index"":0,""viewing_time"":890},{""page_index"":1,""viewing_time"":248},{""page_index"":2,""viewing_time"":208},{""page_index"":3,""viewing_time"":197}]",124
,,,,,,,,,,91251,,,91254,,,instructions,"[{""page_index"":0,""viewing_time"":43675},{""page_index"":1,""viewing_time"":24471},{""page_index"":2,""viewing_time"":23104}]",125
,,,,,,,,,,181975,,,181976,,,instructions,"[{""page_index"":0,""viewing_time"":72383},{""page_index"":1,""viewing_time"":50936},{""page_index"":2,""viewing_time"":36702},{""page_index"":3,""viewing_time"":21953}]",126
,,,,,,,,,,56058,,,56059,,,instructions,"[{""page_index"":0,""viewing_time"":28842},{""page_index"":1,""viewing_time"":7047},{""page_index"":2,""viewing_time"":13544},{""page_index"":3,""viewing_time"":6625}]",127
,,,,,,,,,,76407,,,166850,,,instructions,"[{""page_index"":0,""viewing_time"":22623},{""page_index"":1,""viewing_time"":17368},{""page_index"":2,""viewing_time"":27744},{""page_index"":3,""viewing_time"":8672}]",127
,,,,,,,,,,4008,,,198705,,,instructions,"[{""page_index"":0,""viewing_time"":1376},{""page_index"":1,""viewing_time"":703},{""page_index"":2,""viewing_time"":1384},{""page_index"":3,""viewing_time"":545}]",127
,,,,,,,,,,46191,,,263586,,,instructions,"[{""page_index"":0,""viewing_time"":8389},{""page_index"":1,""viewing_time"":5304},{""page_index"":2,""viewing_time"":24969},{""page_index"":3,""viewing_time"":7528}]",127
,,,,,,,,,,4479,,,285537,,,instructions,"[{""page_index"":0,""viewing_time"":1679},{""page_index"":1,""viewing_time"":776},{""page_index"":2,""viewing_time"":1528},{""page_index"":3,""viewing_time"":496}]",127
,,,,,,,,,,153178,,,153179,,,instructions,"[{""page_index"":0,""viewing_time"":40846},{""page_index"":1,""viewing_time"":55984},{""page_index"":2,""viewing_time"":34896},{""page_index"":3,""viewing_time"":21450}]",128
,,,,,,,,,,52952,,,248535,,,instructions,"[{""page_index"":0,""viewing_time"":7813},{""page_index"":1,""viewing_time"":4803},{""page_index"":2,""viewing_time"":30526},{""page_index"":3,""viewing_time"":9809}]",128
,,,,,,,,,,104005,,,104006,,,instructions,"[{""page_index"":0,""viewing_time"":52899},{""page_index"":1,""viewing_time"":30826},{""page_index"":2,""viewing_time"":20279}]",129
,,,,,,,,,,183728,,,183728,,,instructions,"[{""page_index"":0,""viewing_time"":55328},{""page_index"":1,""viewing_time"":63027},{""page_index"":2,""viewing_time"":41907},{""page_index"":3,""viewing_time"":23465}]",130
,,,,,,,,,,35226,,,35228,,,instructions,"[{""page_index"":0,""viewing_time"":9706},{""page_index"":1,""viewing_time"":10350},{""page_index"":2,""viewing_time"":7641},{""page_index"":3,""viewing_time"":7528}]",131
,,,,,,,,,,126453,,,126454,,,instructions,"[{""page_index"":0,""viewing_time"":55163},{""page_index"":1,""viewing_time"":46691},{""page_index"":2,""viewing_time"":14407},{""page_index"":3,""viewing_time"":10192}]",132
,,,,,,,,,,67089,,,67090,,,instructions,"[{""page_index"":0,""viewing_time"":13585},{""page_index"":1,""viewing_time"":17513},{""page_index"":2,""viewing_time"":25555},{""page_index"":3,""viewing_time"":10436}]",133
,,,,,,,,,,44603,,,44604,,,instructions,"[{""page_index"":0,""viewing_time"":22347},{""page_index"":1,""viewing_time"":18169},{""page_index"":2,""viewing_time"":2630},{""page_index"":3,""viewing_time"":1456}]",134
,,,,,,,,,,44366,,,128223,,,instructions,"[{""page_index"":0,""viewing_time"":12904},{""page_index"":1,""viewing_time"":13124},{""page_index"":2,""viewing_time"":8346},{""page_index"":3,""viewing_time"":9991}]",134
,,,,,,,,,,126247,,,126251,,,instructions,"[{""page_index"":0,""viewing_time"":27563},{""page_index"":1,""viewing_time"":56682},{""page_index"":2,""viewing_time"":29649},{""page_index"":3,""viewing_time"":12348}]",135
,,,,,,,,,,15895,,,15897,,,instructions,"[{""page_index"":0,""viewing_time"":3413},{""page_index"":1,""viewing_time"":3626},{""page_index"":2,""viewing_time"":7405},{""page_index"":3,""viewing_time"":1450}]",136
,,,,,,,,,,29937,,,95089,,,instructions,"[{""page_index"":0,""viewing_time"":2895},{""page_index"":1,""viewing_time"":14610},{""page_index"":2,""viewing_time"":9271},{""page_index"":3,""viewing_time"":3160}]",136
,,,,,,,,,,66417,,,66419,,,instructions,"[{""page_index"":0,""viewing_time"":15595},{""page_index"":1,""viewing_time"":19874},{""page_index"":2,""viewing_time"":10496},{""page_index"":3,""viewing_time"":20451}]",137
,,,,,,,,,,85314,,,85317,,,instructions,"[{""page_index"":0,""viewing_time"":38684},{""page_index"":1,""viewing_time"":22203},{""page_index"":2,""viewing_time"":11769},{""page_index"":3,""viewing_time"":12655}]",138
,,,,,,,,,,90154,,,90158,,,instructions,"[{""page_index"":0,""viewing_time"":32626},{""page_index"":1,""viewing_time"":31374},{""page_index"":2,""viewing_time"":14048},{""page_index"":3,""viewing_time"":12104}]",139
,,,,,,,,,,110545,,,110547,,,instructions,"[{""page_index"":0,""viewing_time"":53654},{""page_index"":1,""viewing_time"":8738},{""page_index"":0,""viewing_time"":5566},{""page_index"":1,""viewing_time"":21825},{""page_index"":2,""viewing_time"":9269},{""page_index"":3,""viewing_time"":11492}]",140
,,,,,,,,,,40555,,,193898,,,instructions,"[{""page_index"":0,""viewing_time"":5354},{""page_index"":1,""viewing_time"":11383},{""page_index"":2,""viewing_time"":14889},{""page_index"":3,""viewing_time"":8929}]",140
,,,,,,,,,,141184,,,141186,,,instructions,"[{""page_index"":0,""viewing_time"":34911},{""page_index"":1,""viewing_time"":25239},{""page_index"":2,""viewing_time"":19215},{""page_index"":3,""viewing_time"":61815}]",141
,,,,,,,,,,90219,,,253518,,,instructions,"[{""page_index"":0,""viewing_time"":37535},{""page_index"":1,""viewing_time"":28156},{""page_index"":2,""viewing_time"":15073},{""page_index"":3,""viewing_time"":9452}]",141
,,,,,,,,,,134899,,,134901,,,instructions,"[{""page_index"":0,""viewing_time"":50264},{""page_index"":1,""viewing_time"":28510},{""page_index"":2,""viewing_time"":27731},{""page_index"":3,""viewing_time"":28392}]",142
,,,,,,,,,,109565,,,109567,,,instructions,"[{""page_index"":0,""viewing_time"":33636},{""page_index"":1,""viewing_time"":37242},{""page_index"":2,""viewing_time"":23401},{""page_index"":3,""viewing_time"":15286}]",143
,,,,,,,,,,17996,,,148109,,,instructions,"[{""page_index"":0,""viewing_time"":7620},{""page_index"":1,""viewing_time"":4476},{""page_index"":2,""viewing_time"":5218},{""page_index"":3,""viewing_time"":681}]",143
,,,,,,,,,,145861,,,308814,,,instructions,"[{""page_index"":0,""viewing_time"":121904},{""page_index"":1,""viewing_time"":5179},{""page_index"":2,""viewing_time"":17433},{""page_index"":3,""viewing_time"":1345}]",143
,,,,,,,,,,8100,,,339171,,,instructions,"[{""page_index"":0,""viewing_time"":3390},{""page_index"":1,""viewing_time"":705},{""page_index"":2,""viewing_time"":2311},{""page_index"":3,""viewing_time"":1693}]",143
,,,,,,,,,,10155,,,10157,,,instructions,"[{""page_index"":0,""viewing_time"":3014},{""page_index"":1,""viewing_time"":2339},{""page_index"":2,""viewing_time"":2590},{""page_index"":3,""viewing_time"":2210}]",144
,,,,,,,,,,26361,,,354457,,,instructions,"[{""page_index"":0,""viewing_time"":4595},{""page_index"":1,""viewing_time"":7141},{""page_index"":2,""viewing_time"":11726},{""page_index"":3,""viewing_time"":2897}]",144
,,,,,,,,,,89882,,,542280,,,instructions,"[{""page_index"":0,""viewing_time"":50866},{""page_index"":1,""viewing_time"":10437},{""page_index"":2,""viewing_time"":18846},{""page_index"":3,""viewing_time"":9733}]",144
,,,,,,,,,,6477,,,606126,,,instructions,"[{""page_index"":0,""viewing_time"":2531},{""page_index"":1,""viewing_time"":1109},{""page_index"":2,""viewing_time"":1780},{""page_index"":3,""viewing_time"":1056}]",144
,,,,,,,,,,6227,,,757039,,,instructions,"[{""page_index"":0,""viewing_time"":1993},{""page_index"":1,""viewing_time"":896},{""page_index"":2,""viewing_time"":1571},{""page_index"":3,""viewing_time"":1766}]",144
,,,,,,,,,,30796,,,818256,,,instructions,"[{""page_index"":0,""viewing_time"":25645},{""page_index"":1,""viewing_time"":2016},{""page_index"":2,""viewing_time"":1688},{""page_index"":3,""viewing_time"":1446}]",144
,,,,,,,,,,30568,,,890292,,,instructions,"[{""page_index"":0,""viewing_time"":26880},{""page_index"":1,""viewing_time"":782},{""page_index"":2,""viewing_time"":1865},{""page_index"":3,""viewing_time"":1040}]",144
,,,,,,,,,,9835,,,913925,,,instructions,"[{""page_index"":0,""viewing_time"":4123},{""page_index"":1,""viewing_time"":1803},{""page_index"":2,""viewing_time"":1634},{""page_index"":3,""viewing_time"":2274}]",144
,,,,,,,,,,140630,,,140632,,,instructions,"[{""page_index"":0,""viewing_time"":37426},{""page_index"":1,""viewing_time"":37334},{""page_index"":2,""viewing_time"":41174},{""page_index"":3,""viewing_time"":24691}]",145
,,,,,,,,,,288904,,,288906,,,instructions,"[{""page_index"":0,""viewing_time"":160928},{""page_index"":1,""viewing_time"":46873},{""page_index"":2,""viewing_time"":50592},{""page_index"":3,""viewing_time"":30509}]",146
,,,,,,,,,,104324,,,468011,,,instructions,"[{""page_index"":0,""viewing_time"":29947},{""page_index"":1,""viewing_time"":12531},{""page_index"":2,""viewing_time"":45227},{""page_index"":3,""viewing_time"":16618}]",146
,,,,,,,,,,84798,,,623768,,,instructions,"[{""page_index"":0,""viewing_time"":16966},{""page_index"":1,""viewing_time"":15421},{""page_index"":2,""viewing_time"":40353},{""page_index"":3,""viewing_time"":12057}]",146
,,,,,,,,,,148665,,,835775,,,instructions,"[{""page_index"":0,""viewing_time"":29455},{""page_index"":1,""viewing_time"":41606},{""page_index"":2,""viewing_time"":65521},{""page_index"":3,""viewing_time"":12082}]",146
,,,,,,,,,,7414,,,924333,,,instructions,"[{""page_index"":0,""viewing_time"":2646},{""page_index"":1,""viewing_time"":1060},{""page_index"":2,""viewing_time"":2925},{""page_index"":3,""viewing_time"":782}]",146
,,,,,,,,,,144638,,,1097216,,,instructions,"[{""page_index"":0,""viewing_time"":59612},{""page_index"":1,""viewing_time"":56869},{""page_index"":2,""viewing_time"":16923},{""page_index"":3,""viewing_time"":11230}]",146
,,,,,,,,,,19079,,,1242444,,,instructions,"[{""page_index"":0,""viewing_time"":8164},{""page_index"":1,""viewing_time"":695},{""page_index"":0,""viewing_time"":3040},{""page_index"":1,""viewing_time"":1215},{""page_index"":2,""viewing_time"":3400},{""page_index"":3,""viewing_time"":2563}]",146
,,,,,,,,,,358757,,,1647131,,,instructions,"[{""page_index"":0,""viewing_time"":24613},{""page_index"":1,""viewing_time"":78657},{""page_index"":2,""viewing_time"":89037},{""page_index"":1,""viewing_time"":23485},{""page_index"":0,""viewing_time"":22559},{""page_index"":1,""viewing_time"":79242},{""page_index"":2,""viewing_time"":27030},{""page_index"":3,""viewing_time"":14129}]",146
,,,,,,,,,,43551,,,1790070,,,instructions,"[{""page_index"":0,""viewing_time"":37785},{""page_index"":1,""viewing_time"":950},{""page_index"":2,""viewing_time"":3316},{""page_index"":3,""viewing_time"":1499}]",146
,,,,,,,,,,124426,,,124426,,,instructions,"[{""page_index"":0,""viewing_time"":48613},{""page_index"":1,""viewing_time"":30579},{""page_index"":2,""viewing_time"":28165},{""page_index"":3,""viewing_time"":17069}]",147
,,,,,,,,,,19072,,,180189,,,instructions,"[{""page_index"":0,""viewing_time"":8777},{""page_index"":1,""viewing_time"":3730},{""page_index"":2,""viewing_time"":5591},{""page_index"":3,""viewing_time"":973}]",147
,,,,,,,,,,313538,,,313539,,,instructions,"[{""page_index"":0,""viewing_time"":80411},{""page_index"":1,""viewing_time"":94338},{""page_index"":2,""viewing_time"":93365},{""page_index"":3,""viewing_time"":45422}]",148
,,,,,,,,,,231122,,,591744,,,instructions,"[{""page_index"":0,""viewing_time"":22729},{""page_index"":1,""viewing_time"":173967},{""page_index"":2,""viewing_time"":15346},{""page_index"":3,""viewing_time"":19079}]",148
,,,,,,,,,,333824,,,333824,,,instructions,"[{""page_index"":0,""viewing_time"":130413},{""page_index"":1,""viewing_time"":99536},{""page_index"":2,""viewing_time"":62634},{""page_index"":3,""viewing_time"":41239}]",149
,,,,,,,,,,221568,,,221569,,,instructions,"[{""page_index"":0,""viewing_time"":57121},{""page_index"":1,""viewing_time"":35115},{""page_index"":2,""viewing_time"":29273},{""page_index"":3,""viewing_time"":42353},{""page_index"":2,""viewing_time"":2301},{""page_index"":1,""viewing_time"":2286},{""page_index"":0,""viewing_time"":23590},{""page_index"":1,""viewing_time"":10649},{""page_index"":2,""viewing_time"":7643},{""page_index"":3,""viewing_time"":11227}]",150
,,,,,,,,,,9650,,,551782,,,instructions,"[{""page_index"":0,""viewing_time"":4123},{""page_index"":1,""viewing_time"":1503},{""page_index"":2,""viewing_time"":2221},{""page_index"":3,""viewing_time"":1803}]",150
,,,,,,,,,,6127,,,623663,,,instructions,"[{""page_index"":0,""viewing_time"":2270},{""page_index"":1,""viewing_time"":1207},{""page_index"":2,""viewing_time"":1776},{""page_index"":3,""viewing_time"":874}]",150
,,,,,,,,,,7277,,,746798,,,instructions,"[{""page_index"":0,""viewing_time"":3280},{""page_index"":1,""viewing_time"":1197},{""page_index"":2,""viewing_time"":2056},{""page_index"":3,""viewing_time"":744}]",150
,,,,,,,,,,125679,,,125679,,,instructions,"[{""page_index"":0,""viewing_time"":29739},{""page_index"":1,""viewing_time"":9404},{""page_index"":2,""viewing_time"":11253},{""page_index"":1,""viewing_time"":22994},{""page_index"":2,""viewing_time"":26443},{""page_index"":3,""viewing_time"":25844}]",151
,,,,,,,,,,66131,,,226638,,,instructions,"[{""page_index"":0,""viewing_time"":21991},{""page_index"":1,""viewing_time"":14956},{""page_index"":2,""viewing_time"":19911},{""page_index"":3,""viewing_time"":9272}]",151
,,,,,,,,,,201346,,,201348,,,instructions,"[{""page_index"":0,""viewing_time"":170380},{""page_index"":1,""viewing_time"":15916},{""page_index"":2,""viewing_time"":15048}]",152
,,,,,,,,,,270401,,,270402,,,instructions,"[{""page_index"":0,""viewing_time"":87464},{""page_index"":1,""viewing_time"":61952},{""page_index"":2,""viewing_time"":33936},{""page_index"":3,""viewing_time"":26401},{""page_index"":2,""viewing_time"":1166},{""page_index"":1,""viewing_time"":1376},{""page_index"":0,""viewing_time"":23889},{""page_index"":1,""viewing_time"":27528},{""page_index"":2,""viewing_time"":143},{""page_index"":3,""viewing_time"":6545}]",153
,,,,,,,,,,174458,,,174459,,,instructions,"[{""page_index"":0,""viewing_time"":34358},{""page_index"":1,""viewing_time"":52313},{""page_index"":2,""viewing_time"":60499},{""page_index"":3,""viewing_time"":27288}]",154
,,,,,,,,,,237689,,,237691,,,instructions,"[{""page_index"":0,""viewing_time"":70892},{""page_index"":1,""viewing_time"":70641},{""page_index"":2,""viewing_time"":49515},{""page_index"":1,""viewing_time"":1935},{""page_index"":0,""viewing_time"":15680},{""page_index"":1,""viewing_time"":23937},{""page_index"":2,""viewing_time"":5088}]",155
,,,,,,,,,,97674,,,97675,,,instructions,"[{""page_index"":0,""viewing_time"":47960},{""page_index"":1,""viewing_time"":16948},{""page_index"":2,""viewing_time"":26291},{""page_index"":3,""viewing_time"":6474}]",156
,,,,,,,,,,243486,,,243487,,,instructions,"[{""page_index"":0,""viewing_time"":60344},{""page_index"":1,""viewing_time"":81536},{""page_index"":2,""viewing_time"":74447},{""page_index"":3,""viewing_time"":27158}]",157
,,,,,,,,,,230276,,,230277,,,instructions,"[{""page_index"":0,""viewing_time"":99214},{""page_index"":1,""viewing_time"":55497},{""page_index"":2,""viewing_time"":45517},{""page_index"":3,""viewing_time"":30047}]",158
,,,,,,,,,,121203,,,121204,,,instructions,"[{""page_index"":0,""viewing_time"":17463},{""page_index"":1,""viewing_time"":22379},{""page_index"":2,""viewing_time"":64980},{""page_index"":3,""viewing_time"":16380}]",159
,,,,,,,,,,104397,,,104401,,,instructions,"[{""page_index"":0,""viewing_time"":40160},{""page_index"":1,""viewing_time"":31850},{""page_index"":2,""viewing_time"":16398},{""page_index"":3,""viewing_time"":15986}]",160
,,,,,,,,,,246297,,,246299,,,instructions,"[{""page_index"":0,""viewing_time"":99360},{""page_index"":1,""viewing_time"":56286},{""page_index"":2,""viewing_time"":54986},{""page_index"":3,""viewing_time"":35664}]",161
,,,,,,,,,,58980,,,420657,,,instructions,"[{""page_index"":0,""viewing_time"":15348},{""page_index"":1,""viewing_time"":11856},{""page_index"":2,""viewing_time"":26111},{""page_index"":3,""viewing_time"":5665}]",161
,,,,,,,,,,86860,,,86861,,,instructions,"[{""page_index"":0,""viewing_time"":22594},{""page_index"":1,""viewing_time"":32387},{""page_index"":2,""viewing_time"":20674},{""page_index"":3,""viewing_time"":11204}]",162
,,,,,,,,,,115954,,,115956,,,instructions,"[{""page_index"":0,""viewing_time"":44480},{""page_index"":1,""viewing_time"":31806},{""page_index"":2,""viewing_time"":24650},{""page_index"":3,""viewing_time"":15018}]",163
,,,,,,,,,,38687,,,38688,,,instructions,"[{""page_index"":0,""viewing_time"":11644},{""page_index"":1,""viewing_time"":9113},{""page_index"":2,""viewing_time"":9298},{""page_index"":3,""viewing_time"":8630}]",164
,,,,,,,,,,78226,,,78228,,,instructions,"[{""page_index"":0,""viewing_time"":26169},{""page_index"":1,""viewing_time"":23122},{""page_index"":2,""viewing_time"":12432},{""page_index"":3,""viewing_time"":16501}]",165
,,,,,,,,,,36062,,,146141,,,instructions,"[{""page_index"":0,""viewing_time"":6573},{""page_index"":1,""viewing_time"":8628},{""page_index"":2,""viewing_time"":10930},{""page_index"":3,""viewing_time"":9929}]",165
,,,,,,,,,,23400,,,195818,,,instructions,"[{""page_index"":0,""viewing_time"":12741},{""page_index"":1,""viewing_time"":6891},{""page_index"":2,""viewing_time"":2971},{""page_index"":3,""viewing_time"":796}]",165
,,,,,,,,,,196020,,,196024,,,instructions,"[{""page_index"":0,""viewing_time"":72722},{""page_index"":1,""viewing_time"":70432},{""page_index"":2,""viewing_time"":20247},{""page_index"":3,""viewing_time"":32615}]",166
,,,,,,,,,,115014,,,364954,,,instructions,"[{""page_index"":0,""viewing_time"":36439},{""page_index"":1,""viewing_time"":35783},{""page_index"":2,""viewing_time"":27675},{""page_index"":3,""viewing_time"":15113}]",166
,,,,,,,,,,59220,,,489989,,,instructions,"[{""page_index"":0,""viewing_time"":5146},{""page_index"":1,""viewing_time"":6139},{""page_index"":2,""viewing_time"":43518},{""page_index"":3,""viewing_time"":4414}]",166
,,,,,,,,,,72843,,,619820,,,instructions,"[{""page_index"":0,""viewing_time"":11964},{""page_index"":1,""viewing_time"":42667},{""page_index"":2,""viewing_time"":7401},{""page_index"":3,""viewing_time"":10809}]",166
,,,,,,,,,,59860,,,722393,,,instructions,"[{""page_index"":0,""viewing_time"":9511},{""page_index"":1,""viewing_time"":24974},{""page_index"":2,""viewing_time"":17390},{""page_index"":3,""viewing_time"":7984}]",166
,,,,,,,,,,13580,,,783167,,,instructions,"[{""page_index"":0,""viewing_time"":3569},{""page_index"":1,""viewing_time"":2483},{""page_index"":2,""viewing_time"":3557},{""page_index"":3,""viewing_time"":3970}]",166
,,,,,,,,,,40866,,,2028079,,,instructions,"[{""page_index"":0,""viewing_time"":3724},{""page_index"":1,""viewing_time"":28065},{""page_index"":2,""viewing_time"":6990},{""page_index"":3,""viewing_time"":2086}]",166
,,,,,,,,,,90782,,,90782,,,instructions,"[{""page_index"":0,""viewing_time"":11261},{""page_index"":1,""viewing_time"":14153},{""page_index"":2,""viewing_time"":30079},{""page_index"":3,""viewing_time"":35288}]",167
,,,,,,,,,,170374,,,170376,,,instructions,"[{""page_index"":0,""viewing_time"":111405},{""page_index"":1,""viewing_time"":33201},{""page_index"":2,""viewing_time"":10352},{""page_index"":3,""viewing_time"":15414}]",168
,,,,,,,,,,25478,,,238943,,,instructions,"[{""page_index"":0,""viewing_time"":11521},{""page_index"":1,""viewing_time"":11014},{""page_index"":2,""viewing_time"":1944},{""page_index"":3,""viewing_time"":997}]",168
,,,,,,,,,,96504,,,96504,,,instructions,"[{""page_index"":0,""viewing_time"":48279},{""page_index"":1,""viewing_time"":25092},{""page_index"":2,""viewing_time"":23132}]",169
,,,,,,,,,,38151,,,164807,,,instructions,"[{""page_index"":0,""viewing_time"":9942},{""page_index"":1,""viewing_time"":24049},{""page_index"":2,""viewing_time"":4159}]",169
,,,,,,,,,,69780,,,69782,,,instructions,"[{""page_index"":0,""viewing_time"":27880},{""page_index"":1,""viewing_time"":25088},{""page_index"":2,""viewing_time"":16810}]",170
,,,,,,,,,,70500,,,164548,,,instructions,"[{""page_index"":0,""viewing_time"":7988},{""page_index"":1,""viewing_time"":5732},{""page_index"":2,""viewing_time"":5868},{""page_index"":1,""viewing_time"":2424},{""page_index"":0,""viewing_time"":21698},{""page_index"":1,""viewing_time"":20191},{""page_index"":2,""viewing_time"":6598}]",170
,,,,,,,,,,194836,,,194837,,,instructions,"[{""page_index"":0,""viewing_time"":63263},{""page_index"":1,""viewing_time"":85755},{""page_index"":2,""viewing_time"":21761},{""page_index"":3,""viewing_time"":24047}]",171
,,,,,,,,,,25703,,,549669,,,instructions,"[{""page_index"":0,""viewing_time"":5886},{""page_index"":1,""viewing_time"":11988},{""page_index"":2,""viewing_time"":4882},{""page_index"":3,""viewing_time"":2947}]",171
,,,,,,,,,,8499,,,768004,,,instructions,"[{""page_index"":0,""viewing_time"":3074},{""page_index"":1,""viewing_time"":1024},{""page_index"":2,""viewing_time"":2173},{""page_index"":3,""viewing_time"":2228}]",171
,,,,,,,,,,7299,,,792220,,,instructions,"[{""page_index"":0,""viewing_time"":2581},{""page_index"":1,""viewing_time"":1077},{""page_index"":2,""viewing_time"":2264},{""page_index"":3,""viewing_time"":1376}]",171
,,,,,,,,,,7152,,,813820,,,instructions,"[{""page_index"":0,""viewing_time"":2312},{""page_index"":1,""viewing_time"":1166},{""page_index"":2,""viewing_time"":2567},{""page_index"":3,""viewing_time"":1107}]",171
,,,,,,,,,,6455,,,1002659,,,instructions,"[{""page_index"":0,""viewing_time"":2201},{""page_index"":1,""viewing_time"":1072},{""page_index"":2,""viewing_time"":2054},{""page_index"":3,""viewing_time"":1128}]",171
,,,,,,,,,,8992,,,1023692,,,instructions,"[{""page_index"":0,""viewing_time"":1806},{""page_index"":1,""viewing_time"":1216},{""page_index"":2,""viewing_time"":2034},{""page_index"":3,""viewing_time"":3935}]",171
,,,,,,,,,,7048,,,1222399,,,instructions,"[{""page_index"":0,""viewing_time"":2499},{""page_index"":1,""viewing_time"":1017},{""page_index"":2,""viewing_time"":2363},{""page_index"":3,""viewing_time"":1169}]",171
,,,,,,,,,,11391,,,1250934,,,instructions,"[{""page_index"":0,""viewing_time"":1822},{""page_index"":1,""viewing_time"":989},{""page_index"":2,""viewing_time"":3489},{""page_index"":3,""viewing_time"":5091}]",171
,,,,,,,,,,6617,,,1297339,,,instructions,"[{""page_index"":0,""viewing_time"":2771},{""page_index"":1,""viewing_time"":844},{""page_index"":2,""viewing_time"":2126},{""page_index"":3,""viewing_time"":876}]",171
,,,,,,,,,,5213,,,1336179,,,instructions,"[{""page_index"":0,""viewing_time"":1770},{""page_index"":1,""viewing_time"":866},{""page_index"":2,""viewing_time"":1822},{""page_index"":3,""viewing_time"":755}]",171
,,,,,,,,,,6427,,,1363637,,,instructions,"[{""page_index"":0,""viewing_time"":2172},{""page_index"":1,""viewing_time"":975},{""page_index"":2,""viewing_time"":2342},{""page_index"":3,""viewing_time"":938}]",171
,,,,,,,,,,51433,,,51433,,,instructions,"[{""page_index"":0,""viewing_time"":22040},{""page_index"":1,""viewing_time"":17515},{""page_index"":2,""viewing_time"":11877}]",172
,,,,,,,,,,111271,,,111272,,,instructions,"[{""page_index"":0,""viewing_time"":45348},{""page_index"":1,""viewing_time"":30212},{""page_index"":2,""viewing_time"":21633},{""page_index"":3,""viewing_time"":14077}]",173
,,,,,,,,,,196932,,,196933,,,instructions,"[{""page_index"":0,""viewing_time"":62840},{""page_index"":1,""viewing_time"":59613},{""page_index"":2,""viewing_time"":38996},{""page_index"":3,""viewing_time"":35482}]",174
,,,,,,,,,,249364,,,249366,,,instructions,"[{""page_index"":0,""viewing_time"":96587},{""page_index"":1,""viewing_time"":15759},{""page_index"":0,""viewing_time"":13922},{""page_index"":1,""viewing_time"":18133},{""page_index"":0,""viewing_time"":17697},{""page_index"":1,""viewing_time"":22904},{""page_index"":2,""viewing_time"":25305},{""page_index"":3,""viewing_time"":39055}]",175
,,,,,,,,,,96927,,,96928,,,instructions,"[{""page_index"":0,""viewing_time"":31197},{""page_index"":1,""viewing_time"":25802},{""page_index"":2,""viewing_time"":21288},{""page_index"":3,""viewing_time"":18640}]",176
,,,,,,,,,,9549,,,130855,,,instructions,"[{""page_index"":0,""viewing_time"":4533},{""page_index"":1,""viewing_time"":2824},{""page_index"":2,""viewing_time"":1176},{""page_index"":3,""viewing_time"":1015}]",176
,,,,,,,,,,11808,,,157392,,,instructions,"[{""page_index"":0,""viewing_time"":9018},{""page_index"":1,""viewing_time"":485},{""page_index"":2,""viewing_time"":1296},{""page_index"":3,""viewing_time"":1008}]",176
,,,,,,,,,,132029,,,132030,,,instructions,"[{""page_index"":0,""viewing_time"":93834},{""page_index"":1,""viewing_time"":23788},{""page_index"":2,""viewing_time"":14407}]",177
,,,,,,,,,,23763,,,465941,,,instructions,"[{""page_index"":0,""viewing_time"":6580},{""page_index"":1,""viewing_time"":659},{""page_index"":0,""viewing_time"":599},{""page_index"":1,""viewing_time"":1813},{""page_index"":2,""viewing_time"":14112}]",177
,,,,,,,,,,2719,,,480819,,,instructions,"[{""page_index"":0,""viewing_time"":1661},{""page_index"":1,""viewing_time"":592},{""page_index"":2,""viewing_time"":465}]",177
,,,,,,,,,,3335,,,498245,,,instructions,"[{""page_index"":0,""viewing_time"":2204},{""page_index"":1,""viewing_time"":593},{""page_index"":2,""viewing_time"":538}]",177
,,,,,,,,,,100742,,,100742,,,instructions,"[{""page_index"":0,""viewing_time"":43155},{""page_index"":1,""viewing_time"":35492},{""page_index"":2,""viewing_time"":22093}]",178
,,,,,,,,,,39022,,,165946,,,instructions,"[{""page_index"":0,""viewing_time"":15996},{""page_index"":1,""viewing_time"":20007},{""page_index"":2,""viewing_time"":3018}]",178
,,,,,,,,,,53969,,,53969,,,instructions,"[{""page_index"":0,""viewing_time"":18713},{""page_index"":1,""viewing_time"":18911},{""page_index"":2,""viewing_time"":16344}]",179
,,,,,,,,,,70160,,,70161,,,instructions,"[{""page_index"":0,""viewing_time"":20331},{""page_index"":1,""viewing_time"":38463},{""page_index"":2,""viewing_time"":11365}]",180
,,,,,,,,,,186679,,,186684,,,instructions,"[{""page_index"":0,""viewing_time"":33207},{""page_index"":1,""viewing_time"":71230},{""page_index"":2,""viewing_time"":54525},{""page_index"":3,""viewing_time"":27712}]",181
,,,,,,,,,,152408,,,152409,,,instructions,"[{""page_index"":0,""viewing_time"":52322},{""page_index"":1,""viewing_time"":1397},{""page_index"":2,""viewing_time"":4740},{""page_index"":1,""viewing_time"":36747},{""page_index"":2,""viewing_time"":22584},{""page_index"":3,""viewing_time"":34616}]",182
,,,,,,,,,,42490,,,274198,,,instructions,"[{""page_index"":0,""viewing_time"":19737},{""page_index"":1,""viewing_time"":7440},{""page_index"":2,""viewing_time"":12909},{""page_index"":3,""viewing_time"":2403}]",182
,,,,,,,,,,62702,,,370999,,,instructions,"[{""page_index"":0,""viewing_time"":14785},{""page_index"":1,""viewing_time"":13016},{""page_index"":2,""viewing_time"":13836},{""page_index"":3,""viewing_time"":21064}]",182
,,,,,,,,,,172286,,,172286,,,instructions,"[{""page_index"":0,""viewing_time"":49763},{""page_index"":1,""viewing_time"":31992},{""page_index"":2,""viewing_time"":60195},{""page_index"":3,""viewing_time"":30335}]",183
,,,,,,,,,,68934,,,293656,,,instructions,"[{""page_index"":0,""viewing_time"":30164},{""page_index"":1,""viewing_time"":15385},{""page_index"":2,""viewing_time"":17531},{""page_index"":3,""viewing_time"":5854}]",183
,,,,,,,,,,114774,,,114775,,,instructions,"[{""page_index"":0,""viewing_time"":6831},{""page_index"":1,""viewing_time"":93564},{""page_index"":2,""viewing_time"":5997},{""page_index"":3,""viewing_time"":8381}]",184
,,,,,,,,,,7107,,,158681,,,instructions,"[{""page_index"":0,""viewing_time"":5716},{""page_index"":1,""viewing_time"":471},{""page_index"":2,""viewing_time"":425},{""page_index"":3,""viewing_time"":495}]",184
,,,,,,,,,,173672,,,173672,,,instructions,"[{""page_index"":0,""viewing_time"":40241},{""page_index"":1,""viewing_time"":38472},{""page_index"":2,""viewing_time"":49279},{""page_index"":3,""viewing_time"":45670}]",185
,,,,,,,,,,336611,,,336614,,,instructions,"[{""page_index"":0,""viewing_time"":244621},{""page_index"":1,""viewing_time"":8143},{""page_index"":2,""viewing_time"":5817},{""page_index"":3,""viewing_time"":78025}]",186
,,,,,,,,,,15551,,,527569,,,instructions,"[{""page_index"":0,""viewing_time"":3152},{""page_index"":1,""viewing_time"":2803},{""page_index"":2,""viewing_time"":4928},{""page_index"":3,""viewing_time"":4664}]",186
,,,,,,,,,,91141,,,91142,,,instructions,"[{""page_index"":0,""viewing_time"":7713},{""page_index"":1,""viewing_time"":44452},{""page_index"":2,""viewing_time"":38974}]",187
,,,,,,,,,,53763,,,184539,,,instructions,"[{""page_index"":0,""viewing_time"":14592},{""page_index"":1,""viewing_time"":24131},{""page_index"":2,""viewing_time"":15039}]",187
,,,,,,,,,,102937,,,305347,,,instructions,"[{""page_index"":0,""viewing_time"":44309},{""page_index"":1,""viewing_time"":44705},{""page_index"":2,""viewing_time"":13922}]",187
,,,,,,,,,,1613299,,,1947689,,,instructions,"[{""page_index"":0,""viewing_time"":1560258},{""page_index"":1,""viewing_time"":30505},{""page_index"":2,""viewing_time"":22534}]",187
,,,,,,,,,,255154,,,2222015,,,instructions,"[{""page_index"":0,""viewing_time"":183487},{""page_index"":1,""viewing_time"":35368},{""page_index"":2,""viewing_time"":36298}]",187
,,,,,,,,,,276368,,,276377,,,instructions,"[{""page_index"":0,""viewing_time"":61326},{""page_index"":1,""viewing_time"":61867},{""page_index"":2,""viewing_time"":101377},{""page_index"":3,""viewing_time"":51794}]",188
,,,,,,,,,,51112,,,51113,,,instructions,"[{""page_index"":0,""viewing_time"":27460},{""page_index"":1,""viewing_time"":17897},{""page_index"":2,""viewing_time"":5754}]",189
,,,,,,,,,,178907,,,178918,,,instructions,"[{""page_index"":0,""viewing_time"":79257},{""page_index"":1,""viewing_time"":41233},{""page_index"":2,""viewing_time"":33544},{""page_index"":3,""viewing_time"":24873}]",190
,,,,,,,,,,217495,,,217497,,,instructions,"[{""page_index"":0,""viewing_time"":82032},{""page_index"":1,""viewing_time"":44583},{""page_index"":2,""viewing_time"":58225},{""page_index"":3,""viewing_time"":32654}]",191
,,,,,,,,,,148423,,,148424,,,instructions,"[{""page_index"":0,""viewing_time"":54322},{""page_index"":1,""viewing_time"":42128},{""page_index"":2,""viewing_time"":29216},{""page_index"":3,""viewing_time"":22757}]",192
,,,,,,,,,,182635,,,182636,,,instructions,"[{""page_index"":0,""viewing_time"":56366},{""page_index"":1,""viewing_time"":50084},{""page_index"":2,""viewing_time"":45827},{""page_index"":3,""viewing_time"":30357}]",193
,,,,,,,,,,164406,,,164407,,,instructions,"[{""page_index"":0,""viewing_time"":69454},{""page_index"":1,""viewing_time"":34998},{""page_index"":2,""viewing_time"":37392},{""page_index"":3,""viewing_time"":22562}]",194
,,,,,,,,,,11797,,,253394,,,instructions,"[{""page_index"":0,""viewing_time"":8320},{""page_index"":1,""viewing_time"":1246},{""page_index"":2,""viewing_time"":1470},{""page_index"":3,""viewing_time"":761}]",194
,,,,,,,,,,3002,,,3003,,,instructions,"[{""page_index"":0,""viewing_time"":2520},{""page_index"":1,""viewing_time"":172},{""page_index"":2,""viewing_time"":153},{""page_index"":3,""viewing_time"":155}]",195
,,,,,,,,,,2911,,,29202,,,instructions,"[{""page_index"":0,""viewing_time"":1526},{""page_index"":1,""viewing_time"":1011},{""page_index"":2,""viewing_time"":171},{""page_index"":3,""viewing_time"":203}]",195
,,,,,,,,,,13900,,,59460,,,instructions,"[{""page_index"":0,""viewing_time"":351},{""page_index"":1,""viewing_time"":248},{""page_index"":2,""viewing_time"":474},{""page_index"":3,""viewing_time"":12826}]",195
,,,,,,,,,,1584,,,76976,,,instructions,"[{""page_index"":0,""viewing_time"":1105},{""page_index"":1,""viewing_time"":167},{""page_index"":2,""viewing_time"":162},{""page_index"":3,""viewing_time"":148}]",195
,,,,,,,,,,3474,,,91165,,,instructions,"[{""page_index"":0,""viewing_time"":1791},{""page_index"":1,""viewing_time"":1054},{""page_index"":2,""viewing_time"":311},{""page_index"":3,""viewing_time"":317}]",195
,,,,,,,,,,67509,,,67511,,,instructions,"[{""page_index"":0,""viewing_time"":25317},{""page_index"":1,""viewing_time"":8994},{""page_index"":2,""viewing_time"":23726},{""page_index"":3,""viewing_time"":9471}]",196
,,,,,,,,,,40586,,,131890,,,instructions,"[{""page_index"":0,""viewing_time"":11016},{""page_index"":1,""viewing_time"":16205},{""page_index"":2,""viewing_time"":5352},{""page_index"":3,""viewing_time"":8013}]",196
,,,,,,,,,,123006,,,123008,,,instructions,"[{""page_index"":0,""viewing_time"":34939},{""page_index"":1,""viewing_time"":35513},{""page_index"":2,""viewing_time"":27424},{""page_index"":3,""viewing_time"":25128}]",197
,,,,,,,,,,121302,,,121303,,,instructions,"[{""page_index"":0,""viewing_time"":47267},{""page_index"":1,""viewing_time"":52323},{""page_index"":2,""viewing_time"":19118},{""page_index"":3,""viewing_time"":2593}]",198
,,,,,,,,,,24739,,,207702,,,instructions,"[{""page_index"":0,""viewing_time"":1939},{""page_index"":1,""viewing_time"":1314},{""page_index"":0,""viewing_time"":2276},{""page_index"":1,""viewing_time"":3738},{""page_index"":2,""viewing_time"":7508},{""page_index"":3,""viewing_time"":7963}]",198
,,,,,,,,,,209472,,,209477,,,instructions,"[{""page_index"":0,""viewing_time"":92943},{""page_index"":1,""viewing_time"":43715},{""page_index"":2,""viewing_time"":46627},{""page_index"":3,""viewing_time"":26184}]",199
,,,,,,,,,,73202,,,73204,,,instructions,"[{""page_index"":0,""viewing_time"":28095},{""page_index"":1,""viewing_time"":27566},{""page_index"":2,""viewing_time"":17540}]",200
,,,,,,,,,,176515,,,176516,,,instructions,"[{""page_index"":0,""viewing_time"":10358},{""page_index"":1,""viewing_time"":21585},{""page_index"":2,""viewing_time"":12281},{""page_index"":3,""viewing_time"":5209},{""page_index"":2,""viewing_time"":11535},{""page_index"":1,""viewing_time"":15976},{""page_index"":0,""viewing_time"":28286},{""page_index"":1,""viewing_time"":17248},{""page_index"":2,""viewing_time"":29836},{""page_index"":3,""viewing_time"":24200}]",201
,,,,,,,,,,49424,,,252663,,,instructions,"[{""page_index"":0,""viewing_time"":21656},{""page_index"":1,""viewing_time"":24527},{""page_index"":2,""viewing_time"":1968},{""page_index"":3,""viewing_time"":1272}]",201
,,,,,,,,,,59628,,,337153,,,instructions,"[{""page_index"":0,""viewing_time"":15134},{""page_index"":1,""viewing_time"":10096},{""page_index"":2,""viewing_time"":17639},{""page_index"":3,""viewing_time"":16758}]",201
,,,,,,,,,,96974,,,96974,,,instructions,"[{""page_index"":0,""viewing_time"":38402},{""page_index"":1,""viewing_time"":42499},{""page_index"":2,""viewing_time"":16071}]",202
,,,,,,,,,,368225,,,368227,,,instructions,"[{""page_index"":0,""viewing_time"":138452},{""page_index"":1,""viewing_time"":192490},{""page_index"":2,""viewing_time"":37282}]",203
,,,,,,,,,,119013,,,119014,,,instructions,"[{""page_index"":0,""viewing_time"":32594},{""page_index"":1,""viewing_time"":33816},{""page_index"":2,""viewing_time"":28483},{""page_index"":3,""viewing_time"":24118}]",204
,,,,,,,,,,22794,,,177926,,,instructions,"[{""page_index"":0,""viewing_time"":9297},{""page_index"":1,""viewing_time"":4353},{""page_index"":2,""viewing_time"":7992},{""page_index"":3,""viewing_time"":1151}]",204
,,,,,,,,,,28674,,,243599,,,instructions,"[{""page_index"":0,""viewing_time"":12740},{""page_index"":1,""viewing_time"":2888},{""page_index"":2,""viewing_time"":6359},{""page_index"":3,""viewing_time"":6686}]",204
,,,,,,,,,,101933,,,101934,,,instructions,"[{""page_index"":0,""viewing_time"":41929},{""page_index"":1,""viewing_time"":30919},{""page_index"":2,""viewing_time"":29084}]",205
,,,,,,,,,,116517,,,116519,,,instructions,"[{""page_index"":0,""viewing_time"":16737},{""page_index"":1,""viewing_time"":51442},{""page_index"":2,""viewing_time"":7209},{""page_index"":3,""viewing_time"":41127}]",206
,,,,,,,,,,267597,,,499442,,,instructions,"[{""page_index"":0,""viewing_time"":74358},{""page_index"":1,""viewing_time"":66738},{""page_index"":2,""viewing_time"":91010},{""page_index"":3,""viewing_time"":35489}]",206
,,,,,,,,,,16892,,,888029,,,instructions,"[{""page_index"":0,""viewing_time"":4989},{""page_index"":1,""viewing_time"":1959},{""page_index"":2,""viewing_time"":7031},{""page_index"":3,""viewing_time"":2912}]",206
,,,,,,,,,,4734,,,910767,,,instructions,"[{""page_index"":0,""viewing_time"":1707},{""page_index"":1,""viewing_time"":1041},{""page_index"":2,""viewing_time"":1377},{""page_index"":3,""viewing_time"":608}]",206
,,,,,,,,,,4461,,,933599,,,instructions,"[{""page_index"":0,""viewing_time"":1884},{""page_index"":1,""viewing_time"":696},{""page_index"":2,""viewing_time"":1408},{""page_index"":3,""viewing_time"":472}]",206
,,,,,,,,,,3655,,,952232,,,instructions,"[{""page_index"":0,""viewing_time"":1286},{""page_index"":1,""viewing_time"":641},{""page_index"":2,""viewing_time"":1208},{""page_index"":3,""viewing_time"":520}]",206
,,,,,,,,,,3965,,,975417,,,instructions,"[{""page_index"":0,""viewing_time"":1396},{""page_index"":1,""viewing_time"":848},{""page_index"":2,""viewing_time"":1216},{""page_index"":3,""viewing_time"":504}]",206
,,,,,,,,,,5061,,,990754,,,instructions,"[{""page_index"":0,""viewing_time"":1493},{""page_index"":1,""viewing_time"":1096},{""page_index"":2,""viewing_time"":1328},{""page_index"":3,""viewing_time"":1144}]",206
,,,,,,,,,,5349,,,1013977,,,instructions,"[{""page_index"":0,""viewing_time"":2420},{""page_index"":1,""viewing_time"":640},{""page_index"":2,""viewing_time"":1792},{""page_index"":3,""viewing_time"":496}]",206
,,,,,,,,,,4334,,,1034634,,,instructions,"[{""page_index"":0,""viewing_time"":1604},{""page_index"":1,""viewing_time"":1089},{""page_index"":2,""viewing_time"":1105},{""page_index"":3,""viewing_time"":535}]",206
,,,,,,,,,,4038,,,1057243,,,instructions,"[{""page_index"":0,""viewing_time"":1901},{""page_index"":1,""viewing_time"":536},{""page_index"":2,""viewing_time"":1160},{""page_index"":3,""viewing_time"":440}]",206
,,,,,,,,,,4053,,,1075212,,,instructions,"[{""page_index"":0,""viewing_time"":1508},{""page_index"":1,""viewing_time"":816},{""page_index"":2,""viewing_time"":1249},{""page_index"":3,""viewing_time"":479}]",206
,,,,,,,,,,3695,,,1102878,,,instructions,"[{""page_index"":0,""viewing_time"":1477},{""page_index"":1,""viewing_time"":664},{""page_index"":2,""viewing_time"":1080},{""page_index"":3,""viewing_time"":473}]",206
,,,,,,,,,,3805,,,1118533,,,instructions,"[{""page_index"":0,""viewing_time"":1412},{""page_index"":1,""viewing_time"":688},{""page_index"":2,""viewing_time"":1232},{""page_index"":3,""viewing_time"":472}]",206
,,,,,,,,,,4253,,,1132852,,,instructions,"[{""page_index"":0,""viewing_time"":2181},{""page_index"":1,""viewing_time"":560},{""page_index"":2,""viewing_time"":1088},{""page_index"":3,""viewing_time"":424}]",206
,,,,,,,,,,4126,,,1159214,,,instructions,"[{""page_index"":0,""viewing_time"":1501},{""page_index"":1,""viewing_time"":920},{""page_index"":2,""viewing_time"":1224},{""page_index"":3,""viewing_time"":480}]",206
,,,,,,,,,,3587,,,1179854,,,instructions,"[{""page_index"":0,""viewing_time"":1363},{""page_index"":1,""viewing_time"":552},{""page_index"":2,""viewing_time"":1104},{""page_index"":3,""viewing_time"":568}]",206
,,,,,,,,,,4844,,,1198439,,,instructions,"[{""page_index"":0,""viewing_time"":2123},{""page_index"":1,""viewing_time"":576},{""page_index"":2,""viewing_time"":1248},{""page_index"":3,""viewing_time"":896}]",206
,,,,,,,,,,3654,,,1212472,,,instructions,"[{""page_index"":0,""viewing_time"":1317},{""page_index"":1,""viewing_time"":768},{""page_index"":2,""viewing_time"":1064},{""page_index"":3,""viewing_time"":504}]",206
,,,,,,,,,,4253,,,1234569,,,instructions,"[{""page_index"":0,""viewing_time"":1715},{""page_index"":1,""viewing_time"":913},{""page_index"":2,""viewing_time"":1143},{""page_index"":3,""viewing_time"":481}]",206
,,,,,,,,,,3788,,,1254712,,,instructions,"[{""page_index"":0,""viewing_time"":1516},{""page_index"":1,""viewing_time"":496},{""page_index"":2,""viewing_time"":1352},{""page_index"":3,""viewing_time"":424}]",206
,,,,,,,,,,3758,,,1280410,,,instructions,"[{""page_index"":0,""viewing_time"":1557},{""page_index"":1,""viewing_time"":552},{""page_index"":2,""viewing_time"":1184},{""page_index"":3,""viewing_time"":464}]",206
,,,,,,,,,,4278,,,1297570,,,instructions,"[{""page_index"":0,""viewing_time"":1966},{""page_index"":1,""viewing_time"":600},{""page_index"":2,""viewing_time"":1224},{""page_index"":3,""viewing_time"":488}]",206
,,,,,,,,,,5486,,,1314963,,,instructions,"[{""page_index"":0,""viewing_time"":1628},{""page_index"":1,""viewing_time"":953},{""page_index"":2,""viewing_time"":1321},{""page_index"":3,""viewing_time"":1583}]",206
,,,,,,,,,,4327,,,1334676,,,instructions,"[{""page_index"":0,""viewing_time"":1718},{""page_index"":1,""viewing_time"":1024},{""page_index"":2,""viewing_time"":1120},{""page_index"":3,""viewing_time"":464}]",206
,,,,,,,,,,12504,,,12505,,,instructions,"[{""page_index"":0,""viewing_time"":7999},{""page_index"":1,""viewing_time"":1511},{""page_index"":2,""viewing_time"":2992}]",207
,,,,,,,,,,56234,,,56235,,,instructions,"[{""page_index"":0,""viewing_time"":13762},{""page_index"":1,""viewing_time"":9499},{""page_index"":2,""viewing_time"":27091},{""page_index"":3,""viewing_time"":5881}]",208
,,,,,,,,,,119508,,,119509,,,instructions,"[{""page_index"":0,""viewing_time"":31892},{""page_index"":1,""viewing_time"":223},{""page_index"":0,""viewing_time"":2797},{""page_index"":1,""viewing_time"":41957},{""page_index"":2,""viewing_time"":26460},{""page_index"":3,""viewing_time"":16179}]",209
,,,,,,,,,,95256,,,95258,,,instructions,"[{""page_index"":0,""viewing_time"":43680},{""page_index"":1,""viewing_time"":26696},{""page_index"":2,""viewing_time"":24877}]",210
,,,,,,,,,,271244,,,271244,,,instructions,"[{""page_index"":0,""viewing_time"":83528},{""page_index"":1,""viewing_time"":78246},{""page_index"":2,""viewing_time"":55694},{""page_index"":3,""viewing_time"":53775}]",211
,,,,,,,,,,93741,,,93743,,,instructions,"[{""page_index"":0,""viewing_time"":20809},{""page_index"":1,""viewing_time"":34398},{""page_index"":2,""viewing_time"":24228},{""page_index"":3,""viewing_time"":14305}]",212
,,,,,,,,,,249959,,,367378,,,instructions,"[{""page_index"":0,""viewing_time"":106543},{""page_index"":1,""viewing_time"":64250},{""page_index"":2,""viewing_time"":10256},{""page_index"":3,""viewing_time"":68909}]",212
,,,,,,,,,,232067,,,232068,,,instructions,"[{""page_index"":0,""viewing_time"":85459},{""page_index"":1,""viewing_time"":59129},{""page_index"":2,""viewing_time"":45684},{""page_index"":3,""viewing_time"":41793}]",213
,,,,,,,,,,148880,,,148880,,,instructions,"[{""page_index"":0,""viewing_time"":38944},{""page_index"":1,""viewing_time"":40853},{""page_index"":2,""viewing_time"":44394},{""page_index"":3,""viewing_time"":24688}]",214
,,,,,,,,,,194832,,,194833,,,instructions,"[{""page_index"":0,""viewing_time"":67656},{""page_index"":1,""viewing_time"":69142},{""page_index"":2,""viewing_time"":36137},{""page_index"":3,""viewing_time"":21895}]",215
,,,,,,,,,,68656,,,68657,,,instructions,"[{""page_index"":0,""viewing_time"":23687},{""page_index"":1,""viewing_time"":24730},{""page_index"":2,""viewing_time"":20238}]",216
,,,,,,,,,,206310,,,206312,,,instructions,"[{""page_index"":0,""viewing_time"":71439},{""page_index"":1,""viewing_time"":45084},{""page_index"":2,""viewing_time"":55183},{""page_index"":3,""viewing_time"":34604}]",217
,,,,,,,,,,51355,,,51357,,,instructions,"[{""page_index"":0,""viewing_time"":12698},{""page_index"":1,""viewing_time"":18463},{""page_index"":2,""viewing_time"":20193}]",218
,,,,,,,,,,921687,,,1021291,,,instructions,"[{""page_index"":0,""viewing_time"":857144},{""page_index"":1,""viewing_time"":29175},{""page_index"":2,""viewing_time"":35368}]",218
,,,,,,,,,,48911,,,1302163,,,instructions,"[{""page_index"":0,""viewing_time"":6975},{""page_index"":1,""viewing_time"":9864},{""page_index"":2,""viewing_time"":1000},{""page_index"":1,""viewing_time"":10879},{""page_index"":2,""viewing_time"":20192}]",218
,,,,,,,,,,28456,,,1358002,,,instructions,"[{""page_index"":0,""viewing_time"":1864},{""page_index"":1,""viewing_time"":7360},{""page_index"":2,""viewing_time"":19232}]",218
,,,,,,,,,,158900,,,158903,,,instructions,"[{""page_index"":0,""viewing_time"":73705},{""page_index"":1,""viewing_time"":32805},{""page_index"":2,""viewing_time"":29267},{""page_index"":3,""viewing_time"":23121}]",219
,,,,,,,,,,114356,,,114360,,,instructions,"[{""page_index"":0,""viewing_time"":37293},{""page_index"":1,""viewing_time"":45662},{""page_index"":2,""viewing_time"":31396}]",220
,,,,,,,,,,179793,,,179794,,,instructions,"[{""page_index"":0,""viewing_time"":59553},{""page_index"":1,""viewing_time"":44791},{""page_index"":2,""viewing_time"":40561},{""page_index"":3,""viewing_time"":34887}]",221
,,,,,,,,,,271317,,,271319,,,instructions,"[{""page_index"":0,""viewing_time"":32467},{""page_index"":1,""viewing_time"":11809},{""page_index"":0,""viewing_time"":983},{""page_index"":1,""viewing_time"":42686},{""page_index"":2,""viewing_time"":29450},{""page_index"":3,""viewing_time"":153921}]",222
,,,,,,,,,,178937,,,178937,,,instructions,"[{""page_index"":0,""viewing_time"":43868},{""page_index"":1,""viewing_time"":44152},{""page_index"":2,""viewing_time"":39327},{""page_index"":3,""viewing_time"":16106},{""page_index"":2,""viewing_time"":4342},{""page_index"":3,""viewing_time"":31141}]",223
,,,,,,,,,,69109,,,278022,,,instructions,"[{""page_index"":0,""viewing_time"":30522},{""page_index"":1,""viewing_time"":13170},{""page_index"":2,""viewing_time"":21826},{""page_index"":3,""viewing_time"":3590}]",223
,,,,,,,,,,221205,,,221206,,,instructions,"[{""page_index"":0,""viewing_time"":111287},{""page_index"":1,""viewing_time"":63509},{""page_index"":2,""viewing_time"":37877},{""page_index"":3,""viewing_time"":8532}]",224
,,,,,,,,,,136370,,,448073,,,instructions,"[{""page_index"":0,""viewing_time"":15159},{""page_index"":1,""viewing_time"":33588},{""page_index"":2,""viewing_time"":53902},{""page_index"":3,""viewing_time"":33721}]",224
,,,,,,,,,,144304,,,144306,,,instructions,"[{""page_index"":0,""viewing_time"":47809},{""page_index"":1,""viewing_time"":30447},{""page_index"":0,""viewing_time"":11895},{""page_index"":1,""viewing_time"":6181},{""page_index"":2,""viewing_time"":26468},{""page_index"":3,""viewing_time"":21503}]",225
,,,,,,,,,,150289,,,150292,,,instructions,"[{""page_index"":0,""viewing_time"":37775},{""page_index"":1,""viewing_time"":57488},{""page_index"":2,""viewing_time"":27428},{""page_index"":3,""viewing_time"":27597}]",226
,,,,,,,,,,99888,,,99889,,,instructions,"[{""page_index"":0,""viewing_time"":40651},{""page_index"":1,""viewing_time"":37303},{""page_index"":2,""viewing_time"":21934}]",227
,,,,,,,,,,3269,,,3270,,,instructions,"[{""page_index"":0,""viewing_time"":1876},{""page_index"":1,""viewing_time"":784},{""page_index"":2,""viewing_time"":608}]",228
