action_times,actions,button_pressed,correct,delays,key_press,path,queries,questions,responses,rt,score,stimulus,time_elapsed,trial_index,trial_i,trial_type,view_history,pid
"[56252, 68687, 70712]","[u'left', u'left', u'up']",,,"[3, 0, 1]",,"[u'1', 4, 8, 14]","{u'mouseover': {u'state': {u'target': [], u'time': []}, u'edge': {u'target': [], u'time': []}}, u'click': {u'state': {u'target': [u'3', u'2', u'6', u'5', u'4', u'8', u'14', u'15'], u'time': [4520, 5811, 6515, 7666, 8589, 9339, 9839, 18124]}, u'edge': {u'target': [], u'time': []}}, u'mouseout': {u'state': {u'target': [], u'time': []}, u'edge': {u'target': [], u'time': []}}}",,,"[56252, 4090, 998]",20.0,,178249,1.0,7.0,mouselab-mdp,,0
"[48074, 60044, 61197]","[u'right', u'right', u'down']",,,"[3, 0, 1]",,"[u'1', 2, 6, 11]","{u'mouseover': {u'state': {u'target': [], u'time': []}, u'edge': {u'target': [], u'time': []}}, u'click': {u'state': {u'target': [u'3', u'7', u'4', u'2', u'11', u'6', u'13', u'5'], u'time': [3896, 5110, 7610, 10999, 12605, 14013, 18438, 34516]}, u'edge': {u'target': [], u'time': []}}, u'mouseout': {u'state': {u'target': [], u'time': []}, u'edge': {u'target': [], u'time': []}}}",,,"[48074, 3055, 3]",49.0,,245862,2.0,6.0,mouselab-mdp,,0
"[50461, 60089, 61428]","[u'down', u'down', u'right']",,,"[3, 0, 1]",,"[u'1', 5, 9, 17]","{u'mouseover': {u'state': {u'target': [], u'time': []}, u'edge': {u'target': [], u'time': []}}, u'click': {u'state': {u'target': [u'3', u'7', u'2', u'5', u'9', u'17', u'16'], u'time': [21710, 23241, 23984, 25128, 26232, 27584, 28809]}, u'edge': {u'target': [], u'time': []}}, u'mouseout': {u'state': {u'target': [], u'time': []}, u'edge': {u'target': [], u'time': []}}}",,,"[50461, 922, 240]",44.0,,315511,3.0,9.0,mouselab-mdp,,0
"[62237, 71927, 79866]","[u'up', u'up', u'right']",,,"[3, 0, 1]",,"[u'1', 3, 7, 13]","{u'mouseover': {u'state': {u'target': [], u'time': []}, u'edge': {u'target': [], u'time': []}}, u'click': {u'state': {u'target': [u'3', u'7', u'12', u'13', u'11', u'17', u'5'], u'time': [17424, 18229, 18989, 19838, 22087, 23241, 25213]}, u'edge': {u'target': [], u'time': []}}, u'mouseout': {u'state': {u'target': [], u'time': []}, u'edge': {u'target': [], u'time': []}}}",,,"[62237, 923, 6932]",48.0,,415102,4.0,4.0,mouselab-mdp,,0
"[68272, 77321, 78970]","[u'left', u'left', u'up']",,,"[3, 0, 1]",,"[u'1', 4, 8, 14]","{u'mouseover': {u'state': {u'target': [], u'time': []}, u'edge': {u'target': [], u'time': []}}, u'click': {u'state': {u'target': [u'3', u'7', u'2', u'4', u'8', u'15', u'14', u'9'], u'time': [24022, 24748, 26070, 27876, 28788, 29938, 30731, 33907]}, u'edge': {u'target': [], u'time': []}}, u'mouseout': {u'state': {u'target': [], u'time': []}, u'edge': {u'target': [], u'time': []}}}",,,"[68272, 510, 519]",54.0,,512083,5.0,0.0,mouselab-mdp,,0
"[48524, 57434, 59169]","[u'up', u'up', u'right']",,,"[3, 0, 1]",,"[u'1', 3, 7, 13]","{u'mouseover': {u'state': {u'target': [], u'time': []}, u'edge': {u'target': [], u'time': []}}, u'click': {u'state': {u'target': [u'3', u'7', u'12', u'13', u'17', u'9', u'5'], u'time': [3374, 4423, 5973, 6926, 8126, 9014, 9806]}, u'edge': {u'target': [], u'time': []}}, u'mouseout': {u'state': {u'target': [], u'time': []}, u'edge': {u'target': [], u'time': []}}}",,,"[48523, 690, 734]",48.0,,582560,6.0,3.0,mouselab-mdp,,0
"[55153, 65477, 67044]","[u'up', u'up', u'right']",,,"[3, 0, 1]",,"[u'1', 3, 7, 13]","{u'mouseover': {u'state': {u'target': [], u'time': []}, u'edge': {u'target': [], u'time': []}}, u'click': {u'state': {u'target': [u'3', u'13', u'11', u'9', u'5', u'7', u'12', u'15', u'8', u'4'], u'time': [10693, 11681, 12753, 15249, 16194, 17288, 18849, 23849, 25129, 27498]}, u'edge': {u'target': [], u'time': []}}, u'mouseout': {u'state': {u'target': [], u'time': []}, u'edge': {u'target': [], u'time': []}}}",,,"[55153, 1075, 576]",45.0,,658547,7.0,2.0,mouselab-mdp,,0
"[47113, 55603, 58499]","[u'right', u'right', u'down']",,,"[3, 0, 1]",,"[u'1', 2, 6, 11]","{u'mouseover': {u'state': {u'target': [], u'time': []}, u'edge': {u'target': [], u'time': []}}, u'click': {u'state': {u'target': [u'3', u'2', u'11', u'6', u'10'], u'time': [2782, 3772, 4836, 5540, 7082]}, u'edge': {u'target': [], u'time': []}}, u'mouseout': {u'state': {u'target': [], u'time': []}, u'edge': {u'target': [], u'time': []}}}",,,"[47112, 964, 1871]",53.0,,724500,8.0,8.0,mouselab-mdp,,0
"[50277, 59270, 63680]","[u'up', u'up', u'right']",,,"[3, 0, 1]",,"[u'1', 3, 7, 13]","{u'mouseover': {u'state': {u'target': [], u'time': []}, u'edge': {u'target': [], u'time': []}}, u'click': {u'state': {u'target': [u'3', u'7', u'13', u'12', u'2', u'9', u'5', u'8'], u'time': [19538, 21713, 23346, 24218, 25440, 26601, 28713, 31105]}, u'edge': {u'target': [], u'time': []}}, u'mouseout': {u'state': {u'target': [], u'time': []}, u'edge': {u'target': [], u'time': []}}}",,,"[50277, 593, 3356]",32.0,,794113,9.0,1.0,mouselab-mdp,,0
"[62348, 75889, 78052]","[u'up', u'up', u'left']",,,"[3, 0, 1]",,"[u'1', 3, 7, 12]","{u'mouseover': {u'state': {u'target': [], u'time': []}, u'edge': {u'target': [], u'time': []}}, u'click': {u'state': {u'target': [u'3', u'2', u'7', u'12', u'13', u'5', u'9', u'17', u'4', u'8'], u'time': [22786, 24888, 25721, 26992, 28057, 29312, 29959, 30863, 34479, 35943]}, u'edge': {u'target': [], u'time': []}}, u'mouseout': {u'state': {u'target': [], u'time': []}, u'edge': {u'target': [], u'time': []}}}",,,"[62348, 4253, 1148]",37.0,,878222,10.0,5.0,mouselab-mdp,,0
"[47371, 53844, 54999]","[u'up', u'up', u'left']",,,[],,"[u'1', 3, 7, 12]","{u'mouseover': {u'state': {u'target': [], u'time': []}, u'edge': {u'target': [], u'time': []}}, u'click': {u'state': {u'target': [u'3', u'7', u'12', u'13', u'11', u'2', u'8', u'9', u'5', u'17'], u'time': [9695, 10782, 11366, 12598, 14431, 16758, 19166, 25167, 26174, 28551]}, u'edge': {u'target': [], u'time': []}}, u'mouseout': {u'state': {u'target': [], u'time': []}, u'edge': {u'target': [], u'time': []}}}",,,"[47371, 5960, 645]",39.0,,937845,11.0,15.0,mouselab-mdp,,0
"[56631, 58703, 60820]","[u'up', u'up', u'left']",,,[],,"[u'1', 3, 7, 12]","{u'mouseover': {u'state': {u'target': [], u'time': []}, u'edge': {u'target': [], u'time': []}}, u'click': {u'state': {u'target': [u'3', u'7', u'12', u'13', u'8', u'14'], u'time': [17495, 18720, 19743, 20593, 25935, 27351]}, u'edge': {u'target': [], u'time': []}}, u'mouseout': {u'state': {u'target': [], u'time': []}, u'edge': {u'target': [], u'time': []}}}",,,"[56631, 1566, 1610]",46.0,,1004804,12.0,12.0,mouselab-mdp,,0
"[50540, 52045, 53796]","[u'right', u'right', u'down']",,,[],,"[u'1', 2, 6, 11]","{u'mouseover': {u'state': {u'target': [], u'time': []}, u'edge': {u'target': [], u'time': []}}, u'click': {u'state': {u'target': [u'3', u'5', u'4', u'6', u'12', u'9', u'2', u'7', u'11', u'10'], u'time': [7433, 9975, 12191, 13247, 15536, 16895, 18151, 20135, 23720, 25863]}, u'edge': {u'target': [], u'time': []}}, u'mouseout': {u'state': {u'target': [], u'time': []}, u'edge': {u'target': [], u'time': []}}}",,,"[50540, 992, 1239]",18.0,,1064868,13.0,11.0,mouselab-mdp,,0
"[47266, 51263, 54234]","[u'right', u'right', u'up']",,,[],,"[u'1', 2, 6, 10]","{u'mouseover': {u'state': {u'target': [], u'time': []}, u'edge': {u'target': [], u'time': []}}, u'click': {u'state': {u'target': [u'3', u'2', u'6', u'11', u'10', u'5', u'9', u'17', u'16', u'8'], u'time': [5466, 6361, 7361, 8040, 9032, 10169, 10850, 11419, 12233, 14104]}, u'edge': {u'target': [], u'time': []}}, u'mouseout': {u'state': {u'target': [], u'time': []}, u'edge': {u'target': [], u'time': []}}}",,,"[47266, 3490, 2450]",43.0,,1122826,14.0,10.0,mouselab-mdp,,0
"[50017, 54747, 57231]","[u'up', u'up', u'left']",,,[],,"[u'1', 3, 7, 12]","{u'mouseover': {u'state': {u'target': [], u'time': []}, u'edge': {u'target': [], u'time': []}}, u'click': {u'state': {u'target': [u'3', u'7', u'12', u'15', u'11', u'10', u'13', u'9'], u'time': [13436, 14235, 15075, 21117, 22564, 24443, 25243, 26563]}, u'edge': {u'target': [], u'time': []}}, u'mouseout': {u'state': {u'target': [], u'time': []}, u'edge': {u'target': [], u'time': []}}}",,,"[50016, 4213, 1966]",44.0,,1189802,15.0,14.0,mouselab-mdp,,0
"[47968, 49340, 50770]","[u'up', u'up', u'left']",,,[],,"[u'1', 3, 7, 12]","{u'mouseover': {u'state': {u'target': [], u'time': []}, u'edge': {u'target': [], u'time': []}}, u'click': {u'state': {u'target': [u'3', u'7', u'12', u'13'], u'time': [9860, 10971, 11898, 12962]}, u'edge': {u'target': [], u'time': []}}, u'mouseout': {u'state': {u'target': [], u'time': []}, u'edge': {u'target': [], u'time': []}}}",,,"[47968, 854, 911]",46.0,,1246102,16.0,13.0,mouselab-mdp,,0
"[46721, 61480, 62698]","[u'right', u'right', u'down']",,,"[3, 0, 1]",,"[u'1', 2, 6, 11]","{u'mouseover': {u'state': {u'target': [], u'time': []}, u'edge': {u'target': [], u'time': []}}, u'click': {u'state': {u'target': [u'3', u'13', u'2', u'6', u'11', u'15', u'17'], u'time': [3812, 5044, 6013, 7263, 7938, 12607, 13858]}, u'edge': {u'target': [], u'time': []}}, u'mouseout': {u'state': {u'target': [], u'time': []}, u'edge': {u'target': [], u'time': []}}}",,,"[46720, 6828, 235]",51.0,,254250,1.0,8.0,mouselab-mdp,,2
"[54250, 68267, 72751]","[u'right', u'right', u'down']",,,"[3, 0, 1]",,"[u'1', 2, 6, 11]","{u'mouseover': {u'state': {u'target': [], u'time': []}, u'edge': {u'target': [], u'time': []}}, u'click': {u'state': {u'target': [u'3', u'7', u'11', u'6', u'2', u'13', u'12', u'5', u'17', u'9'], u'time': [11016, 12575, 14596, 15706, 16565, 24675, 26441, 36613, 45645, 47894]}, u'edge': {u'target': [], u'time': []}}, u'mouseout': {u'state': {u'target': [], u'time': []}, u'edge': {u'target': [], u'time': []}}}",,,"[54250, 5985, 3597]",47.0,,334677,2.0,6.0,mouselab-mdp,,2
"[49146, 61318, 65162]","[u'up', u'up', u'left']",,,"[3, 0, 1]",,"[u'1', 3, 7, 12]","{u'mouseover': {u'state': {u'target': [], u'time': []}, u'edge': {u'target': [], u'time': []}}, u'click': {u'state': {u'target': [u'2', u'3', u'7', u'13', u'12', u'8', u'14', u'6', u'9', u'16'], u'time': [16383, 17273, 18116, 18820, 19774, 22008, 22679, 25304, 27774, 30211]}, u'edge': {u'target': [], u'time': []}}, u'mouseout': {u'state': {u'target': [], u'time': []}, u'edge': {u'target': [], u'time': []}}}",,,"[49146, 4375, 2938]",37.0,,407699,3.0,5.0,mouselab-mdp,,2
"[45680, 57930, 60415]","[u'down', u'down', u'right']",,,"[3, 0, 1]",,"[u'1', 5, 9, 17]","{u'mouseover': {u'state': {u'target': [], u'time': []}, u'edge': {u'target': [], u'time': []}}, u'click': {u'state': {u'target': [u'3', u'8', u'6', u'9', u'5', u'17', u'16', u'7', u'4', u'14'], u'time': [8292, 11572, 13275, 14807, 16010, 19449, 22541, 24012, 28479, 29979]}, u'edge': {u'target': [], u'time': []}}, u'mouseout': {u'state': {u'target': [], u'time': []}, u'edge': {u'target': [], u'time': []}}}",,,"[45680, 4297, 1546]",41.0,,475193,4.0,9.0,mouselab-mdp,,2
"[54778, 66106, 71982]","[u'left', u'left', u'up']",,,"[3, 0, 1]",,"[u'1', 4, 8, 14]","{u'mouseover': {u'state': {u'target': [], u'time': []}, u'edge': {u'target': [], u'time': []}}, u'click': {u'state': {u'target': [u'3', u'4', u'2', u'11', u'13', u'7', u'8', u'15', u'14'], u'time': [2530, 3576, 5701, 7373, 8982, 10014, 11185, 12154, 12922]}, u'edge': {u'target': [], u'time': []}}, u'mouseout': {u'state': {u'target': [], u'time': []}, u'edge': {u'target': [], u'time': []}}}",,,"[54778, 3484, 4963]",53.0,,554866,5.0,0.0,mouselab-mdp,,2
"[49112, 62811, 64139]","[u'up', u'up', u'right']",,,"[3, 0, 1]",,"[u'1', 3, 7, 13]","{u'mouseover': {u'state': {u'target': [], u'time': []}, u'edge': {u'target': [], u'time': []}}, u'click': {u'state': {u'target': [u'3', u'7', u'15', u'8', u'12', u'13', u'6', u'10', u'17', u'9', u'5'], u'time': [5110, 5875, 7562, 8734, 10187, 11500, 13860, 14563, 24752, 25501, 28845]}, u'edge': {u'target': [], u'time': []}}, u'mouseout': {u'state': {u'target': [], u'time': []}, u'edge': {u'target': [], u'time': []}}}",,,"[49111, 5188, 416]",44.0,,629031,6.0,4.0,mouselab-mdp,,2
"[49426, 63442, 68098]","[u'up', u'up', u'right']",,,"[3, 0, 1]",,"[u'1', 3, 7, 13]","{u'mouseover': {u'state': {u'target': [], u'time': []}, u'edge': {u'target': [], u'time': []}}, u'click': {u'state': {u'target': [u'9', u'7', u'12', u'13', u'10', u'8', u'3', u'2', u'5', u'17'], u'time': [7678, 9223, 10239, 11459, 12911, 14505, 17209, 18989, 20599, 32336]}, u'edge': {u'target': [], u'time': []}}, u'mouseout': {u'state': {u'target': [], u'time': []}, u'edge': {u'target': [], u'time': []}}}",,,"[49426, 6000, 3769]",30.0,,704258,7.0,1.0,mouselab-mdp,,2
"[51112, 60671, 62468]","[u'up', u'up', u'right']",,,"[3, 0, 1]",,"[u'1', 3, 7, 13]","{u'mouseover': {u'state': {u'target': [], u'time': []}, u'edge': {u'target': [], u'time': []}}, u'click': {u'state': {u'target': [u'3', u'7', u'12', u'13', u'17', u'9', u'5'], u'time': [10705, 11719, 13470, 14501, 19657, 21282, 22095]}, u'edge': {u'target': [], u'time': []}}, u'mouseout': {u'state': {u'target': [], u'time': []}, u'edge': {u'target': [], u'time': []}}}",,,"[51112, 2281, 897]",48.0,,774070,8.0,3.0,mouselab-mdp,,2
"[47844, 57513, 64693]","[u'up', u'up', u'right']",,,"[3, 0, 1]",,"[u'1', 3, 7, 13]","{u'mouseover': {u'state': {u'target': [], u'time': []}, u'edge': {u'target': [], u'time': []}}, u'click': {u'state': {u'target': [u'3', u'7', u'12', u'13', u'16'], u'time': [7161, 8534, 9301, 10317, 14083]}, u'edge': {u'target': [], u'time': []}}, u'mouseout': {u'state': {u'target': [], u'time': []}, u'edge': {u'target': [], u'time': []}}}",,,"[47843, 3059, 6311]",50.0,,851059,9.0,2.0,mouselab-mdp,,2
"[55227, 65180, 66290]","[u'left', u'left', u'up']",,,"[3, 0, 1]",,"[u'1', 4, 8, 14]","{u'mouseover': {u'state': {u'target': [], u'time': []}, u'edge': {u'target': [], u'time': []}}, u'click': {u'state': {u'target': [u'3', u'2', u'6', u'5', u'10', u'13', u'8', u'4', u'14'], u'time': [5962, 6883, 7946, 9352, 10868, 11899, 13602, 14399, 15274]}, u'edge': {u'target': [], u'time': []}}, u'mouseout': {u'state': {u'target': [], u'time': []}, u'edge': {u'target': [], u'time': []}}}",,,"[55227, 1797, 120]",19.0,,936876,10.0,7.0,mouselab-mdp,,2
"[55382, 61633, 63711]","[u'up', u'up', u'left']",,,[],,"[u'1', 3, 7, 12]","{u'mouseover': {u'state': {u'target': [], u'time': []}, u'edge': {u'target': [], u'time': []}}, u'click': {u'state': {u'target': [u'14', u'13', u'7', u'10', u'3', u'17', u'12'], u'time': [6681, 8180, 8759, 10634, 11931, 22916, 27572]}, u'edge': {u'target': [], u'time': []}}, u'mouseout': {u'state': {u'target': [], u'time': []}, u'edge': {u'target': [], u'time': []}}}",,,"[55381, 5727, 1538]",45.0,,1006732,11.0,12.0,mouselab-mdp,,2
"[49073, 51200, 53559]","[u'up', u'up', u'left']",,,[],,"[u'1', 3, 7, 12]","{u'mouseover': {u'state': {u'target': [], u'time': []}, u'edge': {u'target': [], u'time': []}}, u'click': {u'state': {u'target': [u'7', u'3', u'12', u'13', u'15', u'14', u'10', u'6', u'2', u'11'], u'time': [5765, 6561, 8015, 9123, 10576, 11498, 12764, 13576, 14264, 17781]}, u'edge': {u'target': [], u'time': []}}, u'mouseout': {u'state': {u'target': [], u'time': []}, u'edge': {u'target': [], u'time': []}}}",,,"[49073, 1607, 1836]",40.0,,1066917,12.0,13.0,mouselab-mdp,,2
"[53855, 57011, 58793]","[u'up', u'up', u'left']",,,[],,"[u'1', 3, 7, 12]","{u'mouseover': {u'state': {u'target': [], u'time': []}, u'edge': {u'target': [], u'time': []}}, u'click': {u'state': {u'target': [u'3', u'2', u'4', u'16', u'7', u'12', u'13'], u'time': [4138, 10328, 11716, 16185, 18357, 20248, 23015]}, u'edge': {u'target': [], u'time': []}}, u'mouseout': {u'state': {u'target': [], u'time': []}, u'edge': {u'target': [], u'time': []}}}",,,"[53855, 2639, 1255]",42.0,,1135903,13.0,15.0,mouselab-mdp,,2
"[47170, 49483, 51112]","[u'right', u'right', u'up']",,,[],,"[u'1', 2, 6, 10]","{u'mouseover': {u'state': {u'target': [], u'time': []}, u'edge': {u'target': [], u'time': []}}, u'click': {u'state': {u'target': [u'3', u'4', u'8', u'14', u'2', u'6', u'11', u'10'], u'time': [4579, 6172, 7343, 8172, 9297, 10344, 10937, 11687]}, u'edge': {u'target': [], u'time': []}}, u'mouseout': {u'state': {u'target': [], u'time': []}, u'edge': {u'target': [], u'time': []}}}",,,"[47170, 1781, 1098]",45.0,,1193263,14.0,10.0,mouselab-mdp,,2
"[49755, 52646, 54255]","[u'right', u'right', u'down']",,,[],,"[u'1', 2, 6, 11]","{u'mouseover': {u'state': {u'target': [], u'time': []}, u'edge': {u'target': [], u'time': []}}, u'click': {u'state': {u'target': [u'3', u'7', u'2', u'5', u'4', u'9', u'16', u'17', u'6', u'10', u'11'], u'time': [6492, 7678, 8850, 9492, 11116, 13695, 14413, 15460, 20033, 20757, 21773]}, u'edge': {u'target': [], u'time': []}}, u'mouseout': {u'state': {u'target': [], u'time': []}, u'edge': {u'target': [], u'time': []}}}",,,"[49755, 2374, 1083]",17.0,,1251860,15.0,11.0,mouselab-mdp,,2
"[49755, 51880, 52818]","[u'up', u'up', u'left']",,,[],,"[u'1', 3, 7, 12]","{u'mouseover': {u'state': {u'target': [], u'time': []}, u'edge': {u'target': [], u'time': []}}, u'click': {u'state': {u'target': [u'3', u'7', u'12', u'13', u'4', u'8', u'14', u'15'], u'time': [2507, 3537, 4272, 5803, 15148, 16289, 18319, 20826]}, u'edge': {u'target': [], u'time': []}}, u'mouseout': {u'state': {u'target': [], u'time': []}, u'edge': {u'target': [], u'time': []}}}",,,"[49755, 1593, 416]",44.0,,1310088,16.0,14.0,mouselab-mdp,,2
"[9304, 72324, 81468]","[u'left', u'left', u'down']",,,"[26, 2, 7]",,"[u'1', 4, 8, 15]","{u'mouseover': {u'state': {u'target': [], u'time': []}, u'edge': {u'target': [], u'time': []}}, u'click': {u'state': {u'target': [u'8'], u'time': [56160]}, u'edge': {u'target': [], u'time': []}}, u'mouseout': {u'state': {u'target': [], u'time': []}, u'edge': {u'target': [], u'time': []}}}",,,"[9304, 34513, 5684]",24.0,,350126,1.0,2.0,mouselab-mdp,,3
"[12592, 26772, 40403]","[u'down', u'down', u'right']",,,"[6, 0, 0]",,"[u'1', 5, 9, 17]","{u'mouseover': {u'state': {u'target': [], u'time': []}, u'edge': {u'target': [], u'time': []}}, u'click': {u'state': {u'target': [u'5', u'17', u'16'], u'time': [9617, 35619, 38246]}, u'edge': {u'target': [], u'time': []}}, u'mouseout': {u'state': {u'target': [], u'time': []}, u'edge': {u'target': [], u'time': []}}}",,,"[12592, 5378, 12551]",48.0,,411687,2.0,9.0,mouselab-mdp,,3
"[11354, 24752, 33642]","[u'up', u'up', u'right']",,,"[8, 0, 0]",,"[u'1', 3, 7, 13]","{u'mouseover': {u'state': {u'target': [], u'time': []}, u'edge': {u'target': [], u'time': []}}, u'click': {u'state': {u'target': [u'3', u'5', u'2', u'13', u'12'], u'time': [2496, 5081, 6871, 30155, 31573]}, u'edge': {u'target': [], u'time': []}}, u'mouseout': {u'state': {u'target': [], u'time': []}, u'edge': {u'target': [], u'time': []}}}",,,"[11354, 1971, 7860]",16.0,,474773,3.0,6.0,mouselab-mdp,,3
"[9486, 19732, 27885]","[u'down', u'down', u'left']",,,"[4, 0, 0]",,"[u'1', 5, 9, 16]","{u'mouseover': {u'state': {u'target': [], u'time': []}, u'edge': {u'target': [], u'time': []}}, u'click': {u'state': {u'target': [u'4', u'5', u'3', u'2', u'16', u'17'], u'time': [3369, 4878, 6275, 7472, 24819, 26257]}, u'edge': {u'target': [], u'time': []}}, u'mouseout': {u'state': {u'target': [], u'time': []}, u'edge': {u'target': [], u'time': []}}}",,,"[9486, 2544, 7126]",19.0,,530726,4.0,8.0,mouselab-mdp,,3
"[11713, 22305, 30037]","[u'down', u'down', u'right']",,,"[3, 0, 0]",,"[u'1', 5, 9, 17]","{u'mouseover': {u'state': {u'target': [], u'time': []}, u'edge': {u'target': [], u'time': []}}, u'click': {u'state': {u'target': [u'2', u'4', u'3', u'5', u'16', u'17'], u'time': [3210, 5846, 7196, 9860, 26673, 27940]}, u'edge': {u'target': [], u'time': []}}, u'mouseout': {u'state': {u'target': [], u'time': []}, u'edge': {u'target': [], u'time': []}}}",,,"[11713, 3750, 6678]",-5.0,,587143,5.0,1.0,mouselab-mdp,,3
"[20414, 25467, 30505]","[u'up', u'up', u'right']",,,"[0, 0, 0]",,"[u'1', 3, 7, 13]","{u'mouseover': {u'state': {u'target': [], u'time': []}, u'edge': {u'target': [], u'time': []}}, u'click': {u'state': {u'target': [u'2', u'5', u'4', u'3', u'6', u'11', u'7', u'13'], u'time': [3638, 5721, 6998, 8436, 10116, 13967, 17547, 28721]}, u'edge': {u'target': [], u'time': []}}, u'mouseout': {u'state': {u'target': [], u'time': []}, u'edge': {u'target': [], u'time': []}}}",,,"[20414, 4, 3990]",47.0,,646468,6.0,4.0,mouselab-mdp,,3
"[16775, 22664, 26149]","[u'left', u'left', u'up']",,,"[0, 0, 0]",,"[u'1', 4, 8, 14]","{u'mouseover': {u'state': {u'target': [], u'time': []}, u'edge': {u'target': [], u'time': []}}, u'click': {u'state': {u'target': [u'3', u'2', u'5', u'4', u'6', u'8', u'14'], u'time': [3147, 4584, 6072, 7379, 9169, 11280, 14507]}, u'edge': {u'target': [], u'time': []}}, u'mouseout': {u'state': {u'target': [], u'time': []}, u'edge': {u'target': [], u'time': []}}}",,,"[16775, 991, 2460]",21.0,,699672,7.0,7.0,mouselab-mdp,,3
"[16031, 20801, 23268]","[u'left', u'left', u'up']",,,"[0, 0, 0]",,"[u'1', 4, 8, 14]","{u'mouseover': {u'state': {u'target': [], u'time': []}, u'edge': {u'target': [], u'time': []}}, u'click': {u'state': {u'target': [u'3', u'4', u'5', u'2', u'7', u'8', u'15', u'14'], u'time': [3636, 4792, 6149, 7787, 9498, 10884, 12865, 14351]}, u'edge': {u'target': [], u'time': []}}, u'mouseout': {u'state': {u'target': [], u'time': []}, u'edge': {u'target': [], u'time': []}}}",,,"[16031, 4, 1485]",54.0,,752516,8.0,0.0,mouselab-mdp,,3
"[15032, 19721, 22274]","[u'up', u'up', u'left']",,,"[0, 0, 0]",,"[u'1', 3, 7, 12]","{u'mouseover': {u'state': {u'target': [], u'time': []}, u'edge': {u'target': [], u'time': []}}, u'click': {u'state': {u'target': [u'3', u'4', u'5', u'2', u'9', u'7', u'13', u'12'], u'time': [3103, 4350, 5617, 7074, 8433, 10342, 11920, 13277]}, u'edge': {u'target': [], u'time': []}}, u'mouseout': {u'state': {u'target': [], u'time': []}, u'edge': {u'target': [], u'time': []}}}",,,"[15032, 4, 1633]",39.0,,805394,9.0,5.0,mouselab-mdp,,3
"[13483, 17303, 21948]","[u'up', u'up', u'right']",,,"[0, 0, 0]",,"[u'1', 3, 7, 13]","{u'mouseover': {u'state': {u'target': [], u'time': []}, u'edge': {u'target': [], u'time': []}}, u'click': {u'state': {u'target': [u'3', u'2', u'7', u'6', u'13'], u'time': [2827, 4337, 7230, 9221, 20051]}, u'edge': {u'target': [], u'time': []}}, u'mouseout': {u'state': {u'target': [], u'time': []}, u'edge': {u'target': [], u'time': []}}}",,,"[13483, 4, 3583]",50.0,,858257,10.0,3.0,mouselab-mdp,,3
"[12724, 16616, 21662]","[u'up', u'up', u'left']",,,[],,"[u'1', 3, 7, 12]","{u'mouseover': {u'state': {u'target': [], u'time': []}, u'edge': {u'target': [], u'time': []}}, u'click': {u'state': {u'target': [u'3', u'4', u'5', u'2', u'13', u'12'], u'time': [3426, 4973, 6561, 7768, 18544, 19971]}, u'edge': {u'target': [], u'time': []}}, u'mouseout': {u'state': {u'target': [], u'time': []}, u'edge': {u'target': [], u'time': []}}}",,,"[12724, 3405, 4549]",43.0,,915006,11.0,15.0,mouselab-mdp,,3
"[9260, 12308, 17197]","[u'left', u'left', u'down']",,,[],,"[u'1', 4, 8, 15]","{u'mouseover': {u'state': {u'target': [], u'time': []}, u'edge': {u'target': [], u'time': []}}, u'click': {u'state': {u'target': [u'3', u'4', u'5', u'2', u'14'], u'time': [2792, 3957, 5304, 6611, 14601]}, u'edge': {u'target': [], u'time': []}}, u'mouseout': {u'state': {u'target': [], u'time': []}, u'edge': {u'target': [], u'time': []}}}",,,"[9260, 2547, 4387]",12.0,,964702,12.0,10.0,mouselab-mdp,,3
"[7894, 10364, 15319]","[u'up', u'up', u'left']",,,[],,"[u'1', 3, 7, 12]","{u'mouseover': {u'state': {u'target': [], u'time': []}, u'edge': {u'target': [], u'time': []}}, u'click': {u'state': {u'target': [u'3', u'4', u'5', u'2', u'13', u'12'], u'time': [1838, 3044, 4199, 5456, 12743, 13857]}, u'edge': {u'target': [], u'time': []}}, u'mouseout': {u'state': {u'target': [], u'time': []}, u'edge': {u'target': [], u'time': []}}}",,,"[7894, 1977, 4465]",46.0,,1013531,13.0,14.0,mouselab-mdp,,3
"[8401, 9385, 14385]","[u'up', u'up', u'left']",,,[],,"[u'1', 3, 7, 12]","{u'mouseover': {u'state': {u'target': [], u'time': []}, u'edge': {u'target': [], u'time': []}}, u'click': {u'state': {u'target': [u'3', u'4', u'5', u'2', u'12', u'13'], u'time': [2846, 3912, 5128, 6445, 11751, 12956]}, u'edge': {u'target': [], u'time': []}}, u'mouseout': {u'state': {u'target': [], u'time': []}, u'edge': {u'target': [], u'time': []}}}",,,"[8401, 474, 4489]",46.0,,1061986,14.0,12.0,mouselab-mdp,,3
"[7408, 9021, 16470]","[u'down', u'down', u'left']",,,[],,"[u'1', 5, 9, 16]","{u'mouseover': {u'state': {u'target': [], u'time': []}, u'edge': {u'target': [], u'time': []}}, u'click': {u'state': {u'target': [u'3', u'4', u'5', u'2', u'17', u'16'], u'time': [2237, 3243, 4307, 5554, 11783, 12838]}, u'edge': {u'target': [], u'time': []}}, u'mouseout': {u'state': {u'target': [], u'time': []}, u'edge': {u'target': [], u'time': []}}}",,,"[7408, 1117, 6948]",-15.0,,1111508,15.0,11.0,mouselab-mdp,,3
"[10564, 11701, 19329]","[u'up', u'up', u'left']",,,[],,"[u'1', 3, 7, 12]","{u'mouseover': {u'state': {u'target': [], u'time': []}, u'edge': {u'target': [], u'time': []}}, u'click': {u'state': {u'target': [u'5', u'2', u'4', u'3', u'7', u'13', u'12'], u'time': [1621, 3882, 5230, 6355, 8558, 16084, 17561]}, u'edge': {u'target': [], u'time': []}}, u'mouseout': {u'state': {u'target': [], u'time': []}, u'edge': {u'target': [], u'time': []}}}",,,"[10564, 630, 7124]",43.0,,1163889,16.0,13.0,mouselab-mdp,,3
"[51447, 76725, 78253]","[u'left', u'left', u'up']",,,"[3, 0, 1]",,"[u'1', 4, 8, 14]","{u'mouseover': {u'state': {u'target': [], u'time': []}, u'edge': {u'target': [], u'time': []}}, u'click': {u'state': {u'target': [u'14', u'12', u'3', u'5', u'4', u'15', u'8', u'10', u'6', u'11', u'17', u'9', u'16', u'2', u'13', u'7'], u'time': [11020, 18101, 20792, 23272, 24560, 25879, 28321, 31357, 32292, 33270, 34628, 36588, 37484, 39115, 40243, 40912]}, u'edge': {u'target': [], u'time': []}}, u'mouseout': {u'state': {u'target': [], u'time': []}, u'edge': {u'target': [], u'time': []}}}",,,"[51444, 7178, 992]",-3.0,,274280,1.0,8.0,mouselab-mdp,,4
"[1749, 17237, 32231]","[u'left', u'left', u'down']",,,"[3, 0, 1]",,"[u'1', 4, 8, 15]","{u'mouseover': {u'state': {u'target': [], u'time': []}, u'edge': {u'target': [], u'time': []}}, u'click': {u'state': {u'target': [u'14', u'15', u'4', u'3', u'7'], u'time': [22857, 23863, 24831, 27743, 29394]}, u'edge': {u'target': [], u'time': []}}, u'mouseout': {u'state': {u'target': [], u'time': []}, u'edge': {u'target': [], u'time': []}}}",,,"[1749, 6749, 13078]",-1.0,,339875,2.0,6.0,mouselab-mdp,,4
"[21138, 36954, 64661]","[u'down', u'down', u'right']",,,"[3, 0, 1]",,"[u'1', 5, 9, 17]","{u'mouseover': {u'state': {u'target': [], u'time': []}, u'edge': {u'target': [], u'time': []}}, u'click': {u'state': {u'target': [u'3', u'7', u'12', u'13', u'4', u'8', u'14', u'15', u'16', u'9', u'5', u'17', u'11', u'6', u'10', u'2'], u'time': [1405, 2265, 3135, 4151, 5363, 6574, 7830, 8567, 9359, 10785, 11372, 12057, 13170, 13805, 14913, 16395]}, u'edge': {u'target': [], u'time': []}}, u'mouseout': {u'state': {u'target': [], u'time': []}, u'edge': {u'target': [], u'time': []}}}",,,"[21138, 913, 27176]",18.0,,410348,3.0,2.0,mouselab-mdp,,4
"[21967, 38956, 80398]","[u'down', u'down', u'right']",,,"[3, 0, 1]",,"[u'1', 5, 9, 17]","{u'mouseover': {u'state': {u'target': [], u'time': []}, u'edge': {u'target': [], u'time': []}}, u'click': {u'state': {u'target': [u'12', u'7', u'13', u'3', u'14', u'8', u'15', u'4', u'5', u'9', u'16', u'17', u'11', u'6', u'10'], u'time': [3411, 4104, 4770, 5491, 6404, 6850, 7857, 9275, 11468, 11924, 12470, 13290, 14378, 14953, 15635]}, u'edge': {u'target': [], u'time': []}}, u'mouseout': {u'state': {u'target': [], u'time': []}, u'edge': {u'target': [], u'time': []}}}",,,"[21967, 1865, 40547]",19.0,,501094,4.0,3.0,mouselab-mdp,,4
"[19238, 39269, 40855]","[u'left', u'left', u'up']",,,"[3, 0, 1]",,"[u'1', 4, 8, 14]","{u'mouseover': {u'state': {u'target': [], u'time': []}, u'edge': {u'target': [], u'time': []}}, u'click': {u'state': {u'target': [u'5', u'3', u'2', u'4', u'7', u'13', u'12', u'14', u'8'], u'time': [2642, 4046, 4946, 5835, 10935, 11999, 13653, 15419, 16259]}, u'edge': {u'target': [], u'time': []}}, u'mouseout': {u'state': {u'target': [], u'time': []}, u'edge': {u'target': [], u'time': []}}}",,,"[19238, 3917, 8]",53.0,,572840,5.0,0.0,mouselab-mdp,,4
"[32307, 50030, 52207]","[u'up', u'up', u'left']",,,"[3, 0, 1]",,"[u'1', 3, 7, 12]","{u'mouseover': {u'state': {u'target': [], u'time': []}, u'edge': {u'target': [], u'time': []}}, u'click': {u'state': {u'target': [u'3', u'4', u'5', u'2', u'16', u'9', u'17', u'7', u'12', u'13', u'14', u'8', u'15', u'11', u'6', u'10'], u'time': [1530, 2241, 3173, 4766, 8152, 10515, 11919, 17765, 19073, 20206, 21341, 22058, 22729, 25240, 25935, 27048]}, u'edge': {u'target': [], u'time': []}}, u'mouseout': {u'state': {u'target': [], u'time': []}, u'edge': {u'target': [], u'time': []}}}",,,"[32307, 787, 1650]",31.0,,698257,6.0,5.0,mouselab-mdp,,4
"[27121, 47799, 48793]","[u'up', u'up', u'right']",,,"[3, 0, 1]",,"[u'1', 3, 7, 13]","{u'mouseover': {u'state': {u'target': [], u'time': []}, u'edge': {u'target': [], u'time': []}}, u'click': {u'state': {u'target': [u'3', u'4', u'5', u'2', u'6', u'10', u'11', u'8', u'12', u'7', u'13', u'15', u'14', u'16', u'9', u'17'], u'time': [3708, 4429, 5182, 6334, 7615, 8346, 8982, 11872, 15486, 16131, 17306, 19386, 20627, 22015, 23029, 24172]}, u'edge': {u'target': [], u'time': []}}, u'mouseout': {u'state': {u'target': [], u'time': []}, u'edge': {u'target': [], u'time': []}}}",,,"[27121, 525, 467]",39.0,,769379,7.0,4.0,mouselab-mdp,,4
"[22785, 40806, 42307]","[u'down', u'down', u'right']",,,"[3, 0, 1]",,"[u'1', 5, 9, 17]","{u'mouseover': {u'state': {u'target': [], u'time': []}, u'edge': {u'target': [], u'time': []}}, u'click': {u'state': {u'target': [u'4', u'3', u'2', u'5', u'8', u'14', u'15', u'16', u'9', u'17', u'12', u'7', u'13', u'10', u'6', u'11'], u'time': [1325, 2202, 3288, 4070, 6101, 6852, 7674, 10524, 12058, 13077, 15936, 16504, 17178, 19513, 19906, 21475]}, u'edge': {u'target': [], u'time': []}}, u'mouseout': {u'state': {u'target': [], u'time': []}, u'edge': {u'target': [], u'time': []}}}",,,"[22785, 473, 969]",35.0,,836445,8.0,9.0,mouselab-mdp,,4
"[22075, 43234, 44561]","[u'left', u'left', u'up']",,,"[3, 0, 1]",,"[u'1', 4, 8, 14]","{u'mouseover': {u'state': {u'target': [], u'time': []}, u'edge': {u'target': [], u'time': []}}, u'click': {u'state': {u'target': [u'3', u'4', u'5', u'2', u'10', u'6', u'11', u'17', u'9', u'16', u'15', u'8', u'14', u'12', u'7', u'13'], u'time': [1900, 3092, 3980, 5248, 7962, 8884, 9879, 11032, 11568, 12700, 13922, 14591, 15840, 17809, 19608, 20213]}, u'edge': {u'target': [], u'time': []}}, u'mouseout': {u'state': {u'target': [], u'time': []}, u'edge': {u'target': [], u'time': []}}}",,,"[22075, 1063, 785]",12.0,,926330,9.0,7.0,mouselab-mdp,,4
"[13841, 31122, 32977]","[u'up', u'up', u'right']",,,"[3, 0, 1]",,"[u'1', 3, 7, 13]","{u'mouseover': {u'state': {u'target': [], u'time': []}, u'edge': {u'target': [], u'time': []}}, u'click': {u'state': {u'target': [u'4', u'3', u'2', u'5', u'16', u'9', u'17', u'7', u'12', u'13'], u'time': [1640, 2449, 3134, 3760, 5750, 6326, 6980, 8523, 9628, 10195]}, u'edge': {u'target': [], u'time': []}}, u'mouseout': {u'state': {u'target': [], u'time': []}, u'edge': {u'target': [], u'time': []}}}",,,"[13840, 306, 471]",30.0,,1004753,10.0,1.0,mouselab-mdp,,4
"[15784, 26163, 27605]","[u'right', u'right', u'down']",,,[],,"[u'1', 2, 6, 11]","{u'mouseover': {u'state': {u'target': [], u'time': []}, u'edge': {u'target': [], u'time': []}}, u'click': {u'state': {u'target': [u'2', u'3', u'4', u'5', u'9', u'16', u'17', u'7', u'12', u'13', u'10', u'6', u'11', u'8', u'14', u'15'], u'time': [1754, 2421, 3006, 3584, 4643, 5129, 5654, 6885, 7338, 7794, 9473, 9899, 10421, 12109, 12549, 13320]}, u'edge': {u'target': [], u'time': []}}, u'mouseout': {u'state': {u'target': [], u'time': []}, u'edge': {u'target': [], u'time': []}}}",,,"[15784, 9853, 897]",12.0,,1056395,11.0,11.0,mouselab-mdp,,4
"[13540, 15038, 16683]","[u'up', u'up', u'left']",,,[],,"[u'1', 3, 7, 12]","{u'mouseover': {u'state': {u'target': [], u'time': []}, u'edge': {u'target': [], u'time': []}}, u'click': {u'state': {u'target': [u'3', u'4', u'5', u'2', u'7', u'12', u'13', u'14', u'8', u'15'], u'time': [2051, 2803, 3457, 5108, 6132, 6731, 7430, 10216, 10809, 11922]}, u'edge': {u'target': [], u'time': []}}, u'mouseout': {u'state': {u'target': [], u'time': []}, u'edge': {u'target': [], u'time': []}}}",,,"[13540, 978, 1122]",42.0,,1109476,12.0,14.0,mouselab-mdp,,4
"[25992, 27749, 28616]","[u'right', u'right', u'up']",,,[],,"[u'1', 2, 6, 10]","{u'mouseover': {u'state': {u'target': [], u'time': []}, u'edge': {u'target': [], u'time': []}}, u'click': {u'state': {u'target': [u'3', u'4', u'5', u'2', u'8', u'14', u'15', u'16', u'9', u'17', u'12', u'7', u'13', u'10', u'6', u'11'], u'time': [1636, 2379, 3040, 4203, 5266, 5834, 6654, 9752, 10337, 10952, 17387, 18584, 19124, 22618, 23457, 24219]}, u'edge': {u'target': [], u'time': []}}, u'mouseout': {u'state': {u'target': [], u'time': []}, u'edge': {u'target': [], u'time': []}}}",,,"[25991, 1244, 344]",37.0,,1160986,13.0,10.0,mouselab-mdp,,4
"[14239, 15012, 16180]","[u'up', u'up', u'left']",,,[],,"[u'1', 3, 7, 12]","{u'mouseover': {u'state': {u'target': [], u'time': []}, u'edge': {u'target': [], u'time': []}}, u'click': {u'state': {u'target': [u'3', u'4', u'5', u'2', u'7', u'12', u'13', u'8', u'14', u'15'], u'time': [2382, 3065, 3760, 4481, 5896, 6423, 7070, 10242, 12255, 13072]}, u'edge': {u'target': [], u'time': []}}, u'mouseout': {u'state': {u'target': [], u'time': []}, u'edge': {u'target': [], u'time': []}}}",,,"[14238, 258, 643]",42.0,,1211465,14.0,12.0,mouselab-mdp,,4
"[10225, 11467, 12227]","[u'up', u'up', u'left']",,,[],,"[u'1', 3, 7, 12]","{u'mouseover': {u'state': {u'target': [], u'time': []}, u'edge': {u'target': [], u'time': []}}, u'click': {u'state': {u'target': [u'3', u'4', u'5', u'2', u'7', u'12', u'13'], u'time': [1624, 2234, 3035, 4102, 5468, 6121, 6814]}, u'edge': {u'target': [], u'time': []}}, u'mouseout': {u'state': {u'target': [], u'time': []}, u'edge': {u'target': [], u'time': []}}}",,,"[10225, 720, 248]",42.0,,1260428,15.0,15.0,mouselab-mdp,,4
"[12538, 13814, 14597]","[u'up', u'up', u'left']",,,[],,"[u'1', 3, 7, 12]","{u'mouseover': {u'state': {u'target': [], u'time': []}, u'edge': {u'target': [], u'time': []}}, u'click': {u'state': {u'target': [u'4', u'3', u'2', u'5', u'12', u'7', u'13', u'8', u'14', u'15'], u'time': [1078, 2336, 3165, 3802, 4767, 5374, 5977, 8497, 9629, 10854]}, u'edge': {u'target': [], u'time': []}}, u'mouseout': {u'state': {u'target': [], u'time': []}, u'edge': {u'target': [], u'time': []}}}",,,"[12538, 764, 247]",40.0,,1310446,16.0,13.0,mouselab-mdp,,4
"[3313, 18968, 23726]","[u'left', u'left', u'up']",,,"[3, 0, 1]",,"[u'1', 4, 8, 14]","{u'mouseover': {u'state': {u'target': [], u'time': []}, u'edge': {u'target': [], u'time': []}}, u'click': {u'state': {u'target': [], u'time': []}, u'edge': {u'target': [], u'time': []}}, u'mouseout': {u'state': {u'target': [], u'time': []}, u'edge': {u'target': [], u'time': []}}}",,,"[3312, 3192, 1938]",12.0,,350222,1.0,2.0,mouselab-mdp,,6
"[6033, 19192, 29668]","[u'down', u'down', u'right']",,,"[3, 0, 1]",,"[u'1', 5, 9, 17]","{u'mouseover': {u'state': {u'target': [], u'time': []}, u'edge': {u'target': [], u'time': []}}, u'click': {u'state': {u'target': [], u'time': []}, u'edge': {u'target': [], u'time': []}}, u'mouseout': {u'state': {u'target': [], u'time': []}, u'edge': {u'target': [], u'time': []}}}",,,"[6033, 835, 7729]",1.0,,432027,2.0,1.0,mouselab-mdp,,6
"[6515, 20623, 26840]","[u'left', u'left', u'up']",,,"[3, 0, 1]",,"[u'1', 4, 8, 14]","{u'mouseover': {u'state': {u'target': [], u'time': []}, u'edge': {u'target': [], u'time': []}}, u'click': {u'state': {u'target': [], u'time': []}, u'edge': {u'target': [], u'time': []}}, u'mouseout': {u'state': {u'target': [], u'time': []}, u'edge': {u'target': [], u'time': []}}}",,,"[6515, 1805, 3507]",19.0,,505045,3.0,5.0,mouselab-mdp,,6
"[2166, 14891, 25339]","[u'left', u'left', u'up']",,,"[3, 0, 1]",,"[u'1', 4, 8, 14]","{u'mouseover': {u'state': {u'target': [], u'time': []}, u'edge': {u'target': [], u'time': []}}, u'click': {u'state': {u'target': [], u'time': []}, u'edge': {u'target': [], u'time': []}}, u'mouseout': {u'state': {u'target': [], u'time': []}, u'edge': {u'target': [], u'time': []}}}",,,"[2165, 598, 7445]",62.0,,576353,4.0,0.0,mouselab-mdp,,6
"[1514, 14548, 18581]","[u'left', u'left', u'down']",,,"[3, 0, 1]",,"[u'1', 4, 8, 15]","{u'mouseover': {u'state': {u'target': [], u'time': []}, u'edge': {u'target': [], u'time': []}}, u'click': {u'state': {u'target': [], u'time': []}, u'edge': {u'target': [], u'time': []}}, u'mouseout': {u'state': {u'target': [], u'time': []}, u'edge': {u'target': [], u'time': []}}}",,,"[1514, 573, 1262]",4.0,,643486,5.0,6.0,mouselab-mdp,,6
"[1384, 14363, 21745]","[u'up', u'up', u'right']",,,"[3, 0, 1]",,"[u'1', 3, 7, 13]","{u'mouseover': {u'state': {u'target': [], u'time': []}, u'edge': {u'target': [], u'time': []}}, u'click': {u'state': {u'target': [], u'time': []}, u'edge': {u'target': [], u'time': []}}, u'mouseout': {u'state': {u'target': [], u'time': []}, u'edge': {u'target': [], u'time': []}}}",,,"[1383, 562, 4521]",55.0,,713918,6.0,4.0,mouselab-mdp,,6
"[2942, 17045, 23514]","[u'up', u'up', u'right']",,,"[3, 0, 1]",,"[u'1', 3, 7, 13]","{u'mouseover': {u'state': {u'target': [], u'time': []}, u'edge': {u'target': [], u'time': []}}, u'click': {u'state': {u'target': [], u'time': []}, u'edge': {u'target': [], u'time': []}}, u'mouseout': {u'state': {u'target': [], u'time': []}, u'edge': {u'target': [], u'time': []}}}",,,"[2942, 1670, 3603]",55.0,,783594,7.0,3.0,mouselab-mdp,,6
"[10189, 24075, 32481]","[u'right', u'right', u'down']",,,"[3, 0, 1]",,"[u'1', 2, 6, 11]","{u'mouseover': {u'state': {u'target': [], u'time': []}, u'edge': {u'target': [], u'time': []}}, u'click': {u'state': {u'target': [], u'time': []}, u'edge': {u'target': [], u'time': []}}, u'mouseout': {u'state': {u'target': [], u'time': []}, u'edge': {u'target': [], u'time': []}}}",,,"[10189, 1276, 5542]",58.0,,854921,8.0,8.0,mouselab-mdp,,6
"[1675, 15798, 25891]","[u'down', u'down', u'right']",,,"[3, 0, 1]",,"[u'1', 5, 9, 17]","{u'mouseover': {u'state': {u'target': [], u'time': []}, u'edge': {u'target': [], u'time': []}}, u'click': {u'state': {u'target': [], u'time': []}, u'edge': {u'target': [], u'time': []}}, u'mouseout': {u'state': {u'target': [], u'time': []}, u'edge': {u'target': [], u'time': []}}}",,,"[1674, 1392, 7091]",-35.0,,925444,9.0,7.0,mouselab-mdp,,6
"[1559, 16111, 22299]","[u'right', u'right', u'up']",,,"[3, 0, 1]",,"[u'1', 2, 6, 10]","{u'mouseover': {u'state': {u'target': [], u'time': []}, u'edge': {u'target': [], u'time': []}}, u'click': {u'state': {u'target': [], u'time': []}, u'edge': {u'target': [], u'time': []}}, u'mouseout': {u'state': {u'target': [], u'time': []}, u'edge': {u'target': [], u'time': []}}}",,,"[1558, 2077, 3319]",-1.0,,997931,10.0,9.0,mouselab-mdp,,6
"[1727, 4655, 8353]","[u'left', u'left', u'up']",,,[],,"[u'1', 4, 8, 14]","{u'mouseover': {u'state': {u'target': [], u'time': []}, u'edge': {u'target': [], u'time': []}}, u'click': {u'state': {u'target': [], u'time': []}, u'edge': {u'target': [], u'time': []}}, u'mouseout': {u'state': {u'target': [], u'time': []}, u'edge': {u'target': [], u'time': []}}}",,,"[1727, 2403, 3172]",14.0,,1050973,11.0,14.0,mouselab-mdp,,6
"[947, 3041, 7254]","[u'up', u'up', u'left']",,,[],,"[u'1', 3, 7, 12]","{u'mouseover': {u'state': {u'target': [], u'time': []}, u'edge': {u'target': [], u'time': []}}, u'click': {u'state': {u'target': [], u'time': []}, u'edge': {u'target': [], u'time': []}}, u'mouseout': {u'state': {u'target': [], u'time': []}, u'edge': {u'target': [], u'time': []}}}",,,"[947, 1568, 3682]",52.0,,1102223,12.0,12.0,mouselab-mdp,,6
"[2005, 3917, 9186]","[u'left', u'left', u'down']",,,[],,"[u'1', 4, 8, 15]","{u'mouseover': {u'state': {u'target': [], u'time': []}, u'edge': {u'target': [], u'time': []}}, u'click': {u'state': {u'target': [], u'time': []}, u'edge': {u'target': [], u'time': []}}, u'mouseout': {u'state': {u'target': [], u'time': []}, u'edge': {u'target': [], u'time': []}}}",,,"[2004, 1387, 4741]",-2.0,,1154252,13.0,11.0,mouselab-mdp,,6
"[672, 4010, 8470]","[u'down', u'down', u'right']",,,[],,"[u'1', 5, 9, 17]","{u'mouseover': {u'state': {u'target': [], u'time': []}, u'edge': {u'target': [], u'time': []}}, u'click': {u'state': {u'target': [], u'time': []}, u'edge': {u'target': [], u'time': []}}, u'mouseout': {u'state': {u'target': [], u'time': []}, u'edge': {u'target': [], u'time': []}}}",,,"[672, 2800, 3936]",21.0,,1204608,14.0,15.0,mouselab-mdp,,6
"[2635, 4293, 7022]","[u'down', u'down', u'right']",,,[],,"[u'1', 5, 9, 17]","{u'mouseover': {u'state': {u'target': [], u'time': []}, u'edge': {u'target': [], u'time': []}}, u'click': {u'state': {u'target': [], u'time': []}, u'edge': {u'target': [], u'time': []}}, u'mouseout': {u'state': {u'target': [], u'time': []}, u'edge': {u'target': [], u'time': []}}}",,,"[2634, 1096, 2204]",16.0,,1258049,15.0,10.0,mouselab-mdp,,6
"[7183, 9267, 12104]","[u'up', u'up', u'left']",,,[],,"[u'1', 3, 7, 12]","{u'mouseover': {u'state': {u'target': [], u'time': []}, u'edge': {u'target': [], u'time': []}}, u'click': {u'state': {u'target': [], u'time': []}, u'edge': {u'target': [], u'time': []}}, u'mouseout': {u'state': {u'target': [], u'time': []}, u'edge': {u'target': [], u'time': []}}}",,,"[7182, 1565, 2314]",50.0,,1310316,16.0,13.0,mouselab-mdp,,6
"[23679, 25587, 27102]","[u'up', u'up', u'left']",,,"[0, 0, 0]",,"[u'1', 3, 7, 12]","{u'mouseover': {u'state': {u'target': [], u'time': []}, u'edge': {u'target': [], u'time': []}}, u'click': {u'state': {u'target': [u'3', u'7', u'13', u'12'], u'time': [6531, 9885, 10877, 12711]}, u'edge': {u'target': [], u'time': []}}, u'mouseout': {u'state': {u'target': [], u'time': []}, u'edge': {u'target': [], u'time': []}}}",,,"[23679, 5, 825]",43.0,,366506,1.0,5.0,mouselab-mdp,,7
"[27027, 29642, 31715]","[u'left', u'left', u'up']",,,"[0, 0, 0]",,"[u'1', 4, 8, 14]","{u'mouseover': {u'state': {u'target': [], u'time': []}, u'edge': {u'target': [], u'time': []}}, u'click': {u'state': {u'target': [u'2', u'6', u'4', u'3', u'5', u'8', u'14'], u'time': [5655, 6750, 8679, 14465, 15470, 17727, 22436]}, u'edge': {u'target': [], u'time': []}}, u'mouseout': {u'state': {u'target': [], u'time': []}, u'edge': {u'target': [], u'time': []}}}",,,"[27027, 4, 1297]",21.0,,415507,2.0,7.0,mouselab-mdp,,7
"[20894, 23502, 25550]","[u'up', u'up', u'right']",,,"[0, 0, 0]",,"[u'1', 3, 7, 13]","{u'mouseover': {u'state': {u'target': [], u'time': []}, u'edge': {u'target': [], u'time': []}}, u'click': {u'state': {u'target': [u'3', u'4', u'5', u'2', u'6', u'8', u'7', u'12', u'13'], u'time': [1501, 2488, 3475, 4439, 6814, 8508, 14360, 17460, 18580]}, u'edge': {u'target': [], u'time': []}}, u'mouseout': {u'state': {u'target': [], u'time': []}, u'edge': {u'target': [], u'time': []}}}",,,"[20894, 4, 1349]",46.0,,464022,3.0,4.0,mouselab-mdp,,7
"[16520, 19198, 21377]","[u'up', u'up', u'right']",,,"[0, 0, 0]",,"[u'1', 3, 7, 13]","{u'mouseover': {u'state': {u'target': [], u'time': []}, u'edge': {u'target': [], u'time': []}}, u'click': {u'state': {u'target': [u'3', u'5', u'4', u'2', u'7', u'8', u'6', u'12', u'13'], u'time': [1597, 2609, 4274, 5324, 7886, 10114, 11489, 14112, 15199]}, u'edge': {u'target': [], u'time': []}}, u'mouseout': {u'state': {u'target': [], u'time': []}, u'edge': {u'target': [], u'time': []}}}",,,"[16520, 4, 1473]",46.0,,513402,4.0,2.0,mouselab-mdp,,7
"[15279, 17983, 19984]","[u'up', u'up', u'right']",,,"[0, 0, 0]",,"[u'1', 3, 7, 13]","{u'mouseover': {u'state': {u'target': [], u'time': []}, u'edge': {u'target': [], u'time': []}}, u'click': {u'state': {u'target': [u'3', u'5', u'4', u'2', u'6', u'8', u'7', u'12', u'13'], u'time': [1589, 2721, 3819, 4845, 6954, 8585, 10199, 12953, 13986]}, u'edge': {u'target': [], u'time': []}}, u'mouseout': {u'state': {u'target': [], u'time': []}, u'edge': {u'target': [], u'time': []}}}",,,"[15279, 83, 1294]",46.0,,561599,5.0,3.0,mouselab-mdp,,7
"[13577, 16093, 18337]","[u'up', u'up', u'right']",,,"[0, 0, 0]",,"[u'1', 3, 7, 13]","{u'mouseover': {u'state': {u'target': [], u'time': []}, u'edge': {u'target': [], u'time': []}}, u'click': {u'state': {u'target': [u'3', u'2', u'5', u'4', u'7', u'9', u'13', u'12'], u'time': [2207, 3420, 4376, 5318, 7066, 8500, 10456, 11680]}, u'edge': {u'target': [], u'time': []}}, u'mouseout': {u'state': {u'target': [], u'time': []}, u'edge': {u'target': [], u'time': []}}}",,,"[13577, 4, 1532]",32.0,,610681,6.0,1.0,mouselab-mdp,,7
"[25465, 29509, 32326]","[u'right', u'right', u'down']",,,"[0, 0, 0]",,"[u'1', 2, 6, 11]","{u'mouseover': {u'state': {u'target': [], u'time': []}, u'edge': {u'target': [], u'time': []}}, u'click': {u'state': {u'target': [u'3', u'5', u'2', u'4', u'8', u'6', u'7', u'9', u'10', u'11'], u'time': [1374, 3240, 4187, 6271, 8076, 9994, 14055, 15436, 20381, 21900]}, u'edge': {u'target': [], u'time': []}}, u'mouseout': {u'state': {u'target': [], u'time': []}, u'edge': {u'target': [], u'time': []}}}",,,"[25465, 1195, 2107]",47.0,,660426,7.0,6.0,mouselab-mdp,,7
"[29613, 32458, 34789]","[u'right', u'right', u'down']",,,"[0, 0, 0]",,"[u'1', 2, 6, 11]","{u'mouseover': {u'state': {u'target': [], u'time': []}, u'edge': {u'target': [], u'time': []}}, u'click': {u'state': {u'target': [u'3', u'2', u'5', u'4', u'9', u'6', u'7', u'17', u'11', u'10', u'16'], u'time': [1288, 2182, 2936, 3941, 6732, 8788, 12613, 16303, 18843, 19983, 27312]}, u'edge': {u'target': [], u'time': []}}, u'mouseout': {u'state': {u'target': [], u'time': []}, u'edge': {u'target': [], u'time': []}}}",,,"[29612, 4, 1682]",47.0,,713144,8.0,8.0,mouselab-mdp,,7
"[22285, 26055, 28526]","[u'down', u'down', u'right']",,,"[0, 0, 0]",,"[u'1', 5, 9, 17]","{u'mouseover': {u'state': {u'target': [], u'time': []}, u'edge': {u'target': [], u'time': []}}, u'click': {u'state': {u'target': [u'3', u'2', u'5', u'4', u'8', u'7', u'9', u'17', u'16', u'14', u'15'], u'time': [1604, 2554, 3525, 4355, 6753, 8181, 9575, 13075, 14220, 16419, 17232]}, u'edge': {u'target': [], u'time': []}}, u'mouseout': {u'state': {u'target': [], u'time': []}, u'edge': {u'target': [], u'time': []}}}",,,"[22284, 979, 1846]",40.0,,763144,9.0,9.0,mouselab-mdp,,7
"[12921, 15444, 18032]","[u'left', u'left', u'up']",,,"[0, 0, 0]",,"[u'1', 4, 8, 14]","{u'mouseover': {u'state': {u'target': [], u'time': []}, u'edge': {u'target': [], u'time': []}}, u'click': {u'state': {u'target': [u'3', u'2', u'5', u'4', u'7', u'8', u'14', u'15'], u'time': [1489, 2418, 3423, 4409, 6952, 8264, 10629, 11445]}, u'edge': {u'target': [], u'time': []}}, u'mouseout': {u'state': {u'target': [], u'time': []}, u'edge': {u'target': [], u'time': []}}}",,,"[12920, 4, 1876]",54.0,,811844,10.0,0.0,mouselab-mdp,,7
"[8927, 11375, 12838]","[u'up', u'up', u'left']",,,[],,"[u'1', 3, 7, 12]","{u'mouseover': {u'state': {u'target': [], u'time': []}, u'edge': {u'target': [], u'time': []}}, u'click': {u'state': {u'target': [u'3', u'2', u'5', u'4', u'7', u'13', u'12'], u'time': [1181, 2039, 3030, 4060, 5408, 6393, 7537]}, u'edge': {u'target': [], u'time': []}}, u'mouseout': {u'state': {u'target': [], u'time': []}, u'edge': {u'target': [], u'time': []}}}",,,"[8925, 1945, 967]",42.0,,868035,11.0,15.0,mouselab-mdp,,7
"[33016, 36403, 38356]","[u'right', u'right', u'down']",,,[],,"[u'1', 2, 6, 11]","{u'mouseover': {u'state': {u'target': [], u'time': []}, u'edge': {u'target': [], u'time': []}}, u'click': {u'state': {u'target': [u'3', u'2', u'5', u'4', u'9', u'7', u'6', u'10', u'11', u'8', u'14', u'13', u'17'], u'time': [942, 1714, 2576, 3547, 6715, 8143, 10840, 17499, 18549, 27715, 28603, 29741, 31575]}, u'edge': {u'target': [], u'time': []}}, u'mouseout': {u'state': {u'target': [], u'time': []}, u'edge': {u'target': [], u'time': []}}}",,,"[33015, 2892, 1459]",15.0,,916968,12.0,11.0,mouselab-mdp,,7
"[15206, 18649, 21202]","[u'right', u'right', u'up']",,,[],,"[u'1', 2, 6, 10]","{u'mouseover': {u'state': {u'target': [], u'time': []}, u'edge': {u'target': [], u'time': []}}, u'click': {u'state': {u'target': [u'3', u'2', u'5', u'4', u'8', u'6', u'9', u'11', u'10'], u'time': [1639, 2514, 3418, 4378, 6037, 7546, 10229, 11665, 12875]}, u'edge': {u'target': [], u'time': []}}, u'mouseout': {u'state': {u'target': [], u'time': []}, u'edge': {u'target': [], u'time': []}}}",,,"[15205, 2949, 2051]",44.0,,964525,13.0,10.0,mouselab-mdp,,7
"[15906, 17698, 19290]","[u'up', u'up', u'left']",,,[],,"[u'1', 3, 7, 12]","{u'mouseover': {u'state': {u'target': [], u'time': []}, u'edge': {u'target': [], u'time': []}}, u'click': {u'state': {u'target': [u'3', u'2', u'5', u'4', u'7', u'8', u'13', u'12', u'14'], u'time': [1377, 2323, 3292, 4256, 5585, 8527, 10044, 10973, 13858]}, u'edge': {u'target': [], u'time': []}}, u'mouseout': {u'state': {u'target': [], u'time': []}, u'edge': {u'target': [], u'time': []}}}",,,"[15906, 1293, 1101]",43.0,,1012602,14.0,14.0,mouselab-mdp,,7
"[12077, 13685, 16413]","[u'up', u'up', u'left']",,,[],,"[u'1', 3, 7, 12]","{u'mouseover': {u'state': {u'target': [], u'time': []}, u'edge': {u'target': [], u'time': []}}, u'click': {u'state': {u'target': [u'3', u'2', u'5', u'4', u'7', u'13', u'12'], u'time': [1382, 2536, 3379, 4186, 6781, 9538, 10920]}, u'edge': {u'target': [], u'time': []}}, u'mouseout': {u'state': {u'target': [], u'time': []}, u'edge': {u'target': [], u'time': []}}}",,,"[12077, 1117, 2227]",45.0,,1060682,15.0,12.0,mouselab-mdp,,7
"[10646, 12478, 14886]","[u'up', u'up', u'left']",,,[],,"[u'1', 3, 7, 12]","{u'mouseover': {u'state': {u'target': [], u'time': []}, u'edge': {u'target': [], u'time': []}}, u'click': {u'state': {u'target': [u'3', u'2', u'5', u'4', u'7', u'13', u'12'], u'time': [1592, 2532, 3560, 4472, 5643, 7900, 8901]}, u'edge': {u'target': [], u'time': []}}, u'mouseout': {u'state': {u'target': [], u'time': []}, u'edge': {u'target': [], u'time': []}}}",,,"[10646, 1338, 1913]",43.0,,1108654,16.0,13.0,mouselab-mdp,,7
"[8522, 30092, 35020]","[u'right', u'right', u'down']",,,"[8, 0, 0]",,"[u'1', 2, 6, 11]","{u'mouseover': {u'state': {u'target': [], u'time': []}, u'edge': {u'target': [], u'time': []}}, u'click': {u'state': {u'target': [u'2', u'10'], u'time': [6452, 33044]}, u'edge': {u'target': [], u'time': []}}, u'mouseout': {u'state': {u'target': [], u'time': []}, u'edge': {u'target': [], u'time': []}}}",,,"[8522, 11769, 4131]",56.0,,186405,1.0,8.0,mouselab-mdp,,8
"[8223, 19817, 25856]","[u'down', u'down', u'left']",,,"[4, 3, 1]",,"[u'1', 5, 9, 16]","{u'mouseover': {u'state': {u'target': [], u'time': []}, u'edge': {u'target': [], u'time': []}}, u'click': {u'state': {u'target': [u'5', u'4', u'9', u'17'], u'time': [1862, 5976, 15099, 17914]}, u'edge': {u'target': [], u'time': []}}, u'mouseout': {u'state': {u'target': [], u'time': []}, u'edge': {u'target': [], u'time': []}}}",,,"[8223, 5647, 1780]",-3.0,,258750,2.0,1.0,mouselab-mdp,,8
"[9606, 15125, 24678]","[u'left', u'left', u'up']",,,"[3, 0, 0]",,"[u'1', 4, 8, 14]","{u'mouseover': {u'state': {u'target': [], u'time': []}, u'edge': {u'target': [], u'time': []}}, u'click': {u'state': {u'target': [u'7', u'6', u'9', u'14'], u'time': [3595, 5011, 6878, 19840]}, u'edge': {u'target': [], u'time': []}}, u'mouseout': {u'state': {u'target': [], u'time': []}, u'edge': {u'target': [], u'time': []}}}",,,"[9606, 447, 8722]",24.0,,324059,3.0,7.0,mouselab-mdp,,8
"[16768, 22240, 23925]","[u'up', u'up', u'left']",,,"[2, 0, 0]",,"[u'1', 3, 7, 12]","{u'mouseover': {u'state': {u'target': [], u'time': []}, u'edge': {u'target': [], u'time': []}}, u'click': {u'state': {u'target': [u'6', u'5', u'7', u'8', u'13', u'12'], u'time': [3586, 4870, 7882, 10365, 13055, 14321]}, u'edge': {u'target': [], u'time': []}}, u'mouseout': {u'state': {u'target': [], u'time': []}, u'edge': {u'target': [], u'time': []}}}",,,"[16767, 829, 924]",41.0,,378155,4.0,5.0,mouselab-mdp,,8
"[9334, 12947, 16943]","[u'up', u'up', u'right']",,,"[1, 0, 0]",,"[u'1', 3, 7, 13]","{u'mouseover': {u'state': {u'target': [], u'time': []}, u'edge': {u'target': [], u'time': []}}, u'click': {u'state': {u'target': [u'6', u'8', u'7', u'13'], u'time': [3321, 4833, 7546, 15549]}, u'edge': {u'target': [], u'time': []}}, u'mouseout': {u'state': {u'target': [], u'time': []}, u'edge': {u'target': [], u'time': []}}}",,,"[9334, 521, 3189]",51.0,,435205,5.0,2.0,mouselab-mdp,,8
"[8775, 12403, 14782]","[u'left', u'left', u'up']",,,"[0, 0, 0]",,"[u'1', 4, 8, 14]","{u'mouseover': {u'state': {u'target': [], u'time': []}, u'edge': {u'target': [], u'time': []}}, u'click': {u'state': {u'target': [u'6', u'8', u'14'], u'time': [2897, 4231, 6565]}, u'edge': {u'target': [], u'time': []}}, u'mouseout': {u'state': {u'target': [], u'time': []}, u'edge': {u'target': [], u'time': []}}}",,,"[8775, 1492, 1578]",59.0,,496885,6.0,0.0,mouselab-mdp,,8
"[8638, 12680, 13707]","[u'up', u'up', u'right']",,,"[0, 0, 0]",,"[u'1', 3, 7, 13]","{u'mouseover': {u'state': {u'target': [], u'time': []}, u'edge': {u'target': [], u'time': []}}, u'click': {u'state': {u'target': [u'5', u'7', u'12', u'13'], u'time': [2360, 4645, 5782, 6811]}, u'edge': {u'target': [], u'time': []}}, u'mouseout': {u'state': {u'target': [], u'time': []}, u'edge': {u'target': [], u'time': []}}}",,,"[8638, 1824, 294]",51.0,,558071,7.0,3.0,mouselab-mdp,,8
"[9232, 11444, 12676]","[u'right', u'right', u'down']",,,"[0, 0, 0]",,"[u'1', 2, 6, 11]","{u'mouseover': {u'state': {u'target': [], u'time': []}, u'edge': {u'target': [], u'time': []}}, u'click': {u'state': {u'target': [u'7', u'6', u'11', u'10'], u'time': [3079, 4290, 5421, 6878]}, u'edge': {u'target': [], u'time': []}}, u'mouseout': {u'state': {u'target': [], u'time': []}, u'edge': {u'target': [], u'time': []}}}",,,"[9231, 2, 510]",53.0,,608817,8.0,6.0,mouselab-mdp,,8
"[15956, 18737, 20206]","[u'down', u'down', u'right']",,,"[0, 0, 0]",,"[u'1', 5, 9, 17]","{u'mouseover': {u'state': {u'target': [], u'time': []}, u'edge': {u'target': [], u'time': []}}, u'click': {u'state': {u'target': [u'8', u'7', u'6', u'11', u'9', u'17', u'16'], u'time': [2866, 4102, 5646, 8638, 10079, 11188, 14408]}, u'edge': {u'target': [], u'time': []}}, u'mouseout': {u'state': {u'target': [], u'time': []}, u'edge': {u'target': [], u'time': []}}}",,,"[15956, 3, 720]",44.0,,721394,9.0,9.0,mouselab-mdp,,8
"[13909, 20158, 20922]","[u'up', u'up', u'right']",,,"[3, 0, 0]",,"[u'1', 3, 7, 13]","{u'mouseover': {u'state': {u'target': [], u'time': []}, u'edge': {u'target': [], u'time': []}}, u'click': {u'state': {u'target': [u'6', u'7', u'13', u'12', u'9', u'17'], u'time': [1918, 3100, 6280, 7904, 9552, 10654]}, u'edge': {u'target': [], u'time': []}}, u'mouseout': {u'state': {u'target': [], u'time': []}, u'edge': {u'target': [], u'time': []}}}",,,"[13909, 536, 49]",49.0,,782236,10.0,4.0,mouselab-mdp,,8
"[8567, 9381, 10360]","[u'up', u'up', u'right']",,,[],,"[u'1', 3, 7, 13]","{u'mouseover': {u'state': {u'target': [], u'time': []}, u'edge': {u'target': [], u'time': []}}, u'click': {u'state': {u'target': [u'8', u'7', u'6', u'9', u'13'], u'time': [1515, 2593, 3531, 5425, 6507]}, u'edge': {u'target': [], u'time': []}}, u'mouseout': {u'state': {u'target': [], u'time': []}, u'edge': {u'target': [], u'time': []}}}",,,"[8567, 319, 465]",37.0,,868294,11.0,12.0,mouselab-mdp,,8
"[11373, 12266, 13175]","[u'up', u'up', u'left']",,,[],,"[u'1', 3, 7, 12]","{u'mouseover': {u'state': {u'target': [], u'time': []}, u'edge': {u'target': [], u'time': []}}, u'click': {u'state': {u'target': [u'7', u'6', u'11', u'9', u'8', u'13', u'12'], u'time': [979, 2345, 4018, 5148, 6098, 7384, 9495]}, u'edge': {u'target': [], u'time': []}}, u'mouseout': {u'state': {u'target': [], u'time': []}, u'edge': {u'target': [], u'time': []}}}",,,"[11373, 391, 417]",42.0,,945743,12.0,15.0,mouselab-mdp,,8
"[7637, 8247, 9205]","[u'up', u'up', u'left']",,,[],,"[u'1', 3, 7, 12]","{u'mouseover': {u'state': {u'target': [], u'time': []}, u'edge': {u'target': [], u'time': []}}, u'click': {u'state': {u'target': [u'7', u'9', u'6', u'13', u'12'], u'time': [1625, 2600, 3829, 4841, 5736]}, u'edge': {u'target': [], u'time': []}}, u'mouseout': {u'state': {u'target': [], u'time': []}, u'edge': {u'target': [], u'time': []}}}",,,"[7637, 90, 448]",47.0,,999774,13.0,14.0,mouselab-mdp,,8
"[6444, 7257, 9124]","[u'right', u'right', u'up']",,,[],,"[u'1', 2, 6, 10]","{u'mouseover': {u'state': {u'target': [], u'time': []}, u'edge': {u'target': [], u'time': []}}, u'click': {u'state': {u'target': [u'6', u'10', u'11'], u'time': [1596, 3291, 4147]}, u'edge': {u'target': [], u'time': []}}, u'mouseout': {u'state': {u'target': [], u'time': []}, u'edge': {u'target': [], u'time': []}}}",,,"[6444, 298, 1348]",50.0,,1047354,14.0,10.0,mouselab-mdp,,8
"[12254, 12804, 13667]","[u'up', u'up', u'left']",,,[],,"[u'1', 3, 7, 12]","{u'mouseover': {u'state': {u'target': [], u'time': []}, u'edge': {u'target': [], u'time': []}}, u'click': {u'state': {u'target': [u'8', u'7', u'9', u'6', u'13', u'12', u'14'], u'time': [2050, 3852, 5329, 6743, 7703, 8792, 10854]}, u'edge': {u'target': [], u'time': []}}, u'mouseout': {u'state': {u'target': [], u'time': []}, u'edge': {u'target': [], u'time': []}}}",,,"[12254, 60, 358]",43.0,,1101295,15.0,13.0,mouselab-mdp,,8
"[11142, 11711, 12545]","[u'right', u'right', u'down']",,,[],,"[u'1', 2, 6, 11]","{u'mouseover': {u'state': {u'target': [], u'time': []}, u'edge': {u'target': [], u'time': []}}, u'click': {u'state': {u'target': [u'6', u'7', u'8', u'9', u'17', u'10', u'11'], u'time': [1505, 2803, 3884, 5035, 7133, 8798, 9903]}, u'edge': {u'target': [], u'time': []}}, u'mouseout': {u'state': {u'target': [], u'time': []}, u'edge': {u'target': [], u'time': []}}}",,,"[11142, 56, 324]",21.0,,1150474,16.0,11.0,mouselab-mdp,,8
"[28919, 35669, 37700]","[u'right', u'right', u'down']",,,"[3, 0, 1]",,"[u'1', 2, 6, 11]","{u'mouseover': {u'state': {u'target': [], u'time': []}, u'edge': {u'target': [], u'time': []}}, u'click': {u'state': {u'target': [u'2', u'6', u'10'], u'time': [6660, 18659, 23961]}, u'edge': {u'target': [], u'time': []}}, u'mouseout': {u'state': {u'target': [], u'time': []}, u'edge': {u'target': [], u'time': []}}}",,,"[28919, 865, 1107]",12.0,,205536,1.0,5.0,mouselab-mdp,,9
"[10044, 16675, 19115]","[u'up', u'up', u'right']",,,"[3, 0, 1]",,"[u'1', 3, 7, 13]","{u'mouseover': {u'state': {u'target': [], u'time': []}, u'edge': {u'target': [], u'time': []}}, u'click': {u'state': {u'target': [u'7', u'12'], u'time': [3303, 7612]}, u'edge': {u'target': [], u'time': []}}, u'mouseout': {u'state': {u'target': [], u'time': []}, u'edge': {u'target': [], u'time': []}}}",,,"[10044, 747, 1519]",53.0,,263345,2.0,2.0,mouselab-mdp,,9
"[10764, 20731, 23132]","[u'down', u'down', u'right']",,,"[3, 0, 1]",,"[u'1', 5, 9, 17]","{u'mouseover': {u'state': {u'target': [], u'time': []}, u'edge': {u'target': [], u'time': []}}, u'click': {u'state': {u'target': [u'8', u'9', u'17'], u'time': [1754, 5502, 8446]}, u'edge': {u'target': [], u'time': []}}, u'mouseout': {u'state': {u'target': [], u'time': []}, u'edge': {u'target': [], u'time': []}}}",,,"[10764, 3897, 1441]",31.0,,372184,3.0,3.0,mouselab-mdp,,9
"[12726, 19646, 21686]","[u'left', u'left', u'up']",,,"[3, 0, 1]",,"[u'1', 4, 8, 14]","{u'mouseover': {u'state': {u'target': [], u'time': []}, u'edge': {u'target': [], u'time': []}}, u'click': {u'state': {u'target': [u'7', u'6', u'9', u'15'], u'time': [3926, 5459, 6597, 10679]}, u'edge': {u'target': [], u'time': []}}, u'mouseout': {u'state': {u'target': [], u'time': []}, u'edge': {u'target': [], u'time': []}}}",,,"[12726, 758, 1122]",24.0,,430158,4.0,7.0,mouselab-mdp,,9
"[9340, 16179, 17972]","[u'down', u'down', u'right']",,,"[3, 0, 1]",,"[u'1', 5, 9, 17]","{u'mouseover': {u'state': {u'target': [], u'time': []}, u'edge': {u'target': [], u'time': []}}, u'click': {u'state': {u'target': [u'6', u'9', u'17'], u'time': [3172, 5651, 7830]}, u'edge': {u'target': [], u'time': []}}, u'mouseout': {u'state': {u'target': [], u'time': []}, u'edge': {u'target': [], u'time': []}}}",,,"[9340, 860, 853]",31.0,,501072,5.0,4.0,mouselab-mdp,,9
"[8389, 15494, 17140]","[u'left', u'left', u'up']",,,"[3, 0, 1]",,"[u'1', 4, 8, 14]","{u'mouseover': {u'state': {u'target': [], u'time': []}, u'edge': {u'target': [], u'time': []}}, u'click': {u'state': {u'target': [u'7', u'8', u'15'], u'time': [3113, 4176, 5838]}, u'edge': {u'target': [], u'time': []}}, u'mouseout': {u'state': {u'target': [], u'time': []}, u'edge': {u'target': [], u'time': []}}}",,,"[8389, 1181, 727]",59.0,,558560,6.0,0.0,mouselab-mdp,,9
"[8588, 15555, 18107]","[u'up', u'up', u'right']",,,"[3, 0, 1]",,"[u'1', 3, 7, 13]","{u'mouseover': {u'state': {u'target': [], u'time': []}, u'edge': {u'target': [], u'time': []}}, u'click': {u'state': {u'target': [u'6', u'9', u'8', u'13'], u'time': [1618, 2812, 4026, 7252]}, u'edge': {u'target': [], u'time': []}}, u'mouseout': {u'state': {u'target': [], u'time': []}, u'edge': {u'target': [], u'time': []}}}",,,"[8588, 662, 1565]",36.0,,617545,7.0,1.0,mouselab-mdp,,9
"[5903, 12576, 15646]","[u'down', u'down', u'right']",,,"[3, 0, 1]",,"[u'1', 5, 9, 17]","{u'mouseover': {u'state': {u'target': [], u'time': []}, u'edge': {u'target': [], u'time': []}}, u'click': {u'state': {u'target': [u'6', u'9', u'17'], u'time': [1505, 2995, 4545]}, u'edge': {u'target': [], u'time': []}}, u'mouseout': {u'state': {u'target': [], u'time': []}, u'edge': {u'target': [], u'time': []}}}",,,"[5902, 780, 2133]",48.0,,676729,8.0,9.0,mouselab-mdp,,9
"[11915, 18467, 20363]","[u'right', u'right', u'down']",,,"[3, 0, 1]",,"[u'1', 2, 6, 11]","{u'mouseover': {u'state': {u'target': [], u'time': []}, u'edge': {u'target': [], u'time': []}}, u'click': {u'state': {u'target': [u'6', u'10', u'11'], u'time': [1641, 3156, 10088]}, u'edge': {u'target': [], u'time': []}}, u'mouseout': {u'state': {u'target': [], u'time': []}, u'edge': {u'target': [], u'time': []}}}",,,"[11915, 610, 1074]",54.0,,732431,9.0,6.0,mouselab-mdp,,9
"[8496, 15471, 17224]","[u'right', u'right', u'down']",,,"[3, 0, 1]",,"[u'1', 2, 6, 11]","{u'mouseover': {u'state': {u'target': [], u'time': []}, u'edge': {u'target': [], u'time': []}}, u'click': {u'state': {u'target': [u'7', u'8', u'9', u'6', u'10'], u'time': [824, 2209, 4179, 5411, 6351]}, u'edge': {u'target': [], u'time': []}}, u'mouseout': {u'state': {u'target': [], u'time': []}, u'edge': {u'target': [], u'time': []}}}",,,"[8496, 548, 815]",53.0,,787288,10.0,8.0,mouselab-mdp,,9
"[10434, 12507, 13953]","[u'up', u'up', u'left']",,,[],,"[u'1', 3, 7, 12]","{u'mouseover': {u'state': {u'target': [], u'time': []}, u'edge': {u'target': [], u'time': []}}, u'click': {u'state': {u'target': [u'6', u'9', u'8', u'7', u'13', u'12'], u'time': [1593, 3080, 4263, 5339, 6899, 8334]}, u'edge': {u'target': [], u'time': []}}, u'mouseout': {u'state': {u'target': [], u'time': []}, u'edge': {u'target': [], u'time': []}}}",,,"[10434, 1557, 934]",46.0,,837471,11.0,12.0,mouselab-mdp,,9
"[12841, 13968, 14953]","[u'up', u'up', u'left']",,,[],,"[u'1', 3, 7, 12]","{u'mouseover': {u'state': {u'target': [], u'time': []}, u'edge': {u'target': [], u'time': []}}, u'click': {u'state': {u'target': [u'7', u'6', u'9', u'8', u'13', u'12'], u'time': [1894, 3128, 4366, 5303, 6830, 8250]}, u'edge': {u'target': [], u'time': []}}, u'mouseout': {u'state': {u'target': [], u'time': []}, u'edge': {u'target': [], u'time': []}}}",,,"[12841, 618, 488]",46.0,,902711,12.0,14.0,mouselab-mdp,,9
"[11466, 17378, 18874]","[u'right', u'right', u'down']",,,[],,"[u'1', 2, 6, 11]","{u'mouseover': {u'state': {u'target': [], u'time': []}, u'edge': {u'target': [], u'time': []}}, u'click': {u'state': {u'target': [u'6', u'7', u'9', u'8', u'10', u'11'], u'time': [4053, 5337, 6694, 7576, 9124, 9915]}, u'edge': {u'target': [], u'time': []}}, u'mouseout': {u'state': {u'target': [], u'time': []}, u'edge': {u'target': [], u'time': []}}}",,,"[11466, 5413, 976]",22.0,,952736,13.0,11.0,mouselab-mdp,,9
"[23208, 29439, 30359]","[u'up', u'up', u'left']",,,[],,"[u'1', 3, 7, 12]","{u'mouseover': {u'state': {u'target': [], u'time': []}, u'edge': {u'target': [], u'time': []}}, u'click': {u'state': {u'target': [u'6', u'7', u'9', u'8', u'11', u'10', u'13', u'12'], u'time': [1027, 3184, 4362, 6491, 7924, 9002, 13776, 15269]}, u'edge': {u'target': [], u'time': []}}, u'mouseout': {u'state': {u'target': [], u'time': []}, u'edge': {u'target': [], u'time': []}}}",,,"[23208, 5729, 433]",41.0,,1022592,14.0,15.0,mouselab-mdp,,9
"[23187, 26531, 28267]","[u'right', u'right', u'up']",,,[],,"[u'1', 2, 6, 10]","{u'mouseover': {u'state': {u'target': [], u'time': []}, u'edge': {u'target': [], u'time': []}}, u'click': {u'state': {u'target': [u'6', u'7', u'9', u'8', u'14', u'12', u'13', u'15', u'11', u'10', u'16', u'17'], u'time': [5182, 6340, 7396, 8496, 9913, 11233, 12354, 13884, 15673, 16520, 17886, 18687]}, u'edge': {u'target': [], u'time': []}}, u'mouseout': {u'state': {u'target': [], u'time': []}, u'edge': {u'target': [], u'time': []}}}",,,"[23187, 2841, 1246]",0.0,,1076095,15.0,13.0,mouselab-mdp,,9
"[9061, 10652, 11364]","[u'right', u'right', u'up']",,,[],,"[u'1', 2, 6, 10]","{u'mouseover': {u'state': {u'target': [], u'time': []}, u'edge': {u'target': [], u'time': []}}, u'click': {u'state': {u'target': [u'7', u'6', u'11', u'10'], u'time': [1754, 2851, 4244, 5250]}, u'edge': {u'target': [], u'time': []}}, u'mouseout': {u'state': {u'target': [], u'time': []}, u'edge': {u'target': [], u'time': []}}}",,,"[9061, 1074, 216]",49.0,,1133894,16.0,10.0,mouselab-mdp,,9
"[4989, 13170, 16988]","[u'left', u'left', u'up']",,,"[3, 0, 1]",,"[u'1', 4, 8, 14]","{u'mouseover': {u'state': {u'target': [], u'time': []}, u'edge': {u'target': [], u'time': []}}, u'click': {u'state': {u'target': [], u'time': []}, u'edge': {u'target': [], u'time': []}}, u'mouseout': {u'state': {u'target': [], u'time': []}, u'edge': {u'target': [], u'time': []}}}",,,"[4989, 2589, 2749]",12.0,,178534,1.0,4.0,mouselab-mdp,,10
"[7430, 16155, 19916]","[u'up', u'up', u'left']",,,"[3, 0, 1]",,"[u'1', 3, 7, 12]","{u'mouseover': {u'state': {u'target': [], u'time': []}, u'edge': {u'target': [], u'time': []}}, u'click': {u'state': {u'target': [], u'time': []}, u'edge': {u'target': [], u'time': []}}, u'mouseout': {u'state': {u'target': [], u'time': []}, u'edge': {u'target': [], u'time': []}}}",,,"[7430, 3154, 2692]",20.0,,237218,2.0,6.0,mouselab-mdp,,10
"[10580, 27170, 36723]","[u'left', u'left', u'up']",,,"[3, 0, 1]",,"[u'1', 4, 8, 14]","{u'mouseover': {u'state': {u'target': [], u'time': []}, u'edge': {u'target': [], u'time': []}}, u'click': {u'state': {u'target': [u'5', u'2', u'4', u'3', u'8', u'15', u'14'], u'time': [4135, 7626, 8666, 9562, 19597, 21141, 22156]}, u'edge': {u'target': [], u'time': []}}, u'mouseout': {u'state': {u'target': [], u'time': []}, u'edge': {u'target': [], u'time': []}}}",,,"[10580, 10124, 7804]",7.0,,295088,3.0,9.0,mouselab-mdp,,10
"[5670, 12630, 14902]","[u'up', u'up', u'right']",,,"[3, 0, 1]",,"[u'1', 3, 7, 13]","{u'mouseover': {u'state': {u'target': [], u'time': []}, u'edge': {u'target': [], u'time': []}}, u'click': {u'state': {u'target': [u'3', u'13'], u'time': [1914, 3487]}, u'edge': {u'target': [], u'time': []}}, u'mouseout': {u'state': {u'target': [], u'time': []}, u'edge': {u'target': [], u'time': []}}}",,,"[5670, 1014, 1250]",53.0,,359455,4.0,3.0,mouselab-mdp,,10
"[10557, 17794, 20787]","[u'right', u'right', u'down']",,,"[3, 0, 1]",,"[u'1', 2, 6, 11]","{u'mouseover': {u'state': {u'target': [], u'time': []}, u'edge': {u'target': [], u'time': []}}, u'click': {u'state': {u'target': [u'5', u'2', u'11', u'10', u'4'], u'time': [1919, 3304, 4884, 6166, 9262]}, u'edge': {u'target': [], u'time': []}}, u'mouseout': {u'state': {u'target': [], u'time': []}, u'edge': {u'target': [], u'time': []}}}",,,"[10557, 797, 2064]",3.0,,421446,5.0,2.0,mouselab-mdp,,10
"[14991, 22756, 24625]","[u'left', u'left', u'up']",,,"[3, 0, 1]",,"[u'1', 4, 8, 14]","{u'mouseover': {u'state': {u'target': [], u'time': []}, u'edge': {u'target': [], u'time': []}}, u'click': {u'state': {u'target': [u'4', u'15', u'5', u'17', u'7', u'2', u'14'], u'time': [1890, 3544, 5584, 7539, 9501, 11188, 13310]}, u'edge': {u'target': [], u'time': []}}, u'mouseout': {u'state': {u'target': [], u'time': []}, u'edge': {u'target': [], u'time': []}}}",,,"[14991, 666, 959]",21.0,,478296,6.0,7.0,mouselab-mdp,,10
"[13083, 20920, 22775]","[u'left', u'left', u'up']",,,"[3, 0, 1]",,"[u'1', 4, 8, 14]","{u'mouseover': {u'state': {u'target': [], u'time': []}, u'edge': {u'target': [], u'time': []}}, u'click': {u'state': {u'target': [u'3', u'13', u'12', u'5', u'2', u'4', u'15', u'14'], u'time': [2225, 3887, 5096, 6788, 8625, 9806, 11038, 11945]}, u'edge': {u'target': [], u'time': []}}, u'mouseout': {u'state': {u'target': [], u'time': []}, u'edge': {u'target': [], u'time': []}}}",,,"[13083, 579, 974]",54.0,,536356,7.0,0.0,mouselab-mdp,,10
"[17187, 25334, 27187]","[u'up', u'up', u'left']",,,"[3, 0, 1]",,"[u'1', 3, 7, 12]","{u'mouseover': {u'state': {u'target': [], u'time': []}, u'edge': {u'target': [], u'time': []}}, u'click': {u'state': {u'target': [u'3', u'13', u'12', u'5', u'17', u'16', u'2', u'11'], u'time': [2486, 3493, 4710, 8069, 9218, 10231, 13941, 15331]}, u'edge': {u'target': [], u'time': []}}, u'mouseout': {u'state': {u'target': [], u'time': []}, u'edge': {u'target': [], u'time': []}}}",,,"[17187, 847, 1011]",39.0,,597825,8.0,5.0,mouselab-mdp,,10
"[13165, 21208, 23159]","[u'right', u'right', u'down']",,,"[3, 0, 1]",,"[u'1', 2, 6, 11]","{u'mouseover': {u'state': {u'target': [], u'time': []}, u'edge': {u'target': [], u'time': []}}, u'click': {u'state': {u'target': [u'3', u'12', u'4', u'5', u'17', u'16', u'2', u'11'], u'time': [2365, 3816, 5362, 6312, 7368, 8162, 10779, 12011]}, u'edge': {u'target': [], u'time': []}}, u'mouseout': {u'state': {u'target': [], u'time': []}, u'edge': {u'target': [], u'time': []}}}",,,"[13165, 609, 1026]",50.0,,661911,9.0,8.0,mouselab-mdp,,10
"[11871, 19939, 21970]","[u'up', u'up', u'right']",,,"[3, 0, 1]",,"[u'1', 3, 7, 13]","{u'mouseover': {u'state': {u'target': [], u'time': []}, u'edge': {u'target': [], u'time': []}}, u'click': {u'state': {u'target': [u'4', u'2', u'5', u'3', u'16', u'17', u'12', u'13'], u'time': [2957, 4000, 4882, 5966, 7219, 8019, 9856, 10571]}, u'edge': {u'target': [], u'time': []}}, u'mouseout': {u'state': {u'target': [], u'time': []}, u'edge': {u'target': [], u'time': []}}}",,,"[11871, 712, 1143]",32.0,,717927,10.0,1.0,mouselab-mdp,,10
"[13952, 21731, 23851]","[u'right', u'right', u'up']",,,[],,"[u'1', 2, 6, 10]","{u'mouseover': {u'state': {u'target': [], u'time': []}, u'edge': {u'target': [], u'time': []}}, u'click': {u'state': {u'target': [u'5', u'3', u'2', u'4', u'17', u'16', u'13', u'12'], u'time': [3022, 4046, 5113, 5927, 7899, 9194, 11202, 12129]}, u'edge': {u'target': [], u'time': []}}, u'mouseout': {u'state': {u'target': [], u'time': []}, u'edge': {u'target': [], u'time': []}}}",,,"[13952, 7234, 1600]",-5.0,,767490,11.0,11.0,mouselab-mdp,,10
"[17396, 18949, 20146]","[u'right', u'right', u'up']",,,[],,"[u'1', 2, 6, 10]","{u'mouseover': {u'state': {u'target': [], u'time': []}, u'edge': {u'target': [], u'time': []}}, u'click': {u'state': {u'target': [u'5', u'16', u'17', u'3', u'4', u'14', u'15', u'2', u'11', u'10'], u'time': [4055, 5480, 6276, 7550, 8417, 9873, 10748, 12981, 14351, 15519]}, u'edge': {u'target': [], u'time': []}}, u'mouseout': {u'state': {u'target': [], u'time': []}, u'edge': {u'target': [], u'time': []}}}",,,"[17396, 1006, 679]",43.0,,822972,12.0,10.0,mouselab-mdp,,10
"[8496, 9608, 10807]","[u'up', u'up', u'left']",,,[],,"[u'1', 3, 7, 12]","{u'mouseover': {u'state': {u'target': [], u'time': []}, u'edge': {u'target': [], u'time': []}}, u'click': {u'state': {u'target': [u'3', u'13', u'12', u'5', u'4', u'2'], u'time': [2102, 3447, 4239, 5730, 6598, 7327]}, u'edge': {u'target': [], u'time': []}}, u'mouseout': {u'state': {u'target': [], u'time': []}, u'edge': {u'target': [], u'time': []}}}",,,"[8496, 576, 666]",46.0,,874842,13.0,12.0,mouselab-mdp,,10
"[9599, 10798, 11927]","[u'up', u'up', u'left']",,,[],,"[u'1', 3, 7, 12]","{u'mouseover': {u'state': {u'target': [], u'time': []}, u'edge': {u'target': [], u'time': []}}, u'click': {u'state': {u'target': [u'3', u'5', u'12', u'13', u'2', u'4'], u'time': [2206, 3356, 4470, 5656, 6994, 8585]}, u'edge': {u'target': [], u'time': []}}, u'mouseout': {u'state': {u'target': [], u'time': []}, u'edge': {u'target': [], u'time': []}}}",,,"[9599, 673, 590]",43.0,,932974,14.0,15.0,mouselab-mdp,,10
"[11590, 12805, 13901]","[u'up', u'up', u'left']",,,[],,"[u'1', 3, 7, 12]","{u'mouseover': {u'state': {u'target': [], u'time': []}, u'edge': {u'target': [], u'time': []}}, u'click': {u'state': {u'target': [u'4', u'15', u'14', u'2', u'11', u'10', u'3', u'13', u'12'], u'time': [2080, 3253, 4055, 5137, 6046, 7136, 8268, 9267, 10282]}, u'edge': {u'target': [], u'time': []}}, u'mouseout': {u'state': {u'target': [], u'time': []}, u'edge': {u'target': [], u'time': []}}}",,,"[11590, 675, 553]",41.0,,981148,15.0,13.0,mouselab-mdp,,10
"[9895, 11085, 12245]","[u'up', u'up', u'left']",,,[],,"[u'1', 3, 7, 12]","{u'mouseover': {u'state': {u'target': [], u'time': []}, u'edge': {u'target': [], u'time': []}}, u'click': {u'state': {u'target': [u'5', u'3', u'12', u'13', u'4', u'2'], u'time': [1791, 2981, 4429, 5129, 6137, 7753]}, u'edge': {u'target': [], u'time': []}}, u'mouseout': {u'state': {u'target': [], u'time': []}, u'edge': {u'target': [], u'time': []}}}",,,"[9895, 647, 629]",46.0,,1030140,16.0,14.0,mouselab-mdp,,10
"[10321, 28800, 40499]","[u'down', u'down', u'left']",,,"[5, 0, 0]",,"[u'1', 5, 9, 16]","{u'mouseover': {u'state': {u'target': [], u'time': []}, u'edge': {u'target': [], u'time': []}}, u'click': {u'state': {u'target': [u'5', u'17'], u'time': [3499, 36894]}, u'edge': {u'target': [], u'time': []}}, u'mouseout': {u'state': {u'target': [], u'time': []}, u'edge': {u'target': [], u'time': []}}}",,,"[10321, 11299, 10812]",23.0,,479225,1.0,8.0,mouselab-mdp,,11
"[19340, 32817, 38525]","[u'down', u'down', u'left']",,,"[8, 0, 0]",,"[u'1', 5, 9, 16]","{u'mouseover': {u'state': {u'target': [], u'time': []}, u'edge': {u'target': [], u'time': []}}, u'click': {u'state': {u'target': [u'4', u'5', u'3', u'17'], u'time': [4867, 9589, 17743, 35813]}, u'edge': {u'target': [], u'time': []}}, u'mouseout': {u'state': {u'target': [], u'time': []}, u'edge': {u'target': [], u'time': []}}}",,,"[19340, 2919, 4845]",2.0,,538241,2.0,5.0,mouselab-mdp,,11
"[25843, 38705, 40231]","[u'left', u'left', u'up']",,,"[8, 0, 0]",,"[u'1', 4, 8, 14]","{u'mouseover': {u'state': {u'target': [], u'time': []}, u'edge': {u'target': [], u'time': []}}, u'click': {u'state': {u'target': [u'2', u'4', u'8', u'15', u'14'], u'time': [3521, 9975, 12253, 13840, 15113]}, u'edge': {u'target': [], u'time': []}}, u'mouseout': {u'state': {u'target': [], u'time': []}, u'edge': {u'target': [], u'time': []}}}",,,"[25842, 2064, 737]",9.0,,628973,3.0,9.0,mouselab-mdp,,11
"[8346, 11019, 14263]","[u'right', u'right', u'down']",,,"[0, 0, 0]",,"[u'1', 2, 6, 11]","{u'mouseover': {u'state': {u'target': [], u'time': []}, u'edge': {u'target': [], u'time': []}}, u'click': {u'state': {u'target': [u'2', u'10', u'6', u'11'], u'time': [1580, 4092, 4809, 13513]}, u'edge': {u'target': [], u'time': []}}, u'mouseout': {u'state': {u'target': [], u'time': []}, u'edge': {u'target': [], u'time': []}}}",,,"[8346, 4, 2351]",53.0,,680180,4.0,6.0,mouselab-mdp,,11
"[17249, 21337, 22505]","[u'up', u'up', u'right']",,,"[0, 0, 0]",,"[u'1', 3, 7, 13]","{u'mouseover': {u'state': {u'target': [], u'time': []}, u'edge': {u'target': [], u'time': []}}, u'click': {u'state': {u'target': [u'5', u'16', u'17', u'8', u'3', u'12', u'13', u'7', u'6'], u'time': [1796, 3323, 4809, 6692, 8726, 9663, 10474, 11666, 13190]}, u'edge': {u'target': [], u'time': []}}, u'mouseout': {u'state': {u'target': [], u'time': []}, u'edge': {u'target': [], u'time': []}}}",,,"[17249, 6, 373]",31.0,,731654,5.0,1.0,mouselab-mdp,,11
"[13631, 17731, 19044]","[u'up', u'up', u'right']",,,"[0, 0, 0]",,"[u'1', 3, 7, 13]","{u'mouseover': {u'state': {u'target': [], u'time': []}, u'edge': {u'target': [], u'time': []}}, u'click': {u'state': {u'target': [u'2', u'10', u'11', u'15', u'8', u'12', u'13', u'3', u'7'], u'time': [2057, 3137, 4351, 6449, 7364, 9177, 9783, 10498, 11139]}, u'edge': {u'target': [], u'time': []}}, u'mouseout': {u'state': {u'target': [], u'time': []}, u'edge': {u'target': [], u'time': []}}}",,,"[13631, 7, 536]",46.0,,781363,6.0,4.0,mouselab-mdp,,11
"[11610, 16242, 17927]","[u'left', u'left', u'up']",,,"[0, 0, 0]",,"[u'1', 4, 8, 14]","{u'mouseover': {u'state': {u'target': [], u'time': []}, u'edge': {u'target': [], u'time': []}}, u'click': {u'state': {u'target': [u'6', u'8', u'14', u'4'], u'time': [1604, 2732, 3901, 10953]}, u'edge': {u'target': [], u'time': []}}, u'mouseout': {u'state': {u'target': [], u'time': []}, u'edge': {u'target': [], u'time': []}}}",,,"[11609, 1280, 723]",58.0,,830287,7.0,0.0,mouselab-mdp,,11
"[29482, 33611, 34528]","[u'left', u'left', u'up']",,,"[0, 0, 0]",,"[u'1', 4, 8, 14]","{u'mouseover': {u'state': {u'target': [], u'time': []}, u'edge': {u'target': [], u'time': []}}, u'click': {u'state': {u'target': [u'8', u'6', u'3', u'9', u'4', u'13', u'15', u'12', u'14'], u'time': [1657, 3559, 5382, 9583, 12242, 15211, 17582, 21332, 27907]}, u'edge': {u'target': [], u'time': []}}, u'mouseout': {u'state': {u'target': [], u'time': []}, u'edge': {u'target': [], u'time': []}}}",,,"[29482, 5, 135]",19.0,,881418,8.0,7.0,mouselab-mdp,,11
"[11103, 16040, 17713]","[u'up', u'up', u'right']",,,"[1, 0, 0]",,"[u'1', 3, 7, 13]","{u'mouseover': {u'state': {u'target': [], u'time': []}, u'edge': {u'target': [], u'time': []}}, u'click': {u'state': {u'target': [u'8', u'13', u'3'], u'time': [4172, 6742, 8954]}, u'edge': {u'target': [], u'time': []}}, u'mouseout': {u'state': {u'target': [], u'time': []}, u'edge': {u'target': [], u'time': []}}}",,,"[11103, 961, 722]",52.0,,933466,9.0,3.0,mouselab-mdp,,11
"[16778, 20828, 22997]","[u'up', u'up', u'right']",,,"[0, 0, 0]",,"[u'1', 3, 7, 13]","{u'mouseover': {u'state': {u'target': [], u'time': []}, u'edge': {u'target': [], u'time': []}}, u'click': {u'state': {u'target': [u'2', u'10', u'11', u'16', u'8', u'3', u'13', u'6'], u'time': [1679, 2931, 4480, 6604, 8659, 9651, 10932, 14087]}, u'edge': {u'target': [], u'time': []}}, u'mouseout': {u'state': {u'target': [], u'time': []}, u'edge': {u'target': [], u'time': []}}}",,,"[16778, 4, 1358]",47.0,,984274,10.0,2.0,mouselab-mdp,,11
"[16318, 17206, 18184]","[u'right', u'right', u'up']",,,[],,"[u'1', 2, 6, 10]","{u'mouseover': {u'state': {u'target': [], u'time': []}, u'edge': {u'target': [], u'time': []}}, u'click': {u'state': {u'target': [u'2', u'10', u'8', u'3', u'9', u'6'], u'time': [4593, 5540, 8563, 10247, 13799, 15707]}, u'edge': {u'target': [], u'time': []}}, u'mouseout': {u'state': {u'target': [], u'time': []}, u'edge': {u'target': [], u'time': []}}}",,,"[16318, 393, 491]",47.0,,1048798,11.0,10.0,mouselab-mdp,,11
"[12787, 14675, 15925]","[u'up', u'up', u'left']",,,[],,"[u'1', 3, 7, 12]","{u'mouseover': {u'state': {u'target': [], u'time': []}, u'edge': {u'target': [], u'time': []}}, u'click': {u'state': {u'target': [u'2', u'4', u'14', u'15', u'5', u'3', u'13', u'12'], u'time': [1434, 4261, 5511, 6395, 9118, 9939, 11077, 12068]}, u'edge': {u'target': [], u'time': []}}, u'mouseout': {u'state': {u'target': [], u'time': []}, u'edge': {u'target': [], u'time': []}}}",,,"[12787, 1388, 738]",42.0,,1096664,12.0,13.0,mouselab-mdp,,11
"[15826, 18406, 19983]","[u'right', u'right', u'down']",,,[],,"[u'1', 2, 6, 11]","{u'mouseover': {u'state': {u'target': [], u'time': []}, u'edge': {u'target': [], u'time': []}}, u'click': {u'state': {u'target': [u'4', u'2', u'5', u'3', u'17', u'16', u'13', u'11', u'10'], u'time': [1409, 2729, 4116, 5426, 6520, 7259, 8276, 9376, 11947]}, u'edge': {u'target': [], u'time': []}}, u'mouseout': {u'state': {u'target': [], u'time': []}, u'edge': {u'target': [], u'time': []}}}",,,"[15826, 2058, 1068]",19.0,,1144628,13.0,11.0,mouselab-mdp,,11
"[15701, 17486, 18737]","[u'up', u'up', u'left']",,,[],,"[u'1', 3, 7, 12]","{u'mouseover': {u'state': {u'target': [], u'time': []}, u'edge': {u'target': [], u'time': []}}, u'click': {u'state': {u'target': [u'4', u'14', u'15', u'11', u'10', u'13', u'17', u'16', u'12', u'7'], u'time': [2345, 3405, 4462, 5906, 7185, 8941, 10323, 11485, 12512, 13602]}, u'edge': {u'target': [], u'time': []}}, u'mouseout': {u'state': {u'target': [], u'time': []}, u'edge': {u'target': [], u'time': []}}}",,,"[15700, 1285, 753]",42.0,,1192227,14.0,14.0,mouselab-mdp,,11
"[9646, 10783, 11780]","[u'up', u'up', u'left']",,,[],,"[u'1', 3, 7, 12]","{u'mouseover': {u'state': {u'target': [], u'time': []}, u'edge': {u'target': [], u'time': []}}, u'click': {u'state': {u'target': [u'10', u'2', u'12', u'7'], u'time': [2219, 3725, 4571, 6190]}, u'edge': {u'target': [], u'time': []}}, u'mouseout': {u'state': {u'target': [], u'time': []}, u'edge': {u'target': [], u'time': []}}}",,,"[9646, 641, 471]",48.0,,1240012,15.0,12.0,mouselab-mdp,,11
"[10331, 11475, 12585]","[u'up', u'up', u'left']",,,[],,"[u'1', 3, 7, 12]","{u'mouseover': {u'state': {u'target': [], u'time': []}, u'edge': {u'target': [], u'time': []}}, u'click': {u'state': {u'target': [u'2', u'14', u'12', u'7', u'17'], u'time': [1438, 4027, 4952, 6005, 9599]}, u'edge': {u'target': [], u'time': []}}, u'mouseout': {u'state': {u'target': [], u'time': []}, u'edge': {u'target': [], u'time': []}}}",,,"[10331, 618, 610]",44.0,,1290001,16.0,15.0,mouselab-mdp,,11
"[13391, 45743, 51636]","[u'left', u'left', u'down']",,,"[3, 3, 0]",,"[u'1', 4, 8, 15]","{u'mouseover': {u'state': {u'target': [], u'time': []}, u'edge': {u'target': [], u'time': []}}, u'click': {u'state': {u'target': [u'2', u'4', u'8', u'14'], u'time': [2551, 5086, 29896, 40119]}, u'edge': {u'target': [], u'time': []}}, u'mouseout': {u'state': {u'target': [], u'time': []}, u'edge': {u'target': [], u'time': []}}}",,,"[13390, 27121, 1566]",10.0,,274964,1.0,9.0,mouselab-mdp,,12
"[10685, 65334, 87524]","[u'down', u'down', u'left']",,,"[3, 4, 2]",,"[u'1', 5, 9, 16]","{u'mouseover': {u'state': {u'target': [], u'time': []}, u'edge': {u'target': [], u'time': []}}, u'click': {u'state': {u'target': [u'2', u'5', u'3', u'4', u'9', u'17', u'16'], u'time': [2085, 4833, 7352, 8809, 18511, 32686, 35088]}, u'edge': {u'target': [], u'time': []}}, u'mouseout': {u'state': {u'target': [], u'time': []}, u'edge': {u'target': [], u'time': []}}}",,,"[10684, 49154, 16847]",-6.0,,369034,2.0,1.0,mouselab-mdp,,12
"[8707, 34576, 39321]","[u'down', u'down', u'right']",,,"[18, 3, 0]",,"[u'1', 5, 9, 17]","{u'mouseover': {u'state': {u'target': [], u'time': []}, u'edge': {u'target': [], u'time': []}}, u'click': {u'state': {u'target': [u'3', u'5', u'2', u'4', u'9', u'17'], u'time': [1821, 4113, 5335, 6494, 30715, 32015]}, u'edge': {u'target': [], u'time': []}}, u'mouseout': {u'state': {u'target': [], u'time': []}, u'edge': {u'target': [], u'time': []}}}",,,"[8707, 5221, 442]",28.0,,442921,3.0,3.0,mouselab-mdp,,12
"[13364, 16381, 21123]","[u'left', u'left', u'up']",,,"[0, 0, 0]",,"[u'1', 4, 8, 14]","{u'mouseover': {u'state': {u'target': [], u'time': []}, u'edge': {u'target': [], u'time': []}}, u'click': {u'state': {u'target': [u'3', u'5', u'4', u'2', u'8', u'7', u'14'], u'time': [1173, 2533, 3636, 4973, 6566, 9220, 19633]}, u'edge': {u'target': [], u'time': []}}, u'mouseout': {u'state': {u'target': [], u'time': []}, u'edge': {u'target': [], u'time': []}}}",,,"[13364, 2, 3847]",55.0,,496892,4.0,0.0,mouselab-mdp,,12
"[8687, 11722, 16474]","[u'right', u'right', u'down']",,,"[0, 0, 0]",,"[u'1', 2, 6, 11]","{u'mouseover': {u'state': {u'target': [], u'time': []}, u'edge': {u'target': [], u'time': []}}, u'click': {u'state': {u'target': [u'4', u'3', u'2', u'5', u'9', u'6', u'10', u'11'], u'time': [1079, 2131, 3094, 4356, 5273, 6224, 14398, 15291]}, u'edge': {u'target': [], u'time': []}}, u'mouseout': {u'state': {u'target': [], u'time': []}, u'edge': {u'target': [], u'time': []}}}",,,"[8687, 2, 3851]",50.0,,546228,5.0,8.0,mouselab-mdp,,12
"[12853, 16026, 20631]","[u'up', u'up', u'left']",,,"[0, 0, 0]",,"[u'1', 3, 7, 12]","{u'mouseover': {u'state': {u'target': [], u'time': []}, u'edge': {u'target': [], u'time': []}}, u'click': {u'state': {u'target': [u'3', u'4', u'5', u'2', u'7', u'9', u'6', u'8', u'13', u'12'], u'time': [1966, 3034, 4079, 4927, 6498, 7530, 10516, 11463, 18503, 19322]}, u'edge': {u'target': [], u'time': []}}, u'mouseout': {u'state': {u'target': [], u'time': []}, u'edge': {u'target': [], u'time': []}}}",,,"[12852, 2, 3734]",37.0,,595069,6.0,5.0,mouselab-mdp,,12
"[11794, 15335, 19877]","[u'right', u'right', u'down']",,,"[0, 0, 0]",,"[u'1', 2, 6, 11]","{u'mouseover': {u'state': {u'target': [], u'time': []}, u'edge': {u'target': [], u'time': []}}, u'click': {u'state': {u'target': [u'3', u'4', u'5', u'2', u'7', u'9', u'6', u'8', u'10', u'11'], u'time': [1329, 2313, 3204, 4174, 5314, 6273, 8223, 10214, 17775, 18604]}, u'edge': {u'target': [], u'time': []}}, u'mouseout': {u'state': {u'target': [], u'time': []}, u'edge': {u'target': [], u'time': []}}}",,,"[11792, 12, 3612]",47.0,,645653,7.0,6.0,mouselab-mdp,,12
"[9008, 12211, 16227]","[u'up', u'up', u'right']",,,"[0, 0, 1]",,"[u'1', 3, 7, 13]","{u'mouseover': {u'state': {u'target': [], u'time': []}, u'edge': {u'target': [], u'time': []}}, u'click': {u'state': {u'target': [u'3', u'4', u'5', u'2', u'6', u'7', u'8', u'12', u'13'], u'time': [1698, 2712, 3523, 4292, 5122, 6170, 7589, 14382, 15174]}, u'edge': {u'target': [], u'time': []}}, u'mouseout': {u'state': {u'target': [], u'time': []}, u'edge': {u'target': [], u'time': []}}}",,,"[9008, 2, 3128]",46.0,,696865,8.0,4.0,mouselab-mdp,,12
"[9276, 12561, 16731]","[u'up', u'up', u'right']",,,"[0, 0, 0]",,"[u'1', 3, 7, 13]","{u'mouseover': {u'state': {u'target': [], u'time': []}, u'edge': {u'target': [], u'time': []}}, u'click': {u'state': {u'target': [u'3', u'4', u'5', u'2', u'6', u'7', u'8', u'13', u'12'], u'time': [1142, 2172, 3984, 4679, 5973, 6760, 7827, 14773, 15794]}, u'edge': {u'target': [], u'time': []}}, u'mouseout': {u'state': {u'target': [], u'time': []}, u'edge': {u'target': [], u'time': []}}}",,,"[9276, 318, 3308]",46.0,,745988,9.0,2.0,mouselab-mdp,,12
"[7653, 12246, 17431]","[u'left', u'left', u'up']",,,"[1, 0, 0]",,"[u'1', 4, 8, 14]","{u'mouseover': {u'state': {u'target': [], u'time': []}, u'edge': {u'target': [], u'time': []}}, u'click': {u'state': {u'target': [u'3', u'4', u'5', u'2', u'6', u'8', u'15', u'14'], u'time': [978, 2039, 3018, 3773, 4993, 6212, 15317, 16303]}, u'edge': {u'target': [], u'time': []}}, u'mouseout': {u'state': {u'target': [], u'time': []}, u'edge': {u'target': [], u'time': []}}}",,,"[7653, 514, 4285]",20.0,,798748,10.0,7.0,mouselab-mdp,,12
"[10685, 12319, 16003]","[u'right', u'right', u'up']",,,[],,"[u'1', 2, 6, 10]","{u'mouseover': {u'state': {u'target': [], u'time': []}, u'edge': {u'target': [], u'time': []}}, u'click': {u'state': {u'target': [u'3', u'4', u'5', u'2', u'8', u'9', u'6', u'10'], u'time': [1143, 2445, 3413, 4255, 5535, 6461, 7601, 14249]}, u'edge': {u'target': [], u'time': []}}, u'mouseout': {u'state': {u'target': [], u'time': []}, u'edge': {u'target': [], u'time': []}}}",,,"[10685, 1121, 3171]",45.0,,855505,11.0,10.0,mouselab-mdp,,12
"[9255, 10652, 15747]","[u'up', u'up', u'left']",,,[],,"[u'1', 3, 7, 12]","{u'mouseover': {u'state': {u'target': [], u'time': []}, u'edge': {u'target': [], u'time': []}}, u'click': {u'state': {u'target': [u'3', u'4', u'5', u'2', u'7', u'8', u'13', u'12'], u'time': [1281, 2211, 3097, 3831, 4979, 5968, 12883, 13959]}, u'edge': {u'target': [], u'time': []}}, u'mouseout': {u'state': {u'target': [], u'time': []}, u'edge': {u'target': [], u'time': []}}}",,,"[9255, 879, 4591]",44.0,,905225,12.0,12.0,mouselab-mdp,,12
"[19647, 20690, 22485]","[u'right', u'right', u'down']",,,[],,"[u'1', 2, 6, 11]","{u'mouseover': {u'state': {u'target': [], u'time': []}, u'edge': {u'target': [], u'time': []}}, u'click': {u'state': {u'target': [u'3', u'4', u'5', u'2', u'7', u'8', u'9', u'6', u'12', u'13', u'10', u'11'], u'time': [1297, 2670, 3776, 4823, 6737, 7803, 8918, 9802, 14190, 15112, 16406, 17186]}, u'edge': {u'target': [], u'time': []}}, u'mouseout': {u'state': {u'target': [], u'time': []}, u'edge': {u'target': [], u'time': []}}}",,,"[19647, 543, 1162]",16.0,,953608,13.0,11.0,mouselab-mdp,,12
"[12124, 13219, 14456]","[u'up', u'up', u'left']",,,[],,"[u'1', 3, 7, 12]","{u'mouseover': {u'state': {u'target': [], u'time': []}, u'edge': {u'target': [], u'time': []}}, u'click': {u'state': {u'target': [u'3', u'4', u'5', u'2', u'7', u'8', u'9', u'13', u'12'], u'time': [1419, 2638, 3594, 4282, 5846, 7358, 8309, 9626, 10609]}, u'edge': {u'target': [], u'time': []}}, u'mouseout': {u'state': {u'target': [], u'time': []}, u'edge': {u'target': [], u'time': []}}}",,,"[12124, 584, 722]",40.0,,1001731,14.0,15.0,mouselab-mdp,,12
"[8546, 9687, 10610]","[u'up', u'up', u'left']",,,[],,"[u'1', 3, 7, 12]","{u'mouseover': {u'state': {u'target': [], u'time': []}, u'edge': {u'target': [], u'time': []}}, u'click': {u'state': {u'target': [u'3', u'7', u'12', u'13'], u'time': [1432, 3972, 6395, 7245]}, u'edge': {u'target': [], u'time': []}}, u'mouseout': {u'state': {u'target': [], u'time': []}, u'edge': {u'target': [], u'time': []}}}",,,"[8546, 635, 425]",46.0,,1050005,15.0,13.0,mouselab-mdp,,12
"[14427, 15647, 16696]","[u'up', u'up', u'left']",,,[],,"[u'1', 3, 7, 12]","{u'mouseover': {u'state': {u'target': [], u'time': []}, u'edge': {u'target': [], u'time': []}}, u'click': {u'state': {u'target': [u'3', u'4', u'5', u'2', u'7', u'8', u'6', u'12'], u'time': [1373, 2386, 3367, 4321, 5490, 6727, 7728, 12018]}, u'edge': {u'target': [], u'time': []}}, u'mouseout': {u'state': {u'target': [], u'time': []}, u'edge': {u'target': [], u'time': []}}}",,,"[14427, 718, 534]",44.0,,1105192,16.0,14.0,mouselab-mdp,,12
"[8074, 37541, 40076]","[u'up', u'up', u'right']",,,"[26, 0, 7]",,"[u'1', 3, 7, 13]","{u'mouseover': {u'state': {u'target': [], u'time': []}, u'edge': {u'target': [], u'time': []}}, u'click': {u'state': {u'target': [], u'time': []}, u'edge': {u'target': [], u'time': []}}, u'mouseout': {u'state': {u'target': [], u'time': []}, u'edge': {u'target': [], u'time': []}}}",,,"[8074, 1870, 1742]",55.0,,303705,1.0,4.0,mouselab-mdp,,13
"[3080, 33463, 34633]","[u'left', u'left', u'down']",,,"[26, 0, 7]",,"[u'1', 4, 8, 15]","{u'mouseover': {u'state': {u'target': [], u'time': []}, u'edge': {u'target': [], u'time': []}}, u'click': {u'state': {u'target': [], u'time': []}, u'edge': {u'target': [], u'time': []}}, u'mouseout': {u'state': {u'target': [], u'time': []}, u'edge': {u'target': [], u'time': []}}}",,,"[3080, 2795, 275]",4.0,,385189,2.0,6.0,mouselab-mdp,,13
"[1490, 39616, 41216]","[u'right', u'right', u'up']",,,"[26, 0, 7]",,"[u'1', 2, 6, 10]","{u'mouseover': {u'state': {u'target': [], u'time': []}, u'edge': {u'target': [], u'time': []}}, u'click': {u'state': {u'target': [], u'time': []}, u'edge': {u'target': [], u'time': []}}, u'mouseout': {u'state': {u'target': [], u'time': []}, u'edge': {u'target': [], u'time': []}}}",,,"[1490, 9728, 667]",-11.0,,475416,3.0,5.0,mouselab-mdp,,13
"[7702, 16285, 19917]","[u'right', u'right', u'down']",,,"[5, 0, 0]",,"[u'1', 2, 6, 11]","{u'mouseover': {u'state': {u'target': [], u'time': []}, u'edge': {u'target': [], u'time': []}}, u'click': {u'state': {u'target': [u'3', u'4', u'5', u'2', u'10', u'11'], u'time': [2477, 3310, 3972, 4715, 18105, 19057]}, u'edge': {u'target': [], u'time': []}}, u'mouseout': {u'state': {u'target': [], u'time': []}, u'edge': {u'target': [], u'time': []}}}",,,"[7702, 1235, 2755]",2.0,,531104,4.0,2.0,mouselab-mdp,,13
"[6055, 15421, 18346]","[u'right', u'right', u'down']",,,"[6, 0, 0]",,"[u'1', 2, 6, 11]","{u'mouseover': {u'state': {u'target': [], u'time': []}, u'edge': {u'target': [], u'time': []}}, u'click': {u'state': {u'target': [u'3', u'4', u'2', u'10', u'11'], u'time': [1553, 2743, 4060, 16636, 17659]}, u'edge': {u'target': [], u'time': []}}, u'mouseout': {u'state': {u'target': [], u'time': []}, u'edge': {u'target': [], u'time': []}}}",,,"[6055, 1355, 1962]",53.0,,590781,5.0,8.0,mouselab-mdp,,13
"[2428, 13845, 19415]","[u'up', u'up', u'right']",,,"[9, 0, 1]",,"[u'1', 3, 7, 13]","{u'mouseover': {u'state': {u'target': [], u'time': []}, u'edge': {u'target': [], u'time': []}}, u'click': {u'state': {u'target': [u'3', u'12', u'13'], u'time': [960, 17644, 18590]}, u'edge': {u'target': [], u'time': []}}, u'mouseout': {u'state': {u'target': [], u'time': []}, u'edge': {u'target': [], u'time': []}}}",,,"[2428, 752, 4712]",37.0,,651725,6.0,1.0,mouselab-mdp,,13
"[4920, 9465, 12340]","[u'left', u'left', u'up']",,,"[2, 0, 1]",,"[u'1', 4, 8, 14]","{u'mouseover': {u'state': {u'target': [], u'time': []}, u'edge': {u'target': [], u'time': []}}, u'click': {u'state': {u'target': [u'3', u'2', u'4', u'15'], u'time': [1105, 2167, 3390, 10972]}, u'edge': {u'target': [], u'time': []}}, u'mouseout': {u'state': {u'target': [], u'time': []}, u'edge': {u'target': [], u'time': []}}}",,,"[4920, 495, 2000]",10.0,,709943,7.0,9.0,mouselab-mdp,,13
"[10627, 20400, 25725]","[u'up', u'up', u'left']",,,"[7, 0, 2]",,"[u'1', 3, 7, 12]","{u'mouseover': {u'state': {u'target': [], u'time': []}, u'edge': {u'target': [], u'time': []}}, u'click': {u'state': {u'target': [u'3', u'4', u'5', u'2', u'12'], u'time': [2472, 5172, 7050, 9215, 24405]}, u'edge': {u'target': [], u'time': []}}, u'mouseout': {u'state': {u'target': [], u'time': []}, u'edge': {u'target': [], u'time': []}}}",,,"[10627, 633, 4460]",9.0,,773833,8.0,0.0,mouselab-mdp,,13
"[5470, 13340, 16368]","[u'right', u'right', u'down']",,,"[5, 0, 0]",,"[u'1', 2, 6, 11]","{u'mouseover': {u'state': {u'target': [], u'time': []}, u'edge': {u'target': [], u'time': []}}, u'click': {u'state': {u'target': [u'3', u'2', u'5', u'10'], u'time': [1290, 2298, 4003, 15575]}, u'edge': {u'target': [], u'time': []}}, u'mouseout': {u'state': {u'target': [], u'time': []}, u'edge': {u'target': [], u'time': []}}}",,,"[5470, 817, 2118]",-16.0,,841678,9.0,7.0,mouselab-mdp,,13
"[2977, 11977, 15349]","[u'up', u'up', u'right']",,,"[6, 0, 1]",,"[u'1', 3, 7, 13]","{u'mouseover': {u'state': {u'target': [], u'time': []}, u'edge': {u'target': [], u'time': []}}, u'click': {u'state': {u'target': [u'3', u'12'], u'time': [1510, 13987]}, u'edge': {u'target': [], u'time': []}}, u'mouseout': {u'state': {u'target': [], u'time': []}, u'edge': {u'target': [], u'time': []}}}",,,"[2977, 853, 2505]",53.0,,904923,10.0,3.0,mouselab-mdp,,13
"[5067, 5884, 10603]","[u'left', u'left', u'down']",,,[],,"[u'1', 4, 8, 15]","{u'mouseover': {u'state': {u'target': [], u'time': []}, u'edge': {u'target': [], u'time': []}}, u'click': {u'state': {u'target': [u'3', u'4', u'15', u'14'], u'time': [3045, 3823, 7180, 9058]}, u'edge': {u'target': [], u'time': []}}, u'mouseout': {u'state': {u'target': [], u'time': []}, u'edge': {u'target': [], u'time': []}}}",,,"[5067, 317, 4203]",13.0,,959616,11.0,10.0,mouselab-mdp,,13
"[2365, 3327, 6115]","[u'up', u'up', u'left']",,,[],,"[u'1', 3, 7, 12]","{u'mouseover': {u'state': {u'target': [], u'time': []}, u'edge': {u'target': [], u'time': []}}, u'click': {u'state': {u'target': [u'3', u'12'], u'time': [1022, 4837]}, u'edge': {u'target': [], u'time': []}}, u'mouseout': {u'state': {u'target': [], u'time': []}, u'edge': {u'target': [], u'time': []}}}",,,"[2365, 447, 2268]",50.0,,1017097,12.0,14.0,mouselab-mdp,,13
"[1837, 3167, 6230]","[u'up', u'up', u'right']",,,[],,"[u'1', 3, 7, 13]","{u'mouseover': {u'state': {u'target': [], u'time': []}, u'edge': {u'target': [], u'time': []}}, u'click': {u'state': {u'target': [u'3', u'13'], u'time': [732, 4302]}, u'edge': {u'target': [], u'time': []}}, u'mouseout': {u'state': {u'target': [], u'time': []}, u'edge': {u'target': [], u'time': []}}}",,,"[1837, 832, 2545]",40.0,,1078166,13.0,12.0,mouselab-mdp,,13
"[4110, 4948, 7440]","[u'up', u'up', u'left']",,,[],,"[u'1', 3, 7, 12]","{u'mouseover': {u'state': {u'target': [], u'time': []}, u'edge': {u'target': [], u'time': []}}, u'click': {u'state': {u'target': [u'3', u'5', u'12'], u'time': [1230, 2063, 6303]}, u'edge': {u'target': [], u'time': []}}, u'mouseout': {u'state': {u'target': [], u'time': []}, u'edge': {u'target': [], u'time': []}}}",,,"[4110, 328, 1985]",46.0,,1138198,14.0,15.0,mouselab-mdp,,13
"[7382, 8137, 10262]","[u'down', u'down', u'right']",,,[],,"[u'1', 5, 9, 17]","{u'mouseover': {u'state': {u'target': [], u'time': []}, u'edge': {u'target': [], u'time': []}}, u'click': {u'state': {u'target': [u'3', u'5', u'2', u'4', u'16'], u'time': [1270, 2425, 3222, 6282, 9362]}, u'edge': {u'target': [], u'time': []}}, u'mouseout': {u'state': {u'target': [], u'time': []}, u'edge': {u'target': [], u'time': []}}}",,,"[7382, 247, 1607]",-14.0,,1190014,15.0,11.0,mouselab-mdp,,13
"[1788, 2975, 5519]","[u'up', u'up', u'left']",,,[],,"[u'1', 3, 7, 12]","{u'mouseover': {u'state': {u'target': [], u'time': []}, u'edge': {u'target': [], u'time': []}}, u'click': {u'state': {u'target': [u'3', u'12'], u'time': [735, 4289]}, u'edge': {u'target': [], u'time': []}}, u'mouseout': {u'state': {u'target': [], u'time': []}, u'edge': {u'target': [], u'time': []}}}",,,"[1788, 667, 2043]",48.0,,1243812,16.0,13.0,mouselab-mdp,,13
"[11651, 20217, 26009]","[u'down', u'down', u'right']",,,"[5, 0, 0]",,"[u'1', 5, 9, 17]","{u'mouseover': {u'state': {u'target': [], u'time': []}, u'edge': {u'target': [], u'time': []}}, u'click': {u'state': {u'target': [u'6', u'8', u'7', u'9', u'16', u'17'], u'time': [3850, 6156, 7395, 8601, 24354, 25246]}, u'edge': {u'target': [], u'time': []}}, u'mouseout': {u'state': {u'target': [], u'time': []}, u'edge': {u'target': [], u'time': []}}}",,,"[11649, 1507, 4960]",28.0,,-2355064,1.0,4.0,mouselab-mdp,,14
"[5404, 7334, 11308]","[u'right', u'right', u'down']",,,"[0, 0, 0]",,"[u'1', 2, 6, 11]","{u'mouseover': {u'state': {u'target': [], u'time': []}, u'edge': {u'target': [], u'time': []}}, u'click': {u'state': {u'target': [u'7', u'6', u'9', u'8', u'10', u'11'], u'time': [1657, 2372, 3228, 4085, 9713, 10586]}, u'edge': {u'target': [], u'time': []}}, u'mouseout': {u'state': {u'target': [], u'time': []}, u'edge': {u'target': [], u'time': []}}}",,,"[5404, 4, 3215]",52.0,,-2251601,2.0,8.0,mouselab-mdp,,14
"[6738, 14524, 18059]","[u'down', u'down', u'right']",,,"[5, 0, 0]",,"[u'1', 5, 9, 17]","{u'mouseover': {u'state': {u'target': [], u'time': []}, u'edge': {u'target': [], u'time': []}}, u'click': {u'state': {u'target': [u'7', u'6', u'9', u'8', u'17', u'16'], u'time': [2014, 3685, 4722, 5614, 16406, 17346]}, u'edge': {u'target': [], u'time': []}}, u'mouseout': {u'state': {u'target': [], u'time': []}, u'edge': {u'target': [], u'time': []}}}",,,"[6738, 829, 2759]",28.0,,-2118839,3.0,3.0,mouselab-mdp,,14
"[7919, 12879, 16302]","[u'left', u'left', u'up']",,,"[1, 0, 0]",,"[u'1', 4, 8, 14]","{u'mouseover': {u'state': {u'target': [], u'time': []}, u'edge': {u'target': [], u'time': []}}, u'click': {u'state': {u'target': [u'7', u'6', u'9', u'8', u'14', u'15'], u'time': [1519, 2256, 3047, 3804, 14877, 15683]}, u'edge': {u'target': [], u'time': []}}, u'mouseout': {u'state': {u'target': [], u'time': []}, u'edge': {u'target': [], u'time': []}}}",,,"[7918, 2028, 2631]",22.0,,-2046336,4.0,7.0,mouselab-mdp,,14
"[7399, 11999, 15503]","[u'right', u'right', u'down']",,,"[1, 0, 0]",,"[u'1', 2, 6, 11]","{u'mouseover': {u'state': {u'target': [], u'time': []}, u'edge': {u'target': [], u'time': []}}, u'click': {u'state': {u'target': [u'7', u'6', u'9', u'8', u'10', u'11'], u'time': [1785, 2499, 3284, 3972, 14161, 14971]}, u'edge': {u'target': [], u'time': []}}, u'mouseout': {u'state': {u'target': [], u'time': []}, u'edge': {u'target': [], u'time': []}}}",,,"[7399, 1684, 2723]",51.0,,-1986856,5.0,6.0,mouselab-mdp,,14
