action_times,actions,button_pressed,correct,delays,key_press,path,queries,questions,responses,rt,score,stimulus,time_elapsed,trial_index,trial_i,trial_type,view_history,pid
"[56252, 68687, 70712]","[u'left', u'left', u'up']",,,"[3, 0, 1]",,"[u'1', 4, 8, 14]","{u'mouseover': {u'state': {u'target': [], u'time': []}, u'edge': {u'target': [], u'time': []}}, u'click': {u'state': {u'target': [u'3', u'2', u'6', u'5', u'4', u'8', u'14', u'15'], u'time': [4520, 5811, 6515, 7666, 8589, 9339, 9839, 18124]}, u'edge': {u'target': [], u'time': []}}, u'mouseout': {u'state': {u'target': [], u'time': []}, u'edge': {u'target': [], u'time': []}}}",,,"[56252, 4090, 998]",20.0,,178249,1.0,7.0,mouselab-mdp,,0
"[48074, 60044, 61197]","[u'right', u'right', u'down']",,,"[3, 0, 1]",,"[u'1', 2, 6, 11]","{u'mouseover': {u'state': {u'target': [], u'time': []}, u'edge': {u'target': [], u'time': []}}, u'click': {u'state': {u'target': [u'3', u'7', u'4', u'2', u'11', u'6', u'13', u'5'], u'time': [3896, 5110, 7610, 10999, 12605, 14013, 18438, 34516]}, u'edge': {u'target': [], u'time': []}}, u'mouseout': {u'state': {u'target': [], u'time': []}, u'edge': {u'target': [], u'time': []}}}",,,"[48074, 3055, 3]",49.0,,245862,2.0,6.0,mouselab-mdp,,0
"[50461, 60089, 61428]","[u'down', u'down', u'right']",,,"[3, 0, 1]",,"[u'1', 5, 9, 17]","{u'mouseover': {u'state': {u'target': [], u'time': []}, u'edge': {u'target': [], u'time': []}}, u'click': {u'state': {u'target': [u'3', u'7', u'2', u'5', u'9', u'17', u'16'], u'time': [21710, 23241, 23984, 25128, 26232, 27584, 28809]}, u'edge': {u'target': [], u'time': []}}, u'mouseout': {u'state': {u'target': [], u'time': []}, u'edge': {u'target': [], u'time': []}}}",,,"[50461, 922, 240]",44.0,,315511,3.0,9.0,mouselab-mdp,,0
"[62237, 71927, 79866]","[u'up', u'up', u'right']",,,"[3, 0, 1]",,"[u'1', 3, 7, 13]","{u'mouseover': {u'state': {u'target': [], u'time': []}, u'edge': {u'target': [], u'time': []}}, u'click': {u'state': {u'target': [u'3', u'7', u'12', u'13', u'11', u'17', u'5'], u'time': [17424, 18229, 18989, 19838, 22087, 23241, 25213]}, u'edge': {u'target': [], u'time': []}}, u'mouseout': {u'state': {u'target': [], u'time': []}, u'edge': {u'target': [], u'time': []}}}",,,"[62237, 923, 6932]",48.0,,415102,4.0,4.0,mouselab-mdp,,0
"[68272, 77321, 78970]","[u'left', u'left', u'up']",,,"[3, 0, 1]",,"[u'1', 4, 8, 14]","{u'mouseover': {u'state': {u'target': [], u'time': []}, u'edge': {u'target': [], u'time': []}}, u'click': {u'state': {u'target': [u'3', u'7', u'2', u'4', u'8', u'15', u'14', u'9'], u'time': [24022, 24748, 26070, 27876, 28788, 29938, 30731, 33907]}, u'edge': {u'target': [], u'time': []}}, u'mouseout': {u'state': {u'target': [], u'time': []}, u'edge': {u'target': [], u'time': []}}}",,,"[68272, 510, 519]",54.0,,512083,5.0,0.0,mouselab-mdp,,0
"[48524, 57434, 59169]","[u'up', u'up', u'right']",,,"[3, 0, 1]",,"[u'1', 3, 7, 13]","{u'mouseover': {u'state': {u'target': [], u'time': []}, u'edge': {u'target': [], u'time': []}}, u'click': {u'state': {u'target': [u'3', u'7', u'12', u'13', u'17', u'9', u'5'], u'time': [3374, 4423, 5973, 6926, 8126, 9014, 9806]}, u'edge': {u'target': [], u'time': []}}, u'mouseout': {u'state': {u'target': [], u'time': []}, u'edge': {u'target': [], u'time': []}}}",,,"[48523, 690, 734]",48.0,,582560,6.0,3.0,mouselab-mdp,,0
"[55153, 65477, 67044]","[u'up', u'up', u'right']",,,"[3, 0, 1]",,"[u'1', 3, 7, 13]","{u'mouseover': {u'state': {u'target': [], u'time': []}, u'edge': {u'target': [], u'time': []}}, u'click': {u'state': {u'target': [u'3', u'13', u'11', u'9', u'5', u'7', u'12', u'15', u'8', u'4'], u'time': [10693, 11681, 12753, 15249, 16194, 17288, 18849, 23849, 25129, 27498]}, u'edge': {u'target': [], u'time': []}}, u'mouseout': {u'state': {u'target': [], u'time': []}, u'edge': {u'target': [], u'time': []}}}",,,"[55153, 1075, 576]",45.0,,658547,7.0,2.0,mouselab-mdp,,0
"[47113, 55603, 58499]","[u'right', u'right', u'down']",,,"[3, 0, 1]",,"[u'1', 2, 6, 11]","{u'mouseover': {u'state': {u'target': [], u'time': []}, u'edge': {u'target': [], u'time': []}}, u'click': {u'state': {u'target': [u'3', u'2', u'11', u'6', u'10'], u'time': [2782, 3772, 4836, 5540, 7082]}, u'edge': {u'target': [], u'time': []}}, u'mouseout': {u'state': {u'target': [], u'time': []}, u'edge': {u'target': [], u'time': []}}}",,,"[47112, 964, 1871]",53.0,,724500,8.0,8.0,mouselab-mdp,,0
"[50277, 59270, 63680]","[u'up', u'up', u'right']",,,"[3, 0, 1]",,"[u'1', 3, 7, 13]","{u'mouseover': {u'state': {u'target': [], u'time': []}, u'edge': {u'target': [], u'time': []}}, u'click': {u'state': {u'target': [u'3', u'7', u'13', u'12', u'2', u'9', u'5', u'8'], u'time': [19538, 21713, 23346, 24218, 25440, 26601, 28713, 31105]}, u'edge': {u'target': [], u'time': []}}, u'mouseout': {u'state': {u'target': [], u'time': []}, u'edge': {u'target': [], u'time': []}}}",,,"[50277, 593, 3356]",32.0,,794113,9.0,1.0,mouselab-mdp,,0
"[62348, 75889, 78052]","[u'up', u'up', u'left']",,,"[3, 0, 1]",,"[u'1', 3, 7, 12]","{u'mouseover': {u'state': {u'target': [], u'time': []}, u'edge': {u'target': [], u'time': []}}, u'click': {u'state': {u'target': [u'3', u'2', u'7', u'12', u'13', u'5', u'9', u'17', u'4', u'8'], u'time': [22786, 24888, 25721, 26992, 28057, 29312, 29959, 30863, 34479, 35943]}, u'edge': {u'target': [], u'time': []}}, u'mouseout': {u'state': {u'target': [], u'time': []}, u'edge': {u'target': [], u'time': []}}}",,,"[62348, 4253, 1148]",37.0,,878222,10.0,5.0,mouselab-mdp,,0
"[47371, 53844, 54999]","[u'up', u'up', u'left']",,,[],,"[u'1', 3, 7, 12]","{u'mouseover': {u'state': {u'target': [], u'time': []}, u'edge': {u'target': [], u'time': []}}, u'click': {u'state': {u'target': [u'3', u'7', u'12', u'13', u'11', u'2', u'8', u'9', u'5', u'17'], u'time': [9695, 10782, 11366, 12598, 14431, 16758, 19166, 25167, 26174, 28551]}, u'edge': {u'target': [], u'time': []}}, u'mouseout': {u'state': {u'target': [], u'time': []}, u'edge': {u'target': [], u'time': []}}}",,,"[47371, 5960, 645]",39.0,,937845,11.0,15.0,mouselab-mdp,,0
"[56631, 58703, 60820]","[u'up', u'up', u'left']",,,[],,"[u'1', 3, 7, 12]","{u'mouseover': {u'state': {u'target': [], u'time': []}, u'edge': {u'target': [], u'time': []}}, u'click': {u'state': {u'target': [u'3', u'7', u'12', u'13', u'8', u'14'], u'time': [17495, 18720, 19743, 20593, 25935, 27351]}, u'edge': {u'target': [], u'time': []}}, u'mouseout': {u'state': {u'target': [], u'time': []}, u'edge': {u'target': [], u'time': []}}}",,,"[56631, 1566, 1610]",46.0,,1004804,12.0,12.0,mouselab-mdp,,0
"[50540, 52045, 53796]","[u'right', u'right', u'down']",,,[],,"[u'1', 2, 6, 11]","{u'mouseover': {u'state': {u'target': [], u'time': []}, u'edge': {u'target': [], u'time': []}}, u'click': {u'state': {u'target': [u'3', u'5', u'4', u'6', u'12', u'9', u'2', u'7', u'11', u'10'], u'time': [7433, 9975, 12191, 13247, 15536, 16895, 18151, 20135, 23720, 25863]}, u'edge': {u'target': [], u'time': []}}, u'mouseout': {u'state': {u'target': [], u'time': []}, u'edge': {u'target': [], u'time': []}}}",,,"[50540, 992, 1239]",18.0,,1064868,13.0,11.0,mouselab-mdp,,0
"[47266, 51263, 54234]","[u'right', u'right', u'up']",,,[],,"[u'1', 2, 6, 10]","{u'mouseover': {u'state': {u'target': [], u'time': []}, u'edge': {u'target': [], u'time': []}}, u'click': {u'state': {u'target': [u'3', u'2', u'6', u'11', u'10', u'5', u'9', u'17', u'16', u'8'], u'time': [5466, 6361, 7361, 8040, 9032, 10169, 10850, 11419, 12233, 14104]}, u'edge': {u'target': [], u'time': []}}, u'mouseout': {u'state': {u'target': [], u'time': []}, u'edge': {u'target': [], u'time': []}}}",,,"[47266, 3490, 2450]",43.0,,1122826,14.0,10.0,mouselab-mdp,,0
"[50017, 54747, 57231]","[u'up', u'up', u'left']",,,[],,"[u'1', 3, 7, 12]","{u'mouseover': {u'state': {u'target': [], u'time': []}, u'edge': {u'target': [], u'time': []}}, u'click': {u'state': {u'target': [u'3', u'7', u'12', u'15', u'11', u'10', u'13', u'9'], u'time': [13436, 14235, 15075, 21117, 22564, 24443, 25243, 26563]}, u'edge': {u'target': [], u'time': []}}, u'mouseout': {u'state': {u'target': [], u'time': []}, u'edge': {u'target': [], u'time': []}}}",,,"[50016, 4213, 1966]",44.0,,1189802,15.0,14.0,mouselab-mdp,,0
"[47968, 49340, 50770]","[u'up', u'up', u'left']",,,[],,"[u'1', 3, 7, 12]","{u'mouseover': {u'state': {u'target': [], u'time': []}, u'edge': {u'target': [], u'time': []}}, u'click': {u'state': {u'target': [u'3', u'7', u'12', u'13'], u'time': [9860, 10971, 11898, 12962]}, u'edge': {u'target': [], u'time': []}}, u'mouseout': {u'state': {u'target': [], u'time': []}, u'edge': {u'target': [], u'time': []}}}",,,"[47968, 854, 911]",46.0,,1246102,16.0,13.0,mouselab-mdp,,0
"[46721, 61480, 62698]","[u'right', u'right', u'down']",,,"[3, 0, 1]",,"[u'1', 2, 6, 11]","{u'mouseover': {u'state': {u'target': [], u'time': []}, u'edge': {u'target': [], u'time': []}}, u'click': {u'state': {u'target': [u'3', u'13', u'2', u'6', u'11', u'15', u'17'], u'time': [3812, 5044, 6013, 7263, 7938, 12607, 13858]}, u'edge': {u'target': [], u'time': []}}, u'mouseout': {u'state': {u'target': [], u'time': []}, u'edge': {u'target': [], u'time': []}}}",,,"[46720, 6828, 235]",51.0,,254250,1.0,8.0,mouselab-mdp,,2
"[54250, 68267, 72751]","[u'right', u'right', u'down']",,,"[3, 0, 1]",,"[u'1', 2, 6, 11]","{u'mouseover': {u'state': {u'target': [], u'time': []}, u'edge': {u'target': [], u'time': []}}, u'click': {u'state': {u'target': [u'3', u'7', u'11', u'6', u'2', u'13', u'12', u'5', u'17', u'9'], u'time': [11016, 12575, 14596, 15706, 16565, 24675, 26441, 36613, 45645, 47894]}, u'edge': {u'target': [], u'time': []}}, u'mouseout': {u'state': {u'target': [], u'time': []}, u'edge': {u'target': [], u'time': []}}}",,,"[54250, 5985, 3597]",47.0,,334677,2.0,6.0,mouselab-mdp,,2
"[49146, 61318, 65162]","[u'up', u'up', u'left']",,,"[3, 0, 1]",,"[u'1', 3, 7, 12]","{u'mouseover': {u'state': {u'target': [], u'time': []}, u'edge': {u'target': [], u'time': []}}, u'click': {u'state': {u'target': [u'2', u'3', u'7', u'13', u'12', u'8', u'14', u'6', u'9', u'16'], u'time': [16383, 17273, 18116, 18820, 19774, 22008, 22679, 25304, 27774, 30211]}, u'edge': {u'target': [], u'time': []}}, u'mouseout': {u'state': {u'target': [], u'time': []}, u'edge': {u'target': [], u'time': []}}}",,,"[49146, 4375, 2938]",37.0,,407699,3.0,5.0,mouselab-mdp,,2
"[45680, 57930, 60415]","[u'down', u'down', u'right']",,,"[3, 0, 1]",,"[u'1', 5, 9, 17]","{u'mouseover': {u'state': {u'target': [], u'time': []}, u'edge': {u'target': [], u'time': []}}, u'click': {u'state': {u'target': [u'3', u'8', u'6', u'9', u'5', u'17', u'16', u'7', u'4', u'14'], u'time': [8292, 11572, 13275, 14807, 16010, 19449, 22541, 24012, 28479, 29979]}, u'edge': {u'target': [], u'time': []}}, u'mouseout': {u'state': {u'target': [], u'time': []}, u'edge': {u'target': [], u'time': []}}}",,,"[45680, 4297, 1546]",41.0,,475193,4.0,9.0,mouselab-mdp,,2
"[54778, 66106, 71982]","[u'left', u'left', u'up']",,,"[3, 0, 1]",,"[u'1', 4, 8, 14]","{u'mouseover': {u'state': {u'target': [], u'time': []}, u'edge': {u'target': [], u'time': []}}, u'click': {u'state': {u'target': [u'3', u'4', u'2', u'11', u'13', u'7', u'8', u'15', u'14'], u'time': [2530, 3576, 5701, 7373, 8982, 10014, 11185, 12154, 12922]}, u'edge': {u'target': [], u'time': []}}, u'mouseout': {u'state': {u'target': [], u'time': []}, u'edge': {u'target': [], u'time': []}}}",,,"[54778, 3484, 4963]",53.0,,554866,5.0,0.0,mouselab-mdp,,2
"[49112, 62811, 64139]","[u'up', u'up', u'right']",,,"[3, 0, 1]",,"[u'1', 3, 7, 13]","{u'mouseover': {u'state': {u'target': [], u'time': []}, u'edge': {u'target': [], u'time': []}}, u'click': {u'state': {u'target': [u'3', u'7', u'15', u'8', u'12', u'13', u'6', u'10', u'17', u'9', u'5'], u'time': [5110, 5875, 7562, 8734, 10187, 11500, 13860, 14563, 24752, 25501, 28845]}, u'edge': {u'target': [], u'time': []}}, u'mouseout': {u'state': {u'target': [], u'time': []}, u'edge': {u'target': [], u'time': []}}}",,,"[49111, 5188, 416]",44.0,,629031,6.0,4.0,mouselab-mdp,,2
"[49426, 63442, 68098]","[u'up', u'up', u'right']",,,"[3, 0, 1]",,"[u'1', 3, 7, 13]","{u'mouseover': {u'state': {u'target': [], u'time': []}, u'edge': {u'target': [], u'time': []}}, u'click': {u'state': {u'target': [u'9', u'7', u'12', u'13', u'10', u'8', u'3', u'2', u'5', u'17'], u'time': [7678, 9223, 10239, 11459, 12911, 14505, 17209, 18989, 20599, 32336]}, u'edge': {u'target': [], u'time': []}}, u'mouseout': {u'state': {u'target': [], u'time': []}, u'edge': {u'target': [], u'time': []}}}",,,"[49426, 6000, 3769]",30.0,,704258,7.0,1.0,mouselab-mdp,,2
"[51112, 60671, 62468]","[u'up', u'up', u'right']",,,"[3, 0, 1]",,"[u'1', 3, 7, 13]","{u'mouseover': {u'state': {u'target': [], u'time': []}, u'edge': {u'target': [], u'time': []}}, u'click': {u'state': {u'target': [u'3', u'7', u'12', u'13', u'17', u'9', u'5'], u'time': [10705, 11719, 13470, 14501, 19657, 21282, 22095]}, u'edge': {u'target': [], u'time': []}}, u'mouseout': {u'state': {u'target': [], u'time': []}, u'edge': {u'target': [], u'time': []}}}",,,"[51112, 2281, 897]",48.0,,774070,8.0,3.0,mouselab-mdp,,2
"[47844, 57513, 64693]","[u'up', u'up', u'right']",,,"[3, 0, 1]",,"[u'1', 3, 7, 13]","{u'mouseover': {u'state': {u'target': [], u'time': []}, u'edge': {u'target': [], u'time': []}}, u'click': {u'state': {u'target': [u'3', u'7', u'12', u'13', u'16'], u'time': [7161, 8534, 9301, 10317, 14083]}, u'edge': {u'target': [], u'time': []}}, u'mouseout': {u'state': {u'target': [], u'time': []}, u'edge': {u'target': [], u'time': []}}}",,,"[47843, 3059, 6311]",50.0,,851059,9.0,2.0,mouselab-mdp,,2
"[55227, 65180, 66290]","[u'left', u'left', u'up']",,,"[3, 0, 1]",,"[u'1', 4, 8, 14]","{u'mouseover': {u'state': {u'target': [], u'time': []}, u'edge': {u'target': [], u'time': []}}, u'click': {u'state': {u'target': [u'3', u'2', u'6', u'5', u'10', u'13', u'8', u'4', u'14'], u'time': [5962, 6883, 7946, 9352, 10868, 11899, 13602, 14399, 15274]}, u'edge': {u'target': [], u'time': []}}, u'mouseout': {u'state': {u'target': [], u'time': []}, u'edge': {u'target': [], u'time': []}}}",,,"[55227, 1797, 120]",19.0,,936876,10.0,7.0,mouselab-mdp,,2
"[55382, 61633, 63711]","[u'up', u'up', u'left']",,,[],,"[u'1', 3, 7, 12]","{u'mouseover': {u'state': {u'target': [], u'time': []}, u'edge': {u'target': [], u'time': []}}, u'click': {u'state': {u'target': [u'14', u'13', u'7', u'10', u'3', u'17', u'12'], u'time': [6681, 8180, 8759, 10634, 11931, 22916, 27572]}, u'edge': {u'target': [], u'time': []}}, u'mouseout': {u'state': {u'target': [], u'time': []}, u'edge': {u'target': [], u'time': []}}}",,,"[55381, 5727, 1538]",45.0,,1006732,11.0,12.0,mouselab-mdp,,2
"[49073, 51200, 53559]","[u'up', u'up', u'left']",,,[],,"[u'1', 3, 7, 12]","{u'mouseover': {u'state': {u'target': [], u'time': []}, u'edge': {u'target': [], u'time': []}}, u'click': {u'state': {u'target': [u'7', u'3', u'12', u'13', u'15', u'14', u'10', u'6', u'2', u'11'], u'time': [5765, 6561, 8015, 9123, 10576, 11498, 12764, 13576, 14264, 17781]}, u'edge': {u'target': [], u'time': []}}, u'mouseout': {u'state': {u'target': [], u'time': []}, u'edge': {u'target': [], u'time': []}}}",,,"[49073, 1607, 1836]",40.0,,1066917,12.0,13.0,mouselab-mdp,,2
"[53855, 57011, 58793]","[u'up', u'up', u'left']",,,[],,"[u'1', 3, 7, 12]","{u'mouseover': {u'state': {u'target': [], u'time': []}, u'edge': {u'target': [], u'time': []}}, u'click': {u'state': {u'target': [u'3', u'2', u'4', u'16', u'7', u'12', u'13'], u'time': [4138, 10328, 11716, 16185, 18357, 20248, 23015]}, u'edge': {u'target': [], u'time': []}}, u'mouseout': {u'state': {u'target': [], u'time': []}, u'edge': {u'target': [], u'time': []}}}",,,"[53855, 2639, 1255]",42.0,,1135903,13.0,15.0,mouselab-mdp,,2
"[47170, 49483, 51112]","[u'right', u'right', u'up']",,,[],,"[u'1', 2, 6, 10]","{u'mouseover': {u'state': {u'target': [], u'time': []}, u'edge': {u'target': [], u'time': []}}, u'click': {u'state': {u'target': [u'3', u'4', u'8', u'14', u'2', u'6', u'11', u'10'], u'time': [4579, 6172, 7343, 8172, 9297, 10344, 10937, 11687]}, u'edge': {u'target': [], u'time': []}}, u'mouseout': {u'state': {u'target': [], u'time': []}, u'edge': {u'target': [], u'time': []}}}",,,"[47170, 1781, 1098]",45.0,,1193263,14.0,10.0,mouselab-mdp,,2
"[49755, 52646, 54255]","[u'right', u'right', u'down']",,,[],,"[u'1', 2, 6, 11]","{u'mouseover': {u'state': {u'target': [], u'time': []}, u'edge': {u'target': [], u'time': []}}, u'click': {u'state': {u'target': [u'3', u'7', u'2', u'5', u'4', u'9', u'16', u'17', u'6', u'10', u'11'], u'time': [6492, 7678, 8850, 9492, 11116, 13695, 14413, 15460, 20033, 20757, 21773]}, u'edge': {u'target': [], u'time': []}}, u'mouseout': {u'state': {u'target': [], u'time': []}, u'edge': {u'target': [], u'time': []}}}",,,"[49755, 2374, 1083]",17.0,,1251860,15.0,11.0,mouselab-mdp,,2
"[49755, 51880, 52818]","[u'up', u'up', u'left']",,,[],,"[u'1', 3, 7, 12]","{u'mouseover': {u'state': {u'target': [], u'time': []}, u'edge': {u'target': [], u'time': []}}, u'click': {u'state': {u'target': [u'3', u'7', u'12', u'13', u'4', u'8', u'14', u'15'], u'time': [2507, 3537, 4272, 5803, 15148, 16289, 18319, 20826]}, u'edge': {u'target': [], u'time': []}}, u'mouseout': {u'state': {u'target': [], u'time': []}, u'edge': {u'target': [], u'time': []}}}",,,"[49755, 1593, 416]",44.0,,1310088,16.0,14.0,mouselab-mdp,,2
"[12765, 31034, 38369]","[u'down', u'down', u'right']",,,"[6, 0, 0]",,"[u'1', 5, 9, 17]","{u'mouseover': {u'state': {u'target': [], u'time': []}, u'edge': {u'target': [], u'time': []}}, u'click': {u'state': {u'target': [u'5', u'17', u'16'], u'time': [8999, 34665, 36736]}, u'edge': {u'target': [], u'time': []}}, u'mouseout': {u'state': {u'target': [], u'time': []}, u'edge': {u'target': [], u'time': []}}}",,,"[12765, 9411, 6260]",48.0,,192921,1.0,9.0,mouselab-mdp,,3
"[9821, 21025, 26987]","[u'down', u'down', u'left']",,,"[7, 0, 0]",,"[u'1', 5, 9, 16]","{u'mouseover': {u'state': {u'target': [], u'time': []}, u'edge': {u'target': [], u'time': []}}, u'click': {u'state': {u'target': [u'3', u'4', u'2', u'5', u'17', u'16'], u'time': [2809, 3915, 6090, 8007, 23382, 24173]}, u'edge': {u'target': [], u'time': []}}, u'mouseout': {u'state': {u'target': [], u'time': []}, u'edge': {u'target': [], u'time': []}}}",,,"[9821, 627, 4913]",0.0,,251849,2.0,5.0,mouselab-mdp,,3
"[10324, 19720, 20677]","[u'left', u'left', u'up']",,,"[3, 0, 0]",,"[u'1', 4, 8, 14]","{u'mouseover': {u'state': {u'target': [], u'time': []}, u'edge': {u'target': [], u'time': []}}, u'click': {u'state': {u'target': [u'3', u'4', u'5', u'2', u'10', u'11', u'15', u'14'], u'time': [1329, 2142, 2885, 4023, 5675, 6422, 7381, 8089]}, u'edge': {u'target': [], u'time': []}}, u'mouseout': {u'state': {u'target': [], u'time': []}, u'edge': {u'target': [], u'time': []}}}",,,"[10324, 1856, 5]",20.0,,324500,3.0,7.0,mouselab-mdp,,3
"[18568, 32420, 33423]","[u'right', u'right', u'down']",,,"[4, 0, 0]",,"[u'1', 2, 6, 11]","{u'mouseover': {u'state': {u'target': [], u'time': []}, u'edge': {u'target': [], u'time': []}}, u'click': {u'state': {u'target': [u'2', u'10', u'11', u'3', u'4', u'5'], u'time': [1832, 4317, 5134, 8389, 9431, 10478]}, u'edge': {u'target': [], u'time': []}}, u'mouseout': {u'state': {u'target': [], u'time': []}, u'edge': {u'target': [], u'time': []}}}",,,"[18568, 5728, 5]",2.0,,379961,4.0,4.0,mouselab-mdp,,3
"[20928, 28253, 29070]","[u'right', u'right', u'down']",,,"[1, 0, 0]",,"[u'1', 2, 6, 11]","{u'mouseover': {u'state': {u'target': [], u'time': []}, u'edge': {u'target': [], u'time': []}}, u'click': {u'state': {u'target': [u'3', u'2', u'5', u'4', u'16', u'17', u'11', u'10', u'13', u'12', u'14', u'15'], u'time': [1145, 1853, 2495, 3608, 5971, 6818, 8216, 9400, 10446, 11102, 12349, 13060]}, u'edge': {u'target': [], u'time': []}}, u'mouseout': {u'state': {u'target': [], u'time': []}, u'edge': {u'target': [], u'time': []}}}",,,"[20927, 655, 5]",46.0,,434562,5.0,8.0,mouselab-mdp,,3
"[11580, 18962, 19839]","[u'left', u'left', u'up']",,,"[0, 0, 0]",,"[u'1', 4, 8, 14]","{u'mouseover': {u'state': {u'target': [], u'time': []}, u'edge': {u'target': [], u'time': []}}, u'click': {u'state': {u'target': [u'4', u'3', u'2', u'5', u'16', u'17', u'11', u'10', u'13', u'12', u'14', u'15'], u'time': [989, 1531, 2233, 2911, 3590, 4121, 4918, 5460, 6266, 7278, 8015, 8660]}, u'edge': {u'target': [], u'time': []}}, u'mouseout': {u'state': {u'target': [], u'time': []}, u'edge': {u'target': [], u'time': []}}}",,,"[11580, 1516, 4]",50.0,,487251,6.0,0.0,mouselab-mdp,,3
"[14075, 24795, 25679]","[u'up', u'up', u'right']",,,"[4, 0, 0]",,"[u'1', 3, 7, 13]","{u'mouseover': {u'state': {u'target': [], u'time': []}, u'edge': {u'target': [], u'time': []}}, u'click': {u'state': {u'target': [u'3', u'2', u'5', u'4', u'14', u'15', u'12', u'13', u'10', u'11', u'17', u'16'], u'time': [675, 1141, 1819, 2750, 3373, 4061, 4731, 5493, 5920, 6499, 7070, 8013]}, u'edge': {u'target': [], u'time': []}}, u'mouseout': {u'state': {u'target': [], u'time': []}, u'edge': {u'target': [], u'time': []}}}",,,"[14074, 830, 4]",43.0,,544896,7.0,3.0,mouselab-mdp,,3
"[12121, 18817, 19647]","[u'right', u'right', u'down']",,,"[0, 0, 0]",,"[u'1', 2, 6, 11]","{u'mouseover': {u'state': {u'target': [], u'time': []}, u'edge': {u'target': [], u'time': []}}, u'click': {u'state': {u'target': [u'2', u'4', u'5', u'3', u'12', u'13', u'17', u'16', u'15', u'14', u'11', u'10'], u'time': [901, 1521, 2123, 2745, 3987, 4733, 5546, 6102, 7290, 7956, 8815, 9558]}, u'edge': {u'target': [], u'time': []}}, u'mouseout': {u'state': {u'target': [], u'time': []}, u'edge': {u'target': [], u'time': []}}}",,,"[12121, 1072, 4]",45.0,,597961,8.0,6.0,mouselab-mdp,,3
"[15124, 25991, 26853]","[u'up', u'up', u'right']",,,"[4, 0, 0]",,"[u'1', 3, 7, 13]","{u'mouseover': {u'state': {u'target': [], u'time': []}, u'edge': {u'target': [], u'time': []}}, u'click': {u'state': {u'target': [u'3', u'4', u'5', u'2', u'13', u'12', u'14', u'15', u'16', u'17', u'11', u'10'], u'time': [1451, 2342, 2872, 3439, 3994, 4496, 5539, 6244, 7147, 7973, 8613, 9310]}, u'edge': {u'target': [], u'time': []}}, u'mouseout': {u'state': {u'target': [], u'time': []}, u'edge': {u'target': [], u'time': []}}}",,,"[15124, 985, 4]",43.0,,655994,9.0,2.0,mouselab-mdp,,3
"[14731, 21658, 22757]","[u'up', u'up', u'right']",,,"[0, 0, 0]",,"[u'1', 3, 7, 13]","{u'mouseover': {u'state': {u'target': [], u'time': []}, u'edge': {u'target': [], u'time': []}}, u'click': {u'state': {u'target': [u'2', u'3', u'5', u'4', u'16', u'17', u'11', u'10', u'13', u'12', u'14', u'15'], u'time': [1503, 2277, 3221, 3966, 5066, 5805, 6636, 8309, 9325, 10818, 12214, 13017]}, u'edge': {u'target': [], u'time': []}}, u'mouseout': {u'state': {u'target': [], u'time': []}, u'edge': {u'target': [], u'time': []}}}",,,"[14731, 785, 185]",28.0,,711177,10.0,1.0,mouselab-mdp,,3
"[13688, 14591, 15415]","[u'right', u'right', u'up']",,,[],,"[u'1', 2, 6, 10]","{u'mouseover': {u'state': {u'target': [], u'time': []}, u'edge': {u'target': [], u'time': []}}, u'click': {u'state': {u'target': [u'2', u'5', u'4', u'3', u'9', u'8', u'17', u'6', u'11', u'10'], u'time': [947, 1825, 2703, 3469, 4384, 6363, 7746, 9985, 11191, 11999]}, u'edge': {u'target': [], u'time': []}}, u'mouseout': {u'state': {u'target': [], u'time': []}, u'edge': {u'target': [], u'time': []}}}",,,"[13688, 368, 291]",43.0,,768706,11.0,10.0,mouselab-mdp,,3
"[16813, 17580, 18379]","[u'up', u'up', u'left']",,,[],,"[u'1', 3, 7, 12]","{u'mouseover': {u'state': {u'target': [], u'time': []}, u'edge': {u'target': [], u'time': []}}, u'click': {u'state': {u'target': [u'2', u'3', u'5', u'4', u'7', u'13', u'12', u'8', u'15', u'14'], u'time': [809, 1574, 2663, 3432, 5636, 6907, 7834, 9647, 10494, 11285]}, u'edge': {u'target': [], u'time': []}}, u'mouseout': {u'state': {u'target': [], u'time': []}, u'edge': {u'target': [], u'time': []}}}",,,"[16813, 246, 276]",42.0,,817236,12.0,14.0,mouselab-mdp,,3
"[12136, 12845, 13540]","[u'up', u'up', u'left']",,,[],,"[u'1', 3, 7, 12]","{u'mouseover': {u'state': {u'target': [], u'time': []}, u'edge': {u'target': [], u'time': []}}, u'click': {u'state': {u'target': [u'2', u'3', u'4', u'5', u'7', u'8', u'13', u'12', u'14', u'15'], u'time': [504, 1152, 1865, 2685, 3532, 4297, 5293, 6376, 8384, 9483]}, u'edge': {u'target': [], u'time': []}}, u'mouseout': {u'state': {u'target': [], u'time': []}, u'edge': {u'target': [], u'time': []}}}",,,"[12135, 187, 166]",42.0,,865066,13.0,12.0,mouselab-mdp,,3
"[13791, 14838, 15807]","[u'up', u'up', u'left']",,,[],,"[u'1', 3, 7, 12]","{u'mouseover': {u'state': {u'target': [], u'time': []}, u'edge': {u'target': [], u'time': []}}, u'click': {u'state': {u'target': [u'3', u'4', u'5', u'2', u'7', u'8', u'13', u'12', u'15', u'14'], u'time': [1088, 2322, 3093, 3810, 4776, 5498, 7576, 8413, 9324, 9966]}, u'edge': {u'target': [], u'time': []}}, u'mouseout': {u'state': {u'target': [], u'time': []}, u'edge': {u'target': [], u'time': []}}}",,,"[13791, 512, 448]",40.0,,931332,14.0,13.0,mouselab-mdp,,3
"[22350, 23004, 23723]","[u'right', u'right', u'down']",,,[],,"[u'1', 2, 6, 11]","{u'mouseover': {u'state': {u'target': [], u'time': []}, u'edge': {u'target': [], u'time': []}}, u'click': {u'state': {u'target': [u'2', u'3', u'4', u'5', u'9', u'7', u'6', u'15', u'14', u'17', u'16', u'11'], u'time': [1715, 2666, 3422, 4604, 5771, 7892, 9334, 11457, 12503, 15601, 16916, 20096]}, u'edge': {u'target': [], u'time': []}}, u'mouseout': {u'state': {u'target': [], u'time': []}, u'edge': {u'target': [], u'time': []}}}",,,"[22350, 127, 213]",16.0,,979873,15.0,11.0,mouselab-mdp,,3
"[12258, 12940, 13757]","[u'up', u'up', u'left']",,,[],,"[u'1', 3, 7, 12]","{u'mouseover': {u'state': {u'target': [], u'time': []}, u'edge': {u'target': [], u'time': []}}, u'click': {u'state': {u'target': [u'2', u'3', u'4', u'5', u'7', u'9', u'13', u'12'], u'time': [1011, 1601, 2947, 3624, 6873, 8346, 9708, 10929]}, u'edge': {u'target': [], u'time': []}}, u'mouseout': {u'state': {u'target': [], u'time': []}, u'edge': {u'target': [], u'time': []}}}",,,"[12258, 156, 290]",41.0,,1027922,16.0,15.0,mouselab-mdp,,3
"[9304, 72324, 81468]","[u'left', u'left', u'down']",,,"[26, 2, 7]",,"[u'1', 4, 8, 15]","{u'mouseover': {u'state': {u'target': [], u'time': []}, u'edge': {u'target': [], u'time': []}}, u'click': {u'state': {u'target': [u'8'], u'time': [56160]}, u'edge': {u'target': [], u'time': []}}, u'mouseout': {u'state': {u'target': [], u'time': []}, u'edge': {u'target': [], u'time': []}}}",,,"[9304, 34513, 5684]",24.0,,350126,1.0,2.0,mouselab-mdp,,4
"[12592, 26772, 40403]","[u'down', u'down', u'right']",,,"[6, 0, 0]",,"[u'1', 5, 9, 17]","{u'mouseover': {u'state': {u'target': [], u'time': []}, u'edge': {u'target': [], u'time': []}}, u'click': {u'state': {u'target': [u'5', u'17', u'16'], u'time': [9617, 35619, 38246]}, u'edge': {u'target': [], u'time': []}}, u'mouseout': {u'state': {u'target': [], u'time': []}, u'edge': {u'target': [], u'time': []}}}",,,"[12592, 5378, 12551]",48.0,,411687,2.0,9.0,mouselab-mdp,,4
"[11354, 24752, 33642]","[u'up', u'up', u'right']",,,"[8, 0, 0]",,"[u'1', 3, 7, 13]","{u'mouseover': {u'state': {u'target': [], u'time': []}, u'edge': {u'target': [], u'time': []}}, u'click': {u'state': {u'target': [u'3', u'5', u'2', u'13', u'12'], u'time': [2496, 5081, 6871, 30155, 31573]}, u'edge': {u'target': [], u'time': []}}, u'mouseout': {u'state': {u'target': [], u'time': []}, u'edge': {u'target': [], u'time': []}}}",,,"[11354, 1971, 7860]",16.0,,474773,3.0,6.0,mouselab-mdp,,4
"[9486, 19732, 27885]","[u'down', u'down', u'left']",,,"[4, 0, 0]",,"[u'1', 5, 9, 16]","{u'mouseover': {u'state': {u'target': [], u'time': []}, u'edge': {u'target': [], u'time': []}}, u'click': {u'state': {u'target': [u'4', u'5', u'3', u'2', u'16', u'17'], u'time': [3369, 4878, 6275, 7472, 24819, 26257]}, u'edge': {u'target': [], u'time': []}}, u'mouseout': {u'state': {u'target': [], u'time': []}, u'edge': {u'target': [], u'time': []}}}",,,"[9486, 2544, 7126]",19.0,,530726,4.0,8.0,mouselab-mdp,,4
"[11713, 22305, 30037]","[u'down', u'down', u'right']",,,"[3, 0, 0]",,"[u'1', 5, 9, 17]","{u'mouseover': {u'state': {u'target': [], u'time': []}, u'edge': {u'target': [], u'time': []}}, u'click': {u'state': {u'target': [u'2', u'4', u'3', u'5', u'16', u'17'], u'time': [3210, 5846, 7196, 9860, 26673, 27940]}, u'edge': {u'target': [], u'time': []}}, u'mouseout': {u'state': {u'target': [], u'time': []}, u'edge': {u'target': [], u'time': []}}}",,,"[11713, 3750, 6678]",-5.0,,587143,5.0,1.0,mouselab-mdp,,4
"[20414, 25467, 30505]","[u'up', u'up', u'right']",,,"[0, 0, 0]",,"[u'1', 3, 7, 13]","{u'mouseover': {u'state': {u'target': [], u'time': []}, u'edge': {u'target': [], u'time': []}}, u'click': {u'state': {u'target': [u'2', u'5', u'4', u'3', u'6', u'11', u'7', u'13'], u'time': [3638, 5721, 6998, 8436, 10116, 13967, 17547, 28721]}, u'edge': {u'target': [], u'time': []}}, u'mouseout': {u'state': {u'target': [], u'time': []}, u'edge': {u'target': [], u'time': []}}}",,,"[20414, 4, 3990]",47.0,,646468,6.0,4.0,mouselab-mdp,,4
"[16775, 22664, 26149]","[u'left', u'left', u'up']",,,"[0, 0, 0]",,"[u'1', 4, 8, 14]","{u'mouseover': {u'state': {u'target': [], u'time': []}, u'edge': {u'target': [], u'time': []}}, u'click': {u'state': {u'target': [u'3', u'2', u'5', u'4', u'6', u'8', u'14'], u'time': [3147, 4584, 6072, 7379, 9169, 11280, 14507]}, u'edge': {u'target': [], u'time': []}}, u'mouseout': {u'state': {u'target': [], u'time': []}, u'edge': {u'target': [], u'time': []}}}",,,"[16775, 991, 2460]",21.0,,699672,7.0,7.0,mouselab-mdp,,4
"[16031, 20801, 23268]","[u'left', u'left', u'up']",,,"[0, 0, 0]",,"[u'1', 4, 8, 14]","{u'mouseover': {u'state': {u'target': [], u'time': []}, u'edge': {u'target': [], u'time': []}}, u'click': {u'state': {u'target': [u'3', u'4', u'5', u'2', u'7', u'8', u'15', u'14'], u'time': [3636, 4792, 6149, 7787, 9498, 10884, 12865, 14351]}, u'edge': {u'target': [], u'time': []}}, u'mouseout': {u'state': {u'target': [], u'time': []}, u'edge': {u'target': [], u'time': []}}}",,,"[16031, 4, 1485]",54.0,,752516,8.0,0.0,mouselab-mdp,,4
"[15032, 19721, 22274]","[u'up', u'up', u'left']",,,"[0, 0, 0]",,"[u'1', 3, 7, 12]","{u'mouseover': {u'state': {u'target': [], u'time': []}, u'edge': {u'target': [], u'time': []}}, u'click': {u'state': {u'target': [u'3', u'4', u'5', u'2', u'9', u'7', u'13', u'12'], u'time': [3103, 4350, 5617, 7074, 8433, 10342, 11920, 13277]}, u'edge': {u'target': [], u'time': []}}, u'mouseout': {u'state': {u'target': [], u'time': []}, u'edge': {u'target': [], u'time': []}}}",,,"[15032, 4, 1633]",39.0,,805394,9.0,5.0,mouselab-mdp,,4
"[13483, 17303, 21948]","[u'up', u'up', u'right']",,,"[0, 0, 0]",,"[u'1', 3, 7, 13]","{u'mouseover': {u'state': {u'target': [], u'time': []}, u'edge': {u'target': [], u'time': []}}, u'click': {u'state': {u'target': [u'3', u'2', u'7', u'6', u'13'], u'time': [2827, 4337, 7230, 9221, 20051]}, u'edge': {u'target': [], u'time': []}}, u'mouseout': {u'state': {u'target': [], u'time': []}, u'edge': {u'target': [], u'time': []}}}",,,"[13483, 4, 3583]",50.0,,858257,10.0,3.0,mouselab-mdp,,4
"[12724, 16616, 21662]","[u'up', u'up', u'left']",,,[],,"[u'1', 3, 7, 12]","{u'mouseover': {u'state': {u'target': [], u'time': []}, u'edge': {u'target': [], u'time': []}}, u'click': {u'state': {u'target': [u'3', u'4', u'5', u'2', u'13', u'12'], u'time': [3426, 4973, 6561, 7768, 18544, 19971]}, u'edge': {u'target': [], u'time': []}}, u'mouseout': {u'state': {u'target': [], u'time': []}, u'edge': {u'target': [], u'time': []}}}",,,"[12724, 3405, 4549]",43.0,,915006,11.0,15.0,mouselab-mdp,,4
"[9260, 12308, 17197]","[u'left', u'left', u'down']",,,[],,"[u'1', 4, 8, 15]","{u'mouseover': {u'state': {u'target': [], u'time': []}, u'edge': {u'target': [], u'time': []}}, u'click': {u'state': {u'target': [u'3', u'4', u'5', u'2', u'14'], u'time': [2792, 3957, 5304, 6611, 14601]}, u'edge': {u'target': [], u'time': []}}, u'mouseout': {u'state': {u'target': [], u'time': []}, u'edge': {u'target': [], u'time': []}}}",,,"[9260, 2547, 4387]",12.0,,964702,12.0,10.0,mouselab-mdp,,4
"[7894, 10364, 15319]","[u'up', u'up', u'left']",,,[],,"[u'1', 3, 7, 12]","{u'mouseover': {u'state': {u'target': [], u'time': []}, u'edge': {u'target': [], u'time': []}}, u'click': {u'state': {u'target': [u'3', u'4', u'5', u'2', u'13', u'12'], u'time': [1838, 3044, 4199, 5456, 12743, 13857]}, u'edge': {u'target': [], u'time': []}}, u'mouseout': {u'state': {u'target': [], u'time': []}, u'edge': {u'target': [], u'time': []}}}",,,"[7894, 1977, 4465]",46.0,,1013531,13.0,14.0,mouselab-mdp,,4
"[8401, 9385, 14385]","[u'up', u'up', u'left']",,,[],,"[u'1', 3, 7, 12]","{u'mouseover': {u'state': {u'target': [], u'time': []}, u'edge': {u'target': [], u'time': []}}, u'click': {u'state': {u'target': [u'3', u'4', u'5', u'2', u'12', u'13'], u'time': [2846, 3912, 5128, 6445, 11751, 12956]}, u'edge': {u'target': [], u'time': []}}, u'mouseout': {u'state': {u'target': [], u'time': []}, u'edge': {u'target': [], u'time': []}}}",,,"[8401, 474, 4489]",46.0,,1061986,14.0,12.0,mouselab-mdp,,4
"[7408, 9021, 16470]","[u'down', u'down', u'left']",,,[],,"[u'1', 5, 9, 16]","{u'mouseover': {u'state': {u'target': [], u'time': []}, u'edge': {u'target': [], u'time': []}}, u'click': {u'state': {u'target': [u'3', u'4', u'5', u'2', u'17', u'16'], u'time': [2237, 3243, 4307, 5554, 11783, 12838]}, u'edge': {u'target': [], u'time': []}}, u'mouseout': {u'state': {u'target': [], u'time': []}, u'edge': {u'target': [], u'time': []}}}",,,"[7408, 1117, 6948]",-15.0,,1111508,15.0,11.0,mouselab-mdp,,4
"[10564, 11701, 19329]","[u'up', u'up', u'left']",,,[],,"[u'1', 3, 7, 12]","{u'mouseover': {u'state': {u'target': [], u'time': []}, u'edge': {u'target': [], u'time': []}}, u'click': {u'state': {u'target': [u'5', u'2', u'4', u'3', u'7', u'13', u'12'], u'time': [1621, 3882, 5230, 6355, 8558, 16084, 17561]}, u'edge': {u'target': [], u'time': []}}, u'mouseout': {u'state': {u'target': [], u'time': []}, u'edge': {u'target': [], u'time': []}}}",,,"[10564, 630, 7124]",43.0,,1163889,16.0,13.0,mouselab-mdp,,4
"[51447, 76725, 78253]","[u'left', u'left', u'up']",,,"[3, 0, 1]",,"[u'1', 4, 8, 14]","{u'mouseover': {u'state': {u'target': [], u'time': []}, u'edge': {u'target': [], u'time': []}}, u'click': {u'state': {u'target': [u'14', u'12', u'3', u'5', u'4', u'15', u'8', u'10', u'6', u'11', u'17', u'9', u'16', u'2', u'13', u'7'], u'time': [11020, 18101, 20792, 23272, 24560, 25879, 28321, 31357, 32292, 33270, 34628, 36588, 37484, 39115, 40243, 40912]}, u'edge': {u'target': [], u'time': []}}, u'mouseout': {u'state': {u'target': [], u'time': []}, u'edge': {u'target': [], u'time': []}}}",,,"[51444, 7178, 992]",-3.0,,274280,1.0,8.0,mouselab-mdp,,5
"[1749, 17237, 32231]","[u'left', u'left', u'down']",,,"[3, 0, 1]",,"[u'1', 4, 8, 15]","{u'mouseover': {u'state': {u'target': [], u'time': []}, u'edge': {u'target': [], u'time': []}}, u'click': {u'state': {u'target': [u'14', u'15', u'4', u'3', u'7'], u'time': [22857, 23863, 24831, 27743, 29394]}, u'edge': {u'target': [], u'time': []}}, u'mouseout': {u'state': {u'target': [], u'time': []}, u'edge': {u'target': [], u'time': []}}}",,,"[1749, 6749, 13078]",-1.0,,339875,2.0,6.0,mouselab-mdp,,5
"[21138, 36954, 64661]","[u'down', u'down', u'right']",,,"[3, 0, 1]",,"[u'1', 5, 9, 17]","{u'mouseover': {u'state': {u'target': [], u'time': []}, u'edge': {u'target': [], u'time': []}}, u'click': {u'state': {u'target': [u'3', u'7', u'12', u'13', u'4', u'8', u'14', u'15', u'16', u'9', u'5', u'17', u'11', u'6', u'10', u'2'], u'time': [1405, 2265, 3135, 4151, 5363, 6574, 7830, 8567, 9359, 10785, 11372, 12057, 13170, 13805, 14913, 16395]}, u'edge': {u'target': [], u'time': []}}, u'mouseout': {u'state': {u'target': [], u'time': []}, u'edge': {u'target': [], u'time': []}}}",,,"[21138, 913, 27176]",18.0,,410348,3.0,2.0,mouselab-mdp,,5
"[21967, 38956, 80398]","[u'down', u'down', u'right']",,,"[3, 0, 1]",,"[u'1', 5, 9, 17]","{u'mouseover': {u'state': {u'target': [], u'time': []}, u'edge': {u'target': [], u'time': []}}, u'click': {u'state': {u'target': [u'12', u'7', u'13', u'3', u'14', u'8', u'15', u'4', u'5', u'9', u'16', u'17', u'11', u'6', u'10'], u'time': [3411, 4104, 4770, 5491, 6404, 6850, 7857, 9275, 11468, 11924, 12470, 13290, 14378, 14953, 15635]}, u'edge': {u'target': [], u'time': []}}, u'mouseout': {u'state': {u'target': [], u'time': []}, u'edge': {u'target': [], u'time': []}}}",,,"[21967, 1865, 40547]",19.0,,501094,4.0,3.0,mouselab-mdp,,5
"[19238, 39269, 40855]","[u'left', u'left', u'up']",,,"[3, 0, 1]",,"[u'1', 4, 8, 14]","{u'mouseover': {u'state': {u'target': [], u'time': []}, u'edge': {u'target': [], u'time': []}}, u'click': {u'state': {u'target': [u'5', u'3', u'2', u'4', u'7', u'13', u'12', u'14', u'8'], u'time': [2642, 4046, 4946, 5835, 10935, 11999, 13653, 15419, 16259]}, u'edge': {u'target': [], u'time': []}}, u'mouseout': {u'state': {u'target': [], u'time': []}, u'edge': {u'target': [], u'time': []}}}",,,"[19238, 3917, 8]",53.0,,572840,5.0,0.0,mouselab-mdp,,5
"[32307, 50030, 52207]","[u'up', u'up', u'left']",,,"[3, 0, 1]",,"[u'1', 3, 7, 12]","{u'mouseover': {u'state': {u'target': [], u'time': []}, u'edge': {u'target': [], u'time': []}}, u'click': {u'state': {u'target': [u'3', u'4', u'5', u'2', u'16', u'9', u'17', u'7', u'12', u'13', u'14', u'8', u'15', u'11', u'6', u'10'], u'time': [1530, 2241, 3173, 4766, 8152, 10515, 11919, 17765, 19073, 20206, 21341, 22058, 22729, 25240, 25935, 27048]}, u'edge': {u'target': [], u'time': []}}, u'mouseout': {u'state': {u'target': [], u'time': []}, u'edge': {u'target': [], u'time': []}}}",,,"[32307, 787, 1650]",31.0,,698257,6.0,5.0,mouselab-mdp,,5
"[27121, 47799, 48793]","[u'up', u'up', u'right']",,,"[3, 0, 1]",,"[u'1', 3, 7, 13]","{u'mouseover': {u'state': {u'target': [], u'time': []}, u'edge': {u'target': [], u'time': []}}, u'click': {u'state': {u'target': [u'3', u'4', u'5', u'2', u'6', u'10', u'11', u'8', u'12', u'7', u'13', u'15', u'14', u'16', u'9', u'17'], u'time': [3708, 4429, 5182, 6334, 7615, 8346, 8982, 11872, 15486, 16131, 17306, 19386, 20627, 22015, 23029, 24172]}, u'edge': {u'target': [], u'time': []}}, u'mouseout': {u'state': {u'target': [], u'time': []}, u'edge': {u'target': [], u'time': []}}}",,,"[27121, 525, 467]",39.0,,769379,7.0,4.0,mouselab-mdp,,5
"[22785, 40806, 42307]","[u'down', u'down', u'right']",,,"[3, 0, 1]",,"[u'1', 5, 9, 17]","{u'mouseover': {u'state': {u'target': [], u'time': []}, u'edge': {u'target': [], u'time': []}}, u'click': {u'state': {u'target': [u'4', u'3', u'2', u'5', u'8', u'14', u'15', u'16', u'9', u'17', u'12', u'7', u'13', u'10', u'6', u'11'], u'time': [1325, 2202, 3288, 4070, 6101, 6852, 7674, 10524, 12058, 13077, 15936, 16504, 17178, 19513, 19906, 21475]}, u'edge': {u'target': [], u'time': []}}, u'mouseout': {u'state': {u'target': [], u'time': []}, u'edge': {u'target': [], u'time': []}}}",,,"[22785, 473, 969]",35.0,,836445,8.0,9.0,mouselab-mdp,,5
"[22075, 43234, 44561]","[u'left', u'left', u'up']",,,"[3, 0, 1]",,"[u'1', 4, 8, 14]","{u'mouseover': {u'state': {u'target': [], u'time': []}, u'edge': {u'target': [], u'time': []}}, u'click': {u'state': {u'target': [u'3', u'4', u'5', u'2', u'10', u'6', u'11', u'17', u'9', u'16', u'15', u'8', u'14', u'12', u'7', u'13'], u'time': [1900, 3092, 3980, 5248, 7962, 8884, 9879, 11032, 11568, 12700, 13922, 14591, 15840, 17809, 19608, 20213]}, u'edge': {u'target': [], u'time': []}}, u'mouseout': {u'state': {u'target': [], u'time': []}, u'edge': {u'target': [], u'time': []}}}",,,"[22075, 1063, 785]",12.0,,926330,9.0,7.0,mouselab-mdp,,5
"[13841, 31122, 32977]","[u'up', u'up', u'right']",,,"[3, 0, 1]",,"[u'1', 3, 7, 13]","{u'mouseover': {u'state': {u'target': [], u'time': []}, u'edge': {u'target': [], u'time': []}}, u'click': {u'state': {u'target': [u'4', u'3', u'2', u'5', u'16', u'9', u'17', u'7', u'12', u'13'], u'time': [1640, 2449, 3134, 3760, 5750, 6326, 6980, 8523, 9628, 10195]}, u'edge': {u'target': [], u'time': []}}, u'mouseout': {u'state': {u'target': [], u'time': []}, u'edge': {u'target': [], u'time': []}}}",,,"[13840, 306, 471]",30.0,,1004753,10.0,1.0,mouselab-mdp,,5
"[15784, 26163, 27605]","[u'right', u'right', u'down']",,,[],,"[u'1', 2, 6, 11]","{u'mouseover': {u'state': {u'target': [], u'time': []}, u'edge': {u'target': [], u'time': []}}, u'click': {u'state': {u'target': [u'2', u'3', u'4', u'5', u'9', u'16', u'17', u'7', u'12', u'13', u'10', u'6', u'11', u'8', u'14', u'15'], u'time': [1754, 2421, 3006, 3584, 4643, 5129, 5654, 6885, 7338, 7794, 9473, 9899, 10421, 12109, 12549, 13320]}, u'edge': {u'target': [], u'time': []}}, u'mouseout': {u'state': {u'target': [], u'time': []}, u'edge': {u'target': [], u'time': []}}}",,,"[15784, 9853, 897]",12.0,,1056395,11.0,11.0,mouselab-mdp,,5
"[13540, 15038, 16683]","[u'up', u'up', u'left']",,,[],,"[u'1', 3, 7, 12]","{u'mouseover': {u'state': {u'target': [], u'time': []}, u'edge': {u'target': [], u'time': []}}, u'click': {u'state': {u'target': [u'3', u'4', u'5', u'2', u'7', u'12', u'13', u'14', u'8', u'15'], u'time': [2051, 2803, 3457, 5108, 6132, 6731, 7430, 10216, 10809, 11922]}, u'edge': {u'target': [], u'time': []}}, u'mouseout': {u'state': {u'target': [], u'time': []}, u'edge': {u'target': [], u'time': []}}}",,,"[13540, 978, 1122]",42.0,,1109476,12.0,14.0,mouselab-mdp,,5
"[25992, 27749, 28616]","[u'right', u'right', u'up']",,,[],,"[u'1', 2, 6, 10]","{u'mouseover': {u'state': {u'target': [], u'time': []}, u'edge': {u'target': [], u'time': []}}, u'click': {u'state': {u'target': [u'3', u'4', u'5', u'2', u'8', u'14', u'15', u'16', u'9', u'17', u'12', u'7', u'13', u'10', u'6', u'11'], u'time': [1636, 2379, 3040, 4203, 5266, 5834, 6654, 9752, 10337, 10952, 17387, 18584, 19124, 22618, 23457, 24219]}, u'edge': {u'target': [], u'time': []}}, u'mouseout': {u'state': {u'target': [], u'time': []}, u'edge': {u'target': [], u'time': []}}}",,,"[25991, 1244, 344]",37.0,,1160986,13.0,10.0,mouselab-mdp,,5
"[14239, 15012, 16180]","[u'up', u'up', u'left']",,,[],,"[u'1', 3, 7, 12]","{u'mouseover': {u'state': {u'target': [], u'time': []}, u'edge': {u'target': [], u'time': []}}, u'click': {u'state': {u'target': [u'3', u'4', u'5', u'2', u'7', u'12', u'13', u'8', u'14', u'15'], u'time': [2382, 3065, 3760, 4481, 5896, 6423, 7070, 10242, 12255, 13072]}, u'edge': {u'target': [], u'time': []}}, u'mouseout': {u'state': {u'target': [], u'time': []}, u'edge': {u'target': [], u'time': []}}}",,,"[14238, 258, 643]",42.0,,1211465,14.0,12.0,mouselab-mdp,,5
"[10225, 11467, 12227]","[u'up', u'up', u'left']",,,[],,"[u'1', 3, 7, 12]","{u'mouseover': {u'state': {u'target': [], u'time': []}, u'edge': {u'target': [], u'time': []}}, u'click': {u'state': {u'target': [u'3', u'4', u'5', u'2', u'7', u'12', u'13'], u'time': [1624, 2234, 3035, 4102, 5468, 6121, 6814]}, u'edge': {u'target': [], u'time': []}}, u'mouseout': {u'state': {u'target': [], u'time': []}, u'edge': {u'target': [], u'time': []}}}",,,"[10225, 720, 248]",42.0,,1260428,15.0,15.0,mouselab-mdp,,5
"[12538, 13814, 14597]","[u'up', u'up', u'left']",,,[],,"[u'1', 3, 7, 12]","{u'mouseover': {u'state': {u'target': [], u'time': []}, u'edge': {u'target': [], u'time': []}}, u'click': {u'state': {u'target': [u'4', u'3', u'2', u'5', u'12', u'7', u'13', u'8', u'14', u'15'], u'time': [1078, 2336, 3165, 3802, 4767, 5374, 5977, 8497, 9629, 10854]}, u'edge': {u'target': [], u'time': []}}, u'mouseout': {u'state': {u'target': [], u'time': []}, u'edge': {u'target': [], u'time': []}}}",,,"[12538, 764, 247]",40.0,,1310446,16.0,13.0,mouselab-mdp,,5
"[17509, 58356, 75593]","[u'down', u'down', u'left']",,,"[3, 0, 1]",,"[u'1', 5, 9, 16]","{u'mouseover': {u'state': {u'target': [], u'time': []}, u'edge': {u'target': [], u'time': []}}, u'click': {u'state': {u'target': [u'5'], u'time': [11656]}, u'edge': {u'target': [], u'time': []}}, u'mouseout': {u'state': {u'target': [], u'time': []}, u'edge': {u'target': [], u'time': []}}}",,,"[17509, 35625, 16339]",36.0,,266126,1.0,9.0,mouselab-mdp,,6
"[4786, 15375, 21614]","[u'left', u'left', u'down']",,,"[3, 0, 1]",,"[u'1', 4, 8, 15]","{u'mouseover': {u'state': {u'target': [], u'time': []}, u'edge': {u'target': [], u'time': []}}, u'click': {u'state': {u'target': [], u'time': []}, u'edge': {u'target': [], u'time': []}}, u'mouseout': {u'state': {u'target': [], u'time': []}, u'edge': {u'target': [], u'time': []}}}",,,"[4786, 5552, 5349]",19.0,,324256,2.0,5.0,mouselab-mdp,,6
"[9240, 16962, 22285]","[u'down', u'down', u'right']",,,"[3, 0, 1]",,"[u'1', 5, 9, 17]","{u'mouseover': {u'state': {u'target': [], u'time': []}, u'edge': {u'target': [], u'time': []}}, u'click': {u'state': {u'target': [], u'time': []}, u'edge': {u'target': [], u'time': []}}, u'mouseout': {u'state': {u'target': [], u'time': []}, u'edge': {u'target': [], u'time': []}}}",,,"[9240, 2840, 4435]",34.0,,395834,3.0,4.0,mouselab-mdp,,6
"[3461, 14878, 18623]","[u'up', u'up', u'left']",,,"[3, 0, 1]",,"[u'1', 3, 7, 12]","{u'mouseover': {u'state': {u'target': [], u'time': []}, u'edge': {u'target': [], u'time': []}}, u'click': {u'state': {u'target': [], u'time': []}, u'edge': {u'target': [], u'time': []}}, u'mouseout': {u'state': {u'target': [], u'time': []}, u'edge': {u'target': [], u'time': []}}}",,,"[3461, 6461, 2837]",20.0,,453195,4.0,6.0,mouselab-mdp,,6
"[3071, 8541, 10971]","[u'up', u'up', u'right']",,,"[3, 0, 1]",,"[u'1', 3, 7, 13]","{u'mouseover': {u'state': {u'target': [], u'time': []}, u'edge': {u'target': [], u'time': []}}, u'click': {u'state': {u'target': [], u'time': []}, u'edge': {u'target': [], u'time': []}}, u'mouseout': {u'state': {u'target': [], u'time': []}, u'edge': {u'target': [], u'time': []}}}",,,"[3070, 641, 1560]",-7.0,,508636,5.0,8.0,mouselab-mdp,,6
"[2180, 7531, 12254]","[u'left', u'left', u'down']",,,"[3, 0, 1]",,"[u'1', 4, 8, 15]","{u'mouseover': {u'state': {u'target': [], u'time': []}, u'edge': {u'target': [], u'time': []}}, u'click': {u'state': {u'target': [], u'time': []}, u'edge': {u'target': [], u'time': []}}, u'mouseout': {u'state': {u'target': [], u'time': []}, u'edge': {u'target': [], u'time': []}}}",,,"[2180, 527, 3838]",30.0,,563641,6.0,0.0,mouselab-mdp,,6
"[3477, 9105, 12480]","[u'right', u'right', u'up']",,,"[3, 0, 1]",,"[u'1', 2, 6, 10]","{u'mouseover': {u'state': {u'target': [], u'time': []}, u'edge': {u'target': [], u'time': []}}, u'click': {u'state': {u'target': [], u'time': []}, u'edge': {u'target': [], u'time': []}}, u'mouseout': {u'state': {u'target': [], u'time': []}, u'edge': {u'target': [], u'time': []}}}",,,"[3476, 761, 2501]",2.0,,622847,7.0,3.0,mouselab-mdp,,6
"[2468, 14000, 17899]","[u'up', u'up', u'left']",,,"[3, 0, 1]",,"[u'1', 3, 7, 12]","{u'mouseover': {u'state': {u'target': [], u'time': []}, u'edge': {u'target': [], u'time': []}}, u'click': {u'state': {u'target': [], u'time': []}, u'edge': {u'target': [], u'time': []}}, u'mouseout': {u'state': {u'target': [], u'time': []}, u'edge': {u'target': [], u'time': []}}}",,,"[2468, 6694, 2988]",33.0,,680710,8.0,2.0,mouselab-mdp,,6
"[4386, 9813, 12346]","[u'left', u'left', u'up']",,,"[3, 0, 1]",,"[u'1', 4, 8, 14]","{u'mouseover': {u'state': {u'target': [], u'time': []}, u'edge': {u'target': [], u'time': []}}, u'click': {u'state': {u'target': [], u'time': []}, u'edge': {u'target': [], u'time': []}}, u'mouseout': {u'state': {u'target': [], u'time': []}, u'edge': {u'target': [], u'time': []}}}",,,"[4386, 581, 1655]",28.0,,741325,9.0,7.0,mouselab-mdp,,6
"[2523, 8385, 12456]","[u'down', u'down', u'right']",,,"[3, 0, 1]",,"[u'1', 5, 9, 17]","{u'mouseover': {u'state': {u'target': [], u'time': []}, u'edge': {u'target': [], u'time': []}}, u'click': {u'state': {u'target': [], u'time': []}, u'edge': {u'target': [], u'time': []}}, u'mouseout': {u'state': {u'target': [], u'time': []}, u'edge': {u'target': [], u'time': []}}}",,,"[2523, 1018, 3193]",1.0,,795594,10.0,1.0,mouselab-mdp,,6
"[3175, 8356, 14020]","[u'left', u'left', u'up']",,,[],,"[u'1', 4, 8, 14]","{u'mouseover': {u'state': {u'target': [], u'time': []}, u'edge': {u'target': [], u'time': []}}, u'click': {u'state': {u'target': [], u'time': []}, u'edge': {u'target': [], u'time': []}}, u'mouseout': {u'state': {u'target': [], u'time': []}, u'edge': {u'target': [], u'time': []}}}",,,"[3175, 4671, 5151]",-3.0,,844125,11.0,15.0,mouselab-mdp,,6
"[2979, 4991, 8310]","[u'up', u'up', u'right']",,,[],,"[u'1', 3, 7, 13]","{u'mouseover': {u'state': {u'target': [], u'time': []}, u'edge': {u'target': [], u'time': []}}, u'click': {u'state': {u'target': [], u'time': []}, u'edge': {u'target': [], u'time': []}}, u'mouseout': {u'state': {u'target': [], u'time': []}, u'edge': {u'target': [], u'time': []}}}",,,"[2979, 1500, 2803]",15.0,,891910,12.0,10.0,mouselab-mdp,,6
"[4562, 6702, 14317]","[u'up', u'up', u'left']",,,[],,"[u'1', 3, 7, 12]","{u'mouseover': {u'state': {u'target': [], u'time': []}, u'edge': {u'target': [], u'time': []}}, u'click': {u'state': {u'target': [u'13', u'12'], u'time': [10270, 12077]}, u'edge': {u'target': [], u'time': []}}, u'mouseout': {u'state': {u'target': [], u'time': []}, u'edge': {u'target': [], u'time': []}}}",,,"[4561, 1634, 7099]",50.0,,941000,13.0,14.0,mouselab-mdp,,6
"[4872, 11477, 18205]","[u'left', u'left', u'up']",,,[],,"[u'1', 4, 8, 14]","{u'mouseover': {u'state': {u'target': [], u'time': []}, u'edge': {u'target': [], u'time': []}}, u'click': {u'state': {u'target': [u'14', u'15'], u'time': [14311, 15343]}, u'edge': {u'target': [], u'time': []}}, u'mouseout': {u'state': {u'target': [], u'time': []}, u'edge': {u'target': [], u'time': []}}}",,,"[4872, 6095, 6224]",18.0,,998598,14.0,13.0,mouselab-mdp,,6
"[2769, 6375, 13680]","[u'down', u'down', u'left']",,,[],,"[u'1', 5, 9, 16]","{u'mouseover': {u'state': {u'target': [], u'time': []}, u'edge': {u'target': [], u'time': []}}, u'click': {u'state': {u'target': [u'16', u'17'], u'time': [10482, 11555]}, u'edge': {u'target': [], u'time': []}}, u'mouseout': {u'state': {u'target': [], u'time': []}, u'edge': {u'target': [], u'time': []}}}",,,"[2769, 3099, 6789]",-4.0,,1046376,15.0,12.0,mouselab-mdp,,6
"[3958, 6121, 10218]","[u'right', u'right', u'down']",,,[],,"[u'1', 2, 6, 11]","{u'mouseover': {u'state': {u'target': [], u'time': []}, u'edge': {u'target': [], u'time': []}}, u'click': {u'state': {u'target': [], u'time': []}, u'edge': {u'target': [], u'time': []}}, u'mouseout': {u'state': {u'target': [], u'time': []}, u'edge': {u'target': [], u'time': []}}}",,,"[3958, 1645, 3591]",28.0,,1094920,16.0,11.0,mouselab-mdp,,6
"[1872, 12223, 15953]","[u'right', u'right', u'up']",,,"[3, 0, 1]",,"[u'1', 2, 6, 10]","{u'mouseover': {u'state': {u'target': [], u'time': []}, u'edge': {u'target': [], u'time': []}}, u'click': {u'state': {u'target': [], u'time': []}, u'edge': {u'target': [], u'time': []}}, u'mouseout': {u'state': {u'target': [], u'time': []}, u'edge': {u'target': [], u'time': []}}}",,,"[1871, 1727, 1856]",-1.0,,157522,1.0,9.0,mouselab-mdp,,8
"[2111, 15060, 21591]","[u'right', u'right', u'up']",,,"[3, 0, 1]",,"[u'1', 2, 6, 10]","{u'mouseover': {u'state': {u'target': [], u'time': []}, u'edge': {u'target': [], u'time': []}}, u'click': {u'state': {u'target': [], u'time': []}, u'edge': {u'target': [], u'time': []}}, u'mouseout': {u'state': {u'target': [], u'time': []}, u'edge': {u'target': [], u'time': []}}}",,,"[2111, 4418, 4703]",-2.0,,224157,2.0,0.0,mouselab-mdp,,8
"[1838, 11208, 16260]","[u'right', u'right', u'up']",,,"[3, 0, 1]",,"[u'1', 2, 6, 10]","{u'mouseover': {u'state': {u'target': [], u'time': []}, u'edge': {u'target': [], u'time': []}}, u'click': {u'state': {u'target': [], u'time': []}, u'edge': {u'target': [], u'time': []}}, u'mouseout': {u'state': {u'target': [], u'time': []}, u'edge': {u'target': [], u'time': []}}}",,,"[1838, 944, 3245]",-11.0,,286398,3.0,5.0,mouselab-mdp,,8
"[781, 9526, 12432]","[u'right', u'right', u'up']",,,"[3, 0, 1]",,"[u'1', 2, 6, 10]","{u'mouseover': {u'state': {u'target': [], u'time': []}, u'edge': {u'target': [], u'time': []}}, u'click': {u'state': {u'target': [], u'time': []}, u'edge': {u'target': [], u'time': []}}, u'mouseout': {u'state': {u'target': [], u'time': []}, u'edge': {u'target': [], u'time': []}}}",,,"[780, 428, 1075]",-25.0,,347046,4.0,1.0,mouselab-mdp,,8
"[3459, 13903, 19942]","[u'up', u'up', u'right']",,,"[3, 0, 1]",,"[u'1', 3, 7, 13]","{u'mouseover': {u'state': {u'target': [], u'time': []}, u'edge': {u'target': [], u'time': []}}, u'click': {u'state': {u'target': [u'3', u'13'], u'time': [1323, 16971]}, u'edge': {u'target': [], u'time': []}}, u'mouseout': {u'state': {u'target': [], u'time': []}, u'edge': {u'target': [], u'time': []}}}",,,"[3458, 878, 4174]",53.0,,410719,5.0,2.0,mouselab-mdp,,8
"[3329, 14026, 24142]","[u'down', u'down', u'right']",,,"[3, 0, 1]",,"[u'1', 5, 9, 17]","{u'mouseover': {u'state': {u'target': [], u'time': []}, u'edge': {u'target': [], u'time': []}}, u'click': {u'state': {u'target': [u'5', u'17', u'16'], u'time': [1829, 20281, 22600]}, u'edge': {u'target': [], u'time': []}}, u'mouseout': {u'state': {u'target': [], u'time': []}, u'edge': {u'target': [], u'time': []}}}",,,"[3329, 1349, 8268]",21.0,,478419,6.0,6.0,mouselab-mdp,,8
"[5652, 17053, 24444]","[u'right', u'right', u'down']",,,"[3, 0, 1]",,"[u'1', 2, 6, 11]","{u'mouseover': {u'state': {u'target': [], u'time': []}, u'edge': {u'target': [], u'time': []}}, u'click': {u'state': {u'target': [u'4', u'2', u'10'], u'time': [1723, 3322, 21825]}, u'edge': {u'target': [], u'time': []}}, u'mouseout': {u'state': {u'target': [], u'time': []}, u'edge': {u'target': [], u'time': []}}}",,,"[5652, 1464, 5490]",55.0,,544436,7.0,8.0,mouselab-mdp,,8
"[4594, 15890, 25456]","[u'left', u'left', u'down']",,,"[3, 0, 1]",,"[u'1', 4, 8, 15]","{u'mouseover': {u'state': {u'target': [], u'time': []}, u'edge': {u'target': [], u'time': []}}, u'click': {u'state': {u'target': [u'4', u'15'], u'time': [1482, 24219]}, u'edge': {u'target': [], u'time': []}}, u'mouseout': {u'state': {u'target': [], u'time': []}, u'edge': {u'target': [], u'time': []}}}",,,"[4594, 1956, 7781]",23.0,,605150,8.0,3.0,mouselab-mdp,,8
"[4518, 17970, 27889]","[u'right', u'right', u'up']",,,"[3, 0, 1]",,"[u'1', 2, 6, 10]","{u'mouseover': {u'state': {u'target': [], u'time': []}, u'edge': {u'target': [], u'time': []}}, u'click': {u'state': {u'target': [u'2', u'11'], u'time': [2451, 26069]}, u'edge': {u'target': [], u'time': []}}, u'mouseout': {u'state': {u'target': [], u'time': []}, u'edge': {u'target': [], u'time': []}}}",,,"[4517, 4017, 8077]",-28.0,,673168,9.0,7.0,mouselab-mdp,,8
"[3329, 18584, 27209]","[u'left', u'left', u'up']",,,"[3, 0, 1]",,"[u'1', 4, 8, 14]","{u'mouseover': {u'state': {u'target': [], u'time': []}, u'edge': {u'target': [], u'time': []}}, u'click': {u'state': {u'target': [u'4', u'8', u'14'], u'time': [1883, 16061, 25828]}, u'edge': {u'target': [], u'time': []}}, u'mouseout': {u'state': {u'target': [], u'time': []}, u'edge': {u'target': [], u'time': []}}}",,,"[3329, 5919, 5558]",9.0,,739131,10.0,4.0,mouselab-mdp,,8
"[8785, 23684, 28820]","[u'up', u'up', u'right']",,,[],,"[u'1', 3, 7, 13]","{u'mouseover': {u'state': {u'target': [], u'time': []}, u'edge': {u'target': [], u'time': []}}, u'click': {u'state': {u'target': [u'4', u'2', u'3', u'13'], u'time': [2077, 4408, 6695, 27574]}, u'edge': {u'target': [], u'time': []}}, u'mouseout': {u'state': {u'target': [], u'time': []}, u'edge': {u'target': [], u'time': []}}}",,,"[8785, 14391, 4626]",38.0,,803975,11.0,12.0,mouselab-mdp,,8
"[10312, 21683, 29050]","[u'left', u'left', u'down']",,,[],,"[u'1', 4, 8, 15]","{u'mouseover': {u'state': {u'target': [], u'time': []}, u'edge': {u'target': [], u'time': []}}, u'click': {u'state': {u'target': [u'5', u'3', u'2', u'4', u'14'], u'time': [1857, 5004, 7066, 8927, 27812]}, u'edge': {u'target': [], u'time': []}}, u'mouseout': {u'state': {u'target': [], u'time': []}, u'edge': {u'target': [], u'time': []}}}",,,"[10312, 10865, 6855]",12.0,,852668,12.0,10.0,mouselab-mdp,,8
"[6412, 16423, 22029]","[u'up', u'up', u'right']",,,[],,"[u'1', 3, 7, 13]","{u'mouseover': {u'state': {u'target': [], u'time': []}, u'edge': {u'target': [], u'time': []}}, u'click': {u'state': {u'target': [u'2', u'3', u'7', u'13'], u'time': [2568, 5315, 15373, 21102]}, u'edge': {u'target': [], u'time': []}}, u'mouseout': {u'state': {u'target': [], u'time': []}, u'edge': {u'target': [], u'time': []}}}",,,"[6412, 9511, 5096]",34.0,,901469,13.0,15.0,mouselab-mdp,,8
"[2369, 17403, 23547]","[u'up', u'up', u'left']",,,[],,"[u'1', 3, 7, 12]","{u'mouseover': {u'state': {u'target': [], u'time': []}, u'edge': {u'target': [], u'time': []}}, u'click': {u'state': {u'target': [u'3', u'13', u'12'], u'time': [1288, 20923, 22311]}, u'edge': {u'target': [], u'time': []}}, u'mouseout': {u'state': {u'target': [], u'time': []}, u'edge': {u'target': [], u'time': []}}}",,,"[2369, 14539, 5631]",47.0,,949405,14.0,13.0,mouselab-mdp,,8
"[8222, 17616, 22551]","[u'down', u'down', u'left']",,,[],,"[u'1', 5, 9, 16]","{u'mouseover': {u'state': {u'target': [], u'time': []}, u'edge': {u'target': [], u'time': []}}, u'click': {u'state': {u'target': [u'4', u'2', u'3', u'5', u'17'], u'time': [1577, 3627, 5462, 7214, 21271]}, u'edge': {u'target': [], u'time': []}}, u'mouseout': {u'state': {u'target': [], u'time': []}, u'edge': {u'target': [], u'time': []}}}",,,"[8221, 8876, 4425]",-14.0,,998309,15.0,11.0,mouselab-mdp,,8
"[4156, 13106, 23611]","[u'left', u'left', u'down']",,,[],,"[u'1', 4, 8, 15]","{u'mouseover': {u'state': {u'target': [], u'time': []}, u'edge': {u'target': [], u'time': []}}, u'click': {u'state': {u'target': [u'2', u'4', u'14'], u'time': [988, 2824, 21547]}, u'edge': {u'target': [], u'time': []}}, u'mouseout': {u'state': {u'target': [], u'time': []}, u'edge': {u'target': [], u'time': []}}}",,,"[4156, 8441, 9996]",22.0,,1046335,16.0,14.0,mouselab-mdp,,8
"[20772, 30465, 33978]","[u'left', u'left', u'up']",,,"[3, 0, 1]",,"[u'1', 4, 8, 14]","{u'mouseover': {u'state': {u'target': [], u'time': []}, u'edge': {u'target': [], u'time': []}}, u'click': {u'state': {u'target': [u'7', u'3', u'13', u'2', u'5', u'4'], u'time': [2030, 3458, 6443, 9128, 10493, 11422]}, u'edge': {u'target': [], u'time': []}}, u'mouseout': {u'state': {u'target': [], u'time': []}, u'edge': {u'target': [], u'time': []}}}",,,"[20770, 1657, 2360]",56.0,,153035,1.0,0.0,mouselab-mdp,,9
"[11585, 19288, 21694]","[u'up', u'up', u'right']",,,"[3, 0, 1]",,"[u'1', 3, 7, 13]","{u'mouseover': {u'state': {u'target': [], u'time': []}, u'edge': {u'target': [], u'time': []}}, u'click': {u'state': {u'target': [u'3', u'12', u'13'], u'time': [4624, 8423, 9488]}, u'edge': {u'target': [], u'time': []}}, u'mouseout': {u'state': {u'target': [], u'time': []}, u'edge': {u'target': [], u'time': []}}}",,,"[11585, 475, 1307]",52.0,,213054,2.0,3.0,mouselab-mdp,,9
"[14605, 26169, 27953]","[u'right', u'right', u'down']",,,"[3, 0, 1]",,"[u'1', 2, 6, 11]","{u'mouseover': {u'state': {u'target': [], u'time': []}, u'edge': {u'target': [], u'time': []}}, u'click': {u'state': {u'target': [u'3', u'2', u'5', u'4', u'14', u'15', u'12', u'13', u'10', u'11', u'17', u'16', u'6'], u'time': [1900, 3223, 4172, 4819, 5857, 6584, 7686, 8402, 9040, 9766, 10525, 11025, 12661]}, u'edge': {u'target': [], u'time': []}}, u'mouseout': {u'state': {u'target': [], u'time': []}, u'edge': {u'target': [], u'time': []}}}",,,"[14604, 632, 885]",44.0,,272441,3.0,6.0,mouselab-mdp,,9
"[24419, 35091, 37147]","[u'up', u'up', u'left']",,,"[3, 0, 1]",,"[u'1', 3, 7, 12]","{u'mouseover': {u'state': {u'target': [], u'time': []}, u'edge': {u'target': [], u'time': []}}, u'click': {u'state': {u'target': [u'3', u'2', u'4', u'5', u'9', u'17', u'16', u'12', u'13', u'14', u'15', u'8', u'7', u'10'], u'time': [1767, 2789, 3941, 4993, 6650, 7335, 8212, 9526, 10804, 13302, 14210, 14990, 16250, 22947]}, u'edge': {u'target': [], u'time': []}}, u'mouseout': {u'state': {u'target': [], u'time': []}, u'edge': {u'target': [], u'time': []}}}",,,"[24419, 472, 1304]",33.0,,332218,4.0,5.0,mouselab-mdp,,9
"[5033, 13161, 16895]","[u'right', u'right', u'down']",,,"[3, 0, 1]",,"[u'1', 2, 6, 11]","{u'mouseover': {u'state': {u'target': [], u'time': []}, u'edge': {u'target': [], u'time': []}}, u'click': {u'state': {u'target': [u'3', u'5', u'4', u'2'], u'time': [1196, 2040, 2893, 3552]}, u'edge': {u'target': [], u'time': []}}, u'mouseout': {u'state': {u'target': [], u'time': []}, u'edge': {u'target': [], u'time': []}}}",,,"[5033, 451, 2524]",-16.0,,388639,5.0,7.0,mouselab-mdp,,9
"[17883, 28548, 35442]","[u'down', u'down', u'right']",,,"[3, 0, 1]",,"[u'1', 5, 9, 17]","{u'mouseover': {u'state': {u'target': [], u'time': []}, u'edge': {u'target': [], u'time': []}}, u'click': {u'state': {u'target': [u'3', u'4', u'5', u'2', u'8', u'14', u'15', u'7', u'12', u'6', u'9', u'16', u'17'], u'time': [1699, 2711, 4128, 5215, 6402, 7059, 7884, 10206, 10898, 12217, 14541, 15411, 16392]}, u'edge': {u'target': [], u'time': []}}, u'mouseout': {u'state': {u'target': [], u'time': []}, u'edge': {u'target': [], u'time': []}}}",,,"[17883, 457, 5916]",38.0,,448186,6.0,9.0,mouselab-mdp,,9
"[20746, 32043, 33949]","[u'up', u'up', u'right']",,,"[3, 0, 1]",,"[u'1', 3, 7, 13]","{u'mouseover': {u'state': {u'target': [], u'time': []}, u'edge': {u'target': [], u'time': []}}, u'click': {u'state': {u'target': [u'3', u'7', u'12', u'13', u'2', u'10', u'11', u'17', u'16', u'5', u'9', u'4', u'14', u'15'], u'time': [1197, 2249, 3085, 4279, 5534, 6645, 7490, 8277, 9259, 9992, 10636, 11777, 12609, 19083]}, u'edge': {u'target': [], u'time': []}}, u'mouseout': {u'state': {u'target': [], u'time': []}, u'edge': {u'target': [], u'time': []}}}",,,"[20745, 953, 1107]",26.0,,506032,7.0,1.0,mouselab-mdp,,9
"[34213, 44960, 46945]","[u'up', u'up', u'right']",,,"[3, 0, 1]",,"[u'1', 3, 7, 13]","{u'mouseover': {u'state': {u'target': [], u'time': []}, u'edge': {u'target': [], u'time': []}}, u'click': {u'state': {u'target': [u'3', u'5', u'4', u'2', u'10', u'11', u'6', u'7', u'13', u'12', u'14', u'15', u'8'], u'time': [1172, 2168, 3143, 4070, 5850, 7305, 10019, 11713, 12467, 13211, 18624, 19460, 21760]}, u'edge': {u'target': [], u'time': []}}, u'mouseout': {u'state': {u'target': [], u'time': []}, u'edge': {u'target': [], u'time': []}}}",,,"[34212, 566, 1064]",42.0,,565825,8.0,2.0,mouselab-mdp,,9
"[18953, 28327, 30323]","[u'right', u'right', u'down']",,,"[3, 0, 1]",,"[u'1', 2, 6, 11]","{u'mouseover': {u'state': {u'target': [], u'time': []}, u'edge': {u'target': [], u'time': []}}, u'click': {u'state': {u'target': [u'3', u'5', u'4', u'2', u'17', u'16', u'9', u'6', u'10', u'11'], u'time': [2126, 3644, 4594, 5967, 7692, 8968, 10016, 11308, 12206, 12964]}, u'edge': {u'target': [], u'time': []}}, u'mouseout': {u'state': {u'target': [], u'time': []}, u'edge': {u'target': [], u'time': []}}}",,,"[18953, 496, 1080]",48.0,,623448,9.0,8.0,mouselab-mdp,,9
"[22927, 32726, 35891]","[u'up', u'up', u'right']",,,"[3, 0, 1]",,"[u'1', 3, 7, 13]","{u'mouseover': {u'state': {u'target': [], u'time': []}, u'edge': {u'target': [], u'time': []}}, u'click': {u'state': {u'target': [u'3', u'4', u'2', u'5', u'10', u'11', u'6', u'12', u'13', u'7', u'9', u'16', u'17'], u'time': [1430, 2309, 3144, 4024, 5108, 5780, 6453, 8616, 9526, 10172, 17093, 18549, 19436]}, u'edge': {u'target': [], u'time': []}}, u'mouseout': {u'state': {u'target': [], u'time': []}, u'edge': {u'target': [], u'time': []}}}",,,"[22927, 534, 2416]",42.0,,680643,10.0,4.0,mouselab-mdp,,9
"[18055, 23037, 24445]","[u'up', u'up', u'left']",,,[],,"[u'1', 3, 7, 12]","{u'mouseover': {u'state': {u'target': [], u'time': []}, u'edge': {u'target': [], u'time': []}}, u'click': {u'state': {u'target': [u'5', u'3', u'4', u'2', u'13', u'12', u'7', u'9', u'16', u'17', u'8'], u'time': [1788, 3072, 3826, 4727, 5783, 6405, 7139, 10798, 11558, 12351, 16227]}, u'edge': {u'target': [], u'time': []}}, u'mouseout': {u'state': {u'target': [], u'time': []}, u'edge': {u'target': [], u'time': []}}}",,,"[18055, 4473, 900]",38.0,,727900,11.0,15.0,mouselab-mdp,,9
"[9596, 11626, 12970]","[u'up', u'up', u'left']",,,[],,"[u'1', 3, 7, 12]","{u'mouseover': {u'state': {u'target': [], u'time': []}, u'edge': {u'target': [], u'time': []}}, u'click': {u'state': {u'target': [u'3', u'4', u'2', u'5', u'13', u'12', u'7'], u'time': [2087, 2941, 3840, 4672, 5625, 6468, 7726]}, u'edge': {u'target': [], u'time': []}}, u'mouseout': {u'state': {u'target': [], u'time': []}, u'edge': {u'target': [], u'time': []}}}",,,"[9596, 1514, 832]",43.0,,776631,12.0,13.0,mouselab-mdp,,9
"[8621, 10523, 12030]","[u'up', u'up', u'left']",,,[],,"[u'1', 3, 7, 12]","{u'mouseover': {u'state': {u'target': [], u'time': []}, u'edge': {u'target': [], u'time': []}}, u'click': {u'state': {u'target': [u'3', u'13', u'12', u'7'], u'time': [1074, 2790, 3523, 4160]}, u'edge': {u'target': [], u'time': []}}, u'mouseout': {u'state': {u'target': [], u'time': []}, u'edge': {u'target': [], u'time': []}}}",,,"[8621, 1384, 998]",48.0,,823738,13.0,14.0,mouselab-mdp,,9
"[11719, 14861, 18347]","[u'up', u'up', u'left']",,,[],,"[u'1', 3, 7, 12]","{u'mouseover': {u'state': {u'target': [], u'time': []}, u'edge': {u'target': [], u'time': []}}, u'click': {u'state': {u'target': [u'3', u'5', u'4', u'2', u'13', u'12'], u'time': [1199, 2322, 3128, 4050, 5185, 7102]}, u'edge': {u'target': [], u'time': []}}, u'mouseout': {u'state': {u'target': [], u'time': []}, u'edge': {u'target': [], u'time': []}}}",,,"[11718, 2624, 2965]",46.0,,877221,14.0,12.0,mouselab-mdp,,9
"[21716, 23650, 25970]","[u'right', u'right', u'up']",,,[],,"[u'1', 2, 6, 10]","{u'mouseover': {u'state': {u'target': [], u'time': []}, u'edge': {u'target': [], u'time': []}}, u'click': {u'state': {u'target': [u'3', u'5', u'4', u'2', u'8', u'14', u'9', u'17', u'16', u'15', u'6', u'10', u'11'], u'time': [2016, 2970, 3748, 4633, 6125, 7226, 9779, 11025, 12201, 14502, 16085, 16926, 17935]}, u'edge': {u'target': [], u'time': []}}, u'mouseout': {u'state': {u'target': [], u'time': []}, u'edge': {u'target': [], u'time': []}}}",,,"[21716, 1429, 1807]",40.0,,924466,15.0,10.0,mouselab-mdp,,9
"[19772, 21937, 23583]","[u'right', u'right', u'down']",,,[],,"[u'1', 2, 6, 11]","{u'mouseover': {u'state': {u'target': [], u'time': []}, u'edge': {u'target': [], u'time': []}}, u'click': {u'state': {u'target': [u'3', u'5', u'2', u'4', u'9', u'17', u'7', u'12', u'10', u'11', u'6', u'8'], u'time': [4673, 5803, 6488, 7263, 8387, 9174, 10655, 11347, 12394, 13205, 15045, 17718]}, u'edge': {u'target': [], u'time': []}}, u'mouseout': {u'state': {u'target': [], u'time': []}, u'edge': {u'target': [], u'time': []}}}",,,"[19772, 1652, 1134]",16.0,,975742,16.0,11.0,mouselab-mdp,,9
"[23478, 41923, 45015]","[u'left', u'left', u'up']",,,"[5, 0, 0]",,"[u'1', 4, 8, 14]","{u'mouseover': {u'state': {u'target': [], u'time': []}, u'edge': {u'target': [], u'time': []}}, u'click': {u'state': {u'target': [u'4', u'14', u'13', u'11', u'17'], u'time': [6230, 10288, 14583, 18009, 20094]}, u'edge': {u'target': [], u'time': []}}, u'mouseout': {u'state': {u'target': [], u'time': []}, u'edge': {u'target': [], u'time': []}}}",,,"[23478, 10304, 2305]",14.0,,234105,1.0,5.0,mouselab-mdp,,10
"[19027, 29053, 33097]","[u'up', u'up', u'right']",,,"[1, 2, 0]",,"[u'1', 3, 7, 13]","{u'mouseover': {u'state': {u'target': [], u'time': []}, u'edge': {u'target': [], u'time': []}}, u'click': {u'state': {u'target': [u'3', u'12', u'5', u'8', u'6', u'13'], u'time': [5345, 7993, 11856, 14041, 16114, 27426]}, u'edge': {u'target': [], u'time': []}}, u'mouseout': {u'state': {u'target': [], u'time': []}, u'edge': {u'target': [], u'time': []}}}",,,"[19027, 5990, 712]",49.0,,290028,2.0,3.0,mouselab-mdp,,10
"[14537, 24203, 29958]","[u'up', u'up', u'right']",,,"[6, 0, 0]",,"[u'1', 3, 7, 13]","{u'mouseover': {u'state': {u'target': [], u'time': []}, u'edge': {u'target': [], u'time': []}}, u'click': {u'state': {u'target': [u'6', u'7', u'8', u'9', u'13'], u'time': [6499, 8261, 9958, 11112, 28703]}, u'edge': {u'target': [], u'time': []}}, u'mouseout': {u'state': {u'target': [], u'time': []}, u'edge': {u'target': [], u'time': []}}}",,,"[14537, 861, 4873]",50.0,,348970,3.0,2.0,mouselab-mdp,,10
"[11221, 14326, 19213]","[u'right', u'right', u'down']",,,"[0, 0, 0]",,"[u'1', 2, 6, 11]","{u'mouseover': {u'state': {u'target': [], u'time': []}, u'edge': {u'target': [], u'time': []}}, u'click': {u'state': {u'target': [u'7', u'8', u'6', u'9', u'11'], u'time': [4568, 5516, 6613, 7723, 9817]}, u'edge': {u'target': [], u'time': []}}, u'mouseout': {u'state': {u'target': [], u'time': []}, u'edge': {u'target': [], u'time': []}}}",,,"[11221, 2, 3969]",52.0,,403648,4.0,6.0,mouselab-mdp,,10
"[8800, 11983, 14027]","[u'down', u'down', u'right']",,,"[0, 0, 0]",,"[u'1', 5, 9, 17]","{u'mouseover': {u'state': {u'target': [], u'time': []}, u'edge': {u'target': [], u'time': []}}, u'click': {u'state': {u'target': [u'9', u'7', u'8', u'6', u'16', u'17'], u'time': [1880, 3250, 4182, 4992, 6260, 7494]}, u'edge': {u'target': [], u'time': []}}, u'mouseout': {u'state': {u'target': [], u'time': []}, u'edge': {u'target': [], u'time': []}}}",,,"[8800, 2, 1199]",45.0,,455193,5.0,9.0,mouselab-mdp,,10
"[18352, 22412, 24174]","[u'up', u'up', u'right']",,,"[0, 0, 0]",,"[u'1', 3, 7, 13]","{u'mouseover': {u'state': {u'target': [], u'time': []}, u'edge': {u'target': [], u'time': []}}, u'click': {u'state': {u'target': [u'6', u'9', u'8', u'7', u'3', u'2', u'4', u'5', u'13', u'12'], u'time': [2300, 3176, 4581, 5399, 6839, 8049, 8885, 10038, 11994, 12730]}, u'edge': {u'target': [], u'time': []}}, u'mouseout': {u'state': {u'target': [], u'time': []}, u'edge': {u'target': [], u'time': []}}}",,,"[18352, 2, 933]",30.0,,508412,6.0,1.0,mouselab-mdp,,10
"[7302, 10393, 12751]","[u'left', u'left', u'up']",,,"[0, 0, 0]",,"[u'1', 4, 8, 14]","{u'mouseover': {u'state': {u'target': [], u'time': []}, u'edge': {u'target': [], u'time': []}}, u'click': {u'state': {u'target': [u'9', u'7', u'8', u'6', u'14'], u'time': [1241, 2181, 3448, 4530, 5537]}, u'edge': {u'target': [], u'time': []}}, u'mouseout': {u'state': {u'target': [], u'time': []}, u'edge': {u'target': [], u'time': []}}}",,,"[7301, 2, 1464]",57.0,,562598,7.0,0.0,mouselab-mdp,,10
"[13462, 21719, 23427]","[u'down', u'down', u'right']",,,"[4, 0, 0]",,"[u'1', 5, 9, 17]","{u'mouseover': {u'state': {u'target': [], u'time': []}, u'edge': {u'target': [], u'time': []}}, u'click': {u'state': {u'target': [u'6', u'8', u'7', u'9', u'16', u'17', u'13', u'12'], u'time': [2537, 3999, 4873, 5770, 7074, 7950, 9414, 10139]}, u'edge': {u'target': [], u'time': []}}, u'mouseout': {u'state': {u'target': [], u'time': []}, u'edge': {u'target': [], u'time': []}}}",,,"[13462, 633, 938]",26.0,,624335,8.0,4.0,mouselab-mdp,,10
"[17124, 21037, 22559]","[u'left', u'left', u'up']",,,"[0, 0, 0]",,"[u'1', 4, 8, 14]","{u'mouseover': {u'state': {u'target': [], u'time': []}, u'edge': {u'target': [], u'time': []}}, u'click': {u'state': {u'target': [u'7', u'6', u'8', u'9', u'15', u'14', u'3', u'10', u'5', u'4'], u'time': [1839, 2788, 3827, 4717, 6305, 7193, 8848, 9623, 10879, 11466]}, u'edge': {u'target': [], u'time': []}}, u'mouseout': {u'state': {u'target': [], u'time': []}, u'edge': {u'target': [], u'time': []}}}",,,"[17123, 2, 727]",18.0,,677568,9.0,7.0,mouselab-mdp,,10
"[8690, 18249, 20651]","[u'right', u'right', u'down']",,,"[0, 0, 0]",,"[u'1', 2, 6, 11]","{u'mouseover': {u'state': {u'target': [], u'time': []}, u'edge': {u'target': [], u'time': []}}, u'click': {u'state': {u'target': [u'7', u'8', u'9', u'6', u'11', u'2'], u'time': [1638, 2411, 3282, 4063, 5959, 7359]}, u'edge': {u'target': [], u'time': []}}, u'mouseout': {u'state': {u'target': [], u'time': []}, u'edge': {u'target': [], u'time': []}}}",,,"[8690, 6300, 1527]",52.0,,731015,10.0,8.0,mouselab-mdp,,10
"[5366, 10735, 14645]","[u'left', u'left', u'down']",,,[],,"[u'1', 4, 8, 15]","{u'mouseover': {u'state': {u'target': [], u'time': []}, u'edge': {u'target': [], u'time': []}}, u'click': {u'state': {u'target': [], u'time': []}, u'edge': {u'target': [], u'time': []}}, u'mouseout': {u'state': {u'target': [], u'time': []}, u'edge': {u'target': [], u'time': []}}}",,,"[5366, 4868, 3407]",11.0,,804301,11.0,15.0,mouselab-mdp,,10
"[3002, 5449, 7907]","[u'right', u'right', u'up']",,,[],,"[u'1', 2, 6, 10]","{u'mouseover': {u'state': {u'target': [], u'time': []}, u'edge': {u'target': [], u'time': []}}, u'click': {u'state': {u'target': [], u'time': []}, u'edge': {u'target': [], u'time': []}}, u'mouseout': {u'state': {u'target': [], u'time': []}, u'edge': {u'target': [], u'time': []}}}",,,"[3001, 1945, 1959]",14.0,,856284,12.0,12.0,mouselab-mdp,,10
"[1784, 3492, 5216]","[u'left', u'left', u'up']",,,[],,"[u'1', 4, 8, 14]","{u'mouseover': {u'state': {u'target': [], u'time': []}, u'edge': {u'target': [], u'time': []}}, u'click': {u'state': {u'target': [], u'time': []}, u'edge': {u'target': [], u'time': []}}, u'mouseout': {u'state': {u'target': [], u'time': []}, u'edge': {u'target': [], u'time': []}}}",,,"[1783, 1210, 1211]",20.0,,903402,13.0,13.0,mouselab-mdp,,10
"[2354, 4260, 6794]","[u'up', u'up', u'right']",,,[],,"[u'1', 3, 7, 13]","{u'mouseover': {u'state': {u'target': [], u'time': []}, u'edge': {u'target': [], u'time': []}}, u'click': {u'state': {u'target': [], u'time': []}, u'edge': {u'target': [], u'time': []}}, u'mouseout': {u'state': {u'target': [], u'time': []}, u'edge': {u'target': [], u'time': []}}}",,,"[2354, 1400, 2030]",36.0,,952085,14.0,14.0,mouselab-mdp,,10
"[5184, 7273, 9180]","[u'up', u'up', u'left']",,,[],,"[u'1', 3, 7, 12]","{u'mouseover': {u'state': {u'target': [], u'time': []}, u'edge': {u'target': [], u'time': []}}, u'click': {u'state': {u'target': [], u'time': []}, u'edge': {u'target': [], u'time': []}}, u'mouseout': {u'state': {u'target': [], u'time': []}, u'edge': {u'target': [], u'time': []}}}",,,"[5184, 1580, 1404]",-10.0,,1006866,15.0,10.0,mouselab-mdp,,10
"[2632, 4873, 6478]","[u'right', u'right', u'down']",,,[],,"[u'1', 2, 6, 11]","{u'mouseover': {u'state': {u'target': [], u'time': []}, u'edge': {u'target': [], u'time': []}}, u'click': {u'state': {u'target': [], u'time': []}, u'edge': {u'target': [], u'time': []}}, u'mouseout': {u'state': {u'target': [], u'time': []}, u'edge': {u'target': [], u'time': []}}}",,,"[2631, 1735, 1096]",28.0,,1055914,16.0,11.0,mouselab-mdp,,10
"[3313, 18968, 23726]","[u'left', u'left', u'up']",,,"[3, 0, 1]",,"[u'1', 4, 8, 14]","{u'mouseover': {u'state': {u'target': [], u'time': []}, u'edge': {u'target': [], u'time': []}}, u'click': {u'state': {u'target': [], u'time': []}, u'edge': {u'target': [], u'time': []}}, u'mouseout': {u'state': {u'target': [], u'time': []}, u'edge': {u'target': [], u'time': []}}}",,,"[3312, 3192, 1938]",12.0,,350222,1.0,2.0,mouselab-mdp,,11
"[6033, 19192, 29668]","[u'down', u'down', u'right']",,,"[3, 0, 1]",,"[u'1', 5, 9, 17]","{u'mouseover': {u'state': {u'target': [], u'time': []}, u'edge': {u'target': [], u'time': []}}, u'click': {u'state': {u'target': [], u'time': []}, u'edge': {u'target': [], u'time': []}}, u'mouseout': {u'state': {u'target': [], u'time': []}, u'edge': {u'target': [], u'time': []}}}",,,"[6033, 835, 7729]",1.0,,432027,2.0,1.0,mouselab-mdp,,11
"[6515, 20623, 26840]","[u'left', u'left', u'up']",,,"[3, 0, 1]",,"[u'1', 4, 8, 14]","{u'mouseover': {u'state': {u'target': [], u'time': []}, u'edge': {u'target': [], u'time': []}}, u'click': {u'state': {u'target': [], u'time': []}, u'edge': {u'target': [], u'time': []}}, u'mouseout': {u'state': {u'target': [], u'time': []}, u'edge': {u'target': [], u'time': []}}}",,,"[6515, 1805, 3507]",19.0,,505045,3.0,5.0,mouselab-mdp,,11
"[2166, 14891, 25339]","[u'left', u'left', u'up']",,,"[3, 0, 1]",,"[u'1', 4, 8, 14]","{u'mouseover': {u'state': {u'target': [], u'time': []}, u'edge': {u'target': [], u'time': []}}, u'click': {u'state': {u'target': [], u'time': []}, u'edge': {u'target': [], u'time': []}}, u'mouseout': {u'state': {u'target': [], u'time': []}, u'edge': {u'target': [], u'time': []}}}",,,"[2165, 598, 7445]",62.0,,576353,4.0,0.0,mouselab-mdp,,11
"[1514, 14548, 18581]","[u'left', u'left', u'down']",,,"[3, 0, 1]",,"[u'1', 4, 8, 15]","{u'mouseover': {u'state': {u'target': [], u'time': []}, u'edge': {u'target': [], u'time': []}}, u'click': {u'state': {u'target': [], u'time': []}, u'edge': {u'target': [], u'time': []}}, u'mouseout': {u'state': {u'target': [], u'time': []}, u'edge': {u'target': [], u'time': []}}}",,,"[1514, 573, 1262]",4.0,,643486,5.0,6.0,mouselab-mdp,,11
"[1384, 14363, 21745]","[u'up', u'up', u'right']",,,"[3, 0, 1]",,"[u'1', 3, 7, 13]","{u'mouseover': {u'state': {u'target': [], u'time': []}, u'edge': {u'target': [], u'time': []}}, u'click': {u'state': {u'target': [], u'time': []}, u'edge': {u'target': [], u'time': []}}, u'mouseout': {u'state': {u'target': [], u'time': []}, u'edge': {u'target': [], u'time': []}}}",,,"[1383, 562, 4521]",55.0,,713918,6.0,4.0,mouselab-mdp,,11
"[2942, 17045, 23514]","[u'up', u'up', u'right']",,,"[3, 0, 1]",,"[u'1', 3, 7, 13]","{u'mouseover': {u'state': {u'target': [], u'time': []}, u'edge': {u'target': [], u'time': []}}, u'click': {u'state': {u'target': [], u'time': []}, u'edge': {u'target': [], u'time': []}}, u'mouseout': {u'state': {u'target': [], u'time': []}, u'edge': {u'target': [], u'time': []}}}",,,"[2942, 1670, 3603]",55.0,,783594,7.0,3.0,mouselab-mdp,,11
"[10189, 24075, 32481]","[u'right', u'right', u'down']",,,"[3, 0, 1]",,"[u'1', 2, 6, 11]","{u'mouseover': {u'state': {u'target': [], u'time': []}, u'edge': {u'target': [], u'time': []}}, u'click': {u'state': {u'target': [], u'time': []}, u'edge': {u'target': [], u'time': []}}, u'mouseout': {u'state': {u'target': [], u'time': []}, u'edge': {u'target': [], u'time': []}}}",,,"[10189, 1276, 5542]",58.0,,854921,8.0,8.0,mouselab-mdp,,11
"[1675, 15798, 25891]","[u'down', u'down', u'right']",,,"[3, 0, 1]",,"[u'1', 5, 9, 17]","{u'mouseover': {u'state': {u'target': [], u'time': []}, u'edge': {u'target': [], u'time': []}}, u'click': {u'state': {u'target': [], u'time': []}, u'edge': {u'target': [], u'time': []}}, u'mouseout': {u'state': {u'target': [], u'time': []}, u'edge': {u'target': [], u'time': []}}}",,,"[1674, 1392, 7091]",-35.0,,925444,9.0,7.0,mouselab-mdp,,11
"[1559, 16111, 22299]","[u'right', u'right', u'up']",,,"[3, 0, 1]",,"[u'1', 2, 6, 10]","{u'mouseover': {u'state': {u'target': [], u'time': []}, u'edge': {u'target': [], u'time': []}}, u'click': {u'state': {u'target': [], u'time': []}, u'edge': {u'target': [], u'time': []}}, u'mouseout': {u'state': {u'target': [], u'time': []}, u'edge': {u'target': [], u'time': []}}}",,,"[1558, 2077, 3319]",-1.0,,997931,10.0,9.0,mouselab-mdp,,11
"[1727, 4655, 8353]","[u'left', u'left', u'up']",,,[],,"[u'1', 4, 8, 14]","{u'mouseover': {u'state': {u'target': [], u'time': []}, u'edge': {u'target': [], u'time': []}}, u'click': {u'state': {u'target': [], u'time': []}, u'edge': {u'target': [], u'time': []}}, u'mouseout': {u'state': {u'target': [], u'time': []}, u'edge': {u'target': [], u'time': []}}}",,,"[1727, 2403, 3172]",14.0,,1050973,11.0,14.0,mouselab-mdp,,11
"[947, 3041, 7254]","[u'up', u'up', u'left']",,,[],,"[u'1', 3, 7, 12]","{u'mouseover': {u'state': {u'target': [], u'time': []}, u'edge': {u'target': [], u'time': []}}, u'click': {u'state': {u'target': [], u'time': []}, u'edge': {u'target': [], u'time': []}}, u'mouseout': {u'state': {u'target': [], u'time': []}, u'edge': {u'target': [], u'time': []}}}",,,"[947, 1568, 3682]",52.0,,1102223,12.0,12.0,mouselab-mdp,,11
"[2005, 3917, 9186]","[u'left', u'left', u'down']",,,[],,"[u'1', 4, 8, 15]","{u'mouseover': {u'state': {u'target': [], u'time': []}, u'edge': {u'target': [], u'time': []}}, u'click': {u'state': {u'target': [], u'time': []}, u'edge': {u'target': [], u'time': []}}, u'mouseout': {u'state': {u'target': [], u'time': []}, u'edge': {u'target': [], u'time': []}}}",,,"[2004, 1387, 4741]",-2.0,,1154252,13.0,11.0,mouselab-mdp,,11
"[672, 4010, 8470]","[u'down', u'down', u'right']",,,[],,"[u'1', 5, 9, 17]","{u'mouseover': {u'state': {u'target': [], u'time': []}, u'edge': {u'target': [], u'time': []}}, u'click': {u'state': {u'target': [], u'time': []}, u'edge': {u'target': [], u'time': []}}, u'mouseout': {u'state': {u'target': [], u'time': []}, u'edge': {u'target': [], u'time': []}}}",,,"[672, 2800, 3936]",21.0,,1204608,14.0,15.0,mouselab-mdp,,11
"[2635, 4293, 7022]","[u'down', u'down', u'right']",,,[],,"[u'1', 5, 9, 17]","{u'mouseover': {u'state': {u'target': [], u'time': []}, u'edge': {u'target': [], u'time': []}}, u'click': {u'state': {u'target': [], u'time': []}, u'edge': {u'target': [], u'time': []}}, u'mouseout': {u'state': {u'target': [], u'time': []}, u'edge': {u'target': [], u'time': []}}}",,,"[2634, 1096, 2204]",16.0,,1258049,15.0,10.0,mouselab-mdp,,11
"[7183, 9267, 12104]","[u'up', u'up', u'left']",,,[],,"[u'1', 3, 7, 12]","{u'mouseover': {u'state': {u'target': [], u'time': []}, u'edge': {u'target': [], u'time': []}}, u'click': {u'state': {u'target': [], u'time': []}, u'edge': {u'target': [], u'time': []}}, u'mouseout': {u'state': {u'target': [], u'time': []}, u'edge': {u'target': [], u'time': []}}}",,,"[7182, 1565, 2314]",50.0,,1310316,16.0,13.0,mouselab-mdp,,11
"[7308, 46706, 51404]","[u'down', u'down', u'right']",,,"[26, 0, 7]",,"[u'1', 5, 9, 17]","{u'mouseover': {u'state': {u'target': [], u'time': []}, u'edge': {u'target': [], u'time': []}}, u'click': {u'state': {u'target': [], u'time': []}, u'edge': {u'target': [], u'time': []}}, u'mouseout': {u'state': {u'target': [], u'time': []}, u'edge': {u'target': [], u'time': []}}}",,,"[7307, 8261, 2937]",1.0,,347501,1.0,5.0,mouselab-mdp,,12
"[2789, 35640, 39608]","[u'left', u'left', u'up']",,,"[26, 0, 7]",,"[u'1', 4, 8, 14]","{u'mouseover': {u'state': {u'target': [], u'time': []}, u'edge': {u'target': [], u'time': []}}, u'click': {u'state': {u'target': [], u'time': []}, u'edge': {u'target': [], u'time': []}}, u'mouseout': {u'state': {u'target': [], u'time': []}, u'edge': {u'target': [], u'time': []}}}",,,"[2789, 1907, 2360]",3.0,,438465,2.0,6.0,mouselab-mdp,,12
"[1001, 41673, 49394]","[u'up', u'up', u'left']",,,"[26, 4, 0]",,"[u'1', 3, 7, 12]","{u'mouseover': {u'state': {u'target': [], u'time': []}, u'edge': {u'target': [], u'time': []}}, u'click': {u'state': {u'target': [u'13', u'7', u'12'], u'time': [36323, 37451, 38539]}, u'edge': {u'target': [], u'time': []}}, u'mouseout': {u'state': {u'target': [], u'time': []}, u'edge': {u'target': [], u'time': []}}}",,,"[1001, 9593, 542]",11.0,,525478,3.0,0.0,mouselab-mdp,,12
"[10382, 67506, 72275]","[u'right', u'right', u'down']",,,"[12, 2, 0]",,"[u'1', 2, 6, 11]","{u'mouseover': {u'state': {u'target': [], u'time': []}, u'edge': {u'target': [], u'time': []}}, u'click': {u'state': {u'target': [u'10', u'11', u'6'], u'time': [1554, 3679, 30953]}, u'edge': {u'target': [], u'time': []}}, u'mouseout': {u'state': {u'target': [], u'time': []}, u'edge': {u'target': [], u'time': []}}}",,,"[10382, 38630, 739]",5.0,,608598,4.0,3.0,mouselab-mdp,,12
"[6214, 24047, 30834]","[u'down', u'down', u'left']",,,"[4, 3, 0]",,"[u'1', 5, 9, 16]","{u'mouseover': {u'state': {u'target': [], u'time': []}, u'edge': {u'target': [], u'time': []}}, u'click': {u'state': {u'target': [u'2', u'3', u'4', u'5', u'17', u'16'], u'time': [1185, 2951, 3904, 4559, 18713, 19423]}, u'edge': {u'target': [], u'time': []}}, u'mouseout': {u'state': {u'target': [], u'time': []}, u'edge': {u'target': [], u'time': []}}}",,,"[6214, 6246, 660]",19.0,,679530,5.0,8.0,mouselab-mdp,,12
"[6115, 23014, 29745]","[u'down', u'down', u'right']",,,"[3, 3, 0]",,"[u'1', 5, 9, 17]","{u'mouseover': {u'state': {u'target': [], u'time': []}, u'edge': {u'target': [], u'time': []}}, u'click': {u'state': {u'target': [u'3', u'5', u'2', u'4', u'16', u'17'], u'time': [2211, 3212, 3946, 4563, 17521, 18330]}, u'edge': {u'target': [], u'time': []}}, u'mouseout': {u'state': {u'target': [], u'time': []}, u'edge': {u'target': [], u'time': []}}}",,,"[6114, 6035, 528]",-5.0,,749601,6.0,1.0,mouselab-mdp,,12
"[13510, 27008, 30118]","[u'left', u'left', u'up']",,,"[3, 0, 0]",,"[u'1', 4, 8, 14]","{u'mouseover': {u'state': {u'target': [], u'time': []}, u'edge': {u'target': [], u'time': []}}, u'click': {u'state': {u'target': [u'3', u'2', u'5', u'4', u'10', u'11', u'14', u'15'], u'time': [1660, 2450, 3930, 4859, 6843, 7875, 9756, 11218]}, u'edge': {u'target': [], u'time': []}}, u'mouseout': {u'state': {u'target': [], u'time': []}, u'edge': {u'target': [], u'time': []}}}",,,"[13510, 757, 1820]",20.0,,815915,7.0,7.0,mouselab-mdp,,12
"[11819, 25358, 26697]","[u'left', u'left', u'down']",,,"[2, 0, 0]",,"[u'1', 4, 8, 15]","{u'mouseover': {u'state': {u'target': [], u'time': []}, u'edge': {u'target': [], u'time': []}}, u'click': {u'state': {u'target': [u'3', u'2', u'5', u'4', u'10', u'11', u'14', u'15'], u'time': [2734, 3532, 4213, 4899, 5963, 6645, 8220, 9108]}, u'edge': {u'target': [], u'time': []}}, u'mouseout': {u'state': {u'target': [], u'time': []}, u'edge': {u'target': [], u'time': []}}}",,,"[11819, 1492, 5]",17.0,,895910,8.0,4.0,mouselab-mdp,,12
"[25262, 42179, 43369]","[u'up', u'up', u'right']",,,"[4, 0, 0]",,"[u'1', 3, 7, 13]","{u'mouseover': {u'state': {u'target': [], u'time': []}, u'edge': {u'target': [], u'time': []}}, u'click': {u'state': {u'target': [u'12', u'13', u'17', u'16', u'15', u'14', u'10', u'11', u'2', u'3', u'5', u'4'], u'time': [1115, 2218, 5403, 6595, 7667, 8610, 9907, 10754, 11658, 12402, 13522, 14469]}, u'edge': {u'target': [], u'time': []}}, u'mouseout': {u'state': {u'target': [], u'time': []}, u'edge': {u'target': [], u'time': []}}}",,,"[25261, 733, 4]",43.0,,979668,9.0,2.0,mouselab-mdp,,12
"[20383, 32508, 34194]","[u'down', u'down', u'right']",,,"[0, 0, 0]",,"[u'1', 5, 9, 17]","{u'mouseover': {u'state': {u'target': [], u'time': []}, u'edge': {u'target': [], u'time': []}}, u'click': {u'state': {u'target': [u'12', u'13', u'10', u'11', u'17', u'16', u'15', u'14', u'4', u'3', u'2', u'5'], u'time': [2046, 2962, 3660, 4522, 5242, 6306, 6898, 7826, 8897, 9642, 10602, 11442]}, u'edge': {u'target': [], u'time': []}}, u'mouseout': {u'state': {u'target': [], u'time': []}, u'edge': {u'target': [], u'time': []}}}",,,"[20383, 11, 503]",39.0,,1050828,10.0,9.0,mouselab-mdp,,12
"[9612, 11394, 12893]","[u'up', u'up', u'left']",,,[],,"[u'1', 3, 7, 12]","{u'mouseover': {u'state': {u'target': [], u'time': []}, u'edge': {u'target': [], u'time': []}}, u'click': {u'state': {u'target': [u'12', u'13', u'10', u'11', u'2', u'3'], u'time': [1248, 2796, 4348, 5520, 6236, 6930]}, u'edge': {u'target': [], u'time': []}}, u'mouseout': {u'state': {u'target': [], u'time': []}, u'edge': {u'target': [], u'time': []}}}",,,"[9612, 1266, 991]",43.0,,1112887,11.0,15.0,mouselab-mdp,,12
"[11712, 12845, 14119]","[u'right', u'right', u'up']",,,[],,"[u'1', 2, 6, 10]","{u'mouseover': {u'state': {u'target': [], u'time': []}, u'edge': {u'target': [], u'time': []}}, u'click': {u'state': {u'target': [u'12', u'13', u'11', u'10', u'17', u'16', u'15', u'14', u'4', u'3', u'2', u'5'], u'time': [854, 1646, 2773, 3501, 4489, 5353, 6253, 7117, 8013, 8702, 9397, 10061]}, u'edge': {u'target': [], u'time': []}}, u'mouseout': {u'state': {u'target': [], u'time': []}, u'edge': {u'target': [], u'time': []}}}",,,"[11711, 624, 760]",41.0,,1166386,12.0,10.0,mouselab-mdp,,12
"[9253, 10794, 11775]","[u'up', u'up', u'left']",,,[],,"[u'1', 3, 7, 12]","{u'mouseover': {u'state': {u'target': [], u'time': []}, u'edge': {u'target': [], u'time': []}}, u'click': {u'state': {u'target': [u'10', u'11', u'17', u'16', u'15', u'14', u'12', u'13', u'3'], u'time': [748, 2266, 2985, 3594, 4481, 5346, 6425, 7066, 7906]}, u'edge': {u'target': [], u'time': []}}, u'mouseout': {u'state': {u'target': [], u'time': []}, u'edge': {u'target': [], u'time': []}}}",,,"[9253, 1027, 469]",43.0,,1216633,13.0,14.0,mouselab-mdp,,12
"[13441, 14651, 15721]","[u'up', u'up', u'left']",,,[],,"[u'1', 3, 7, 12]","{u'mouseover': {u'state': {u'target': [], u'time': []}, u'edge': {u'target': [], u'time': []}}, u'click': {u'state': {u'target': [u'12', u'13', u'11', u'10', u'17', u'16', u'15', u'14', u'6', u'7'], u'time': [867, 1866, 2960, 3593, 4466, 5313, 6138, 6792, 10017, 11912]}, u'edge': {u'target': [], u'time': []}}, u'mouseout': {u'state': {u'target': [], u'time': []}, u'edge': {u'target': [], u'time': []}}}",,,"[13441, 703, 552]",40.0,,1268461,14.0,13.0,mouselab-mdp,,12
"[10319, 12430, 13606]","[u'right', u'right', u'down']",,,[],,"[u'1', 2, 6, 11]","{u'mouseover': {u'state': {u'target': [], u'time': []}, u'edge': {u'target': [], u'time': []}}, u'click': {u'state': {u'target': [u'12', u'13', u'10', u'11', u'17', u'16', u'15', u'14'], u'time': [1443, 2090, 2898, 3780, 4515, 5211, 5803, 6690]}, u'edge': {u'target': [], u'time': []}}, u'mouseout': {u'state': {u'target': [], u'time': []}, u'edge': {u'target': [], u'time': []}}}",,,"[10319, 1591, 659]",20.0,,1319561,15.0,11.0,mouselab-mdp,,12
"[10136, 11339, 12417]","[u'up', u'up', u'left']",,,[],,"[u'1', 3, 7, 12]","{u'mouseover': {u'state': {u'target': [], u'time': []}, u'edge': {u'target': [], u'time': []}}, u'click': {u'state': {u'target': [u'10', u'11', u'17', u'16', u'15', u'14', u'12', u'13', u'3'], u'time': [1768, 2350, 3030, 3942, 4941, 5701, 6464, 7374, 8349]}, u'edge': {u'target': [], u'time': []}}, u'mouseout': {u'state': {u'target': [], u'time': []}, u'edge': {u'target': [], u'time': []}}}",,,"[10135, 689, 562]",43.0,,1368638,16.0,12.0,mouselab-mdp,,12
"[23679, 25587, 27102]","[u'up', u'up', u'left']",,,"[0, 0, 0]",,"[u'1', 3, 7, 12]","{u'mouseover': {u'state': {u'target': [], u'time': []}, u'edge': {u'target': [], u'time': []}}, u'click': {u'state': {u'target': [u'3', u'7', u'13', u'12'], u'time': [6531, 9885, 10877, 12711]}, u'edge': {u'target': [], u'time': []}}, u'mouseout': {u'state': {u'target': [], u'time': []}, u'edge': {u'target': [], u'time': []}}}",,,"[23679, 5, 825]",43.0,,366506,1.0,5.0,mouselab-mdp,,13
"[27027, 29642, 31715]","[u'left', u'left', u'up']",,,"[0, 0, 0]",,"[u'1', 4, 8, 14]","{u'mouseover': {u'state': {u'target': [], u'time': []}, u'edge': {u'target': [], u'time': []}}, u'click': {u'state': {u'target': [u'2', u'6', u'4', u'3', u'5', u'8', u'14'], u'time': [5655, 6750, 8679, 14465, 15470, 17727, 22436]}, u'edge': {u'target': [], u'time': []}}, u'mouseout': {u'state': {u'target': [], u'time': []}, u'edge': {u'target': [], u'time': []}}}",,,"[27027, 4, 1297]",21.0,,415507,2.0,7.0,mouselab-mdp,,13
"[20894, 23502, 25550]","[u'up', u'up', u'right']",,,"[0, 0, 0]",,"[u'1', 3, 7, 13]","{u'mouseover': {u'state': {u'target': [], u'time': []}, u'edge': {u'target': [], u'time': []}}, u'click': {u'state': {u'target': [u'3', u'4', u'5', u'2', u'6', u'8', u'7', u'12', u'13'], u'time': [1501, 2488, 3475, 4439, 6814, 8508, 14360, 17460, 18580]}, u'edge': {u'target': [], u'time': []}}, u'mouseout': {u'state': {u'target': [], u'time': []}, u'edge': {u'target': [], u'time': []}}}",,,"[20894, 4, 1349]",46.0,,464022,3.0,4.0,mouselab-mdp,,13
"[16520, 19198, 21377]","[u'up', u'up', u'right']",,,"[0, 0, 0]",,"[u'1', 3, 7, 13]","{u'mouseover': {u'state': {u'target': [], u'time': []}, u'edge': {u'target': [], u'time': []}}, u'click': {u'state': {u'target': [u'3', u'5', u'4', u'2', u'7', u'8', u'6', u'12', u'13'], u'time': [1597, 2609, 4274, 5324, 7886, 10114, 11489, 14112, 15199]}, u'edge': {u'target': [], u'time': []}}, u'mouseout': {u'state': {u'target': [], u'time': []}, u'edge': {u'target': [], u'time': []}}}",,,"[16520, 4, 1473]",46.0,,513402,4.0,2.0,mouselab-mdp,,13
"[15279, 17983, 19984]","[u'up', u'up', u'right']",,,"[0, 0, 0]",,"[u'1', 3, 7, 13]","{u'mouseover': {u'state': {u'target': [], u'time': []}, u'edge': {u'target': [], u'time': []}}, u'click': {u'state': {u'target': [u'3', u'5', u'4', u'2', u'6', u'8', u'7', u'12', u'13'], u'time': [1589, 2721, 3819, 4845, 6954, 8585, 10199, 12953, 13986]}, u'edge': {u'target': [], u'time': []}}, u'mouseout': {u'state': {u'target': [], u'time': []}, u'edge': {u'target': [], u'time': []}}}",,,"[15279, 83, 1294]",46.0,,561599,5.0,3.0,mouselab-mdp,,13
"[13577, 16093, 18337]","[u'up', u'up', u'right']",,,"[0, 0, 0]",,"[u'1', 3, 7, 13]","{u'mouseover': {u'state': {u'target': [], u'time': []}, u'edge': {u'target': [], u'time': []}}, u'click': {u'state': {u'target': [u'3', u'2', u'5', u'4', u'7', u'9', u'13', u'12'], u'time': [2207, 3420, 4376, 5318, 7066, 8500, 10456, 11680]}, u'edge': {u'target': [], u'time': []}}, u'mouseout': {u'state': {u'target': [], u'time': []}, u'edge': {u'target': [], u'time': []}}}",,,"[13577, 4, 1532]",32.0,,610681,6.0,1.0,mouselab-mdp,,13
"[25465, 29509, 32326]","[u'right', u'right', u'down']",,,"[0, 0, 0]",,"[u'1', 2, 6, 11]","{u'mouseover': {u'state': {u'target': [], u'time': []}, u'edge': {u'target': [], u'time': []}}, u'click': {u'state': {u'target': [u'3', u'5', u'2', u'4', u'8', u'6', u'7', u'9', u'10', u'11'], u'time': [1374, 3240, 4187, 6271, 8076, 9994, 14055, 15436, 20381, 21900]}, u'edge': {u'target': [], u'time': []}}, u'mouseout': {u'state': {u'target': [], u'time': []}, u'edge': {u'target': [], u'time': []}}}",,,"[25465, 1195, 2107]",47.0,,660426,7.0,6.0,mouselab-mdp,,13
"[29613, 32458, 34789]","[u'right', u'right', u'down']",,,"[0, 0, 0]",,"[u'1', 2, 6, 11]","{u'mouseover': {u'state': {u'target': [], u'time': []}, u'edge': {u'target': [], u'time': []}}, u'click': {u'state': {u'target': [u'3', u'2', u'5', u'4', u'9', u'6', u'7', u'17', u'11', u'10', u'16'], u'time': [1288, 2182, 2936, 3941, 6732, 8788, 12613, 16303, 18843, 19983, 27312]}, u'edge': {u'target': [], u'time': []}}, u'mouseout': {u'state': {u'target': [], u'time': []}, u'edge': {u'target': [], u'time': []}}}",,,"[29612, 4, 1682]",47.0,,713144,8.0,8.0,mouselab-mdp,,13
"[22285, 26055, 28526]","[u'down', u'down', u'right']",,,"[0, 0, 0]",,"[u'1', 5, 9, 17]","{u'mouseover': {u'state': {u'target': [], u'time': []}, u'edge': {u'target': [], u'time': []}}, u'click': {u'state': {u'target': [u'3', u'2', u'5', u'4', u'8', u'7', u'9', u'17', u'16', u'14', u'15'], u'time': [1604, 2554, 3525, 4355, 6753, 8181, 9575, 13075, 14220, 16419, 17232]}, u'edge': {u'target': [], u'time': []}}, u'mouseout': {u'state': {u'target': [], u'time': []}, u'edge': {u'target': [], u'time': []}}}",,,"[22284, 979, 1846]",40.0,,763144,9.0,9.0,mouselab-mdp,,13
"[12921, 15444, 18032]","[u'left', u'left', u'up']",,,"[0, 0, 0]",,"[u'1', 4, 8, 14]","{u'mouseover': {u'state': {u'target': [], u'time': []}, u'edge': {u'target': [], u'time': []}}, u'click': {u'state': {u'target': [u'3', u'2', u'5', u'4', u'7', u'8', u'14', u'15'], u'time': [1489, 2418, 3423, 4409, 6952, 8264, 10629, 11445]}, u'edge': {u'target': [], u'time': []}}, u'mouseout': {u'state': {u'target': [], u'time': []}, u'edge': {u'target': [], u'time': []}}}",,,"[12920, 4, 1876]",54.0,,811844,10.0,0.0,mouselab-mdp,,13
"[8927, 11375, 12838]","[u'up', u'up', u'left']",,,[],,"[u'1', 3, 7, 12]","{u'mouseover': {u'state': {u'target': [], u'time': []}, u'edge': {u'target': [], u'time': []}}, u'click': {u'state': {u'target': [u'3', u'2', u'5', u'4', u'7', u'13', u'12'], u'time': [1181, 2039, 3030, 4060, 5408, 6393, 7537]}, u'edge': {u'target': [], u'time': []}}, u'mouseout': {u'state': {u'target': [], u'time': []}, u'edge': {u'target': [], u'time': []}}}",,,"[8925, 1945, 967]",42.0,,868035,11.0,15.0,mouselab-mdp,,13
"[33016, 36403, 38356]","[u'right', u'right', u'down']",,,[],,"[u'1', 2, 6, 11]","{u'mouseover': {u'state': {u'target': [], u'time': []}, u'edge': {u'target': [], u'time': []}}, u'click': {u'state': {u'target': [u'3', u'2', u'5', u'4', u'9', u'7', u'6', u'10', u'11', u'8', u'14', u'13', u'17'], u'time': [942, 1714, 2576, 3547, 6715, 8143, 10840, 17499, 18549, 27715, 28603, 29741, 31575]}, u'edge': {u'target': [], u'time': []}}, u'mouseout': {u'state': {u'target': [], u'time': []}, u'edge': {u'target': [], u'time': []}}}",,,"[33015, 2892, 1459]",15.0,,916968,12.0,11.0,mouselab-mdp,,13
"[15206, 18649, 21202]","[u'right', u'right', u'up']",,,[],,"[u'1', 2, 6, 10]","{u'mouseover': {u'state': {u'target': [], u'time': []}, u'edge': {u'target': [], u'time': []}}, u'click': {u'state': {u'target': [u'3', u'2', u'5', u'4', u'8', u'6', u'9', u'11', u'10'], u'time': [1639, 2514, 3418, 4378, 6037, 7546, 10229, 11665, 12875]}, u'edge': {u'target': [], u'time': []}}, u'mouseout': {u'state': {u'target': [], u'time': []}, u'edge': {u'target': [], u'time': []}}}",,,"[15205, 2949, 2051]",44.0,,964525,13.0,10.0,mouselab-mdp,,13
"[15906, 17698, 19290]","[u'up', u'up', u'left']",,,[],,"[u'1', 3, 7, 12]","{u'mouseover': {u'state': {u'target': [], u'time': []}, u'edge': {u'target': [], u'time': []}}, u'click': {u'state': {u'target': [u'3', u'2', u'5', u'4', u'7', u'8', u'13', u'12', u'14'], u'time': [1377, 2323, 3292, 4256, 5585, 8527, 10044, 10973, 13858]}, u'edge': {u'target': [], u'time': []}}, u'mouseout': {u'state': {u'target': [], u'time': []}, u'edge': {u'target': [], u'time': []}}}",,,"[15906, 1293, 1101]",43.0,,1012602,14.0,14.0,mouselab-mdp,,13
"[12077, 13685, 16413]","[u'up', u'up', u'left']",,,[],,"[u'1', 3, 7, 12]","{u'mouseover': {u'state': {u'target': [], u'time': []}, u'edge': {u'target': [], u'time': []}}, u'click': {u'state': {u'target': [u'3', u'2', u'5', u'4', u'7', u'13', u'12'], u'time': [1382, 2536, 3379, 4186, 6781, 9538, 10920]}, u'edge': {u'target': [], u'time': []}}, u'mouseout': {u'state': {u'target': [], u'time': []}, u'edge': {u'target': [], u'time': []}}}",,,"[12077, 1117, 2227]",45.0,,1060682,15.0,12.0,mouselab-mdp,,13
"[10646, 12478, 14886]","[u'up', u'up', u'left']",,,[],,"[u'1', 3, 7, 12]","{u'mouseover': {u'state': {u'target': [], u'time': []}, u'edge': {u'target': [], u'time': []}}, u'click': {u'state': {u'target': [u'3', u'2', u'5', u'4', u'7', u'13', u'12'], u'time': [1592, 2532, 3560, 4472, 5643, 7900, 8901]}, u'edge': {u'target': [], u'time': []}}, u'mouseout': {u'state': {u'target': [], u'time': []}, u'edge': {u'target': [], u'time': []}}}",,,"[10646, 1338, 1913]",43.0,,1108654,16.0,13.0,mouselab-mdp,,13
"[8829, 37288, 39755]","[u'right', u'right', u'up']",,,"[12, 0, 7]",,"[u'1', 2, 6, 10]","{u'mouseover': {u'state': {u'target': [], u'time': []}, u'edge': {u'target': [], u'time': []}}, u'click': {u'state': {u'target': [u'7'], u'time': [2412]}, u'edge': {u'target': [], u'time': []}}, u'mouseout': {u'state': {u'target': [], u'time': []}, u'edge': {u'target': [], u'time': []}}}",,,"[8824, 8056, 16]",1.0,,442414,1.0,4.0,mouselab-mdp,,14
"[2111, 46322, 49077]","[u'down', u'down', u'right']",,,"[26, 0, 7]",,"[u'1', 5, 9, 17]","{u'mouseover': {u'state': {u'target': [], u'time': []}, u'edge': {u'target': [], u'time': []}}, u'click': {u'state': {u'target': [], u'time': []}, u'edge': {u'target': [], u'time': []}}, u'mouseout': {u'state': {u'target': [], u'time': []}, u'edge': {u'target': [], u'time': []}}}",,,"[2111, 8535, 10]",1.0,,566192,2.0,5.0,mouselab-mdp,,14
"[676, 44804, 48564]","[u'left', u'left', u'down']",,,"[26, 0, 7]",,"[u'1', 4, 8, 15]","{u'mouseover': {u'state': {u'target': [], u'time': []}, u'edge': {u'target': [], u'time': []}}, u'click': {u'state': {u'target': [], u'time': []}, u'edge': {u'target': [], u'time': []}}, u'mouseout': {u'state': {u'target': [], u'time': []}, u'edge': {u'target': [], u'time': []}}}",,,"[676, 10857, 1337]",-16.0,,667420,3.0,8.0,mouselab-mdp,,14
"[2522, 41967, 70830]","[u'up', u'up', u'right']",,,"[26, 0, 7]",,"[u'1', 3, 7, 13]","{u'mouseover': {u'state': {u'target': [], u'time': []}, u'edge': {u'target': [], u'time': []}}, u'click': {u'state': {u'target': [], u'time': []}, u'edge': {u'target': [], u'time': []}}, u'mouseout': {u'state': {u'target': [], u'time': []}, u'edge': {u'target': [], u'time': []}}}",,,"[2522, 7502, 26464]",21.0,,762464,4.0,6.0,mouselab-mdp,,14
"[11431, 48864, 50756]","[u'down', u'down', u'right']",,,"[26, 0, 7]",,"[u'1', 5, 9, 17]","{u'mouseover': {u'state': {u'target': [], u'time': []}, u'edge': {u'target': [], u'time': []}}, u'click': {u'state': {u'target': [], u'time': []}, u'edge': {u'target': [], u'time': []}}, u'mouseout': {u'state': {u'target': [], u'time': []}, u'edge': {u'target': [], u'time': []}}}",,,"[11431, 2629, 7]",34.0,,882315,5.0,2.0,mouselab-mdp,,14
"[6807, 51145, 53103]","[u'down', u'down', u'right']",,,"[26, 0, 7]",,"[u'1', 5, 9, 17]","{u'mouseover': {u'state': {u'target': [], u'time': []}, u'edge': {u'target': [], u'time': []}}, u'click': {u'state': {u'target': [], u'time': []}, u'edge': {u'target': [], u'time': []}}, u'mouseout': {u'state': {u'target': [], u'time': []}, u'edge': {u'target': [], u'time': []}}}",,,"[6807, 10384, 12]",-35.0,,989717,6.0,7.0,mouselab-mdp,,14
