action_times,actions,button_pressed,correct,delays,key_press,path,queries,questions,responses,rt,score,stimulus,time_elapsed,trial_index,trial_i,trial_type,view_history,pid
,,,"[True, True, True, True]",,,,,"[""True or false: The hidden values will change each time I start a new round."",""How much does it cost to observe each hidden value?"",""How many hidden values am I allowed to observe in each round?"",""How is your bonus determined?""]","[""True"",""$1.00"",""As many or as few as I wish"",""5 cents for every $10 I earn in each round""]",11566,,,93984,,,survey-multi-choice,,0
,,,"[True, True, True, True]",,,,,"[""True or false: The hidden values will change each time I start a new round."",""How much does it cost to observe each hidden value?"",""How many hidden values am I allowed to observe in each round?"",""How is your bonus determined?""]","[""True"",""$1.00"",""As many or as few as I wish"",""5 cents for every $10 I earn in each round""]",46719,,,350061,,,survey-multi-choice,,1
,,,"[True, True, True, True]",,,,,"[""True or false: The hidden values will change each time I start a new round."",""How much does it cost to observe each hidden value?"",""How many hidden values am I allowed to observe in each round?"",""How is your bonus determined?""]","[""True"",""$1.00"",""As many or as few as I wish"",""5 cents for every $10 I earn in each round""]",13424,,,180236,,,survey-multi-choice,,2
,,,"[True, True, True, True, True]",,,,,"[""True or false: The hidden values will change each time I start a new round."",""How much does it cost to observe each hidden value?"",""How many hidden values am I allowed to observe in each round?"",""How is your bonus determined?"",""What does the feedback teach you?""]","[""True"",""$1.00"",""As many or as few as I wish"",""5 cents for every $10 I earn in each round"",""All of the above.""]",54897,,,245598,,,survey-multi-choice,,3
,,,"[True, False, False, True]",,,,,"[""True or false: The hidden values will change each time I start a new round."",""How much does it cost to observe each hidden value?"",""How many hidden values am I allowed to observe in each round?"",""How is your bonus determined?""]","[""True"",""$0.05"",""At most 10"",""5 cents for every $10 I earn in each round""]",16995,,,73319,,,survey-multi-choice,,4
,,,"[True, True, False, True]",,,,,"[""True or false: The hidden values will change each time I start a new round."",""How much does it cost to observe each hidden value?"",""How many hidden values am I allowed to observe in each round?"",""How is your bonus determined?""]","[""True"",""$1.00"",""At most 10"",""5 cents for every $10 I earn in each round""]",39493,,,144087,,,survey-multi-choice,,4
,,,"[True, True, True, True]",,,,,"[""True or false: The hidden values will change each time I start a new round."",""How much does it cost to observe each hidden value?"",""How many hidden values am I allowed to observe in each round?"",""How is your bonus determined?""]","[""True"",""$1.00"",""As many or as few as I wish"",""5 cents for every $10 I earn in each round""]",10284,,,184758,,,survey-multi-choice,,4
,,,"[True, True, True, True]",,,,,"[""True or false: The hidden values will change each time I start a new round."",""How much does it cost to observe each hidden value?"",""How many hidden values am I allowed to observe in each round?"",""How is your bonus determined?""]","[""True"",""$1.00"",""As many or as few as I wish"",""5 cents for every $10 I earn in each round""]",18133,,,211106,,,survey-multi-choice,,5
,,,"[True, True, False, True]",,,,,"[""True or false: The hidden values will change each time I start a new round."",""How much does it cost to observe each hidden value?"",""How many hidden values am I allowed to observe in each round?"",""How is your bonus determined?""]","[""True"",""$1.00"",""At most 5"",""5 cents for every $10 I earn in each round""]",36458,,,193423,,,survey-multi-choice,,6
,,,"[True, True, True, True]",,,,,"[""True or false: The hidden values will change each time I start a new round."",""How much does it cost to observe each hidden value?"",""How many hidden values am I allowed to observe in each round?"",""How is your bonus determined?""]","[""True"",""$1.00"",""As many or as few as I wish"",""5 cents for every $10 I earn in each round""]",20196,,,276899,,,survey-multi-choice,,6
,,,"[True, True, True, True, False]",,,,,"[""True or false: The hidden values will change each time I start a new round."",""How much does it cost to observe each hidden value?"",""How many hidden values am I allowed to observe in each round?"",""How is your bonus determined?"",""What does the feedback teach you?""]","[""True"",""$1.00"",""As many or as few as I wish"",""5 cents for every $10 I earn in each round"",""Whether I chose the move that was best according to the information I had.""]",45197,,,236676,,,survey-multi-choice,,7
,,,"[True, True, True, True, True]",,,,,"[""True or false: The hidden values will change each time I start a new round."",""How much does it cost to observe each hidden value?"",""How many hidden values am I allowed to observe in each round?"",""How is your bonus determined?"",""What does the feedback teach you?""]","[""True"",""$1.00"",""As many or as few as I wish"",""5 cents for every $10 I earn in each round"",""All of the above.""]",16365,,,318256,,,survey-multi-choice,,7
,,,"[True, True, True, True, True]",,,,,"[""True or false: The hidden values will change each time I start a new round."",""How much does it cost to observe each hidden value?"",""How many hidden values am I allowed to observe in each round?"",""How is your bonus determined?"",""What does the feedback teach you?""]","[""True"",""$1.00"",""As many or as few as I wish"",""5 cents for every $10 I earn in each round"",""All of the above.""]",24883,,,127467,,,survey-multi-choice,,8
,,,"[True, True, True, True]",,,,,"[""True or false: The hidden values will change each time I start a new round."",""How much does it cost to observe each hidden value?"",""How many hidden values am I allowed to observe in each round?"",""How is your bonus determined?""]","[""True"",""$1.00"",""As many or as few as I wish"",""5 cents for every $10 I earn in each round""]",32201,,,148669,,,survey-multi-choice,,9
,,,"[True, True, True, True]",,,,,"[""True or false: The hidden values will change each time I start a new round."",""How much does it cost to observe each hidden value?"",""How many hidden values am I allowed to observe in each round?"",""How is your bonus determined?""]","[""True"",""$1.00"",""As many or as few as I wish"",""5 cents for every $10 I earn in each round""]",14489,,,118400,,,survey-multi-choice,,10
,,,"[True, True, True, True, False]",,,,,"[""True or false: The hidden values will change each time I start a new round."",""How much does it cost to observe each hidden value?"",""How many hidden values am I allowed to observe in each round?"",""How is your bonus determined?"",""What does the feedback teach you?""]","[""True"",""$1.00"",""As many or as few as I wish"",""5 cents for every $10 I earn in each round"",""Whether I chose the move that was best according to the information I had.""]",38137,,,239998,,,survey-multi-choice,,11
,,,"[True, True, True, True, True]",,,,,"[""True or false: The hidden values will change each time I start a new round."",""How much does it cost to observe each hidden value?"",""How many hidden values am I allowed to observe in each round?"",""How is your bonus determined?"",""What does the feedback teach you?""]","[""True"",""$1.00"",""As many or as few as I wish"",""5 cents for every $10 I earn in each round"",""All of the above.""]",27149,,,420517,,,survey-multi-choice,,11
,,,"[True, True, True, True, True]",,,,,"[""True or false: The hidden values will change each time I start a new round."",""How much does it cost to observe each hidden value?"",""How many hidden values am I allowed to observe in each round?"",""How is your bonus determined?"",""What does the feedback teach you?""]","[""True"",""$1.00"",""As many or as few as I wish"",""5 cents for every $10 I earn in each round"",""All of the above.""]",26541,,,214183,,,survey-multi-choice,,12
,,,"[True, True, True, True, False]",,,,,"[""True or false: The hidden values will change each time I start a new round."",""How much does it cost to observe each hidden value?"",""How many hidden values am I allowed to observe in each round?"",""How is your bonus determined?"",""What does the feedback teach you?""]","[""True"",""$1.00"",""As many or as few as I wish"",""5 cents for every $10 I earn in each round"",""The length of the delay is based on how much more money I could have earned by planning and deciding better.""]",28188,,,167418,,,survey-multi-choice,,13
,,,"[True, True, True, True, True]",,,,,"[""True or false: The hidden values will change each time I start a new round."",""How much does it cost to observe each hidden value?"",""How many hidden values am I allowed to observe in each round?"",""How is your bonus determined?"",""What does the feedback teach you?""]","[""True"",""$1.00"",""As many or as few as I wish"",""5 cents for every $10 I earn in each round"",""All of the above.""]",15787,,,207746,,,survey-multi-choice,,13
,,,"[True, True, True, True, True]",,,,,"[""True or false: The hidden values will change each time I start a new round."",""How much does it cost to observe each hidden value?"",""How many hidden values am I allowed to observe in each round?"",""How is your bonus determined?"",""What does the feedback teach you?""]","[""True"",""$1.00"",""As many or as few as I wish"",""5 cents for every $10 I earn in each round"",""All of the above.""]",-2565703,,,-2469403,,,survey-multi-choice,,14
,,,"[True, False, True, True]",,,,,"[""True or false: The hidden values will change each time I start a new round."",""How much does it cost to observe each hidden value?"",""How many hidden values am I allowed to observe in each round?"",""How is your bonus determined?""]","[""True"",""$0.05"",""As many or as few as I wish"",""5 cents for every $10 I earn in each round""]",57237,,,337041,,,survey-multi-choice,,15
,,,"[True, True, True, True]",,,,,"[""True or false: The hidden values will change each time I start a new round."",""How much does it cost to observe each hidden value?"",""How many hidden values am I allowed to observe in each round?"",""How is your bonus determined?""]","[""True"",""$1.00"",""As many or as few as I wish"",""5 cents for every $10 I earn in each round""]",20425,,,479299,,,survey-multi-choice,,15
,,,"[True, False, True, True]",,,,,"[""True or false: The hidden values will change each time I start a new round."",""How much does it cost to observe each hidden value?"",""How many hidden values am I allowed to observe in each round?"",""How is your bonus determined?""]","[""True"",""$0.01"",""As many or as few as I wish"",""5 cents for every $10 I earn in each round""]",21157,,,47666,,,survey-multi-choice,,16
,,,"[True, True, True, True]",,,,,"[""True or false: The hidden values will change each time I start a new round."",""How much does it cost to observe each hidden value?"",""How many hidden values am I allowed to observe in each round?"",""How is your bonus determined?""]","[""True"",""$1.00"",""As many or as few as I wish"",""5 cents for every $10 I earn in each round""]",6074,,,88118,,,survey-multi-choice,,16
,,,"[True, True, False, True]",,,,,"[""True or false: The hidden values will change each time I start a new round."",""How much does it cost to observe each hidden value?"",""How many hidden values am I allowed to observe in each round?"",""How is your bonus determined?""]","[""True"",""$1.00"",""At most 5"",""5 cents for every $10 I earn in each round""]",30704,,,1767633,,,survey-multi-choice,,17
,,,"[True, True, True, True]",,,,,"[""True or false: The hidden values will change each time I start a new round."",""How much does it cost to observe each hidden value?"",""How many hidden values am I allowed to observe in each round?"",""How is your bonus determined?""]","[""True"",""$1.00"",""As many or as few as I wish"",""5 cents for every $10 I earn in each round""]",13960,,,1847898,,,survey-multi-choice,,17
,,,"[True, True, False, True]",,,,,"[""True or false: The hidden values will change each time I start a new round."",""How much does it cost to observe each hidden value?"",""How many hidden values am I allowed to observe in each round?"",""How is your bonus determined?""]","[""True"",""$1.00"",""At most 1"",""5 cents for every $10 I earn in each round""]",16206,,,108506,,,survey-multi-choice,,18
,,,"[True, True, True, True]",,,,,"[""True or false: The hidden values will change each time I start a new round."",""How much does it cost to observe each hidden value?"",""How many hidden values am I allowed to observe in each round?"",""How is your bonus determined?""]","[""True"",""$1.00"",""As many or as few as I wish"",""5 cents for every $10 I earn in each round""]",7304,,,126568,,,survey-multi-choice,,18
,,,"[True, True, False, True, False]",,,,,"[""True or false: The hidden values will change each time I start a new round."",""How much does it cost to observe each hidden value?"",""How many hidden values am I allowed to observe in each round?"",""How is your bonus determined?"",""What does the feedback teach you?""]","[""True"",""$1.00"",""At most 5"",""5 cents for every $10 I earn in each round"",""Whether I chose the move that was best according to the information I had.""]",26675,,,102962,,,survey-multi-choice,,19
,,,"[False, True, True, True, True]",,,,,"[""True or false: The hidden values will change each time I start a new round."",""How much does it cost to observe each hidden value?"",""How many hidden values am I allowed to observe in each round?"",""How is your bonus determined?"",""What does the feedback teach you?""]","[""False"",""$1.00"",""As many or as few as I wish"",""5 cents for every $10 I earn in each round"",""All of the above.""]",19813,,,157505,,,survey-multi-choice,,19
,,,"[False, True, True, True, False]",,,,,"[""True or false: The hidden values will change each time I start a new round."",""How much does it cost to observe each hidden value?"",""How many hidden values am I allowed to observe in each round?"",""How is your bonus determined?"",""What does the feedback teach you?""]","[""False"",""$1.00"",""As many or as few as I wish"",""5 cents for every $10 I earn in each round"",""The length of the delay is based on how much more money I could have earned by planning and deciding better.""]",10017,,,196151,,,survey-multi-choice,,19
,,,"[False, True, True, False, True]",,,,,"[""True or false: The hidden values will change each time I start a new round."",""How much does it cost to observe each hidden value?"",""How many hidden values am I allowed to observe in each round?"",""How is your bonus determined?"",""What does the feedback teach you?""]","[""False"",""$1.00"",""As many or as few as I wish"",""10% of my best score on any round"",""All of the above.""]",66780,,,289688,,,survey-multi-choice,,19
,,,"[True, True, True, True, False]",,,,,"[""True or false: The hidden values will change each time I start a new round."",""How much does it cost to observe each hidden value?"",""How many hidden values am I allowed to observe in each round?"",""How is your bonus determined?"",""What does the feedback teach you?""]","[""True"",""$1.00"",""As many or as few as I wish"",""5 cents for every $10 I earn in each round"",""Whether I chose the move that was best according to the information I had.""]",26707,,,325927,,,survey-multi-choice,,19
,,,"[False, True, True, True, True]",,,,,"[""True or false: The hidden values will change each time I start a new round."",""How much does it cost to observe each hidden value?"",""How many hidden values am I allowed to observe in each round?"",""How is your bonus determined?"",""What does the feedback teach you?""]","[""False"",""$1.00"",""As many or as few as I wish"",""5 cents for every $10 I earn in each round"",""All of the above.""]",18625,,,371031,,,survey-multi-choice,,19
,,,"[False, True, True, True, False]",,,,,"[""True or false: The hidden values will change each time I start a new round."",""How much does it cost to observe each hidden value?"",""How many hidden values am I allowed to observe in each round?"",""How is your bonus determined?"",""What does the feedback teach you?""]","[""False"",""$1.00"",""As many or as few as I wish"",""5 cents for every $10 I earn in each round"",""The length of the delay is based on how much more money I could have earned by planning and deciding better.""]",11809,,,389720,,,survey-multi-choice,,19
,,,"[False, True, True, True, True]",,,,,"[""True or false: The hidden values will change each time I start a new round."",""How much does it cost to observe each hidden value?"",""How many hidden values am I allowed to observe in each round?"",""How is your bonus determined?"",""What does the feedback teach you?""]","[""False"",""$1.00"",""As many or as few as I wish"",""5 cents for every $10 I earn in each round"",""All of the above.""]",8474,,,405818,,,survey-multi-choice,,19
,,,"[False, True, True, True, False]",,,,,"[""True or false: The hidden values will change each time I start a new round."",""How much does it cost to observe each hidden value?"",""How many hidden values am I allowed to observe in each round?"",""How is your bonus determined?"",""What does the feedback teach you?""]","[""False"",""$1.00"",""As many or as few as I wish"",""5 cents for every $10 I earn in each round"",""Whether I chose the move that was best according to the information I had.""]",10001,,,422559,,,survey-multi-choice,,19
,,,"[False, True, True, True, False]",,,,,"[""True or false: The hidden values will change each time I start a new round."",""How much does it cost to observe each hidden value?"",""How many hidden values am I allowed to observe in each round?"",""How is your bonus determined?"",""What does the feedback teach you?""]","[""False"",""$1.00"",""As many or as few as I wish"",""5 cents for every $10 I earn in each round"",""The length of the delay is based on how much more money I could have earned by planning and deciding better.""]",9780,,,439525,,,survey-multi-choice,,19
,,,"[True, True, True, True, True]",,,,,"[""True or false: The hidden values will change each time I start a new round."",""How much does it cost to observe each hidden value?"",""How many hidden values am I allowed to observe in each round?"",""How is your bonus determined?"",""What does the feedback teach you?""]","[""True"",""$1.00"",""As many or as few as I wish"",""5 cents for every $10 I earn in each round"",""All of the above.""]",7973,,,456143,,,survey-multi-choice,,19
,,,"[True, False, True, True, True]",,,,,"[""True or false: The hidden values will change each time I start a new round."",""How much does it cost to observe each hidden value?"",""How many hidden values am I allowed to observe in each round?"",""How is your bonus determined?"",""What does the feedback teach you?""]","[""True"",""$0.05"",""As many or as few as I wish"",""5 cents for every $10 I earn in each round"",""All of the above.""]",24988,,,122855,,,survey-multi-choice,,20
,,,"[True, True, True, True, True]",,,,,"[""True or false: The hidden values will change each time I start a new round."",""How much does it cost to observe each hidden value?"",""How many hidden values am I allowed to observe in each round?"",""How is your bonus determined?"",""What does the feedback teach you?""]","[""True"",""$1.00"",""As many or as few as I wish"",""5 cents for every $10 I earn in each round"",""All of the above.""]",9318,,,158465,,,survey-multi-choice,,20
,,,"[True, True, True, True, True]",,,,,"[""True or false: The hidden values will change each time I start a new round."",""How much does it cost to observe each hidden value?"",""How many hidden values am I allowed to observe in each round?"",""How is your bonus determined?"",""What does the feedback teach you?""]","[""True"",""$1.00"",""As many or as few as I wish"",""5 cents for every $10 I earn in each round"",""All of the above.""]",56530,,,380153,,,survey-multi-choice,,21
,,,"[True, True, True, True, True]",,,,,"[""True or false: The hidden values will change each time I start a new round."",""How much does it cost to observe each hidden value?"",""How many hidden values am I allowed to observe in each round?"",""How is your bonus determined?"",""What does the feedback teach you?""]","[""True"",""$1.00"",""As many or as few as I wish"",""5 cents for every $10 I earn in each round"",""All of the above.""]",33524,,,155844,,,survey-multi-choice,,22
,,,"[True, True, True, True]",,,,,"[""True or false: The hidden values will change each time I start a new round."",""How much does it cost to observe each hidden value?"",""How many hidden values am I allowed to observe in each round?"",""How is your bonus determined?""]","[""True"",""$1.00"",""As many or as few as I wish"",""5 cents for every $10 I earn in each round""]",24254,,,238068,,,survey-multi-choice,,23
,,,"[True, True, False, True]",,,,,"[""True or false: The hidden values will change each time I start a new round."",""How much does it cost to observe each hidden value?"",""How many hidden values am I allowed to observe in each round?"",""How is your bonus determined?""]","[""True"",""$1.00"",""At most 10"",""5 cents for every $10 I earn in each round""]",86102,,,719690,,,survey-multi-choice,,24
,,,"[True, True, True, True]",,,,,"[""True or false: The hidden values will change each time I start a new round."",""How much does it cost to observe each hidden value?"",""How many hidden values am I allowed to observe in each round?"",""How is your bonus determined?""]","[""True"",""$1.00"",""As many or as few as I wish"",""5 cents for every $10 I earn in each round""]",67381,,,1143274,,,survey-multi-choice,,24
,,,"[True, True, True, True]",,,,,"[""True or false: The hidden values will change each time I start a new round."",""How much does it cost to observe each hidden value?"",""How many hidden values am I allowed to observe in each round?"",""How is your bonus determined?""]","[""True"",""$1.00"",""As many or as few as I wish"",""5 cents for every $10 I earn in each round""]",12482,,,48704,,,survey-multi-choice,,25
,,,"[True, True, True, True, True]",,,,,"[""True or false: The hidden values will change each time I start a new round."",""How much does it cost to observe each hidden value?"",""How many hidden values am I allowed to observe in each round?"",""How is your bonus determined?"",""What does the feedback teach you?""]","[""True"",""$1.00"",""As many or as few as I wish"",""5 cents for every $10 I earn in each round"",""All of the above.""]",25986,,,95965,,,survey-multi-choice,,26
,,,"[True, True, True, True, True]",,,,,"[""True or false: The hidden values will change each time I start a new round."",""How much does it cost to observe each hidden value?"",""How many hidden values am I allowed to observe in each round?"",""How is your bonus determined?"",""What does the feedback teach you?""]","[""True"",""$1.00"",""As many or as few as I wish"",""5 cents for every $10 I earn in each round"",""All of the above.""]",21655,,,114483,,,survey-multi-choice,,27
,,,"[True, False, True, True]",,,,,"[""True or false: The hidden values will change each time I start a new round."",""How much does it cost to observe each hidden value?"",""How many hidden values am I allowed to observe in each round?"",""How is your bonus determined?""]","[""True"",""$0.05"",""As many or as few as I wish"",""5 cents for every $10 I earn in each round""]",35349,,,270287,,,survey-multi-choice,,28
,,,"[True, False, False, True]",,,,,"[""True or false: The hidden values will change each time I start a new round."",""How much does it cost to observe each hidden value?"",""How many hidden values am I allowed to observe in each round?"",""How is your bonus determined?""]","[""True"",""$0.01"",""At most 5"",""5 cents for every $10 I earn in each round""]",32667,,,319611,,,survey-multi-choice,,28
,,,"[True, False, True, True]",,,,,"[""True or false: The hidden values will change each time I start a new round."",""How much does it cost to observe each hidden value?"",""How many hidden values am I allowed to observe in each round?"",""How is your bonus determined?""]","[""True"",""$0.05"",""As many or as few as I wish"",""5 cents for every $10 I earn in each round""]",29512,,,495059,,,survey-multi-choice,,28
,,,"[False, False, True, True]",,,,,"[""True or false: The hidden values will change each time I start a new round."",""How much does it cost to observe each hidden value?"",""How many hidden values am I allowed to observe in each round?"",""How is your bonus determined?""]","[""False"",""$0.05"",""As many or as few as I wish"",""5 cents for every $10 I earn in each round""]",13234,,,518218,,,survey-multi-choice,,28
,,,"[True, False, True, True]",,,,,"[""True or false: The hidden values will change each time I start a new round."",""How much does it cost to observe each hidden value?"",""How many hidden values am I allowed to observe in each round?"",""How is your bonus determined?""]","[""True"",""$0.01"",""As many or as few as I wish"",""5 cents for every $10 I earn in each round""]",40165,,,569634,,,survey-multi-choice,,28
,,,"[True, True, True, True]",,,,,"[""True or false: The hidden values will change each time I start a new round."",""How much does it cost to observe each hidden value?"",""How many hidden values am I allowed to observe in each round?"",""How is your bonus determined?""]","[""True"",""$1.00"",""As many or as few as I wish"",""5 cents for every $10 I earn in each round""]",48022,,,632335,,,survey-multi-choice,,28
,,,"[True, True, True, True]",,,,,"[""True or false: The hidden values will change each time I start a new round."",""How much does it cost to observe each hidden value?"",""How many hidden values am I allowed to observe in each round?"",""How is your bonus determined?""]","[""True"",""$1.00"",""As many or as few as I wish"",""5 cents for every $10 I earn in each round""]",254580,,,474987,,,survey-multi-choice,,29
,,,"[True, True, True, True, False]",,,,,"[""True or false: The hidden values will change each time I start a new round."",""How much does it cost to observe each hidden value?"",""How many hidden values am I allowed to observe in each round?"",""How is your bonus determined?"",""What does the feedback teach you?""]","[""True"",""$1.00"",""As many or as few as I wish"",""5 cents for every $10 I earn in each round"",""The length of the delay is based on how much more money I could have earned by planning and deciding better.""]",57394,,,190101,,,survey-multi-choice,,30
,,,"[True, True, True, True, True]",,,,,"[""True or false: The hidden values will change each time I start a new round."",""How much does it cost to observe each hidden value?"",""How many hidden values am I allowed to observe in each round?"",""How is your bonus determined?"",""What does the feedback teach you?""]","[""True"",""$1.00"",""As many or as few as I wish"",""5 cents for every $10 I earn in each round"",""All of the above.""]",10278,,,234197,,,survey-multi-choice,,30
,,,"[True, True, False, True]",,,,,"[""True or false: The hidden values will change each time I start a new round."",""How much does it cost to observe each hidden value?"",""How many hidden values am I allowed to observe in each round?"",""How is your bonus determined?""]","[""True"",""$1.00"",""At most 5"",""5 cents for every $10 I earn in each round""]",55053,,,277453,,,survey-multi-choice,,31
,,,"[True, True, False, True]",,,,,"[""True or false: The hidden values will change each time I start a new round."",""How much does it cost to observe each hidden value?"",""How many hidden values am I allowed to observe in each round?"",""How is your bonus determined?""]","[""True"",""$1.00"",""At most 10"",""5 cents for every $10 I earn in each round""]",34489,,,358821,,,survey-multi-choice,,31
,,,"[False, True, True, True]",,,,,"[""True or false: The hidden values will change each time I start a new round."",""How much does it cost to observe each hidden value?"",""How many hidden values am I allowed to observe in each round?"",""How is your bonus determined?""]","[""False"",""$1.00"",""As many or as few as I wish"",""5 cents for every $10 I earn in each round""]",22241,,,444143,,,survey-multi-choice,,31
,,,"[True, True, False, True]",,,,,"[""True or false: The hidden values will change each time I start a new round."",""How much does it cost to observe each hidden value?"",""How many hidden values am I allowed to observe in each round?"",""How is your bonus determined?""]","[""True"",""$1.00"",""At most 1"",""5 cents for every $10 I earn in each round""]",36744,,,563630,,,survey-multi-choice,,31
,,,"[True, True, False, True]",,,,,"[""True or false: The hidden values will change each time I start a new round."",""How much does it cost to observe each hidden value?"",""How many hidden values am I allowed to observe in each round?"",""How is your bonus determined?""]","[""True"",""$1.00"",""At most 15"",""5 cents for every $10 I earn in each round""]",16330,,,623339,,,survey-multi-choice,,31
,,,"[True, True, True, True]",,,,,"[""True or false: The hidden values will change each time I start a new round."",""How much does it cost to observe each hidden value?"",""How many hidden values am I allowed to observe in each round?"",""How is your bonus determined?""]","[""True"",""$1.00"",""As many or as few as I wish"",""5 cents for every $10 I earn in each round""]",11411,,,640256,,,survey-multi-choice,,31
,,,"[True, True, True, True]",,,,,"[""True or false: The hidden values will change each time I start a new round."",""How much does it cost to observe each hidden value?"",""How many hidden values am I allowed to observe in each round?"",""How is your bonus determined?""]","[""True"",""$1.00"",""As many or as few as I wish"",""5 cents for every $10 I earn in each round""]",149245,,,325362,,,survey-multi-choice,,32
,,,"[True, True, True, True]",,,,,"[""True or false: The hidden values will change each time I start a new round."",""How much does it cost to observe each hidden value?"",""How many hidden values am I allowed to observe in each round?"",""How is your bonus determined?""]","[""True"",""$1.00"",""As many or as few as I wish"",""5 cents for every $10 I earn in each round""]",19752,,,111390,,,survey-multi-choice,,33
,,,"[True, True, True, True]",,,,,"[""True or false: The hidden values will change each time I start a new round."",""How much does it cost to observe each hidden value?"",""How many hidden values am I allowed to observe in each round?"",""How is your bonus determined?""]","[""True"",""$1.00"",""As many or as few as I wish"",""5 cents for every $10 I earn in each round""]",18030,,,189991,,,survey-multi-choice,,34
,,,"[True, False, True, True, True]",,,,,"[""True or false: The hidden values will change each time I start a new round."",""How much does it cost to observe each hidden value?"",""How many hidden values am I allowed to observe in each round?"",""How is your bonus determined?"",""What does the feedback teach you?""]","[""True"",""$0.05"",""As many or as few as I wish"",""5 cents for every $10 I earn in each round"",""All of the above.""]",41867,,,68686,,,survey-multi-choice,,35
,,,"[True, True, True, True, True]",,,,,"[""True or false: The hidden values will change each time I start a new round."",""How much does it cost to observe each hidden value?"",""How many hidden values am I allowed to observe in each round?"",""How is your bonus determined?"",""What does the feedback teach you?""]","[""True"",""$1.00"",""As many or as few as I wish"",""5 cents for every $10 I earn in each round"",""All of the above.""]",8205,,,104243,,,survey-multi-choice,,35
,,,"[True, True, True, True, True]",,,,,"[""True or false: The hidden values will change each time I start a new round."",""How much does it cost to observe each hidden value?"",""How many hidden values am I allowed to observe in each round?"",""How is your bonus determined?"",""What does the feedback teach you?""]","[""True"",""$1.00"",""As many or as few as I wish"",""5 cents for every $10 I earn in each round"",""All of the above.""]",50107,,,297170,,,survey-multi-choice,,36
,,,"[True, False, False, True]",,,,,"[""True or false: The hidden values will change each time I start a new round."",""How much does it cost to observe each hidden value?"",""How many hidden values am I allowed to observe in each round?"",""How is your bonus determined?""]","[""True"",""$0.05"",""At most 5"",""5 cents for every $10 I earn in each round""]",18483,,,597114,,,survey-multi-choice,,37
,,,"[True, True, True, True]",,,,,"[""True or false: The hidden values will change each time I start a new round."",""How much does it cost to observe each hidden value?"",""How many hidden values am I allowed to observe in each round?"",""How is your bonus determined?""]","[""True"",""$1.00"",""As many or as few as I wish"",""5 cents for every $10 I earn in each round""]",11259,,,669971,,,survey-multi-choice,,37
,,,"[True, True, True, True]",,,,,"[""True or false: The hidden values will change each time I start a new round."",""How much does it cost to observe each hidden value?"",""How many hidden values am I allowed to observe in each round?"",""How is your bonus determined?""]","[""True"",""$1.00"",""As many or as few as I wish"",""5 cents for every $10 I earn in each round""]",152468,,,204361,,,survey-multi-choice,,38
,,,"[True, True, True, True, True]",,,,,"[""True or false: The hidden values will change each time I start a new round."",""How much does it cost to observe each hidden value?"",""How many hidden values am I allowed to observe in each round?"",""How is your bonus determined?"",""What does the feedback teach you?""]","[""True"",""$1.00"",""As many or as few as I wish"",""5 cents for every $10 I earn in each round"",""All of the above.""]",54460,,,266950,,,survey-multi-choice,,39
,,,"[True, False, True, True]",,,,,"[""True or false: The hidden values will change each time I start a new round."",""How much does it cost to observe each hidden value?"",""How many hidden values am I allowed to observe in each round?"",""How is your bonus determined?""]","[""True"",""$0.05"",""As many or as few as I wish"",""5 cents for every $10 I earn in each round""]",32983,,,135560,,,survey-multi-choice,,40
,,,"[False, True, True, True]",,,,,"[""True or false: The hidden values will change each time I start a new round."",""How much does it cost to observe each hidden value?"",""How many hidden values am I allowed to observe in each round?"",""How is your bonus determined?""]","[""False"",""$1.00"",""As many or as few as I wish"",""5 cents for every $10 I earn in each round""]",12619,,,204450,,,survey-multi-choice,,40
,,,"[True, True, True, True]",,,,,"[""True or false: The hidden values will change each time I start a new round."",""How much does it cost to observe each hidden value?"",""How many hidden values am I allowed to observe in each round?"",""How is your bonus determined?""]","[""True"",""$1.00"",""As many or as few as I wish"",""5 cents for every $10 I earn in each round""]",13852,,,275578,,,survey-multi-choice,,40
,,,"[True, True, True, True, True]",,,,,"[""True or false: The hidden values will change each time I start a new round."",""How much does it cost to observe each hidden value?"",""How many hidden values am I allowed to observe in each round?"",""How is your bonus determined?"",""What does the feedback teach you?""]","[""True"",""$1.00"",""As many or as few as I wish"",""5 cents for every $10 I earn in each round"",""All of the above.""]",26257,,,189279,,,survey-multi-choice,,41
,,,"[True, False, True, True]",,,,,"[""True or false: The hidden values will change each time I start a new round."",""How much does it cost to observe each hidden value?"",""How many hidden values am I allowed to observe in each round?"",""How is your bonus determined?""]","[""True"",""$0.05"",""As many or as few as I wish"",""5 cents for every $10 I earn in each round""]",31513,,,195075,,,survey-multi-choice,,42
,,,"[True, True, True, True]",,,,,"[""True or false: The hidden values will change each time I start a new round."",""How much does it cost to observe each hidden value?"",""How many hidden values am I allowed to observe in each round?"",""How is your bonus determined?""]","[""True"",""$1.00"",""As many or as few as I wish"",""5 cents for every $10 I earn in each round""]",12777,,,219211,,,survey-multi-choice,,42
,,,"[True, True, True, True, True]",,,,,"[""True or false: The hidden values will change each time I start a new round."",""How much does it cost to observe each hidden value?"",""How many hidden values am I allowed to observe in each round?"",""How is your bonus determined?"",""What does the feedback teach you?""]","[""True"",""$1.00"",""As many or as few as I wish"",""5 cents for every $10 I earn in each round"",""All of the above.""]",25866,,,159451,,,survey-multi-choice,,43
,,,"[True, True, True, True, False]",,,,,"[""True or false: The hidden values will change each time I start a new round."",""How much does it cost to observe each hidden value?"",""How many hidden values am I allowed to observe in each round?"",""How is your bonus determined?"",""What does the feedback teach you?""]","[""True"",""$1.00"",""As many or as few as I wish"",""5 cents for every $10 I earn in each round"",""Whether I chose the move that was best according to the information I had.""]",81885,,,202320,,,survey-multi-choice,,44
,,,"[True, True, True, True, True]",,,,,"[""True or false: The hidden values will change each time I start a new round."",""How much does it cost to observe each hidden value?"",""How many hidden values am I allowed to observe in each round?"",""How is your bonus determined?"",""What does the feedback teach you?""]","[""True"",""$1.00"",""As many or as few as I wish"",""5 cents for every $10 I earn in each round"",""All of the above.""]",504887,,,773784,,,survey-multi-choice,,44
,,,"[True, True, True, True, True]",,,,,"[""True or false: The hidden values will change each time I start a new round."",""How much does it cost to observe each hidden value?"",""How many hidden values am I allowed to observe in each round?"",""How is your bonus determined?"",""What does the feedback teach you?""]","[""True"",""$1.00"",""As many or as few as I wish"",""5 cents for every $10 I earn in each round"",""All of the above.""]",116547,,,460033,,,survey-multi-choice,,45
,,,"[True, True, True, True]",,,,,"[""True or false: The hidden values will change each time I start a new round."",""How much does it cost to observe each hidden value?"",""How many hidden values am I allowed to observe in each round?"",""How is your bonus determined?""]","[""True"",""$1.00"",""As many or as few as I wish"",""5 cents for every $10 I earn in each round""]",17773,,,114782,,,survey-multi-choice,,46
,,,"[True, False, True, True]",,,,,"[""True or false: The hidden values will change each time I start a new round."",""How much does it cost to observe each hidden value?"",""How many hidden values am I allowed to observe in each round?"",""How is your bonus determined?""]","[""True"",""$0.01"",""As many or as few as I wish"",""5 cents for every $10 I earn in each round""]",27890,,,229298,,,survey-multi-choice,,47
,,,"[True, True, True, True]",,,,,"[""True or false: The hidden values will change each time I start a new round."",""How much does it cost to observe each hidden value?"",""How many hidden values am I allowed to observe in each round?"",""How is your bonus determined?""]","[""True"",""$1.00"",""As many or as few as I wish"",""5 cents for every $10 I earn in each round""]",11856,,,261790,,,survey-multi-choice,,47
,,,"[True, True, True, True, False]",,,,,"[""True or false: The hidden values will change each time I start a new round."",""How much does it cost to observe each hidden value?"",""How many hidden values am I allowed to observe in each round?"",""How is your bonus determined?"",""What does the feedback teach you?""]","[""True"",""$1.00"",""As many or as few as I wish"",""5 cents for every $10 I earn in each round"",""The length of the delay is based on how much more money I could have earned by planning and deciding better.""]",31479,,,192651,,,survey-multi-choice,,48
,,,"[True, True, True, True, True]",,,,,"[""True or false: The hidden values will change each time I start a new round."",""How much does it cost to observe each hidden value?"",""How many hidden values am I allowed to observe in each round?"",""How is your bonus determined?"",""What does the feedback teach you?""]","[""True"",""$1.00"",""As many or as few as I wish"",""5 cents for every $10 I earn in each round"",""All of the above.""]",18807,,,250037,,,survey-multi-choice,,48
,,,"[True, True, True, True, True]",,,,,"[""True or false: The hidden values will change each time I start a new round."",""How much does it cost to observe each hidden value?"",""How many hidden values am I allowed to observe in each round?"",""How is your bonus determined?"",""What does the feedback teach you?""]","[""True"",""$1.00"",""As many or as few as I wish"",""5 cents for every $10 I earn in each round"",""All of the above.""]",30862,,,219951,,,survey-multi-choice,,49
,,,"[True, False, True, True]",,,,,"[""True or false: The hidden values will change each time I start a new round."",""How much does it cost to observe each hidden value?"",""How many hidden values am I allowed to observe in each round?"",""How is your bonus determined?""]","[""True"",""$0.01"",""As many or as few as I wish"",""5 cents for every $10 I earn in each round""]",17753,,,116960,,,survey-multi-choice,,50
,,,"[True, True, True, True]",,,,,"[""True or false: The hidden values will change each time I start a new round."",""How much does it cost to observe each hidden value?"",""How many hidden values am I allowed to observe in each round?"",""How is your bonus determined?""]","[""True"",""$1.00"",""As many or as few as I wish"",""5 cents for every $10 I earn in each round""]",8520,,,202312,,,survey-multi-choice,,50
,,,"[True, True, True, True, True]",,,,,"[""True or false: The hidden values will change each time I start a new round."",""How much does it cost to observe each hidden value?"",""How many hidden values am I allowed to observe in each round?"",""How is your bonus determined?"",""What does the feedback teach you?""]","[""True"",""$1.00"",""As many or as few as I wish"",""5 cents for every $10 I earn in each round"",""All of the above.""]",42209,,,113880,,,survey-multi-choice,,51
,,,"[True, True, True, True, False]",,,,,"[""True or false: The hidden values will change each time I start a new round."",""How much does it cost to observe each hidden value?"",""How many hidden values am I allowed to observe in each round?"",""How is your bonus determined?"",""What does the feedback teach you?""]","[""True"",""$1.00"",""As many or as few as I wish"",""5 cents for every $10 I earn in each round"",""The length of the delay is based on how much more money I could have earned by planning and deciding better.""]",17123,,,135320,,,survey-multi-choice,,52
,,,"[True, True, True, True, False]",,,,,"[""True or false: The hidden values will change each time I start a new round."",""How much does it cost to observe each hidden value?"",""How many hidden values am I allowed to observe in each round?"",""How is your bonus determined?"",""What does the feedback teach you?""]","[""True"",""$1.00"",""As many or as few as I wish"",""5 cents for every $10 I earn in each round"",""Whether I chose the move that was best according to the information I had.""]",21394,,,176792,,,survey-multi-choice,,52
,,,"[True, True, True, True, True]",,,,,"[""True or false: The hidden values will change each time I start a new round."",""How much does it cost to observe each hidden value?"",""How many hidden values am I allowed to observe in each round?"",""How is your bonus determined?"",""What does the feedback teach you?""]","[""True"",""$1.00"",""As many or as few as I wish"",""5 cents for every $10 I earn in each round"",""All of the above.""]",9177,,,191882,,,survey-multi-choice,,52
,,,"[True, True, True, True, True]",,,,,"[""True or false: The hidden values will change each time I start a new round."",""How much does it cost to observe each hidden value?"",""How many hidden values am I allowed to observe in each round?"",""How is your bonus determined?"",""What does the feedback teach you?""]","[""True"",""$1.00"",""As many or as few as I wish"",""5 cents for every $10 I earn in each round"",""All of the above.""]",32527,,,113400,,,survey-multi-choice,,53
,,,"[True, True, True, True, False]",,,,,"[""True or false: The hidden values will change each time I start a new round."",""How much does it cost to observe each hidden value?"",""How many hidden values am I allowed to observe in each round?"",""How is your bonus determined?"",""What does the feedback teach you?""]","[""True"",""$1.00"",""As many or as few as I wish"",""5 cents for every $10 I earn in each round"",""Whether I chose the move that was best according to the information I had.""]",38230,,,272293,,,survey-multi-choice,,54
,,,"[True, True, True, True, False]",,,,,"[""True or false: The hidden values will change each time I start a new round."",""How much does it cost to observe each hidden value?"",""How many hidden values am I allowed to observe in each round?"",""How is your bonus determined?"",""What does the feedback teach you?""]","[""True"",""$1.00"",""As many or as few as I wish"",""5 cents for every $10 I earn in each round"",""The length of the delay is based on how much more money I could have earned by planning and deciding better.""]",27907,,,380105,,,survey-multi-choice,,54
,,,"[True, True, True, True, False]",,,,,"[""True or false: The hidden values will change each time I start a new round."",""How much does it cost to observe each hidden value?"",""How many hidden values am I allowed to observe in each round?"",""How is your bonus determined?"",""What does the feedback teach you?""]","[""True"",""$1.00"",""As many or as few as I wish"",""5 cents for every $10 I earn in each round"",""Whether I observed the rewards of relevant locations.""]",31597,,,494198,,,survey-multi-choice,,54
,,,"[True, True, True, True, True]",,,,,"[""True or false: The hidden values will change each time I start a new round."",""How much does it cost to observe each hidden value?"",""How many hidden values am I allowed to observe in each round?"",""How is your bonus determined?"",""What does the feedback teach you?""]","[""True"",""$1.00"",""As many or as few as I wish"",""5 cents for every $10 I earn in each round"",""All of the above.""]",28339,,,557726,,,survey-multi-choice,,54
,,,"[True, True, True, True, False]",,,,,"[""True or false: The hidden values will change each time I start a new round."",""How much does it cost to observe each hidden value?"",""How many hidden values am I allowed to observe in each round?"",""How is your bonus determined?"",""What does the feedback teach you?""]","[""True"",""$1.00"",""As many or as few as I wish"",""5 cents for every $10 I earn in each round"",""The length of the delay is based on how much more money I could have earned by planning and deciding better.""]",28035,,,153267,,,survey-multi-choice,,55
,,,"[True, True, True, True, True]",,,,,"[""True or false: The hidden values will change each time I start a new round."",""How much does it cost to observe each hidden value?"",""How many hidden values am I allowed to observe in each round?"",""How is your bonus determined?"",""What does the feedback teach you?""]","[""True"",""$1.00"",""As many or as few as I wish"",""5 cents for every $10 I earn in each round"",""All of the above.""]",9167,,,169356,,,survey-multi-choice,,55
,,,"[True, True, False, True, True]",,,,,"[""True or false: The hidden values will change each time I start a new round."",""How much does it cost to observe each hidden value?"",""How many hidden values am I allowed to observe in each round?"",""How is your bonus determined?"",""What does the feedback teach you?""]","[""True"",""$1.00"",""At most 1"",""5 cents for every $10 I earn in each round"",""All of the above.""]",35822,,,352146,,,survey-multi-choice,,56
,,,"[True, True, True, True, True]",,,,,"[""True or false: The hidden values will change each time I start a new round."",""How much does it cost to observe each hidden value?"",""How many hidden values am I allowed to observe in each round?"",""How is your bonus determined?"",""What does the feedback teach you?""]","[""True"",""$1.00"",""As many or as few as I wish"",""5 cents for every $10 I earn in each round"",""All of the above.""]",11972,,,390795,,,survey-multi-choice,,56
,,,"[True, False, False, True, True]",,,,,"[""True or false: The hidden values will change each time I start a new round."",""How much does it cost to observe each hidden value?"",""How many hidden values am I allowed to observe in each round?"",""How is your bonus determined?"",""What does the feedback teach you?""]","[""True"",""$0.05"",""At most 1"",""5 cents for every $10 I earn in each round"",""All of the above.""]",34474,,,160215,,,survey-multi-choice,,57
,,,"[True, True, True, True, True]",,,,,"[""True or false: The hidden values will change each time I start a new round."",""How much does it cost to observe each hidden value?"",""How many hidden values am I allowed to observe in each round?"",""How is your bonus determined?"",""What does the feedback teach you?""]","[""True"",""$1.00"",""As many or as few as I wish"",""5 cents for every $10 I earn in each round"",""All of the above.""]",32410,,,264009,,,survey-multi-choice,,57
,,,"[True, True, True, True]",,,,,"[""True or false: The hidden values will change each time I start a new round."",""How much does it cost to observe each hidden value?"",""How many hidden values am I allowed to observe in each round?"",""How is your bonus determined?""]","[""True"",""$1.00"",""As many or as few as I wish"",""5 cents for every $10 I earn in each round""]",19692,,,118843,,,survey-multi-choice,,58
,,,"[True, True, True, True]",,,,,"[""True or false: The hidden values will change each time I start a new round."",""How much does it cost to observe each hidden value?"",""How many hidden values am I allowed to observe in each round?"",""How is your bonus determined?""]","[""True"",""$1.00"",""As many or as few as I wish"",""5 cents for every $10 I earn in each round""]",17083,,,83656,,,survey-multi-choice,,59
,,,"[True, True, True, True]",,,,,"[""True or false: The hidden values will change each time I start a new round."",""How much does it cost to observe each hidden value?"",""How many hidden values am I allowed to observe in each round?"",""How is your bonus determined?""]","[""True"",""$1.00"",""As many or as few as I wish"",""5 cents for every $10 I earn in each round""]",14941,,,121715,,,survey-multi-choice,,60
,,,"[True, True, True, True, True]",,,,,"[""True or false: The hidden values will change each time I start a new round."",""How much does it cost to observe each hidden value?"",""How many hidden values am I allowed to observe in each round?"",""How is your bonus determined?"",""What does the feedback teach you?""]","[""True"",""$1.00"",""As many or as few as I wish"",""5 cents for every $10 I earn in each round"",""All of the above.""]",16582,,,33879,,,survey-multi-choice,,61
,,,"[True, True, True, True, False]",,,,,"[""True or false: The hidden values will change each time I start a new round."",""How much does it cost to observe each hidden value?"",""How many hidden values am I allowed to observe in each round?"",""How is your bonus determined?"",""What does the feedback teach you?""]","[""True"",""$1.00"",""As many or as few as I wish"",""5 cents for every $10 I earn in each round"",""Whether I chose the move that was best according to the information I had.""]",117073,,,415644,,,survey-multi-choice,,62
,,,"[True, True, True, True, True]",,,,,"[""True or false: The hidden values will change each time I start a new round."",""How much does it cost to observe each hidden value?"",""How many hidden values am I allowed to observe in each round?"",""How is your bonus determined?"",""What does the feedback teach you?""]","[""True"",""$1.00"",""As many or as few as I wish"",""5 cents for every $10 I earn in each round"",""All of the above.""]",25032,,,525014,,,survey-multi-choice,,62
,,,"[True, False, False, True]",,,,,"[""True or false: The hidden values will change each time I start a new round."",""How much does it cost to observe each hidden value?"",""How many hidden values am I allowed to observe in each round?"",""How is your bonus determined?""]","[""True"",""$0.05"",""At most 1"",""5 cents for every $10 I earn in each round""]",57958,,,385388,,,survey-multi-choice,,63
,,,"[True, True, False, True]",,,,,"[""True or false: The hidden values will change each time I start a new round."",""How much does it cost to observe each hidden value?"",""How many hidden values am I allowed to observe in each round?"",""How is your bonus determined?""]","[""True"",""$1.00"",""At most 1"",""5 cents for every $10 I earn in each round""]",12143,,,426676,,,survey-multi-choice,,63
,,,"[True, True, True, True]",,,,,"[""True or false: The hidden values will change each time I start a new round."",""How much does it cost to observe each hidden value?"",""How many hidden values am I allowed to observe in each round?"",""How is your bonus determined?""]","[""True"",""$1.00"",""As many or as few as I wish"",""5 cents for every $10 I earn in each round""]",14168,,,512953,,,survey-multi-choice,,63
,,,"[True, False, True, True, True]",,,,,"[""True or false: The hidden values will change each time I start a new round."",""How much does it cost to observe each hidden value?"",""How many hidden values am I allowed to observe in each round?"",""How is your bonus determined?"",""What does the feedback teach you?""]","[""True"",""$0.05"",""As many or as few as I wish"",""5 cents for every $10 I earn in each round"",""All of the above.""]",27415,,,117021,,,survey-multi-choice,,64
,,,"[True, True, True, True, True]",,,,,"[""True or false: The hidden values will change each time I start a new round."",""How much does it cost to observe each hidden value?"",""How many hidden values am I allowed to observe in each round?"",""How is your bonus determined?"",""What does the feedback teach you?""]","[""True"",""$1.00"",""As many or as few as I wish"",""5 cents for every $10 I earn in each round"",""All of the above.""]",8924,,,160511,,,survey-multi-choice,,64
,,,"[True, True, True, True, True]",,,,,"[""True or false: The hidden values will change each time I start a new round."",""How much does it cost to observe each hidden value?"",""How many hidden values am I allowed to observe in each round?"",""How is your bonus determined?"",""What does the feedback teach you?""]","[""True"",""$1.00"",""As many or as few as I wish"",""5 cents for every $10 I earn in each round"",""All of the above.""]",19062,,,115378,,,survey-multi-choice,,65
,,,"[True, True, True, True, True]",,,,,"[""True or false: The hidden values will change each time I start a new round."",""How much does it cost to observe each hidden value?"",""How many hidden values am I allowed to observe in each round?"",""How is your bonus determined?"",""What does the feedback teach you?""]","[""True"",""$1.00"",""As many or as few as I wish"",""5 cents for every $10 I earn in each round"",""All of the above.""]",21196,,,133992,,,survey-multi-choice,,66
,,,"[True, True, True, True]",,,,,"[""True or false: The hidden values will change each time I start a new round."",""How much does it cost to observe each hidden value?"",""How many hidden values am I allowed to observe in each round?"",""How is your bonus determined?""]","[""True"",""$1.00"",""As many or as few as I wish"",""5 cents for every $10 I earn in each round""]",9915,,,64140,,,survey-multi-choice,,67
,,,"[True, True, True, True]",,,,,"[""True or false: The hidden values will change each time I start a new round."",""How much does it cost to observe each hidden value?"",""How many hidden values am I allowed to observe in each round?"",""How is your bonus determined?""]","[""True"",""$1.00"",""As many or as few as I wish"",""5 cents for every $10 I earn in each round""]",13083,,,86192,,,survey-multi-choice,,68
,,,"[True, True, True, True, True]",,,,,"[""True or false: The hidden values will change each time I start a new round."",""How much does it cost to observe each hidden value?"",""How many hidden values am I allowed to observe in each round?"",""How is your bonus determined?"",""What does the feedback teach you?""]","[""True"",""$1.00"",""As many or as few as I wish"",""5 cents for every $10 I earn in each round"",""All of the above.""]",21860,,,127018,,,survey-multi-choice,,69
,,,"[True, True, False, True]",,,,,"[""True or false: The hidden values will change each time I start a new round."",""How much does it cost to observe each hidden value?"",""How many hidden values am I allowed to observe in each round?"",""How is your bonus determined?""]","[""True"",""$1.00"",""At most 5"",""5 cents for every $10 I earn in each round""]",25400,,,145592,,,survey-multi-choice,,70
,,,"[True, True, False, True]",,,,,"[""True or false: The hidden values will change each time I start a new round."",""How much does it cost to observe each hidden value?"",""How many hidden values am I allowed to observe in each round?"",""How is your bonus determined?""]","[""True"",""$1.00"",""At most 1"",""5 cents for every $10 I earn in each round""]",18352,,,214378,,,survey-multi-choice,,70
,,,"[True, True, True, True]",,,,,"[""True or false: The hidden values will change each time I start a new round."",""How much does it cost to observe each hidden value?"",""How many hidden values am I allowed to observe in each round?"",""How is your bonus determined?""]","[""True"",""$1.00"",""As many or as few as I wish"",""5 cents for every $10 I earn in each round""]",8905,,,245237,,,survey-multi-choice,,70
,,,"[True, True, True, True, False]",,,,,"[""True or false: The hidden values will change each time I start a new round."",""How much does it cost to observe each hidden value?"",""How many hidden values am I allowed to observe in each round?"",""How is your bonus determined?"",""What does the feedback teach you?""]","[""True"",""$1.00"",""As many or as few as I wish"",""5 cents for every $10 I earn in each round"",""Whether I chose the move that was best according to the information I had.""]",37494,,,243067,,,survey-multi-choice,,71
,,,"[True, True, True, True, True]",,,,,"[""True or false: The hidden values will change each time I start a new round."",""How much does it cost to observe each hidden value?"",""How many hidden values am I allowed to observe in each round?"",""How is your bonus determined?"",""What does the feedback teach you?""]","[""True"",""$1.00"",""As many or as few as I wish"",""5 cents for every $10 I earn in each round"",""All of the above.""]",13388,,,273260,,,survey-multi-choice,,71
,,,"[True, False, True, True, False]",,,,,"[""True or false: The hidden values will change each time I start a new round."",""How much does it cost to observe each hidden value?"",""How many hidden values am I allowed to observe in each round?"",""How is your bonus determined?"",""What does the feedback teach you?""]","[""True"",""$0.05"",""As many or as few as I wish"",""5 cents for every $10 I earn in each round"",""The length of the delay is based on how much more money I could have earned by planning and deciding better.""]",40564,,,168212,,,survey-multi-choice,,72
,,,"[True, True, True, True, False]",,,,,"[""True or false: The hidden values will change each time I start a new round."",""How much does it cost to observe each hidden value?"",""How many hidden values am I allowed to observe in each round?"",""How is your bonus determined?"",""What does the feedback teach you?""]","[""True"",""$1.00"",""As many or as few as I wish"",""5 cents for every $10 I earn in each round"",""The length of the delay is based on how much more money I could have earned by planning and deciding better.""]",9807,,,211085,,,survey-multi-choice,,72
,,,"[True, True, True, True, True]",,,,,"[""True or false: The hidden values will change each time I start a new round."",""How much does it cost to observe each hidden value?"",""How many hidden values am I allowed to observe in each round?"",""How is your bonus determined?"",""What does the feedback teach you?""]","[""True"",""$1.00"",""As many or as few as I wish"",""5 cents for every $10 I earn in each round"",""All of the above.""]",32191,,,305671,,,survey-multi-choice,,72
,,,"[True, True, True, True]",,,,,"[""True or false: The hidden values will change each time I start a new round."",""How much does it cost to observe each hidden value?"",""How many hidden values am I allowed to observe in each round?"",""How is your bonus determined?""]","[""True"",""$1.00"",""As many or as few as I wish"",""5 cents for every $10 I earn in each round""]",36045,,,259509,,,survey-multi-choice,,73
,,,"[True, True, True, True]",,,,,"[""True or false: The hidden values will change each time I start a new round."",""How much does it cost to observe each hidden value?"",""How many hidden values am I allowed to observe in each round?"",""How is your bonus determined?""]","[""True"",""$1.00"",""As many or as few as I wish"",""5 cents for every $10 I earn in each round""]",16163,,,277782,,,survey-multi-choice,,74
,,,"[True, True, True, True, True]",,,,,"[""True or false: The hidden values will change each time I start a new round."",""How much does it cost to observe each hidden value?"",""How many hidden values am I allowed to observe in each round?"",""How is your bonus determined?"",""What does the feedback teach you?""]","[""True"",""$1.00"",""As many or as few as I wish"",""5 cents for every $10 I earn in each round"",""All of the above.""]",42266,,,234059,,,survey-multi-choice,,75
,,,"[True, True, True, True, True]",,,,,"[""True or false: The hidden values will change each time I start a new round."",""How much does it cost to observe each hidden value?"",""How many hidden values am I allowed to observe in each round?"",""How is your bonus determined?"",""What does the feedback teach you?""]","[""True"",""$1.00"",""As many or as few as I wish"",""5 cents for every $10 I earn in each round"",""All of the above.""]",51283,,,305400,,,survey-multi-choice,,76
,,,"[True, True, True, True, True]",,,,,"[""True or false: The hidden values will change each time I start a new round."",""How much does it cost to observe each hidden value?"",""How many hidden values am I allowed to observe in each round?"",""How is your bonus determined?"",""What does the feedback teach you?""]","[""True"",""$1.00"",""As many or as few as I wish"",""5 cents for every $10 I earn in each round"",""All of the above.""]",14681,,,60718,,,survey-multi-choice,,77
,,,"[False, True, False, True, False]",,,,,"[""True or false: The hidden values will change each time I start a new round."",""How much does it cost to observe each hidden value?"",""How many hidden values am I allowed to observe in each round?"",""How is your bonus determined?"",""What does the feedback teach you?""]","[""False"",""$1.00"",""At most 1"",""5 cents for every $10 I earn in each round"",""Whether I chose the move that was best according to the information I had.""]",82435,,,210797,,,survey-multi-choice,,78
,,,"[False, True, True, True, False]",,,,,"[""True or false: The hidden values will change each time I start a new round."",""How much does it cost to observe each hidden value?"",""How many hidden values am I allowed to observe in each round?"",""How is your bonus determined?"",""What does the feedback teach you?""]","[""False"",""$1.00"",""As many or as few as I wish"",""5 cents for every $10 I earn in each round"",""The length of the delay is based on how much more money I could have earned by planning and deciding better.""]",201031,,,527452,,,survey-multi-choice,,78
,,,"[True, True, False, True, False]",,,,,"[""True or false: The hidden values will change each time I start a new round."",""How much does it cost to observe each hidden value?"",""How many hidden values am I allowed to observe in each round?"",""How is your bonus determined?"",""What does the feedback teach you?""]","[""True"",""$1.00"",""At most 1"",""5 cents for every $10 I earn in each round"",""The length of the delay is based on how much more money I could have earned by planning and deciding better.""]",19502,,,554429,,,survey-multi-choice,,78
,,,"[True, True, False, True, False]",,,,,"[""True or false: The hidden values will change each time I start a new round."",""How much does it cost to observe each hidden value?"",""How many hidden values am I allowed to observe in each round?"",""How is your bonus determined?"",""What does the feedback teach you?""]","[""True"",""$1.00"",""At most 1"",""5 cents for every $10 I earn in each round"",""The length of the delay is based on how much more money I could have earned by planning and deciding better.""]",58013,,,632517,,,survey-multi-choice,,78
,,,"[True, True, True, True, False]",,,,,"[""True or false: The hidden values will change each time I start a new round."",""How much does it cost to observe each hidden value?"",""How many hidden values am I allowed to observe in each round?"",""How is your bonus determined?"",""What does the feedback teach you?""]","[""True"",""$1.00"",""As many or as few as I wish"",""5 cents for every $10 I earn in each round"",""The length of the delay is based on how much more money I could have earned by planning and deciding better.""]",66163,,,712323,,,survey-multi-choice,,78
,,,"[True, True, True, True, True]",,,,,"[""True or false: The hidden values will change each time I start a new round."",""How much does it cost to observe each hidden value?"",""How many hidden values am I allowed to observe in each round?"",""How is your bonus determined?"",""What does the feedback teach you?""]","[""True"",""$1.00"",""As many or as few as I wish"",""5 cents for every $10 I earn in each round"",""All of the above.""]",17087,,,732990,,,survey-multi-choice,,78
,,,"[True, True, True, True]",,,,,"[""True or false: The hidden values will change each time I start a new round."",""How much does it cost to observe each hidden value?"",""How many hidden values am I allowed to observe in each round?"",""How is your bonus determined?""]","[""True"",""$1.00"",""As many or as few as I wish"",""5 cents for every $10 I earn in each round""]",15091,,,107396,,,survey-multi-choice,,79
,,,"[True, False, True, True, False]",,,,,"[""True or false: The hidden values will change each time I start a new round."",""How much does it cost to observe each hidden value?"",""How many hidden values am I allowed to observe in each round?"",""How is your bonus determined?"",""What does the feedback teach you?""]","[""True"",""$0.05"",""As many or as few as I wish"",""5 cents for every $10 I earn in each round"",""Whether I chose the move that was best according to the information I had.""]",29233,,,89442,,,survey-multi-choice,,80
,,,"[True, True, True, True, False]",,,,,"[""True or false: The hidden values will change each time I start a new round."",""How much does it cost to observe each hidden value?"",""How many hidden values am I allowed to observe in each round?"",""How is your bonus determined?"",""What does the feedback teach you?""]","[""True"",""$1.00"",""As many or as few as I wish"",""5 cents for every $10 I earn in each round"",""Whether I observed the rewards of relevant locations.""]",24263,,,193697,,,survey-multi-choice,,80
,,,"[True, True, True, True, False]",,,,,"[""True or false: The hidden values will change each time I start a new round."",""How much does it cost to observe each hidden value?"",""How many hidden values am I allowed to observe in each round?"",""How is your bonus determined?"",""What does the feedback teach you?""]","[""True"",""$1.00"",""As many or as few as I wish"",""5 cents for every $10 I earn in each round"",""Whether I chose the move that was best according to the information I had.""]",14274,,,216393,,,survey-multi-choice,,80
,,,"[True, True, True, True, False]",,,,,"[""True or false: The hidden values will change each time I start a new round."",""How much does it cost to observe each hidden value?"",""How many hidden values am I allowed to observe in each round?"",""How is your bonus determined?"",""What does the feedback teach you?""]","[""True"",""$1.00"",""As many or as few as I wish"",""5 cents for every $10 I earn in each round"",""The length of the delay is based on how much more money I could have earned by planning and deciding better.""]",11829,,,280057,,,survey-multi-choice,,80
,,,"[True, True, True, True, True]",,,,,"[""True or false: The hidden values will change each time I start a new round."",""How much does it cost to observe each hidden value?"",""How many hidden values am I allowed to observe in each round?"",""How is your bonus determined?"",""What does the feedback teach you?""]","[""True"",""$1.00"",""As many or as few as I wish"",""5 cents for every $10 I earn in each round"",""All of the above.""]",9352,,,295906,,,survey-multi-choice,,80
,,,"[True, True, True, True]",,,,,"[""True or false: The hidden values will change each time I start a new round."",""How much does it cost to observe each hidden value?"",""How many hidden values am I allowed to observe in each round?"",""How is your bonus determined?""]","[""True"",""$1.00"",""As many or as few as I wish"",""5 cents for every $10 I earn in each round""]",30785,,,135943,,,survey-multi-choice,,81
,,,"[True, True, True, True, True]",,,,,"[""True or false: The hidden values will change each time I start a new round."",""How much does it cost to observe each hidden value?"",""How many hidden values am I allowed to observe in each round?"",""How is your bonus determined?"",""What does the feedback teach you?""]","[""True"",""$1.00"",""As many or as few as I wish"",""5 cents for every $10 I earn in each round"",""All of the above.""]",34912,,,162414,,,survey-multi-choice,,82
,,,"[True, True, True, True]",,,,,"[""True or false: The hidden values will change each time I start a new round."",""How much does it cost to observe each hidden value?"",""How many hidden values am I allowed to observe in each round?"",""How is your bonus determined?""]","[""True"",""$1.00"",""As many or as few as I wish"",""5 cents for every $10 I earn in each round""]",15756,,,143089,,,survey-multi-choice,,83
,,,"[True, True, True, True]",,,,,"[""True or false: The hidden values will change each time I start a new round."",""How much does it cost to observe each hidden value?"",""How many hidden values am I allowed to observe in each round?"",""How is your bonus determined?""]","[""True"",""$1.00"",""As many or as few as I wish"",""5 cents for every $10 I earn in each round""]",10621,,,97028,,,survey-multi-choice,,84
,,,"[True, True, True, True, True]",,,,,"[""True or false: The hidden values will change each time I start a new round."",""How much does it cost to observe each hidden value?"",""How many hidden values am I allowed to observe in each round?"",""How is your bonus determined?"",""What does the feedback teach you?""]","[""True"",""$1.00"",""As many or as few as I wish"",""5 cents for every $10 I earn in each round"",""All of the above.""]",31968,,,123338,,,survey-multi-choice,,85
,,,"[True, True, False, True, True]",,,,,"[""True or false: The hidden values will change each time I start a new round."",""How much does it cost to observe each hidden value?"",""How many hidden values am I allowed to observe in each round?"",""How is your bonus determined?"",""What does the feedback teach you?""]","[""True"",""$1.00"",""At most 5"",""5 cents for every $10 I earn in each round"",""All of the above.""]",38240,,,152341,,,survey-multi-choice,,86
,,,"[True, True, True, True, True]",,,,,"[""True or false: The hidden values will change each time I start a new round."",""How much does it cost to observe each hidden value?"",""How many hidden values am I allowed to observe in each round?"",""How is your bonus determined?"",""What does the feedback teach you?""]","[""True"",""$1.00"",""As many or as few as I wish"",""5 cents for every $10 I earn in each round"",""All of the above.""]",16938,,,211857,,,survey-multi-choice,,86
,,,"[True, True, True, True]",,,,,"[""True or false: The hidden values will change each time I start a new round."",""How much does it cost to observe each hidden value?"",""How many hidden values am I allowed to observe in each round?"",""How is your bonus determined?""]","[""True"",""$1.00"",""As many or as few as I wish"",""5 cents for every $10 I earn in each round""]",18617,,,154614,,,survey-multi-choice,,87
,,,"[False, False, False, True]",,,,,"[""True or false: The hidden values will change each time I start a new round."",""How much does it cost to observe each hidden value?"",""How many hidden values am I allowed to observe in each round?"",""How is your bonus determined?""]","[""False"",""$0.05"",""At most 5"",""5 cents for every $10 I earn in each round""]",15290,,,129111,,,survey-multi-choice,,88
,,,"[False, True, True, True]",,,,,"[""True or false: The hidden values will change each time I start a new round."",""How much does it cost to observe each hidden value?"",""How many hidden values am I allowed to observe in each round?"",""How is your bonus determined?""]","[""False"",""$1.00"",""As many or as few as I wish"",""5 cents for every $10 I earn in each round""]",10146,,,161951,,,survey-multi-choice,,88
,,,"[False, True, True, True]",,,,,"[""True or false: The hidden values will change each time I start a new round."",""How much does it cost to observe each hidden value?"",""How many hidden values am I allowed to observe in each round?"",""How is your bonus determined?""]","[""False"",""$1.00"",""As many or as few as I wish"",""5 cents for every $10 I earn in each round""]",9613,,,330070,,,survey-multi-choice,,88
,,,"[True, True, True, True]",,,,,"[""True or false: The hidden values will change each time I start a new round."",""How much does it cost to observe each hidden value?"",""How many hidden values am I allowed to observe in each round?"",""How is your bonus determined?""]","[""True"",""$1.00"",""As many or as few as I wish"",""5 cents for every $10 I earn in each round""]",12670,,,352869,,,survey-multi-choice,,88
,,,"[True, True, True, False, True]",,,,,"[""True or false: The hidden values will change each time I start a new round."",""How much does it cost to observe each hidden value?"",""How many hidden values am I allowed to observe in each round?"",""How is your bonus determined?"",""What does the feedback teach you?""]","[""True"",""$1.00"",""As many or as few as I wish"",""1% of my best score on any round"",""All of the above.""]",311554,,,327082,,,survey-multi-choice,,89
,,,"[True, True, False, True, False]",,,,,"[""True or false: The hidden values will change each time I start a new round."",""How much does it cost to observe each hidden value?"",""How many hidden values am I allowed to observe in each round?"",""How is your bonus determined?"",""What does the feedback teach you?""]","[""True"",""$1.00"",""At most 10"",""5 cents for every $10 I earn in each round"",""The length of the delay is based on how much more money I could have earned by planning and deciding better.""]",91714,,,451390,,,survey-multi-choice,,89
,,,"[True, True, False, True, False]",,,,,"[""True or false: The hidden values will change each time I start a new round."",""How much does it cost to observe each hidden value?"",""How many hidden values am I allowed to observe in each round?"",""How is your bonus determined?"",""What does the feedback teach you?""]","[""True"",""$1.00"",""At most 1"",""5 cents for every $10 I earn in each round"",""The length of the delay is based on how much more money I could have earned by planning and deciding better.""]",51503,,,598648,,,survey-multi-choice,,89
,,,"[True, True, False, True, True]",,,,,"[""True or false: The hidden values will change each time I start a new round."",""How much does it cost to observe each hidden value?"",""How many hidden values am I allowed to observe in each round?"",""How is your bonus determined?"",""What does the feedback teach you?""]","[""True"",""$1.00"",""At most 1"",""5 cents for every $10 I earn in each round"",""All of the above.""]",136895,,,749804,,,survey-multi-choice,,89
,,,"[True, True, True, True, False]",,,,,"[""True or false: The hidden values will change each time I start a new round."",""How much does it cost to observe each hidden value?"",""How many hidden values am I allowed to observe in each round?"",""How is your bonus determined?"",""What does the feedback teach you?""]","[""True"",""$1.00"",""As many or as few as I wish"",""5 cents for every $10 I earn in each round"",""The length of the delay is based on how much more money I could have earned by planning and deciding better.""]",26573,,,786453,,,survey-multi-choice,,89
,,,"[True, True, False, True, False]",,,,,"[""True or false: The hidden values will change each time I start a new round."",""How much does it cost to observe each hidden value?"",""How many hidden values am I allowed to observe in each round?"",""How is your bonus determined?"",""What does the feedback teach you?""]","[""True"",""$1.00"",""At most 15"",""5 cents for every $10 I earn in each round"",""The length of the delay is based on how much more money I could have earned by planning and deciding better.""]",36584,,,858709,,,survey-multi-choice,,89
,,,"[True, True, True, True, False]",,,,,"[""True or false: The hidden values will change each time I start a new round."",""How much does it cost to observe each hidden value?"",""How many hidden values am I allowed to observe in each round?"",""How is your bonus determined?"",""What does the feedback teach you?""]","[""True"",""$1.00"",""As many or as few as I wish"",""5 cents for every $10 I earn in each round"",""The length of the delay is based on how much more money I could have earned by planning and deciding better.""]",9168,,,903073,,,survey-multi-choice,,89
,,,"[True, True, True, True, True]",,,,,"[""True or false: The hidden values will change each time I start a new round."",""How much does it cost to observe each hidden value?"",""How many hidden values am I allowed to observe in each round?"",""How is your bonus determined?"",""What does the feedback teach you?""]","[""True"",""$1.00"",""As many or as few as I wish"",""5 cents for every $10 I earn in each round"",""All of the above.""]",16156,,,931125,,,survey-multi-choice,,89
,,,"[True, False, True, True]",,,,,"[""True or false: The hidden values will change each time I start a new round."",""How much does it cost to observe each hidden value?"",""How many hidden values am I allowed to observe in each round?"",""How is your bonus determined?""]","[""True"",""$0.05"",""As many or as few as I wish"",""5 cents for every $10 I earn in each round""]",36860,,,359619,,,survey-multi-choice,,90
,,,"[True, True, True, True]",,,,,"[""True or false: The hidden values will change each time I start a new round."",""How much does it cost to observe each hidden value?"",""How many hidden values am I allowed to observe in each round?"",""How is your bonus determined?""]","[""True"",""$1.00"",""As many or as few as I wish"",""5 cents for every $10 I earn in each round""]",65081,,,657839,,,survey-multi-choice,,90
,,,"[True, True, True, True]",,,,,"[""True or false: The hidden values will change each time I start a new round."",""How much does it cost to observe each hidden value?"",""How many hidden values am I allowed to observe in each round?"",""How is your bonus determined?""]","[""True"",""$1.00"",""As many or as few as I wish"",""5 cents for every $10 I earn in each round""]",29425,,,364277,,,survey-multi-choice,,91
,,,"[True, False, True, True, True]",,,,,"[""True or false: The hidden values will change each time I start a new round."",""How much does it cost to observe each hidden value?"",""How many hidden values am I allowed to observe in each round?"",""How is your bonus determined?"",""What does the feedback teach you?""]","[""True"",""$2.50"",""As many or as few as I wish"",""5 cents for every $10 I earn in each round"",""All of the above.""]",28920,,,159505,,,survey-multi-choice,,92
,,,"[True, True, True, True, True]",,,,,"[""True or false: The hidden values will change each time I start a new round."",""How much does it cost to observe each hidden value?"",""How many hidden values am I allowed to observe in each round?"",""How is your bonus determined?"",""What does the feedback teach you?""]","[""True"",""$1.00"",""As many or as few as I wish"",""5 cents for every $10 I earn in each round"",""All of the above.""]",21055,,,248721,,,survey-multi-choice,,92
,,,"[True, True, True, True]",,,,,"[""True or false: The hidden values will change each time I start a new round."",""How much does it cost to observe each hidden value?"",""How many hidden values am I allowed to observe in each round?"",""How is your bonus determined?""]","[""True"",""$1.00"",""As many or as few as I wish"",""5 cents for every $10 I earn in each round""]",12920,,,215292,,,survey-multi-choice,,93
,,,"[True, True, True, True]",,,,,"[""True or false: The hidden values will change each time I start a new round."",""How much does it cost to observe each hidden value?"",""How many hidden values am I allowed to observe in each round?"",""How is your bonus determined?""]","[""True"",""$1.00"",""As many or as few as I wish"",""5 cents for every $10 I earn in each round""]",34364,,,305789,,,survey-multi-choice,,94
,,,"[True, True, True, True]",,,,,"[""True or false: The hidden values will change each time I start a new round."",""How much does it cost to observe each hidden value?"",""How many hidden values am I allowed to observe in each round?"",""How is your bonus determined?""]","[""True"",""$1.00"",""As many or as few as I wish"",""5 cents for every $10 I earn in each round""]",37452,,,212920,,,survey-multi-choice,,95
,,,"[True, True, True, True, True]",,,,,"[""True or false: The hidden values will change each time I start a new round."",""How much does it cost to observe each hidden value?"",""How many hidden values am I allowed to observe in each round?"",""How is your bonus determined?"",""What does the feedback teach you?""]","[""True"",""$1.00"",""As many or as few as I wish"",""5 cents for every $10 I earn in each round"",""All of the above.""]",23356,,,122067,,,survey-multi-choice,,96
,,,"[True, True, True, True, True]",,,,,"[""True or false: The hidden values will change each time I start a new round."",""How much does it cost to observe each hidden value?"",""How many hidden values am I allowed to observe in each round?"",""How is your bonus determined?"",""What does the feedback teach you?""]","[""True"",""$1.00"",""As many or as few as I wish"",""5 cents for every $10 I earn in each round"",""All of the above.""]",74274,,,318784,,,survey-multi-choice,,97
,,,"[True, True, True, True, True]",,,,,"[""True or false: The hidden values will change each time I start a new round."",""How much does it cost to observe each hidden value?"",""How many hidden values am I allowed to observe in each round?"",""How is your bonus determined?"",""What does the feedback teach you?""]","[""True"",""$1.00"",""As many or as few as I wish"",""5 cents for every $10 I earn in each round"",""All of the above.""]",57836,,,289154,,,survey-multi-choice,,98
,,,"[True, True, True, True, True]",,,,,"[""True or false: The hidden values will change each time I start a new round."",""How much does it cost to observe each hidden value?"",""How many hidden values am I allowed to observe in each round?"",""How is your bonus determined?"",""What does the feedback teach you?""]","[""True"",""$1.00"",""As many or as few as I wish"",""5 cents for every $10 I earn in each round"",""All of the above.""]",24535,,,130084,,,survey-multi-choice,,99
,,,"[True, True, True, True, False]",,,,,"[""True or false: The hidden values will change each time I start a new round."",""How much does it cost to observe each hidden value?"",""How many hidden values am I allowed to observe in each round?"",""How is your bonus determined?"",""What does the feedback teach you?""]","[""True"",""$1.00"",""As many or as few as I wish"",""5 cents for every $10 I earn in each round"",""The length of the delay is based on how much more money I could have earned by planning and deciding better.""]",110986,,,360667,,,survey-multi-choice,,100
,,,"[True, True, True, True, True]",,,,,"[""True or false: The hidden values will change each time I start a new round."",""How much does it cost to observe each hidden value?"",""How many hidden values am I allowed to observe in each round?"",""How is your bonus determined?"",""What does the feedback teach you?""]","[""True"",""$1.00"",""As many or as few as I wish"",""5 cents for every $10 I earn in each round"",""All of the above.""]",15343,,,437018,,,survey-multi-choice,,100
,,,"[True, True, True, True, True]",,,,,"[""True or false: The hidden values will change each time I start a new round."",""How much does it cost to observe each hidden value?"",""How many hidden values am I allowed to observe in each round?"",""How is your bonus determined?"",""What does the feedback teach you?""]","[""True"",""$1.00"",""As many or as few as I wish"",""5 cents for every $10 I earn in each round"",""All of the above.""]",22177,,,110056,,,survey-multi-choice,,101
,,,"[True, True, True, True, True]",,,,,"[""True or false: The hidden values will change each time I start a new round."",""How much does it cost to observe each hidden value?"",""How many hidden values am I allowed to observe in each round?"",""How is your bonus determined?"",""What does the feedback teach you?""]","[""True"",""$1.00"",""As many or as few as I wish"",""5 cents for every $10 I earn in each round"",""All of the above.""]",22160,,,61888,,,survey-multi-choice,,102
,,,"[True, True, False, True]",,,,,"[""True or false: The hidden values will change each time I start a new round."",""How much does it cost to observe each hidden value?"",""How many hidden values am I allowed to observe in each round?"",""How is your bonus determined?""]","[""True"",""$1.00"",""At most 1"",""5 cents for every $10 I earn in each round""]",22291,,,109051,,,survey-multi-choice,,103
,,,"[False, True, False, True]",,,,,"[""True or false: The hidden values will change each time I start a new round."",""How much does it cost to observe each hidden value?"",""How many hidden values am I allowed to observe in each round?"",""How is your bonus determined?""]","[""False"",""$1.00"",""At most 1"",""5 cents for every $10 I earn in each round""]",21094,,,171410,,,survey-multi-choice,,103
,,,"[True, True, True, True]",,,,,"[""True or false: The hidden values will change each time I start a new round."",""How much does it cost to observe each hidden value?"",""How many hidden values am I allowed to observe in each round?"",""How is your bonus determined?""]","[""True"",""$1.00"",""As many or as few as I wish"",""5 cents for every $10 I earn in each round""]",11613,,,208604,,,survey-multi-choice,,103
,,,"[False, True, False, True, False]",,,,,"[""True or false: The hidden values will change each time I start a new round."",""How much does it cost to observe each hidden value?"",""How many hidden values am I allowed to observe in each round?"",""How is your bonus determined?"",""What does the feedback teach you?""]","[""False"",""$1.00"",""At most 1"",""5 cents for every $10 I earn in each round"",""Whether I chose the move that was best according to the information I had.""]",46136,,,248926,,,survey-multi-choice,,104
,,,"[True, True, False, True, False]",,,,,"[""True or false: The hidden values will change each time I start a new round."",""How much does it cost to observe each hidden value?"",""How many hidden values am I allowed to observe in each round?"",""How is your bonus determined?"",""What does the feedback teach you?""]","[""True"",""$1.00"",""At most 1"",""5 cents for every $10 I earn in each round"",""Whether I chose the move that was best according to the information I had.""]",54353,,,429754,,,survey-multi-choice,,104
,,,"[True, True, True, True, False]",,,,,"[""True or false: The hidden values will change each time I start a new round."",""How much does it cost to observe each hidden value?"",""How many hidden values am I allowed to observe in each round?"",""How is your bonus determined?"",""What does the feedback teach you?""]","[""True"",""$1.00"",""As many or as few as I wish"",""5 cents for every $10 I earn in each round"",""Whether I chose the move that was best according to the information I had.""]",42597,,,545971,,,survey-multi-choice,,104
,,,"[True, True, False, True, True]",,,,,"[""True or false: The hidden values will change each time I start a new round."",""How much does it cost to observe each hidden value?"",""How many hidden values am I allowed to observe in each round?"",""How is your bonus determined?"",""What does the feedback teach you?""]","[""True"",""$1.00"",""At most 1"",""5 cents for every $10 I earn in each round"",""All of the above.""]",31985,,,661519,,,survey-multi-choice,,104
,,,"[True, True, True, True, False]",,,,,"[""True or false: The hidden values will change each time I start a new round."",""How much does it cost to observe each hidden value?"",""How many hidden values am I allowed to observe in each round?"",""How is your bonus determined?"",""What does the feedback teach you?""]","[""True"",""$1.00"",""As many or as few as I wish"",""5 cents for every $10 I earn in each round"",""Whether I chose the move that was best according to the information I had.""]",42100,,,768580,,,survey-multi-choice,,104
,,,"[True, True, True, True, False]",,,,,"[""True or false: The hidden values will change each time I start a new round."",""How much does it cost to observe each hidden value?"",""How many hidden values am I allowed to observe in each round?"",""How is your bonus determined?"",""What does the feedback teach you?""]","[""True"",""$1.00"",""As many or as few as I wish"",""5 cents for every $10 I earn in each round"",""Whether I chose the move that was best according to the information I had.""]",1196723,,,1986198,,,survey-multi-choice,,104
,,,"[True, True, True, True, True]",,,,,"[""True or false: The hidden values will change each time I start a new round."",""How much does it cost to observe each hidden value?"",""How many hidden values am I allowed to observe in each round?"",""How is your bonus determined?"",""What does the feedback teach you?""]","[""True"",""$1.00"",""As many or as few as I wish"",""5 cents for every $10 I earn in each round"",""All of the above.""]",27229,,,2056361,,,survey-multi-choice,,104
,,,"[True, True, True, True, True]",,,,,"[""True or false: The hidden values will change each time I start a new round."",""How much does it cost to observe each hidden value?"",""How many hidden values am I allowed to observe in each round?"",""How is your bonus determined?"",""What does the feedback teach you?""]","[""True"",""$1.00"",""As many or as few as I wish"",""5 cents for every $10 I earn in each round"",""All of the above.""]",10411,,,102235,,,survey-multi-choice,,105
,,,"[True, False, True, True, True]",,,,,"[""True or false: The hidden values will change each time I start a new round."",""How much does it cost to observe each hidden value?"",""How many hidden values am I allowed to observe in each round?"",""How is your bonus determined?"",""What does the feedback teach you?""]","[""True"",""$0.01"",""As many or as few as I wish"",""5 cents for every $10 I earn in each round"",""All of the above.""]",37601,,,212460,,,survey-multi-choice,,106
,,,"[True, True, True, True, True]",,,,,"[""True or false: The hidden values will change each time I start a new round."",""How much does it cost to observe each hidden value?"",""How many hidden values am I allowed to observe in each round?"",""How is your bonus determined?"",""What does the feedback teach you?""]","[""True"",""$1.00"",""As many or as few as I wish"",""5 cents for every $10 I earn in each round"",""All of the above.""]",15019,,,254989,,,survey-multi-choice,,106
,,,"[True, True, False, True]",,,,,"[""True or false: The hidden values will change each time I start a new round."",""How much does it cost to observe each hidden value?"",""How many hidden values am I allowed to observe in each round?"",""How is your bonus determined?""]","[""True"",""$1.00"",""At most 1"",""5 cents for every $10 I earn in each round""]",25386,,,125645,,,survey-multi-choice,,107
,,,"[True, True, True, True]",,,,,"[""True or false: The hidden values will change each time I start a new round."",""How much does it cost to observe each hidden value?"",""How many hidden values am I allowed to observe in each round?"",""How is your bonus determined?""]","[""True"",""$1.00"",""As many or as few as I wish"",""5 cents for every $10 I earn in each round""]",10466,,,176345,,,survey-multi-choice,,107
,,,"[True, True, True, False]",,,,,"[""True or false: The hidden values will change each time I start a new round."",""How much does it cost to observe each hidden value?"",""How many hidden values am I allowed to observe in each round?"",""How is your bonus determined?""]","[""True"",""$1.00"",""As many or as few as I wish"",""10% of my score on a random round""]",19402,,,93036,,,survey-multi-choice,,108
,,,"[True, True, True, True]",,,,,"[""True or false: The hidden values will change each time I start a new round."",""How much does it cost to observe each hidden value?"",""How many hidden values am I allowed to observe in each round?"",""How is your bonus determined?""]","[""True"",""$1.00"",""As many or as few as I wish"",""5 cents for every $10 I earn in each round""]",97267,,,262845,,,survey-multi-choice,,108
,,,"[False, True, True, True, False]",,,,,"[""True or false: The hidden values will change each time I start a new round."",""How much does it cost to observe each hidden value?"",""How many hidden values am I allowed to observe in each round?"",""How is your bonus determined?"",""What does the feedback teach you?""]","[""False"",""$1.00"",""As many or as few as I wish"",""5 cents for every $10 I earn in each round"",""The length of the delay is based on how much more money I could have earned by planning and deciding better.""]",323512,,,522965,,,survey-multi-choice,,109
,,,"[True, True, True, True, False]",,,,,"[""True or false: The hidden values will change each time I start a new round."",""How much does it cost to observe each hidden value?"",""How many hidden values am I allowed to observe in each round?"",""How is your bonus determined?"",""What does the feedback teach you?""]","[""True"",""$1.00"",""As many or as few as I wish"",""5 cents for every $10 I earn in each round"",""Whether I chose the move that was best according to the information I had.""]",206223,,,758505,,,survey-multi-choice,,109
,,,"[True, True, True, True, False]",,,,,"[""True or false: The hidden values will change each time I start a new round."",""How much does it cost to observe each hidden value?"",""How many hidden values am I allowed to observe in each round?"",""How is your bonus determined?"",""What does the feedback teach you?""]","[""True"",""$1.00"",""As many or as few as I wish"",""5 cents for every $10 I earn in each round"",""Whether I observed the rewards of relevant locations.""]",13173,,,783919,,,survey-multi-choice,,109
,,,"[False, True, True, True, False]",,,,,"[""True or false: The hidden values will change each time I start a new round."",""How much does it cost to observe each hidden value?"",""How many hidden values am I allowed to observe in each round?"",""How is your bonus determined?"",""What does the feedback teach you?""]","[""False"",""$1.00"",""As many or as few as I wish"",""5 cents for every $10 I earn in each round"",""The length of the delay is based on how much more money I could have earned by planning and deciding better.""]",11213,,,805663,,,survey-multi-choice,,109
,,,"[True, True, True, True, False]",,,,,"[""True or false: The hidden values will change each time I start a new round."",""How much does it cost to observe each hidden value?"",""How many hidden values am I allowed to observe in each round?"",""How is your bonus determined?"",""What does the feedback teach you?""]","[""True"",""$1.00"",""As many or as few as I wish"",""5 cents for every $10 I earn in each round"",""The length of the delay is based on how much more money I could have earned by planning and deciding better.""]",178814,,,995197,,,survey-multi-choice,,109
,,,"[False, True, True, False, True]",,,,,"[""True or false: The hidden values will change each time I start a new round."",""How much does it cost to observe each hidden value?"",""How many hidden values am I allowed to observe in each round?"",""How is your bonus determined?"",""What does the feedback teach you?""]","[""False"",""$1.00"",""As many or as few as I wish"",""10% of my best score on any round"",""All of the above.""]",8714,,,1013696,,,survey-multi-choice,,109
,,,"[True, True, True, True, False]",,,,,"[""True or false: The hidden values will change each time I start a new round."",""How much does it cost to observe each hidden value?"",""How many hidden values am I allowed to observe in each round?"",""How is your bonus determined?"",""What does the feedback teach you?""]","[""True"",""$1.00"",""As many or as few as I wish"",""5 cents for every $10 I earn in each round"",""The length of the delay is based on how much more money I could have earned by planning and deciding better.""]",187824,,,1214344,,,survey-multi-choice,,109
,,,"[False, True, True, True, False]",,,,,"[""True or false: The hidden values will change each time I start a new round."",""How much does it cost to observe each hidden value?"",""How many hidden values am I allowed to observe in each round?"",""How is your bonus determined?"",""What does the feedback teach you?""]","[""False"",""$1.00"",""As many or as few as I wish"",""5 cents for every $10 I earn in each round"",""The length of the delay is based on how much more money I could have earned by planning and deciding better.""]",12753,,,1238534,,,survey-multi-choice,,109
,,,"[True, True, True, True, False]",,,,,"[""True or false: The hidden values will change each time I start a new round."",""How much does it cost to observe each hidden value?"",""How many hidden values am I allowed to observe in each round?"",""How is your bonus determined?"",""What does the feedback teach you?""]","[""True"",""$1.00"",""As many or as few as I wish"",""5 cents for every $10 I earn in each round"",""Whether I observed the rewards of relevant locations.""]",36333,,,1289720,,,survey-multi-choice,,109
