action_times,actions,button_pressed,correct,delays,key_press,path,queries,questions,responses,rt,score,stimulus,time_elapsed,trial_index,trial_i,trial_type,view_history,pid
,,,"[True, True, True, True]",,,,,"[""True or false: The hidden values will change each time I start a new round."",""How much does it cost to observe each hidden value?"",""How many hidden values am I allowed to observe in each round?"",""How is your bonus determined?""]","[""True"",""$1.00"",""As many or as few as I wish"",""5 cents for every $10 I earn in each round""]",11566,,,93984,,,survey-multi-choice,,0
,,,"[True, True, True, True]",,,,,"[""True or false: The hidden values will change each time I start a new round."",""How much does it cost to observe each hidden value?"",""How many hidden values am I allowed to observe in each round?"",""How is your bonus determined?""]","[""True"",""$1.00"",""As many or as few as I wish"",""5 cents for every $10 I earn in each round""]",46719,,,350061,,,survey-multi-choice,,1
,,,"[True, True, True, True]",,,,,"[""True or false: The hidden values will change each time I start a new round."",""How much does it cost to observe each hidden value?"",""How many hidden values am I allowed to observe in each round?"",""How is your bonus determined?""]","[""True"",""$1.00"",""As many or as few as I wish"",""5 cents for every $10 I earn in each round""]",13424,,,180236,,,survey-multi-choice,,2
,,,"[True, True, True, True, True]",,,,,"[""True or false: The hidden values will change each time I start a new round."",""How much does it cost to observe each hidden value?"",""How many hidden values am I allowed to observe in each round?"",""How is your bonus determined?"",""What does the feedback teach you?""]","[""True"",""$1.00"",""As many or as few as I wish"",""5 cents for every $10 I earn in each round"",""All of the above.""]",20644,,,134362,,,survey-multi-choice,,3
,,,"[True, True, True, True, True]",,,,,"[""True or false: The hidden values will change each time I start a new round."",""How much does it cost to observe each hidden value?"",""How many hidden values am I allowed to observe in each round?"",""How is your bonus determined?"",""What does the feedback teach you?""]","[""True"",""$1.00"",""As many or as few as I wish"",""5 cents for every $10 I earn in each round"",""All of the above.""]",54897,,,245598,,,survey-multi-choice,,4
,,,"[True, False, False, True]",,,,,"[""True or false: The hidden values will change each time I start a new round."",""How much does it cost to observe each hidden value?"",""How many hidden values am I allowed to observe in each round?"",""How is your bonus determined?""]","[""True"",""$0.05"",""At most 10"",""5 cents for every $10 I earn in each round""]",16995,,,73319,,,survey-multi-choice,,5
,,,"[True, True, False, True]",,,,,"[""True or false: The hidden values will change each time I start a new round."",""How much does it cost to observe each hidden value?"",""How many hidden values am I allowed to observe in each round?"",""How is your bonus determined?""]","[""True"",""$1.00"",""At most 10"",""5 cents for every $10 I earn in each round""]",39493,,,144087,,,survey-multi-choice,,5
,,,"[True, True, True, True]",,,,,"[""True or false: The hidden values will change each time I start a new round."",""How much does it cost to observe each hidden value?"",""How many hidden values am I allowed to observe in each round?"",""How is your bonus determined?""]","[""True"",""$1.00"",""As many or as few as I wish"",""5 cents for every $10 I earn in each round""]",10284,,,184758,,,survey-multi-choice,,5
,,,"[True, True, True, True]",,,,,"[""True or false: The hidden values will change each time I start a new round."",""How much does it cost to observe each hidden value?"",""How many hidden values am I allowed to observe in each round?"",""How is your bonus determined?""]","[""True"",""$1.00"",""As many or as few as I wish"",""5 cents for every $10 I earn in each round""]",24540,,,179523,,,survey-multi-choice,,6
,,,"[True, True, True, True]",,,,,"[""True or false: The hidden values will change each time I start a new round."",""How much does it cost to observe each hidden value?"",""How many hidden values am I allowed to observe in each round?"",""How is your bonus determined?""]","[""True"",""$1.00"",""As many or as few as I wish"",""5 cents for every $10 I earn in each round""]",18133,,,211106,,,survey-multi-choice,,7
,,,"[True, True, True, True]",,,,,"[""True or false: The hidden values will change each time I start a new round."",""How much does it cost to observe each hidden value?"",""How many hidden values am I allowed to observe in each round?"",""How is your bonus determined?""]","[""True"",""$1.00"",""As many or as few as I wish"",""5 cents for every $10 I earn in each round""]",21272,,,93088,,,survey-multi-choice,,8
,,,"[True, True, True, True]",,,,,"[""True or false: The hidden values will change each time I start a new round."",""How much does it cost to observe each hidden value?"",""How many hidden values am I allowed to observe in each round?"",""How is your bonus determined?""]","[""True"",""$1.00"",""As many or as few as I wish"",""5 cents for every $10 I earn in each round""]",20885,,,93430,,,survey-multi-choice,,9
,,,"[True, False, True, True, True]",,,,,"[""True or false: The hidden values will change each time I start a new round."",""How much does it cost to observe each hidden value?"",""How many hidden values am I allowed to observe in each round?"",""How is your bonus determined?"",""What does the feedback teach you?""]","[""True"",""$0.01"",""As many or as few as I wish"",""5 cents for every $10 I earn in each round"",""All of the above.""]",30367,,,112502,,,survey-multi-choice,,10
,,,"[True, True, True, True, True]",,,,,"[""True or false: The hidden values will change each time I start a new round."",""How much does it cost to observe each hidden value?"",""How many hidden values am I allowed to observe in each round?"",""How is your bonus determined?"",""What does the feedback teach you?""]","[""True"",""$1.00"",""As many or as few as I wish"",""5 cents for every $10 I earn in each round"",""All of the above.""]",13268,,,173962,,,survey-multi-choice,,10
,,,"[True, True, False, True]",,,,,"[""True or false: The hidden values will change each time I start a new round."",""How much does it cost to observe each hidden value?"",""How many hidden values am I allowed to observe in each round?"",""How is your bonus determined?""]","[""True"",""$1.00"",""At most 5"",""5 cents for every $10 I earn in each round""]",36458,,,193423,,,survey-multi-choice,,11
,,,"[True, True, True, True]",,,,,"[""True or false: The hidden values will change each time I start a new round."",""How much does it cost to observe each hidden value?"",""How many hidden values am I allowed to observe in each round?"",""How is your bonus determined?""]","[""True"",""$1.00"",""As many or as few as I wish"",""5 cents for every $10 I earn in each round""]",20196,,,276899,,,survey-multi-choice,,11
,,,"[True, True, True, True, True]",,,,,"[""True or false: The hidden values will change each time I start a new round."",""How much does it cost to observe each hidden value?"",""How many hidden values am I allowed to observe in each round?"",""How is your bonus determined?"",""What does the feedback teach you?""]","[""True"",""$1.00"",""As many or as few as I wish"",""5 cents for every $10 I earn in each round"",""All of the above.""]",32910,,,256645,,,survey-multi-choice,,12
,,,"[True, True, True, True, False]",,,,,"[""True or false: The hidden values will change each time I start a new round."",""How much does it cost to observe each hidden value?"",""How many hidden values am I allowed to observe in each round?"",""How is your bonus determined?"",""What does the feedback teach you?""]","[""True"",""$1.00"",""As many or as few as I wish"",""5 cents for every $10 I earn in each round"",""Whether I chose the move that was best according to the information I had.""]",45197,,,236676,,,survey-multi-choice,,13
,,,"[True, True, True, True, True]",,,,,"[""True or false: The hidden values will change each time I start a new round."",""How much does it cost to observe each hidden value?"",""How many hidden values am I allowed to observe in each round?"",""How is your bonus determined?"",""What does the feedback teach you?""]","[""True"",""$1.00"",""As many or as few as I wish"",""5 cents for every $10 I earn in each round"",""All of the above.""]",16365,,,318256,,,survey-multi-choice,,13
,,,"[True, False, True, True, True]",,,,,"[""True or false: The hidden values will change each time I start a new round."",""How much does it cost to observe each hidden value?"",""How many hidden values am I allowed to observe in each round?"",""How is your bonus determined?"",""What does the feedback teach you?""]","[""True"",""$0.01"",""As many or as few as I wish"",""5 cents for every $10 I earn in each round"",""All of the above.""]",33021,,,170007,,,survey-multi-choice,,14
,,,"[False, True, True, True, True]",,,,,"[""True or false: The hidden values will change each time I start a new round."",""How much does it cost to observe each hidden value?"",""How many hidden values am I allowed to observe in each round?"",""How is your bonus determined?"",""What does the feedback teach you?""]","[""False"",""$1.00"",""As many or as few as I wish"",""5 cents for every $10 I earn in each round"",""All of the above.""]",17034,,,293304,,,survey-multi-choice,,14
,,,"[True, True, True, True, False]",,,,,"[""True or false: The hidden values will change each time I start a new round."",""How much does it cost to observe each hidden value?"",""How many hidden values am I allowed to observe in each round?"",""How is your bonus determined?"",""What does the feedback teach you?""]","[""True"",""$1.00"",""As many or as few as I wish"",""5 cents for every $10 I earn in each round"",""The length of the delay is based on how much more money I could have earned by planning and deciding better.""]",11994,,,338038,,,survey-multi-choice,,14
,,,"[True, True, True, True, True]",,,,,"[""True or false: The hidden values will change each time I start a new round."",""How much does it cost to observe each hidden value?"",""How many hidden values am I allowed to observe in each round?"",""How is your bonus determined?"",""What does the feedback teach you?""]","[""True"",""$1.00"",""As many or as few as I wish"",""5 cents for every $10 I earn in each round"",""All of the above.""]",7924,,,352078,,,survey-multi-choice,,14
,,,"[True, True, True, True]",,,,,"[""True or false: The hidden values will change each time I start a new round."",""How much does it cost to observe each hidden value?"",""How many hidden values am I allowed to observe in each round?"",""How is your bonus determined?""]","[""True"",""$1.00"",""As many or as few as I wish"",""5 cents for every $10 I earn in each round""]",13892,,,93236,,,survey-multi-choice,,15
,,,"[True, True, True, True]",,,,,"[""True or false: The hidden values will change each time I start a new round."",""How much does it cost to observe each hidden value?"",""How many hidden values am I allowed to observe in each round?"",""How is your bonus determined?""]","[""True"",""$1.00"",""As many or as few as I wish"",""5 cents for every $10 I earn in each round""]",19316,,,121935,,,survey-multi-choice,,16
,,,"[True, True, True, True, True]",,,,,"[""True or false: The hidden values will change each time I start a new round."",""How much does it cost to observe each hidden value?"",""How many hidden values am I allowed to observe in each round?"",""How is your bonus determined?"",""What does the feedback teach you?""]","[""True"",""$1.00"",""As many or as few as I wish"",""5 cents for every $10 I earn in each round"",""All of the above.""]",24883,,,127467,,,survey-multi-choice,,17
,,,"[True, True, True, True]",,,,,"[""True or false: The hidden values will change each time I start a new round."",""How much does it cost to observe each hidden value?"",""How many hidden values am I allowed to observe in each round?"",""How is your bonus determined?""]","[""True"",""$1.00"",""As many or as few as I wish"",""5 cents for every $10 I earn in each round""]",32201,,,148669,,,survey-multi-choice,,18
,,,"[True, True, True, True]",,,,,"[""True or false: The hidden values will change each time I start a new round."",""How much does it cost to observe each hidden value?"",""How many hidden values am I allowed to observe in each round?"",""How is your bonus determined?""]","[""True"",""$1.00"",""As many or as few as I wish"",""5 cents for every $10 I earn in each round""]",149840,,,248432,,,survey-multi-choice,,19
,,,"[True, True, True, True]",,,,,"[""True or false: The hidden values will change each time I start a new round."",""How much does it cost to observe each hidden value?"",""How many hidden values am I allowed to observe in each round?"",""How is your bonus determined?""]","[""True"",""$1.00"",""As many or as few as I wish"",""5 cents for every $10 I earn in each round""]",14489,,,118400,,,survey-multi-choice,,20
,,,"[True, True, True, True, False]",,,,,"[""True or false: The hidden values will change each time I start a new round."",""How much does it cost to observe each hidden value?"",""How many hidden values am I allowed to observe in each round?"",""How is your bonus determined?"",""What does the feedback teach you?""]","[""True"",""$1.00"",""As many or as few as I wish"",""5 cents for every $10 I earn in each round"",""Whether I chose the move that was best according to the information I had.""]",38137,,,239998,,,survey-multi-choice,,21
,,,"[True, True, True, True, True]",,,,,"[""True or false: The hidden values will change each time I start a new round."",""How much does it cost to observe each hidden value?"",""How many hidden values am I allowed to observe in each round?"",""How is your bonus determined?"",""What does the feedback teach you?""]","[""True"",""$1.00"",""As many or as few as I wish"",""5 cents for every $10 I earn in each round"",""All of the above.""]",27149,,,420517,,,survey-multi-choice,,21
,,,"[True, True, True, True]",,,,,"[""True or false: The hidden values will change each time I start a new round."",""How much does it cost to observe each hidden value?"",""How many hidden values am I allowed to observe in each round?"",""How is your bonus determined?""]","[""True"",""$1.00"",""As many or as few as I wish"",""5 cents for every $10 I earn in each round""]",13835,,,145221,,,survey-multi-choice,,22
,,,"[True, True, True, True, True]",,,,,"[""True or false: The hidden values will change each time I start a new round."",""How much does it cost to observe each hidden value?"",""How many hidden values am I allowed to observe in each round?"",""How is your bonus determined?"",""What does the feedback teach you?""]","[""True"",""$1.00"",""As many or as few as I wish"",""5 cents for every $10 I earn in each round"",""All of the above.""]",32705,,,403402,,,survey-multi-choice,,23
,,,"[True, True, True, True, True]",,,,,"[""True or false: The hidden values will change each time I start a new round."",""How much does it cost to observe each hidden value?"",""How many hidden values am I allowed to observe in each round?"",""How is your bonus determined?"",""What does the feedback teach you?""]","[""True"",""$1.00"",""As many or as few as I wish"",""5 cents for every $10 I earn in each round"",""All of the above.""]",26541,,,214183,,,survey-multi-choice,,24
,,,"[True, True, True, True]",,,,,"[""True or false: The hidden values will change each time I start a new round."",""How much does it cost to observe each hidden value?"",""How many hidden values am I allowed to observe in each round?"",""How is your bonus determined?""]","[""True"",""$1.00"",""As many or as few as I wish"",""5 cents for every $10 I earn in each round""]",15546,,,116074,,,survey-multi-choice,,25
,,,"[True, True, True, True, False]",,,,,"[""True or false: The hidden values will change each time I start a new round."",""How much does it cost to observe each hidden value?"",""How many hidden values am I allowed to observe in each round?"",""How is your bonus determined?"",""What does the feedback teach you?""]","[""True"",""$1.00"",""As many or as few as I wish"",""5 cents for every $10 I earn in each round"",""The length of the delay is based on how much more money I could have earned by planning and deciding better.""]",15850,,,150345,,,survey-multi-choice,,26
,,,"[True, True, True, True, True]",,,,,"[""True or false: The hidden values will change each time I start a new round."",""How much does it cost to observe each hidden value?"",""How many hidden values am I allowed to observe in each round?"",""How is your bonus determined?"",""What does the feedback teach you?""]","[""True"",""$1.00"",""As many or as few as I wish"",""5 cents for every $10 I earn in each round"",""All of the above.""]",11441,,,171994,,,survey-multi-choice,,26
,,,"[True, True, True, True, False]",,,,,"[""True or false: The hidden values will change each time I start a new round."",""How much does it cost to observe each hidden value?"",""How many hidden values am I allowed to observe in each round?"",""How is your bonus determined?"",""What does the feedback teach you?""]","[""True"",""$1.00"",""As many or as few as I wish"",""5 cents for every $10 I earn in each round"",""The length of the delay is based on how much more money I could have earned by planning and deciding better.""]",28188,,,167418,,,survey-multi-choice,,27
,,,"[True, True, True, True, True]",,,,,"[""True or false: The hidden values will change each time I start a new round."",""How much does it cost to observe each hidden value?"",""How many hidden values am I allowed to observe in each round?"",""How is your bonus determined?"",""What does the feedback teach you?""]","[""True"",""$1.00"",""As many or as few as I wish"",""5 cents for every $10 I earn in each round"",""All of the above.""]",15787,,,207746,,,survey-multi-choice,,27
,,,"[True, True, True, True]",,,,,"[""True or false: The hidden values will change each time I start a new round."",""How much does it cost to observe each hidden value?"",""How many hidden values am I allowed to observe in each round?"",""How is your bonus determined?""]","[""True"",""$1.00"",""As many or as few as I wish"",""5 cents for every $10 I earn in each round""]",16074,,,170459,,,survey-multi-choice,,28
,,,"[True, True, True, True, True]",,,,,"[""True or false: The hidden values will change each time I start a new round."",""How much does it cost to observe each hidden value?"",""How many hidden values am I allowed to observe in each round?"",""How is your bonus determined?"",""What does the feedback teach you?""]","[""True"",""$1.00"",""As many or as few as I wish"",""5 cents for every $10 I earn in each round"",""All of the above.""]",-2565703,,,-2469403,,,survey-multi-choice,,29
,,,"[True, False, True, True]",,,,,"[""True or false: The hidden values will change each time I start a new round."",""How much does it cost to observe each hidden value?"",""How many hidden values am I allowed to observe in each round?"",""How is your bonus determined?""]","[""True"",""$0.05"",""As many or as few as I wish"",""5 cents for every $10 I earn in each round""]",57237,,,337041,,,survey-multi-choice,,30
,,,"[True, True, True, True]",,,,,"[""True or false: The hidden values will change each time I start a new round."",""How much does it cost to observe each hidden value?"",""How many hidden values am I allowed to observe in each round?"",""How is your bonus determined?""]","[""True"",""$1.00"",""As many or as few as I wish"",""5 cents for every $10 I earn in each round""]",20425,,,479299,,,survey-multi-choice,,30
,,,"[True, True, True, True]",,,,,"[""True or false: The hidden values will change each time I start a new round."",""How much does it cost to observe each hidden value?"",""How many hidden values am I allowed to observe in each round?"",""How is your bonus determined?""]","[""True"",""$1.00"",""As many or as few as I wish"",""5 cents for every $10 I earn in each round""]",13263,,,121555,,,survey-multi-choice,,31
,,,"[True, False, True, True]",,,,,"[""True or false: The hidden values will change each time I start a new round."",""How much does it cost to observe each hidden value?"",""How many hidden values am I allowed to observe in each round?"",""How is your bonus determined?""]","[""True"",""$0.01"",""As many or as few as I wish"",""5 cents for every $10 I earn in each round""]",21157,,,47666,,,survey-multi-choice,,32
,,,"[True, True, True, True]",,,,,"[""True or false: The hidden values will change each time I start a new round."",""How much does it cost to observe each hidden value?"",""How many hidden values am I allowed to observe in each round?"",""How is your bonus determined?""]","[""True"",""$1.00"",""As many or as few as I wish"",""5 cents for every $10 I earn in each round""]",6074,,,88118,,,survey-multi-choice,,32
,,,"[True, True, False, True]",,,,,"[""True or false: The hidden values will change each time I start a new round."",""How much does it cost to observe each hidden value?"",""How many hidden values am I allowed to observe in each round?"",""How is your bonus determined?""]","[""True"",""$1.00"",""At most 5"",""5 cents for every $10 I earn in each round""]",30704,,,1767633,,,survey-multi-choice,,33
,,,"[True, True, True, True]",,,,,"[""True or false: The hidden values will change each time I start a new round."",""How much does it cost to observe each hidden value?"",""How many hidden values am I allowed to observe in each round?"",""How is your bonus determined?""]","[""True"",""$1.00"",""As many or as few as I wish"",""5 cents for every $10 I earn in each round""]",13960,,,1847898,,,survey-multi-choice,,33
,,,"[True, True, False, True]",,,,,"[""True or false: The hidden values will change each time I start a new round."",""How much does it cost to observe each hidden value?"",""How many hidden values am I allowed to observe in each round?"",""How is your bonus determined?""]","[""True"",""$1.00"",""At most 1"",""5 cents for every $10 I earn in each round""]",16206,,,108506,,,survey-multi-choice,,34
,,,"[True, True, True, True]",,,,,"[""True or false: The hidden values will change each time I start a new round."",""How much does it cost to observe each hidden value?"",""How many hidden values am I allowed to observe in each round?"",""How is your bonus determined?""]","[""True"",""$1.00"",""As many or as few as I wish"",""5 cents for every $10 I earn in each round""]",7304,,,126568,,,survey-multi-choice,,34
,,,"[True, True, False, True, False]",,,,,"[""True or false: The hidden values will change each time I start a new round."",""How much does it cost to observe each hidden value?"",""How many hidden values am I allowed to observe in each round?"",""How is your bonus determined?"",""What does the feedback teach you?""]","[""True"",""$1.00"",""At most 5"",""5 cents for every $10 I earn in each round"",""Whether I chose the move that was best according to the information I had.""]",26675,,,102962,,,survey-multi-choice,,35
,,,"[False, True, True, True, True]",,,,,"[""True or false: The hidden values will change each time I start a new round."",""How much does it cost to observe each hidden value?"",""How many hidden values am I allowed to observe in each round?"",""How is your bonus determined?"",""What does the feedback teach you?""]","[""False"",""$1.00"",""As many or as few as I wish"",""5 cents for every $10 I earn in each round"",""All of the above.""]",19813,,,157505,,,survey-multi-choice,,35
,,,"[False, True, True, True, False]",,,,,"[""True or false: The hidden values will change each time I start a new round."",""How much does it cost to observe each hidden value?"",""How many hidden values am I allowed to observe in each round?"",""How is your bonus determined?"",""What does the feedback teach you?""]","[""False"",""$1.00"",""As many or as few as I wish"",""5 cents for every $10 I earn in each round"",""The length of the delay is based on how much more money I could have earned by planning and deciding better.""]",10017,,,196151,,,survey-multi-choice,,35
,,,"[False, True, True, False, True]",,,,,"[""True or false: The hidden values will change each time I start a new round."",""How much does it cost to observe each hidden value?"",""How many hidden values am I allowed to observe in each round?"",""How is your bonus determined?"",""What does the feedback teach you?""]","[""False"",""$1.00"",""As many or as few as I wish"",""10% of my best score on any round"",""All of the above.""]",66780,,,289688,,,survey-multi-choice,,35
,,,"[True, True, True, True, False]",,,,,"[""True or false: The hidden values will change each time I start a new round."",""How much does it cost to observe each hidden value?"",""How many hidden values am I allowed to observe in each round?"",""How is your bonus determined?"",""What does the feedback teach you?""]","[""True"",""$1.00"",""As many or as few as I wish"",""5 cents for every $10 I earn in each round"",""Whether I chose the move that was best according to the information I had.""]",26707,,,325927,,,survey-multi-choice,,35
,,,"[False, True, True, True, True]",,,,,"[""True or false: The hidden values will change each time I start a new round."",""How much does it cost to observe each hidden value?"",""How many hidden values am I allowed to observe in each round?"",""How is your bonus determined?"",""What does the feedback teach you?""]","[""False"",""$1.00"",""As many or as few as I wish"",""5 cents for every $10 I earn in each round"",""All of the above.""]",18625,,,371031,,,survey-multi-choice,,35
,,,"[False, True, True, True, False]",,,,,"[""True or false: The hidden values will change each time I start a new round."",""How much does it cost to observe each hidden value?"",""How many hidden values am I allowed to observe in each round?"",""How is your bonus determined?"",""What does the feedback teach you?""]","[""False"",""$1.00"",""As many or as few as I wish"",""5 cents for every $10 I earn in each round"",""The length of the delay is based on how much more money I could have earned by planning and deciding better.""]",11809,,,389720,,,survey-multi-choice,,35
,,,"[False, True, True, True, True]",,,,,"[""True or false: The hidden values will change each time I start a new round."",""How much does it cost to observe each hidden value?"",""How many hidden values am I allowed to observe in each round?"",""How is your bonus determined?"",""What does the feedback teach you?""]","[""False"",""$1.00"",""As many or as few as I wish"",""5 cents for every $10 I earn in each round"",""All of the above.""]",8474,,,405818,,,survey-multi-choice,,35
,,,"[False, True, True, True, False]",,,,,"[""True or false: The hidden values will change each time I start a new round."",""How much does it cost to observe each hidden value?"",""How many hidden values am I allowed to observe in each round?"",""How is your bonus determined?"",""What does the feedback teach you?""]","[""False"",""$1.00"",""As many or as few as I wish"",""5 cents for every $10 I earn in each round"",""Whether I chose the move that was best according to the information I had.""]",10001,,,422559,,,survey-multi-choice,,35
,,,"[False, True, True, True, False]",,,,,"[""True or false: The hidden values will change each time I start a new round."",""How much does it cost to observe each hidden value?"",""How many hidden values am I allowed to observe in each round?"",""How is your bonus determined?"",""What does the feedback teach you?""]","[""False"",""$1.00"",""As many or as few as I wish"",""5 cents for every $10 I earn in each round"",""The length of the delay is based on how much more money I could have earned by planning and deciding better.""]",9780,,,439525,,,survey-multi-choice,,35
,,,"[True, True, True, True, True]",,,,,"[""True or false: The hidden values will change each time I start a new round."",""How much does it cost to observe each hidden value?"",""How many hidden values am I allowed to observe in each round?"",""How is your bonus determined?"",""What does the feedback teach you?""]","[""True"",""$1.00"",""As many or as few as I wish"",""5 cents for every $10 I earn in each round"",""All of the above.""]",7973,,,456143,,,survey-multi-choice,,35
,,,"[True, False, True, True, True]",,,,,"[""True or false: The hidden values will change each time I start a new round."",""How much does it cost to observe each hidden value?"",""How many hidden values am I allowed to observe in each round?"",""How is your bonus determined?"",""What does the feedback teach you?""]","[""True"",""$0.05"",""As many or as few as I wish"",""5 cents for every $10 I earn in each round"",""All of the above.""]",24988,,,122855,,,survey-multi-choice,,36
,,,"[True, True, True, True, True]",,,,,"[""True or false: The hidden values will change each time I start a new round."",""How much does it cost to observe each hidden value?"",""How many hidden values am I allowed to observe in each round?"",""How is your bonus determined?"",""What does the feedback teach you?""]","[""True"",""$1.00"",""As many or as few as I wish"",""5 cents for every $10 I earn in each round"",""All of the above.""]",9318,,,158465,,,survey-multi-choice,,36
,,,"[True, False, False, True, True]",,,,,"[""True or false: The hidden values will change each time I start a new round."",""How much does it cost to observe each hidden value?"",""How many hidden values am I allowed to observe in each round?"",""How is your bonus determined?"",""What does the feedback teach you?""]","[""True"",""$0.01"",""At most 15"",""5 cents for every $10 I earn in each round"",""All of the above.""]",30176,,,134054,,,survey-multi-choice,,37
,,,"[True, True, True, True, False]",,,,,"[""True or false: The hidden values will change each time I start a new round."",""How much does it cost to observe each hidden value?"",""How many hidden values am I allowed to observe in each round?"",""How is your bonus determined?"",""What does the feedback teach you?""]","[""True"",""$1.00"",""As many or as few as I wish"",""5 cents for every $10 I earn in each round"",""Whether I observed the rewards of relevant locations.""]",20176,,,207343,,,survey-multi-choice,,37
,,,"[True, True, True, True, True]",,,,,"[""True or false: The hidden values will change each time I start a new round."",""How much does it cost to observe each hidden value?"",""How many hidden values am I allowed to observe in each round?"",""How is your bonus determined?"",""What does the feedback teach you?""]","[""True"",""$1.00"",""As many or as few as I wish"",""5 cents for every $10 I earn in each round"",""All of the above.""]",9456,,,278776,,,survey-multi-choice,,37
,,,"[True, True, True, True, True]",,,,,"[""True or false: The hidden values will change each time I start a new round."",""How much does it cost to observe each hidden value?"",""How many hidden values am I allowed to observe in each round?"",""How is your bonus determined?"",""What does the feedback teach you?""]","[""True"",""$1.00"",""As many or as few as I wish"",""5 cents for every $10 I earn in each round"",""All of the above.""]",56530,,,380153,,,survey-multi-choice,,38
,,,"[True, True, True, True, True]",,,,,"[""True or false: The hidden values will change each time I start a new round."",""How much does it cost to observe each hidden value?"",""How many hidden values am I allowed to observe in each round?"",""How is your bonus determined?"",""What does the feedback teach you?""]","[""True"",""$1.00"",""As many or as few as I wish"",""5 cents for every $10 I earn in each round"",""All of the above.""]",132664,,,181633,,,survey-multi-choice,,39
,,,"[True, True, True, True, True]",,,,,"[""True or false: The hidden values will change each time I start a new round."",""How much does it cost to observe each hidden value?"",""How many hidden values am I allowed to observe in each round?"",""How is your bonus determined?"",""What does the feedback teach you?""]","[""True"",""$1.00"",""As many or as few as I wish"",""5 cents for every $10 I earn in each round"",""All of the above.""]",33524,,,155844,,,survey-multi-choice,,40
,,,"[True, False, True, True]",,,,,"[""True or false: The hidden values will change each time I start a new round."",""How much does it cost to observe each hidden value?"",""How many hidden values am I allowed to observe in each round?"",""How is your bonus determined?""]","[""True"",""$0.05"",""As many or as few as I wish"",""5 cents for every $10 I earn in each round""]",28957,,,129790,,,survey-multi-choice,,41
,,,"[True, True, True, True]",,,,,"[""True or false: The hidden values will change each time I start a new round."",""How much does it cost to observe each hidden value?"",""How many hidden values am I allowed to observe in each round?"",""How is your bonus determined?""]","[""True"",""$1.00"",""As many or as few as I wish"",""5 cents for every $10 I earn in each round""]",51922,,,218689,,,survey-multi-choice,,41
,,,"[True, True, True, True]",,,,,"[""True or false: The hidden values will change each time I start a new round."",""How much does it cost to observe each hidden value?"",""How many hidden values am I allowed to observe in each round?"",""How is your bonus determined?""]","[""True"",""$1.00"",""As many or as few as I wish"",""5 cents for every $10 I earn in each round""]",24254,,,238068,,,survey-multi-choice,,42
,,,"[True, True, False, True]",,,,,"[""True or false: The hidden values will change each time I start a new round."",""How much does it cost to observe each hidden value?"",""How many hidden values am I allowed to observe in each round?"",""How is your bonus determined?""]","[""True"",""$1.00"",""At most 10"",""5 cents for every $10 I earn in each round""]",86102,,,719690,,,survey-multi-choice,,43
,,,"[True, True, True, True]",,,,,"[""True or false: The hidden values will change each time I start a new round."",""How much does it cost to observe each hidden value?"",""How many hidden values am I allowed to observe in each round?"",""How is your bonus determined?""]","[""True"",""$1.00"",""As many or as few as I wish"",""5 cents for every $10 I earn in each round""]",67381,,,1143274,,,survey-multi-choice,,43
,,,"[True, True, True, True, True]",,,,,"[""True or false: The hidden values will change each time I start a new round."",""How much does it cost to observe each hidden value?"",""How many hidden values am I allowed to observe in each round?"",""How is your bonus determined?"",""What does the feedback teach you?""]","[""True"",""$1.00"",""As many or as few as I wish"",""5 cents for every $10 I earn in each round"",""All of the above.""]",33062,,,132052,,,survey-multi-choice,,44
,,,"[True, False, True, True]",,,,,"[""True or false: The hidden values will change each time I start a new round."",""How much does it cost to observe each hidden value?"",""How many hidden values am I allowed to observe in each round?"",""How is your bonus determined?""]","[""True"",""$0.01"",""As many or as few as I wish"",""5 cents for every $10 I earn in each round""]",22007,,,194912,,,survey-multi-choice,,45
,,,"[True, True, True, True]",,,,,"[""True or false: The hidden values will change each time I start a new round."",""How much does it cost to observe each hidden value?"",""How many hidden values am I allowed to observe in each round?"",""How is your bonus determined?""]","[""True"",""$1.00"",""As many or as few as I wish"",""5 cents for every $10 I earn in each round""]",7773,,,214212,,,survey-multi-choice,,45
,,,"[True, True, True, True]",,,,,"[""True or false: The hidden values will change each time I start a new round."",""How much does it cost to observe each hidden value?"",""How many hidden values am I allowed to observe in each round?"",""How is your bonus determined?""]","[""True"",""$1.00"",""As many or as few as I wish"",""5 cents for every $10 I earn in each round""]",12482,,,48704,,,survey-multi-choice,,46
,,,"[True, True, True, True, True]",,,,,"[""True or false: The hidden values will change each time I start a new round."",""How much does it cost to observe each hidden value?"",""How many hidden values am I allowed to observe in each round?"",""How is your bonus determined?"",""What does the feedback teach you?""]","[""True"",""$1.00"",""As many or as few as I wish"",""5 cents for every $10 I earn in each round"",""All of the above.""]",25986,,,95965,,,survey-multi-choice,,47
,,,"[True, True, True, True, True]",,,,,"[""True or false: The hidden values will change each time I start a new round."",""How much does it cost to observe each hidden value?"",""How many hidden values am I allowed to observe in each round?"",""How is your bonus determined?"",""What does the feedback teach you?""]","[""True"",""$1.00"",""As many or as few as I wish"",""5 cents for every $10 I earn in each round"",""All of the above.""]",21655,,,114483,,,survey-multi-choice,,48
,,,"[True, False, True, True]",,,,,"[""True or false: The hidden values will change each time I start a new round."",""How much does it cost to observe each hidden value?"",""How many hidden values am I allowed to observe in each round?"",""How is your bonus determined?""]","[""True"",""$0.05"",""As many or as few as I wish"",""5 cents for every $10 I earn in each round""]",35349,,,270287,,,survey-multi-choice,,49
,,,"[True, False, False, True]",,,,,"[""True or false: The hidden values will change each time I start a new round."",""How much does it cost to observe each hidden value?"",""How many hidden values am I allowed to observe in each round?"",""How is your bonus determined?""]","[""True"",""$0.01"",""At most 5"",""5 cents for every $10 I earn in each round""]",32667,,,319611,,,survey-multi-choice,,49
,,,"[True, False, True, True]",,,,,"[""True or false: The hidden values will change each time I start a new round."",""How much does it cost to observe each hidden value?"",""How many hidden values am I allowed to observe in each round?"",""How is your bonus determined?""]","[""True"",""$0.05"",""As many or as few as I wish"",""5 cents for every $10 I earn in each round""]",29512,,,495059,,,survey-multi-choice,,49
,,,"[False, False, True, True]",,,,,"[""True or false: The hidden values will change each time I start a new round."",""How much does it cost to observe each hidden value?"",""How many hidden values am I allowed to observe in each round?"",""How is your bonus determined?""]","[""False"",""$0.05"",""As many or as few as I wish"",""5 cents for every $10 I earn in each round""]",13234,,,518218,,,survey-multi-choice,,49
,,,"[True, False, True, True]",,,,,"[""True or false: The hidden values will change each time I start a new round."",""How much does it cost to observe each hidden value?"",""How many hidden values am I allowed to observe in each round?"",""How is your bonus determined?""]","[""True"",""$0.01"",""As many or as few as I wish"",""5 cents for every $10 I earn in each round""]",40165,,,569634,,,survey-multi-choice,,49
,,,"[True, True, True, True]",,,,,"[""True or false: The hidden values will change each time I start a new round."",""How much does it cost to observe each hidden value?"",""How many hidden values am I allowed to observe in each round?"",""How is your bonus determined?""]","[""True"",""$1.00"",""As many or as few as I wish"",""5 cents for every $10 I earn in each round""]",48022,,,632335,,,survey-multi-choice,,49
,,,"[True, True, True, True]",,,,,"[""True or false: The hidden values will change each time I start a new round."",""How much does it cost to observe each hidden value?"",""How many hidden values am I allowed to observe in each round?"",""How is your bonus determined?""]","[""True"",""$1.00"",""As many or as few as I wish"",""5 cents for every $10 I earn in each round""]",254580,,,474987,,,survey-multi-choice,,50
,,,"[True, True, True, True]",,,,,"[""True or false: The hidden values will change each time I start a new round."",""How much does it cost to observe each hidden value?"",""How many hidden values am I allowed to observe in each round?"",""How is your bonus determined?""]","[""True"",""$1.00"",""As many or as few as I wish"",""5 cents for every $10 I earn in each round""]",22138,,,271467,,,survey-multi-choice,,51
,,,"[True, True, True, True, True]",,,,,"[""True or false: The hidden values will change each time I start a new round."",""How much does it cost to observe each hidden value?"",""How many hidden values am I allowed to observe in each round?"",""How is your bonus determined?"",""What does the feedback teach you?""]","[""True"",""$1.00"",""As many or as few as I wish"",""5 cents for every $10 I earn in each round"",""All of the above.""]",29155,,,141376,,,survey-multi-choice,,52
,,,"[True, True, True, True]",,,,,"[""True or false: The hidden values will change each time I start a new round."",""How much does it cost to observe each hidden value?"",""How many hidden values am I allowed to observe in each round?"",""How is your bonus determined?""]","[""True"",""$1.00"",""As many or as few as I wish"",""5 cents for every $10 I earn in each round""]",19644,,,359281,,,survey-multi-choice,,53
,,,"[True, True, True, True, False]",,,,,"[""True or false: The hidden values will change each time I start a new round."",""How much does it cost to observe each hidden value?"",""How many hidden values am I allowed to observe in each round?"",""How is your bonus determined?"",""What does the feedback teach you?""]","[""True"",""$1.00"",""As many or as few as I wish"",""5 cents for every $10 I earn in each round"",""The length of the delay is based on how much more money I could have earned by planning and deciding better.""]",57394,,,190101,,,survey-multi-choice,,54
,,,"[True, True, True, True, True]",,,,,"[""True or false: The hidden values will change each time I start a new round."",""How much does it cost to observe each hidden value?"",""How many hidden values am I allowed to observe in each round?"",""How is your bonus determined?"",""What does the feedback teach you?""]","[""True"",""$1.00"",""As many or as few as I wish"",""5 cents for every $10 I earn in each round"",""All of the above.""]",10278,,,234197,,,survey-multi-choice,,54
,,,"[True, True, False, True]",,,,,"[""True or false: The hidden values will change each time I start a new round."",""How much does it cost to observe each hidden value?"",""How many hidden values am I allowed to observe in each round?"",""How is your bonus determined?""]","[""True"",""$1.00"",""At most 5"",""5 cents for every $10 I earn in each round""]",55053,,,277453,,,survey-multi-choice,,55
,,,"[True, True, False, True]",,,,,"[""True or false: The hidden values will change each time I start a new round."",""How much does it cost to observe each hidden value?"",""How many hidden values am I allowed to observe in each round?"",""How is your bonus determined?""]","[""True"",""$1.00"",""At most 10"",""5 cents for every $10 I earn in each round""]",34489,,,358821,,,survey-multi-choice,,55
,,,"[False, True, True, True]",,,,,"[""True or false: The hidden values will change each time I start a new round."",""How much does it cost to observe each hidden value?"",""How many hidden values am I allowed to observe in each round?"",""How is your bonus determined?""]","[""False"",""$1.00"",""As many or as few as I wish"",""5 cents for every $10 I earn in each round""]",22241,,,444143,,,survey-multi-choice,,55
,,,"[True, True, False, True]",,,,,"[""True or false: The hidden values will change each time I start a new round."",""How much does it cost to observe each hidden value?"",""How many hidden values am I allowed to observe in each round?"",""How is your bonus determined?""]","[""True"",""$1.00"",""At most 1"",""5 cents for every $10 I earn in each round""]",36744,,,563630,,,survey-multi-choice,,55
,,,"[True, True, False, True]",,,,,"[""True or false: The hidden values will change each time I start a new round."",""How much does it cost to observe each hidden value?"",""How many hidden values am I allowed to observe in each round?"",""How is your bonus determined?""]","[""True"",""$1.00"",""At most 15"",""5 cents for every $10 I earn in each round""]",16330,,,623339,,,survey-multi-choice,,55
,,,"[True, True, True, True]",,,,,"[""True or false: The hidden values will change each time I start a new round."",""How much does it cost to observe each hidden value?"",""How many hidden values am I allowed to observe in each round?"",""How is your bonus determined?""]","[""True"",""$1.00"",""As many or as few as I wish"",""5 cents for every $10 I earn in each round""]",11411,,,640256,,,survey-multi-choice,,55
,,,"[True, True, True, True]",,,,,"[""True or false: The hidden values will change each time I start a new round."",""How much does it cost to observe each hidden value?"",""How many hidden values am I allowed to observe in each round?"",""How is your bonus determined?""]","[""True"",""$1.00"",""As many or as few as I wish"",""5 cents for every $10 I earn in each round""]",149245,,,325362,,,survey-multi-choice,,56
,,,"[True, True, True, True]",,,,,"[""True or false: The hidden values will change each time I start a new round."",""How much does it cost to observe each hidden value?"",""How many hidden values am I allowed to observe in each round?"",""How is your bonus determined?""]","[""True"",""$1.00"",""As many or as few as I wish"",""5 cents for every $10 I earn in each round""]",19752,,,111390,,,survey-multi-choice,,57
,,,"[True, True, True, True]",,,,,"[""True or false: The hidden values will change each time I start a new round."",""How much does it cost to observe each hidden value?"",""How many hidden values am I allowed to observe in each round?"",""How is your bonus determined?""]","[""True"",""$1.00"",""As many or as few as I wish"",""5 cents for every $10 I earn in each round""]",18030,,,189991,,,survey-multi-choice,,58
,,,"[True, False, True, True, True]",,,,,"[""True or false: The hidden values will change each time I start a new round."",""How much does it cost to observe each hidden value?"",""How many hidden values am I allowed to observe in each round?"",""How is your bonus determined?"",""What does the feedback teach you?""]","[""True"",""$0.05"",""As many or as few as I wish"",""5 cents for every $10 I earn in each round"",""All of the above.""]",41867,,,68686,,,survey-multi-choice,,59
,,,"[True, True, True, True, True]",,,,,"[""True or false: The hidden values will change each time I start a new round."",""How much does it cost to observe each hidden value?"",""How many hidden values am I allowed to observe in each round?"",""How is your bonus determined?"",""What does the feedback teach you?""]","[""True"",""$1.00"",""As many or as few as I wish"",""5 cents for every $10 I earn in each round"",""All of the above.""]",8205,,,104243,,,survey-multi-choice,,59
,,,"[True, True, True, True, True]",,,,,"[""True or false: The hidden values will change each time I start a new round."",""How much does it cost to observe each hidden value?"",""How many hidden values am I allowed to observe in each round?"",""How is your bonus determined?"",""What does the feedback teach you?""]","[""True"",""$1.00"",""As many or as few as I wish"",""5 cents for every $10 I earn in each round"",""All of the above.""]",50107,,,297170,,,survey-multi-choice,,60
,,,"[True, False, False, True]",,,,,"[""True or false: The hidden values will change each time I start a new round."",""How much does it cost to observe each hidden value?"",""How many hidden values am I allowed to observe in each round?"",""How is your bonus determined?""]","[""True"",""$0.05"",""At most 5"",""5 cents for every $10 I earn in each round""]",18483,,,597114,,,survey-multi-choice,,61
,,,"[True, True, True, True]",,,,,"[""True or false: The hidden values will change each time I start a new round."",""How much does it cost to observe each hidden value?"",""How many hidden values am I allowed to observe in each round?"",""How is your bonus determined?""]","[""True"",""$1.00"",""As many or as few as I wish"",""5 cents for every $10 I earn in each round""]",11259,,,669971,,,survey-multi-choice,,61
,,,"[True, True, True, True]",,,,,"[""True or false: The hidden values will change each time I start a new round."",""How much does it cost to observe each hidden value?"",""How many hidden values am I allowed to observe in each round?"",""How is your bonus determined?""]","[""True"",""$1.00"",""As many or as few as I wish"",""5 cents for every $10 I earn in each round""]",152468,,,204361,,,survey-multi-choice,,62
,,,"[True, True, True, True, True]",,,,,"[""True or false: The hidden values will change each time I start a new round."",""How much does it cost to observe each hidden value?"",""How many hidden values am I allowed to observe in each round?"",""How is your bonus determined?"",""What does the feedback teach you?""]","[""True"",""$1.00"",""As many or as few as I wish"",""5 cents for every $10 I earn in each round"",""All of the above.""]",54460,,,266950,,,survey-multi-choice,,63
,,,"[True, True, True, True, True]",,,,,"[""True or false: The hidden values will change each time I start a new round."",""How much does it cost to observe each hidden value?"",""How many hidden values am I allowed to observe in each round?"",""How is your bonus determined?"",""What does the feedback teach you?""]","[""True"",""$1.00"",""As many or as few as I wish"",""5 cents for every $10 I earn in each round"",""All of the above.""]",18859,,,118902,,,survey-multi-choice,,64
,,,"[True, False, True, True]",,,,,"[""True or false: The hidden values will change each time I start a new round."",""How much does it cost to observe each hidden value?"",""How many hidden values am I allowed to observe in each round?"",""How is your bonus determined?""]","[""True"",""$0.05"",""As many or as few as I wish"",""5 cents for every $10 I earn in each round""]",32983,,,135560,,,survey-multi-choice,,65
,,,"[False, True, True, True]",,,,,"[""True or false: The hidden values will change each time I start a new round."",""How much does it cost to observe each hidden value?"",""How many hidden values am I allowed to observe in each round?"",""How is your bonus determined?""]","[""False"",""$1.00"",""As many or as few as I wish"",""5 cents for every $10 I earn in each round""]",12619,,,204450,,,survey-multi-choice,,65
,,,"[True, True, True, True]",,,,,"[""True or false: The hidden values will change each time I start a new round."",""How much does it cost to observe each hidden value?"",""How many hidden values am I allowed to observe in each round?"",""How is your bonus determined?""]","[""True"",""$1.00"",""As many or as few as I wish"",""5 cents for every $10 I earn in each round""]",13852,,,275578,,,survey-multi-choice,,65
,,,"[True, True, True, True]",,,,,"[""True or false: The hidden values will change each time I start a new round."",""How much does it cost to observe each hidden value?"",""How many hidden values am I allowed to observe in each round?"",""How is your bonus determined?""]","[""True"",""$1.00"",""As many or as few as I wish"",""5 cents for every $10 I earn in each round""]",43895,,,156539,,,survey-multi-choice,,66
,,,"[True, True, True, True, True]",,,,,"[""True or false: The hidden values will change each time I start a new round."",""How much does it cost to observe each hidden value?"",""How many hidden values am I allowed to observe in each round?"",""How is your bonus determined?"",""What does the feedback teach you?""]","[""True"",""$1.00"",""As many or as few as I wish"",""5 cents for every $10 I earn in each round"",""All of the above.""]",26257,,,189279,,,survey-multi-choice,,67
,,,"[True, False, True, True]",,,,,"[""True or false: The hidden values will change each time I start a new round."",""How much does it cost to observe each hidden value?"",""How many hidden values am I allowed to observe in each round?"",""How is your bonus determined?""]","[""True"",""$0.05"",""As many or as few as I wish"",""5 cents for every $10 I earn in each round""]",31513,,,195075,,,survey-multi-choice,,68
,,,"[True, True, True, True]",,,,,"[""True or false: The hidden values will change each time I start a new round."",""How much does it cost to observe each hidden value?"",""How many hidden values am I allowed to observe in each round?"",""How is your bonus determined?""]","[""True"",""$1.00"",""As many or as few as I wish"",""5 cents for every $10 I earn in each round""]",12777,,,219211,,,survey-multi-choice,,68
,,,"[True, True, True, True]",,,,,"[""True or false: The hidden values will change each time I start a new round."",""How much does it cost to observe each hidden value?"",""How many hidden values am I allowed to observe in each round?"",""How is your bonus determined?""]","[""True"",""$1.00"",""As many or as few as I wish"",""5 cents for every $10 I earn in each round""]",19551,,,133564,,,survey-multi-choice,,69
,,,"[True, True, False, True, True]",,,,,"[""True or false: The hidden values will change each time I start a new round."",""How much does it cost to observe each hidden value?"",""How many hidden values am I allowed to observe in each round?"",""How is your bonus determined?"",""What does the feedback teach you?""]","[""True"",""$1.00"",""At most 5"",""5 cents for every $10 I earn in each round"",""All of the above.""]",99420,,,503905,,,survey-multi-choice,,70
,,,"[True, True, False, True, True]",,,,,"[""True or false: The hidden values will change each time I start a new round."",""How much does it cost to observe each hidden value?"",""How many hidden values am I allowed to observe in each round?"",""How is your bonus determined?"",""What does the feedback teach you?""]","[""True"",""$1.00"",""At most 5"",""5 cents for every $10 I earn in each round"",""All of the above.""]",31809,,,610498,,,survey-multi-choice,,70
,,,"[True, True, True, True, False]",,,,,"[""True or false: The hidden values will change each time I start a new round."",""How much does it cost to observe each hidden value?"",""How many hidden values am I allowed to observe in each round?"",""How is your bonus determined?"",""What does the feedback teach you?""]","[""True"",""$1.00"",""As many or as few as I wish"",""5 cents for every $10 I earn in each round"",""The length of the delay is based on how much more money I could have earned by planning and deciding better.""]",43415,,,807657,,,survey-multi-choice,,70
,,,"[True, True, True, True, True]",,,,,"[""True or false: The hidden values will change each time I start a new round."",""How much does it cost to observe each hidden value?"",""How many hidden values am I allowed to observe in each round?"",""How is your bonus determined?"",""What does the feedback teach you?""]","[""True"",""$1.00"",""As many or as few as I wish"",""5 cents for every $10 I earn in each round"",""All of the above.""]",25818,,,840733,,,survey-multi-choice,,70
,,,"[True, True, True, True, False]",,,,,"[""True or false: The hidden values will change each time I start a new round."",""How much does it cost to observe each hidden value?"",""How many hidden values am I allowed to observe in each round?"",""How is your bonus determined?"",""What does the feedback teach you?""]","[""True"",""$1.00"",""As many or as few as I wish"",""5 cents for every $10 I earn in each round"",""The length of the delay is based on how much more money I could have earned by planning and deciding better.""]",19373,,,77655,,,survey-multi-choice,,71
,,,"[True, True, True, True, True]",,,,,"[""True or false: The hidden values will change each time I start a new round."",""How much does it cost to observe each hidden value?"",""How many hidden values am I allowed to observe in each round?"",""How is your bonus determined?"",""What does the feedback teach you?""]","[""True"",""$1.00"",""As many or as few as I wish"",""5 cents for every $10 I earn in each round"",""All of the above.""]",15945,,,157619,,,survey-multi-choice,,71
,,,"[True, True, True, True, True]",,,,,"[""True or false: The hidden values will change each time I start a new round."",""How much does it cost to observe each hidden value?"",""How many hidden values am I allowed to observe in each round?"",""How is your bonus determined?"",""What does the feedback teach you?""]","[""True"",""$1.00"",""As many or as few as I wish"",""5 cents for every $10 I earn in each round"",""All of the above.""]",25866,,,159451,,,survey-multi-choice,,72
,,,"[True, True, True, True, False]",,,,,"[""True or false: The hidden values will change each time I start a new round."",""How much does it cost to observe each hidden value?"",""How many hidden values am I allowed to observe in each round?"",""How is your bonus determined?"",""What does the feedback teach you?""]","[""True"",""$1.00"",""As many or as few as I wish"",""5 cents for every $10 I earn in each round"",""Whether I chose the move that was best according to the information I had.""]",81885,,,202320,,,survey-multi-choice,,73
,,,"[True, True, True, True, True]",,,,,"[""True or false: The hidden values will change each time I start a new round."",""How much does it cost to observe each hidden value?"",""How many hidden values am I allowed to observe in each round?"",""How is your bonus determined?"",""What does the feedback teach you?""]","[""True"",""$1.00"",""As many or as few as I wish"",""5 cents for every $10 I earn in each round"",""All of the above.""]",504887,,,773784,,,survey-multi-choice,,73
,,,"[True, True, True, True, True]",,,,,"[""True or false: The hidden values will change each time I start a new round."",""How much does it cost to observe each hidden value?"",""How many hidden values am I allowed to observe in each round?"",""How is your bonus determined?"",""What does the feedback teach you?""]","[""True"",""$1.00"",""As many or as few as I wish"",""5 cents for every $10 I earn in each round"",""All of the above.""]",116547,,,460033,,,survey-multi-choice,,74
,,,"[True, True, True, True]",,,,,"[""True or false: The hidden values will change each time I start a new round."",""How much does it cost to observe each hidden value?"",""How many hidden values am I allowed to observe in each round?"",""How is your bonus determined?""]","[""True"",""$1.00"",""As many or as few as I wish"",""5 cents for every $10 I earn in each round""]",18970,,,137382,,,survey-multi-choice,,75
,,,"[True, True, True, True]",,,,,"[""True or false: The hidden values will change each time I start a new round."",""How much does it cost to observe each hidden value?"",""How many hidden values am I allowed to observe in each round?"",""How is your bonus determined?""]","[""True"",""$1.00"",""As many or as few as I wish"",""5 cents for every $10 I earn in each round""]",17773,,,114782,,,survey-multi-choice,,76
,,,"[True, False, True, True]",,,,,"[""True or false: The hidden values will change each time I start a new round."",""How much does it cost to observe each hidden value?"",""How many hidden values am I allowed to observe in each round?"",""How is your bonus determined?""]","[""True"",""$0.01"",""As many or as few as I wish"",""5 cents for every $10 I earn in each round""]",27890,,,229298,,,survey-multi-choice,,77
,,,"[True, True, True, True]",,,,,"[""True or false: The hidden values will change each time I start a new round."",""How much does it cost to observe each hidden value?"",""How many hidden values am I allowed to observe in each round?"",""How is your bonus determined?""]","[""True"",""$1.00"",""As many or as few as I wish"",""5 cents for every $10 I earn in each round""]",11856,,,261790,,,survey-multi-choice,,77
,,,"[True, True, True, True, False]",,,,,"[""True or false: The hidden values will change each time I start a new round."",""How much does it cost to observe each hidden value?"",""How many hidden values am I allowed to observe in each round?"",""How is your bonus determined?"",""What does the feedback teach you?""]","[""True"",""$1.00"",""As many or as few as I wish"",""5 cents for every $10 I earn in each round"",""The length of the delay is based on how much more money I could have earned by planning and deciding better.""]",31479,,,192651,,,survey-multi-choice,,78
,,,"[True, True, True, True, True]",,,,,"[""True or false: The hidden values will change each time I start a new round."",""How much does it cost to observe each hidden value?"",""How many hidden values am I allowed to observe in each round?"",""How is your bonus determined?"",""What does the feedback teach you?""]","[""True"",""$1.00"",""As many or as few as I wish"",""5 cents for every $10 I earn in each round"",""All of the above.""]",18807,,,250037,,,survey-multi-choice,,78
,,,"[True, True, True, True, True]",,,,,"[""True or false: The hidden values will change each time I start a new round."",""How much does it cost to observe each hidden value?"",""How many hidden values am I allowed to observe in each round?"",""How is your bonus determined?"",""What does the feedback teach you?""]","[""True"",""$1.00"",""As many or as few as I wish"",""5 cents for every $10 I earn in each round"",""All of the above.""]",30862,,,219951,,,survey-multi-choice,,79
,,,"[True, False, True, True]",,,,,"[""True or false: The hidden values will change each time I start a new round."",""How much does it cost to observe each hidden value?"",""How many hidden values am I allowed to observe in each round?"",""How is your bonus determined?""]","[""True"",""$0.01"",""As many or as few as I wish"",""5 cents for every $10 I earn in each round""]",17753,,,116960,,,survey-multi-choice,,80
,,,"[True, True, True, True]",,,,,"[""True or false: The hidden values will change each time I start a new round."",""How much does it cost to observe each hidden value?"",""How many hidden values am I allowed to observe in each round?"",""How is your bonus determined?""]","[""True"",""$1.00"",""As many or as few as I wish"",""5 cents for every $10 I earn in each round""]",8520,,,202312,,,survey-multi-choice,,80
,,,"[True, True, True, True]",,,,,"[""True or false: The hidden values will change each time I start a new round."",""How much does it cost to observe each hidden value?"",""How many hidden values am I allowed to observe in each round?"",""How is your bonus determined?""]","[""True"",""$1.00"",""As many or as few as I wish"",""5 cents for every $10 I earn in each round""]",37507,,,358783,,,survey-multi-choice,,81
,,,"[True, True, True, True]",,,,,"[""True or false: The hidden values will change each time I start a new round."",""How much does it cost to observe each hidden value?"",""How many hidden values am I allowed to observe in each round?"",""How is your bonus determined?""]","[""True"",""$1.00"",""As many or as few as I wish"",""5 cents for every $10 I earn in each round""]",7140,,,24779,,,survey-multi-choice,,82
,,,"[True, True, True, True, True]",,,,,"[""True or false: The hidden values will change each time I start a new round."",""How much does it cost to observe each hidden value?"",""How many hidden values am I allowed to observe in each round?"",""How is your bonus determined?"",""What does the feedback teach you?""]","[""True"",""$1.00"",""As many or as few as I wish"",""5 cents for every $10 I earn in each round"",""All of the above.""]",42209,,,113880,,,survey-multi-choice,,83
,,,"[True, True, True, True, False]",,,,,"[""True or false: The hidden values will change each time I start a new round."",""How much does it cost to observe each hidden value?"",""How many hidden values am I allowed to observe in each round?"",""How is your bonus determined?"",""What does the feedback teach you?""]","[""True"",""$1.00"",""As many or as few as I wish"",""5 cents for every $10 I earn in each round"",""The length of the delay is based on how much more money I could have earned by planning and deciding better.""]",51750,,,206289,,,survey-multi-choice,,84
,,,"[True, True, True, True, False]",,,,,"[""True or false: The hidden values will change each time I start a new round."",""How much does it cost to observe each hidden value?"",""How many hidden values am I allowed to observe in each round?"",""How is your bonus determined?"",""What does the feedback teach you?""]","[""True"",""$1.00"",""As many or as few as I wish"",""5 cents for every $10 I earn in each round"",""Whether I chose the move that was best according to the information I had.""]",21977,,,416316,,,survey-multi-choice,,84
,,,"[True, True, True, True, True]",,,,,"[""True or false: The hidden values will change each time I start a new round."",""How much does it cost to observe each hidden value?"",""How many hidden values am I allowed to observe in each round?"",""How is your bonus determined?"",""What does the feedback teach you?""]","[""True"",""$1.00"",""As many or as few as I wish"",""5 cents for every $10 I earn in each round"",""All of the above.""]",9376,,,509751,,,survey-multi-choice,,84
,,,"[True, True, True, True]",,,,,"[""True or false: The hidden values will change each time I start a new round."",""How much does it cost to observe each hidden value?"",""How many hidden values am I allowed to observe in each round?"",""How is your bonus determined?""]","[""True"",""$1.00"",""As many or as few as I wish"",""5 cents for every $10 I earn in each round""]",50645,,,308641,,,survey-multi-choice,,85
,,,"[True, True, True, True, False]",,,,,"[""True or false: The hidden values will change each time I start a new round."",""How much does it cost to observe each hidden value?"",""How many hidden values am I allowed to observe in each round?"",""How is your bonus determined?"",""What does the feedback teach you?""]","[""True"",""$1.00"",""As many or as few as I wish"",""5 cents for every $10 I earn in each round"",""The length of the delay is based on how much more money I could have earned by planning and deciding better.""]",17123,,,135320,,,survey-multi-choice,,86
,,,"[True, True, True, True, False]",,,,,"[""True or false: The hidden values will change each time I start a new round."",""How much does it cost to observe each hidden value?"",""How many hidden values am I allowed to observe in each round?"",""How is your bonus determined?"",""What does the feedback teach you?""]","[""True"",""$1.00"",""As many or as few as I wish"",""5 cents for every $10 I earn in each round"",""Whether I chose the move that was best according to the information I had.""]",21394,,,176792,,,survey-multi-choice,,86
,,,"[True, True, True, True, True]",,,,,"[""True or false: The hidden values will change each time I start a new round."",""How much does it cost to observe each hidden value?"",""How many hidden values am I allowed to observe in each round?"",""How is your bonus determined?"",""What does the feedback teach you?""]","[""True"",""$1.00"",""As many or as few as I wish"",""5 cents for every $10 I earn in each round"",""All of the above.""]",9177,,,191882,,,survey-multi-choice,,86
,,,"[True, True, True, True, True]",,,,,"[""True or false: The hidden values will change each time I start a new round."",""How much does it cost to observe each hidden value?"",""How many hidden values am I allowed to observe in each round?"",""How is your bonus determined?"",""What does the feedback teach you?""]","[""True"",""$1.00"",""As many or as few as I wish"",""5 cents for every $10 I earn in each round"",""All of the above.""]",32527,,,113400,,,survey-multi-choice,,87
,,,"[True, True, True, True, False]",,,,,"[""True or false: The hidden values will change each time I start a new round."",""How much does it cost to observe each hidden value?"",""How many hidden values am I allowed to observe in each round?"",""How is your bonus determined?"",""What does the feedback teach you?""]","[""True"",""$1.00"",""As many or as few as I wish"",""5 cents for every $10 I earn in each round"",""Whether I chose the move that was best according to the information I had.""]",38230,,,272293,,,survey-multi-choice,,88
,,,"[True, True, True, True, False]",,,,,"[""True or false: The hidden values will change each time I start a new round."",""How much does it cost to observe each hidden value?"",""How many hidden values am I allowed to observe in each round?"",""How is your bonus determined?"",""What does the feedback teach you?""]","[""True"",""$1.00"",""As many or as few as I wish"",""5 cents for every $10 I earn in each round"",""The length of the delay is based on how much more money I could have earned by planning and deciding better.""]",27907,,,380105,,,survey-multi-choice,,88
,,,"[True, True, True, True, False]",,,,,"[""True or false: The hidden values will change each time I start a new round."",""How much does it cost to observe each hidden value?"",""How many hidden values am I allowed to observe in each round?"",""How is your bonus determined?"",""What does the feedback teach you?""]","[""True"",""$1.00"",""As many or as few as I wish"",""5 cents for every $10 I earn in each round"",""Whether I observed the rewards of relevant locations.""]",31597,,,494198,,,survey-multi-choice,,88
,,,"[True, True, True, True, True]",,,,,"[""True or false: The hidden values will change each time I start a new round."",""How much does it cost to observe each hidden value?"",""How many hidden values am I allowed to observe in each round?"",""How is your bonus determined?"",""What does the feedback teach you?""]","[""True"",""$1.00"",""As many or as few as I wish"",""5 cents for every $10 I earn in each round"",""All of the above.""]",28339,,,557726,,,survey-multi-choice,,88
,,,"[True, True, True, True, False]",,,,,"[""True or false: The hidden values will change each time I start a new round."",""How much does it cost to observe each hidden value?"",""How many hidden values am I allowed to observe in each round?"",""How is your bonus determined?"",""What does the feedback teach you?""]","[""True"",""$1.00"",""As many or as few as I wish"",""5 cents for every $10 I earn in each round"",""The length of the delay is based on how much more money I could have earned by planning and deciding better.""]",28035,,,153267,,,survey-multi-choice,,89
,,,"[True, True, True, True, True]",,,,,"[""True or false: The hidden values will change each time I start a new round."",""How much does it cost to observe each hidden value?"",""How many hidden values am I allowed to observe in each round?"",""How is your bonus determined?"",""What does the feedback teach you?""]","[""True"",""$1.00"",""As many or as few as I wish"",""5 cents for every $10 I earn in each round"",""All of the above.""]",9167,,,169356,,,survey-multi-choice,,89
,,,"[True, False, True, True, False]",,,,,"[""True or false: The hidden values will change each time I start a new round."",""How much does it cost to observe each hidden value?"",""How many hidden values am I allowed to observe in each round?"",""How is your bonus determined?"",""What does the feedback teach you?""]","[""True"",""$0.05"",""As many or as few as I wish"",""5 cents for every $10 I earn in each round"",""Whether I chose the move that was best according to the information I had.""]",49443,,,195530,,,survey-multi-choice,,90
,,,"[True, True, True, True, False]",,,,,"[""True or false: The hidden values will change each time I start a new round."",""How much does it cost to observe each hidden value?"",""How many hidden values am I allowed to observe in each round?"",""How is your bonus determined?"",""What does the feedback teach you?""]","[""True"",""$1.00"",""As many or as few as I wish"",""5 cents for every $10 I earn in each round"",""The length of the delay is based on how much more money I could have earned by planning and deciding better.""]",30783,,,277236,,,survey-multi-choice,,90
,,,"[True, True, True, True, True]",,,,,"[""True or false: The hidden values will change each time I start a new round."",""How much does it cost to observe each hidden value?"",""How many hidden values am I allowed to observe in each round?"",""How is your bonus determined?"",""What does the feedback teach you?""]","[""True"",""$1.00"",""As many or as few as I wish"",""5 cents for every $10 I earn in each round"",""All of the above.""]",32752,,,350430,,,survey-multi-choice,,90
,,,"[True, True, True, True, True]",,,,,"[""True or false: The hidden values will change each time I start a new round."",""How much does it cost to observe each hidden value?"",""How many hidden values am I allowed to observe in each round?"",""How is your bonus determined?"",""What does the feedback teach you?""]","[""True"",""$1.00"",""As many or as few as I wish"",""5 cents for every $10 I earn in each round"",""All of the above.""]",14527,,,27240,,,survey-multi-choice,,90
,,,"[True, True, False, True, True]",,,,,"[""True or false: The hidden values will change each time I start a new round."",""How much does it cost to observe each hidden value?"",""How many hidden values am I allowed to observe in each round?"",""How is your bonus determined?"",""What does the feedback teach you?""]","[""True"",""$1.00"",""At most 1"",""5 cents for every $10 I earn in each round"",""All of the above.""]",35822,,,352146,,,survey-multi-choice,,91
,,,"[True, True, True, True, True]",,,,,"[""True or false: The hidden values will change each time I start a new round."",""How much does it cost to observe each hidden value?"",""How many hidden values am I allowed to observe in each round?"",""How is your bonus determined?"",""What does the feedback teach you?""]","[""True"",""$1.00"",""As many or as few as I wish"",""5 cents for every $10 I earn in each round"",""All of the above.""]",11972,,,390795,,,survey-multi-choice,,91
,,,"[True, True, True, True, False]",,,,,"[""True or false: The hidden values will change each time I start a new round."",""How much does it cost to observe each hidden value?"",""How many hidden values am I allowed to observe in each round?"",""How is your bonus determined?"",""What does the feedback teach you?""]","[""True"",""$1.00"",""As many or as few as I wish"",""5 cents for every $10 I earn in each round"",""Whether I chose the move that was best according to the information I had.""]",46730,,,636263,,,survey-multi-choice,,92
,,,"[True, True, True, True, True]",,,,,"[""True or false: The hidden values will change each time I start a new round."",""How much does it cost to observe each hidden value?"",""How many hidden values am I allowed to observe in each round?"",""How is your bonus determined?"",""What does the feedback teach you?""]","[""True"",""$1.00"",""As many or as few as I wish"",""5 cents for every $10 I earn in each round"",""All of the above.""]",24026,,,704462,,,survey-multi-choice,,92
,,,"[True, False, False, True, True]",,,,,"[""True or false: The hidden values will change each time I start a new round."",""How much does it cost to observe each hidden value?"",""How many hidden values am I allowed to observe in each round?"",""How is your bonus determined?"",""What does the feedback teach you?""]","[""True"",""$0.05"",""At most 1"",""5 cents for every $10 I earn in each round"",""All of the above.""]",34474,,,160215,,,survey-multi-choice,,93
,,,"[True, True, True, True, True]",,,,,"[""True or false: The hidden values will change each time I start a new round."",""How much does it cost to observe each hidden value?"",""How many hidden values am I allowed to observe in each round?"",""How is your bonus determined?"",""What does the feedback teach you?""]","[""True"",""$1.00"",""As many or as few as I wish"",""5 cents for every $10 I earn in each round"",""All of the above.""]",32410,,,264009,,,survey-multi-choice,,93
,,,"[True, True, True, True]",,,,,"[""True or false: The hidden values will change each time I start a new round."",""How much does it cost to observe each hidden value?"",""How many hidden values am I allowed to observe in each round?"",""How is your bonus determined?""]","[""True"",""$1.00"",""As many or as few as I wish"",""5 cents for every $10 I earn in each round""]",19692,,,118843,,,survey-multi-choice,,94
,,,"[True, True, True, True]",,,,,"[""True or false: The hidden values will change each time I start a new round."",""How much does it cost to observe each hidden value?"",""How many hidden values am I allowed to observe in each round?"",""How is your bonus determined?""]","[""True"",""$1.00"",""As many or as few as I wish"",""5 cents for every $10 I earn in each round""]",14296,,,77305,,,survey-multi-choice,,95
,,,"[True, True, True, True]",,,,,"[""True or false: The hidden values will change each time I start a new round."",""How much does it cost to observe each hidden value?"",""How many hidden values am I allowed to observe in each round?"",""How is your bonus determined?""]","[""True"",""$1.00"",""As many or as few as I wish"",""5 cents for every $10 I earn in each round""]",17083,,,83656,,,survey-multi-choice,,96
,,,"[True, True, True, True]",,,,,"[""True or false: The hidden values will change each time I start a new round."",""How much does it cost to observe each hidden value?"",""How many hidden values am I allowed to observe in each round?"",""How is your bonus determined?""]","[""True"",""$1.00"",""As many or as few as I wish"",""5 cents for every $10 I earn in each round""]",14941,,,121715,,,survey-multi-choice,,97
,,,"[True, True, True, True, True]",,,,,"[""True or false: The hidden values will change each time I start a new round."",""How much does it cost to observe each hidden value?"",""How many hidden values am I allowed to observe in each round?"",""How is your bonus determined?"",""What does the feedback teach you?""]","[""True"",""$1.00"",""As many or as few as I wish"",""5 cents for every $10 I earn in each round"",""All of the above.""]",16582,,,33879,,,survey-multi-choice,,98
,,,"[True, True, True, True, False]",,,,,"[""True or false: The hidden values will change each time I start a new round."",""How much does it cost to observe each hidden value?"",""How many hidden values am I allowed to observe in each round?"",""How is your bonus determined?"",""What does the feedback teach you?""]","[""True"",""$1.00"",""As many or as few as I wish"",""5 cents for every $10 I earn in each round"",""Whether I chose the move that was best according to the information I had.""]",117073,,,415644,,,survey-multi-choice,,99
,,,"[True, True, True, True, True]",,,,,"[""True or false: The hidden values will change each time I start a new round."",""How much does it cost to observe each hidden value?"",""How many hidden values am I allowed to observe in each round?"",""How is your bonus determined?"",""What does the feedback teach you?""]","[""True"",""$1.00"",""As many or as few as I wish"",""5 cents for every $10 I earn in each round"",""All of the above.""]",25032,,,525014,,,survey-multi-choice,,99
,,,"[True, True, True, True, True]",,,,,"[""True or false: The hidden values will change each time I start a new round."",""How much does it cost to observe each hidden value?"",""How many hidden values am I allowed to observe in each round?"",""How is your bonus determined?"",""What does the feedback teach you?""]","[""True"",""$1.00"",""As many or as few as I wish"",""5 cents for every $10 I earn in each round"",""All of the above.""]",27717,,,195116,,,survey-multi-choice,,100
,,,"[True, True, False, True, False]",,,,,"[""True or false: The hidden values will change each time I start a new round."",""How much does it cost to observe each hidden value?"",""How many hidden values am I allowed to observe in each round?"",""How is your bonus determined?"",""What does the feedback teach you?""]","[""True"",""$1.00"",""At most 10"",""5 cents for every $10 I earn in each round"",""Whether I chose the move that was best according to the information I had.""]",30829,,,144178,,,survey-multi-choice,,101
,,,"[True, True, False, True, False]",,,,,"[""True or false: The hidden values will change each time I start a new round."",""How much does it cost to observe each hidden value?"",""How many hidden values am I allowed to observe in each round?"",""How is your bonus determined?"",""What does the feedback teach you?""]","[""True"",""$1.00"",""At most 1"",""5 cents for every $10 I earn in each round"",""Whether I chose the move that was best according to the information I had.""]",18756,,,206482,,,survey-multi-choice,,101
,,,"[True, True, False, True, True]",,,,,"[""True or false: The hidden values will change each time I start a new round."",""How much does it cost to observe each hidden value?"",""How many hidden values am I allowed to observe in each round?"",""How is your bonus determined?"",""What does the feedback teach you?""]","[""True"",""$1.00"",""At most 1"",""5 cents for every $10 I earn in each round"",""All of the above.""]",16207,,,258522,,,survey-multi-choice,,101
,,,"[True, True, True, True, True]",,,,,"[""True or false: The hidden values will change each time I start a new round."",""How much does it cost to observe each hidden value?"",""How many hidden values am I allowed to observe in each round?"",""How is your bonus determined?"",""What does the feedback teach you?""]","[""True"",""$1.00"",""As many or as few as I wish"",""5 cents for every $10 I earn in each round"",""All of the above.""]",12536,,,287601,,,survey-multi-choice,,101
,,,"[True, False, False, True]",,,,,"[""True or false: The hidden values will change each time I start a new round."",""How much does it cost to observe each hidden value?"",""How many hidden values am I allowed to observe in each round?"",""How is your bonus determined?""]","[""True"",""$0.05"",""At most 1"",""5 cents for every $10 I earn in each round""]",57958,,,385388,,,survey-multi-choice,,102
,,,"[True, True, False, True]",,,,,"[""True or false: The hidden values will change each time I start a new round."",""How much does it cost to observe each hidden value?"",""How many hidden values am I allowed to observe in each round?"",""How is your bonus determined?""]","[""True"",""$1.00"",""At most 1"",""5 cents for every $10 I earn in each round""]",12143,,,426676,,,survey-multi-choice,,102
,,,"[True, True, True, True]",,,,,"[""True or false: The hidden values will change each time I start a new round."",""How much does it cost to observe each hidden value?"",""How many hidden values am I allowed to observe in each round?"",""How is your bonus determined?""]","[""True"",""$1.00"",""As many or as few as I wish"",""5 cents for every $10 I earn in each round""]",14168,,,512953,,,survey-multi-choice,,102
,,,"[True, False, True, True, True]",,,,,"[""True or false: The hidden values will change each time I start a new round."",""How much does it cost to observe each hidden value?"",""How many hidden values am I allowed to observe in each round?"",""How is your bonus determined?"",""What does the feedback teach you?""]","[""True"",""$0.05"",""As many or as few as I wish"",""5 cents for every $10 I earn in each round"",""All of the above.""]",27415,,,117021,,,survey-multi-choice,,103
,,,"[True, True, True, True, True]",,,,,"[""True or false: The hidden values will change each time I start a new round."",""How much does it cost to observe each hidden value?"",""How many hidden values am I allowed to observe in each round?"",""How is your bonus determined?"",""What does the feedback teach you?""]","[""True"",""$1.00"",""As many or as few as I wish"",""5 cents for every $10 I earn in each round"",""All of the above.""]",8924,,,160511,,,survey-multi-choice,,103
,,,"[True, True, True, True, True]",,,,,"[""True or false: The hidden values will change each time I start a new round."",""How much does it cost to observe each hidden value?"",""How many hidden values am I allowed to observe in each round?"",""How is your bonus determined?"",""What does the feedback teach you?""]","[""True"",""$1.00"",""As many or as few as I wish"",""5 cents for every $10 I earn in each round"",""All of the above.""]",19062,,,115378,,,survey-multi-choice,,104
,,,"[True, True, True, True, True]",,,,,"[""True or false: The hidden values will change each time I start a new round."",""How much does it cost to observe each hidden value?"",""How many hidden values am I allowed to observe in each round?"",""How is your bonus determined?"",""What does the feedback teach you?""]","[""True"",""$1.00"",""As many or as few as I wish"",""5 cents for every $10 I earn in each round"",""All of the above.""]",21196,,,133992,,,survey-multi-choice,,105
,,,"[True, True, True, True]",,,,,"[""True or false: The hidden values will change each time I start a new round."",""How much does it cost to observe each hidden value?"",""How many hidden values am I allowed to observe in each round?"",""How is your bonus determined?""]","[""True"",""$1.00"",""As many or as few as I wish"",""5 cents for every $10 I earn in each round""]",9915,,,64140,,,survey-multi-choice,,106
,,,"[True, True, True, True]",,,,,"[""True or false: The hidden values will change each time I start a new round."",""How much does it cost to observe each hidden value?"",""How many hidden values am I allowed to observe in each round?"",""How is your bonus determined?""]","[""True"",""$1.00"",""As many or as few as I wish"",""5 cents for every $10 I earn in each round""]",67420,,,290119,,,survey-multi-choice,,107
,,,"[True, True, True, True]",,,,,"[""True or false: The hidden values will change each time I start a new round."",""How much does it cost to observe each hidden value?"",""How many hidden values am I allowed to observe in each round?"",""How is your bonus determined?""]","[""True"",""$1.00"",""As many or as few as I wish"",""5 cents for every $10 I earn in each round""]",13083,,,86192,,,survey-multi-choice,,108
,,,"[True, True, True, True, True]",,,,,"[""True or false: The hidden values will change each time I start a new round."",""How much does it cost to observe each hidden value?"",""How many hidden values am I allowed to observe in each round?"",""How is your bonus determined?"",""What does the feedback teach you?""]","[""True"",""$1.00"",""As many or as few as I wish"",""5 cents for every $10 I earn in each round"",""All of the above.""]",21860,,,127018,,,survey-multi-choice,,109
,,,"[True, True, False, True]",,,,,"[""True or false: The hidden values will change each time I start a new round."",""How much does it cost to observe each hidden value?"",""How many hidden values am I allowed to observe in each round?"",""How is your bonus determined?""]","[""True"",""$1.00"",""At most 5"",""5 cents for every $10 I earn in each round""]",25400,,,145592,,,survey-multi-choice,,110
,,,"[True, True, False, True]",,,,,"[""True or false: The hidden values will change each time I start a new round."",""How much does it cost to observe each hidden value?"",""How many hidden values am I allowed to observe in each round?"",""How is your bonus determined?""]","[""True"",""$1.00"",""At most 1"",""5 cents for every $10 I earn in each round""]",18352,,,214378,,,survey-multi-choice,,110
,,,"[True, True, True, True]",,,,,"[""True or false: The hidden values will change each time I start a new round."",""How much does it cost to observe each hidden value?"",""How many hidden values am I allowed to observe in each round?"",""How is your bonus determined?""]","[""True"",""$1.00"",""As many or as few as I wish"",""5 cents for every $10 I earn in each round""]",8905,,,245237,,,survey-multi-choice,,110
,,,"[True, True, True, True, False]",,,,,"[""True or false: The hidden values will change each time I start a new round."",""How much does it cost to observe each hidden value?"",""How many hidden values am I allowed to observe in each round?"",""How is your bonus determined?"",""What does the feedback teach you?""]","[""True"",""$1.00"",""As many or as few as I wish"",""5 cents for every $10 I earn in each round"",""Whether I chose the move that was best according to the information I had.""]",37494,,,243067,,,survey-multi-choice,,111
,,,"[True, True, True, True, True]",,,,,"[""True or false: The hidden values will change each time I start a new round."",""How much does it cost to observe each hidden value?"",""How many hidden values am I allowed to observe in each round?"",""How is your bonus determined?"",""What does the feedback teach you?""]","[""True"",""$1.00"",""As many or as few as I wish"",""5 cents for every $10 I earn in each round"",""All of the above.""]",13388,,,273260,,,survey-multi-choice,,111
,,,"[True, False, True, True, False]",,,,,"[""True or false: The hidden values will change each time I start a new round."",""How much does it cost to observe each hidden value?"",""How many hidden values am I allowed to observe in each round?"",""How is your bonus determined?"",""What does the feedback teach you?""]","[""True"",""$0.05"",""As many or as few as I wish"",""5 cents for every $10 I earn in each round"",""The length of the delay is based on how much more money I could have earned by planning and deciding better.""]",40564,,,168212,,,survey-multi-choice,,112
,,,"[True, True, True, True, False]",,,,,"[""True or false: The hidden values will change each time I start a new round."",""How much does it cost to observe each hidden value?"",""How many hidden values am I allowed to observe in each round?"",""How is your bonus determined?"",""What does the feedback teach you?""]","[""True"",""$1.00"",""As many or as few as I wish"",""5 cents for every $10 I earn in each round"",""The length of the delay is based on how much more money I could have earned by planning and deciding better.""]",9807,,,211085,,,survey-multi-choice,,112
,,,"[True, True, True, True, True]",,,,,"[""True or false: The hidden values will change each time I start a new round."",""How much does it cost to observe each hidden value?"",""How many hidden values am I allowed to observe in each round?"",""How is your bonus determined?"",""What does the feedback teach you?""]","[""True"",""$1.00"",""As many or as few as I wish"",""5 cents for every $10 I earn in each round"",""All of the above.""]",32191,,,305671,,,survey-multi-choice,,112
,,,"[True, False, False, True, True]",,,,,"[""True or false: The hidden values will change each time I start a new round."",""How much does it cost to observe each hidden value?"",""How many hidden values am I allowed to observe in each round?"",""How is your bonus determined?"",""What does the feedback teach you?""]","[""True"",""$0.05"",""At most 5"",""5 cents for every $10 I earn in each round"",""All of the above.""]",74904,,,248935,,,survey-multi-choice,,113
,,,"[True, True, True, True, True]",,,,,"[""True or false: The hidden values will change each time I start a new round."",""How much does it cost to observe each hidden value?"",""How many hidden values am I allowed to observe in each round?"",""How is your bonus determined?"",""What does the feedback teach you?""]","[""True"",""$1.00"",""As many or as few as I wish"",""5 cents for every $10 I earn in each round"",""All of the above.""]",44856,,,675037,,,survey-multi-choice,,113
,,,"[True, True, True, True]",,,,,"[""True or false: The hidden values will change each time I start a new round."",""How much does it cost to observe each hidden value?"",""How many hidden values am I allowed to observe in each round?"",""How is your bonus determined?""]","[""True"",""$1.00"",""As many or as few as I wish"",""5 cents for every $10 I earn in each round""]",14837,,,147672,,,survey-multi-choice,,114
,,,"[True, True, True, True]",,,,,"[""True or false: The hidden values will change each time I start a new round."",""How much does it cost to observe each hidden value?"",""How many hidden values am I allowed to observe in each round?"",""How is your bonus determined?""]","[""True"",""$1.00"",""As many or as few as I wish"",""5 cents for every $10 I earn in each round""]",36045,,,259509,,,survey-multi-choice,,115
,,,"[True, True, True, True]",,,,,"[""True or false: The hidden values will change each time I start a new round."",""How much does it cost to observe each hidden value?"",""How many hidden values am I allowed to observe in each round?"",""How is your bonus determined?""]","[""True"",""$1.00"",""As many or as few as I wish"",""5 cents for every $10 I earn in each round""]",16163,,,277782,,,survey-multi-choice,,116
,,,"[True, True, True, True, True]",,,,,"[""True or false: The hidden values will change each time I start a new round."",""How much does it cost to observe each hidden value?"",""How many hidden values am I allowed to observe in each round?"",""How is your bonus determined?"",""What does the feedback teach you?""]","[""True"",""$1.00"",""As many or as few as I wish"",""5 cents for every $10 I earn in each round"",""All of the above.""]",42266,,,234059,,,survey-multi-choice,,117
,,,"[True, True, True, True, True]",,,,,"[""True or false: The hidden values will change each time I start a new round."",""How much does it cost to observe each hidden value?"",""How many hidden values am I allowed to observe in each round?"",""How is your bonus determined?"",""What does the feedback teach you?""]","[""True"",""$1.00"",""As many or as few as I wish"",""5 cents for every $10 I earn in each round"",""All of the above.""]",51283,,,305400,,,survey-multi-choice,,118
,,,"[True, True, True, True, True]",,,,,"[""True or false: The hidden values will change each time I start a new round."",""How much does it cost to observe each hidden value?"",""How many hidden values am I allowed to observe in each round?"",""How is your bonus determined?"",""What does the feedback teach you?""]","[""True"",""$1.00"",""As many or as few as I wish"",""5 cents for every $10 I earn in each round"",""All of the above.""]",14681,,,60718,,,survey-multi-choice,,119
,,,"[False, True, False, True, False]",,,,,"[""True or false: The hidden values will change each time I start a new round."",""How much does it cost to observe each hidden value?"",""How many hidden values am I allowed to observe in each round?"",""How is your bonus determined?"",""What does the feedback teach you?""]","[""False"",""$1.00"",""At most 1"",""5 cents for every $10 I earn in each round"",""Whether I chose the move that was best according to the information I had.""]",82435,,,210797,,,survey-multi-choice,,120
,,,"[False, True, True, True, False]",,,,,"[""True or false: The hidden values will change each time I start a new round."",""How much does it cost to observe each hidden value?"",""How many hidden values am I allowed to observe in each round?"",""How is your bonus determined?"",""What does the feedback teach you?""]","[""False"",""$1.00"",""As many or as few as I wish"",""5 cents for every $10 I earn in each round"",""The length of the delay is based on how much more money I could have earned by planning and deciding better.""]",201031,,,527452,,,survey-multi-choice,,120
,,,"[True, True, False, True, False]",,,,,"[""True or false: The hidden values will change each time I start a new round."",""How much does it cost to observe each hidden value?"",""How many hidden values am I allowed to observe in each round?"",""How is your bonus determined?"",""What does the feedback teach you?""]","[""True"",""$1.00"",""At most 1"",""5 cents for every $10 I earn in each round"",""The length of the delay is based on how much more money I could have earned by planning and deciding better.""]",19502,,,554429,,,survey-multi-choice,,120
,,,"[True, True, False, True, False]",,,,,"[""True or false: The hidden values will change each time I start a new round."",""How much does it cost to observe each hidden value?"",""How many hidden values am I allowed to observe in each round?"",""How is your bonus determined?"",""What does the feedback teach you?""]","[""True"",""$1.00"",""At most 1"",""5 cents for every $10 I earn in each round"",""The length of the delay is based on how much more money I could have earned by planning and deciding better.""]",58013,,,632517,,,survey-multi-choice,,120
,,,"[True, True, True, True, False]",,,,,"[""True or false: The hidden values will change each time I start a new round."",""How much does it cost to observe each hidden value?"",""How many hidden values am I allowed to observe in each round?"",""How is your bonus determined?"",""What does the feedback teach you?""]","[""True"",""$1.00"",""As many or as few as I wish"",""5 cents for every $10 I earn in each round"",""The length of the delay is based on how much more money I could have earned by planning and deciding better.""]",66163,,,712323,,,survey-multi-choice,,120
,,,"[True, True, True, True, True]",,,,,"[""True or false: The hidden values will change each time I start a new round."",""How much does it cost to observe each hidden value?"",""How many hidden values am I allowed to observe in each round?"",""How is your bonus determined?"",""What does the feedback teach you?""]","[""True"",""$1.00"",""As many or as few as I wish"",""5 cents for every $10 I earn in each round"",""All of the above.""]",17087,,,732990,,,survey-multi-choice,,120
,,,"[True, True, True, True]",,,,,"[""True or false: The hidden values will change each time I start a new round."",""How much does it cost to observe each hidden value?"",""How many hidden values am I allowed to observe in each round?"",""How is your bonus determined?""]","[""True"",""$1.00"",""As many or as few as I wish"",""5 cents for every $10 I earn in each round""]",15091,,,107396,,,survey-multi-choice,,121
,,,"[True, True, True, True, True]",,,,,"[""True or false: The hidden values will change each time I start a new round."",""How much does it cost to observe each hidden value?"",""How many hidden values am I allowed to observe in each round?"",""How is your bonus determined?"",""What does the feedback teach you?""]","[""True"",""$1.00"",""As many or as few as I wish"",""5 cents for every $10 I earn in each round"",""All of the above.""]",36592,,,219592,,,survey-multi-choice,,122
,,,"[True, False, True, True, False]",,,,,"[""True or false: The hidden values will change each time I start a new round."",""How much does it cost to observe each hidden value?"",""How many hidden values am I allowed to observe in each round?"",""How is your bonus determined?"",""What does the feedback teach you?""]","[""True"",""$0.05"",""As many or as few as I wish"",""5 cents for every $10 I earn in each round"",""Whether I chose the move that was best according to the information I had.""]",29233,,,89442,,,survey-multi-choice,,123
,,,"[True, True, True, True, False]",,,,,"[""True or false: The hidden values will change each time I start a new round."",""How much does it cost to observe each hidden value?"",""How many hidden values am I allowed to observe in each round?"",""How is your bonus determined?"",""What does the feedback teach you?""]","[""True"",""$1.00"",""As many or as few as I wish"",""5 cents for every $10 I earn in each round"",""Whether I observed the rewards of relevant locations.""]",24263,,,193697,,,survey-multi-choice,,123
,,,"[True, True, True, True, False]",,,,,"[""True or false: The hidden values will change each time I start a new round."",""How much does it cost to observe each hidden value?"",""How many hidden values am I allowed to observe in each round?"",""How is your bonus determined?"",""What does the feedback teach you?""]","[""True"",""$1.00"",""As many or as few as I wish"",""5 cents for every $10 I earn in each round"",""Whether I chose the move that was best according to the information I had.""]",14274,,,216393,,,survey-multi-choice,,123
