action_times,actions,block,button_pressed,key_press,path,queries,responses,rewards,rt,score,simulation_mode,stimulus,time_elapsed,trial_index,trial_type,pid
"[4341, 5103, 5762]","[u'down', u'down', u'right']",train_basic,,,"[0, 4, 8, 16]","{u'mouseover': {u'state': {u'target': [], u'time': []}, u'edge': {u'target': [], u'time': []}}, u'click': {u'state': {u'target': [], u'time': []}, u'edge': {u'target': [], u'time': []}}, u'mouseout': {u'state': {u'target': [], u'time': []}, u'edge': {u'target': [], u'time': []}}}",,"[-8, 8, 24]","[4337, 261, 141]",24.0,"[None, None, None]",,7699,0.0,mouselab-mdp,0
"[5787, 6358, 7388]","[u'up', u'up', u'right']",train_basic,,,"[0, 2, 6, 12]","{u'mouseover': {u'state': {u'target': [], u'time': []}, u'edge': {u'target': [], u'time': []}}, u'click': {u'state': {u'target': [], u'time': []}, u'edge': {u'target': [], u'time': []}}, u'mouseout': {u'state': {u'target': [], u'time': []}, u'edge': {u'target': [], u'time': []}}}",,"[24, -8, 24]","[5784, 50, 505]",40.0,"[None, None, None]",,17089,1.0,mouselab-mdp,0
"[1961, 2586, 3192]","[u'down', u'down', u'right']",train_basic,,,"[0, 4, 8, 16]","{u'mouseover': {u'state': {u'target': [], u'time': []}, u'edge': {u'target': [], u'time': []}}, u'click': {u'state': {u'target': [], u'time': []}, u'edge': {u'target': [], u'time': []}}, u'mouseout': {u'state': {u'target': [], u'time': []}, u'edge': {u'target': [], u'time': []}}}",,"[24, 8, 24]","[1957, 116, 109]",56.0,"[None, None, None]",,22725,2.0,mouselab-mdp,0
"[6706, 7337, 7942]","[u'right', u'right', u'up']",train_basic,,,"[0, 1, 5, 9]","{u'mouseover': {u'state': {u'target': [], u'time': []}, u'edge': {u'target': [], u'time': []}}, u'click': {u'state': {u'target': [], u'time': []}, u'edge': {u'target': [], u'time': []}}, u'mouseout': {u'state': {u'target': [], u'time': []}, u'edge': {u'target': [], u'time': []}}}",,"[24, -24, 40]","[6703, 132, 80]",40.0,"[None, None, None]",,32632,3.0,mouselab-mdp,0
"[1376, 1933, 2488]","[u'up', u'up', u'right']",train_basic,,,"[0, 2, 6, 12]","{u'mouseover': {u'state': {u'target': [], u'time': []}, u'edge': {u'target': [], u'time': []}}, u'click': {u'state': {u'target': [], u'time': []}, u'edge': {u'target': [], u'time': []}}, u'mouseout': {u'state': {u'target': [], u'time': []}, u'edge': {u'target': [], u'time': []}}}",,"[8, 8, 40]","[1372, 43, 45]",56.0,"[None, None, None]",,37100,4.0,mouselab-mdp,0
"[3810, 4441, 5030]","[u'left', u'left', u'down']",train_basic,,,"[0, 3, 7, 14]","{u'mouseover': {u'state': {u'target': [], u'time': []}, u'edge': {u'target': [], u'time': []}}, u'click': {u'state': {u'target': [], u'time': []}, u'edge': {u'target': [], u'time': []}}, u'mouseout': {u'state': {u'target': [], u'time': []}, u'edge': {u'target': [], u'time': []}}}",,"[-24, 24, 8]","[3807, 120, 77]",8.0,"[None, None, None]",,44109,5.0,mouselab-mdp,0
"[3839, 4472, 5064]","[u'down', u'down', u'right']",train_basic,,,"[0, 4, 8, 16]","{u'mouseover': {u'state': {u'target': [], u'time': []}, u'edge': {u'target': [], u'time': []}}, u'click': {u'state': {u'target': [], u'time': []}, u'edge': {u'target': [], u'time': []}}, u'mouseout': {u'state': {u'target': [], u'time': []}, u'edge': {u'target': [], u'time': []}}}",,"[8, -8, 24]","[3836, 107, 63]",24.0,"[None, None, None]",,51194,6.0,mouselab-mdp,0
"[2147, 2704, 3338]","[u'up', u'up', u'right']",train_basic,,,"[0, 2, 6, 12]","{u'mouseover': {u'state': {u'target': [], u'time': []}, u'edge': {u'target': [], u'time': []}}, u'click': {u'state': {u'target': [], u'time': []}, u'edge': {u'target': [], u'time': []}}, u'mouseout': {u'state': {u'target': [], u'time': []}, u'edge': {u'target': [], u'time': []}}}",,"[-8, 24, 24]","[2145, 32, 116]",40.0,"[None, None, None]",,56662,7.0,mouselab-mdp,0
"[2005, 2553, 3165]","[u'up', u'up', u'left']",train_basic,,,"[0, 2, 6, 11]","{u'mouseover': {u'state': {u'target': [], u'time': []}, u'edge': {u'target': [], u'time': []}}, u'click': {u'state': {u'target': [], u'time': []}, u'edge': {u'target': [], u'time': []}}, u'mouseout': {u'state': {u'target': [], u'time': []}, u'edge': {u'target': [], u'time': []}}}",,"[24, 24, 8]","[2002, 30, 93]",56.0,"[None, None, None]",,62781,8.0,mouselab-mdp,0
"[2627, 3284, 3911]","[u'up', u'up', u'right']",train_basic,,,"[0, 2, 6, 12]","{u'mouseover': {u'state': {u'target': [], u'time': []}, u'edge': {u'target': [], u'time': []}}, u'click': {u'state': {u'target': [], u'time': []}, u'edge': {u'target': [], u'time': []}}, u'mouseout': {u'state': {u'target': [], u'time': []}, u'edge': {u'target': [], u'time': []}}}",,"[8, 24, 8]","[2624, 136, 98]",40.0,"[None, None, None]",,68720,9.0,mouselab-mdp,0
"[1704, 2541, 3331]","[u'right', u'right', u'up']",train_hidden,,,"[0, 1, 5, 9]","{u'mouseover': {u'state': {u'target': [], u'time': []}, u'edge': {u'target': [], u'time': []}}, u'click': {u'state': {u'target': [], u'time': []}, u'edge': {u'target': [], u'time': []}}, u'mouseout': {u'state': {u'target': [], u'time': []}, u'edge': {u'target': [], u'time': []}}}",,"[8, 8, -8]","[1701, 316, 269]",8.0,"[None, None, None]",,75902,10.0,mouselab-mdp,0
"[304, 924, 1988]","[u'up', u'up', u'left']",train_hidden,,,"[0, 2, 6, 11]","{u'mouseover': {u'state': {u'target': [], u'time': []}, u'edge': {u'target': [], u'time': []}}, u'click': {u'state': {u'target': [], u'time': []}, u'edge': {u'target': [], u'time': []}}, u'mouseout': {u'state': {u'target': [], u'time': []}, u'edge': {u'target': [], u'time': []}}}",,"[24, -8, 8]","[301, 104, 564]",24.0,"[None, None, None]",,79981,11.0,mouselab-mdp,0
"[258, 942, 1809]","[u'left', u'left', u'up']",train_hidden,,,"[0, 3, 7, 13]","{u'mouseover': {u'state': {u'target': [], u'time': []}, u'edge': {u'target': [], u'time': []}}, u'click': {u'state': {u'target': [], u'time': []}, u'edge': {u'target': [], u'time': []}}, u'mouseout': {u'state': {u'target': [], u'time': []}, u'edge': {u'target': [], u'time': []}}}",,"[24, 8, -8]","[256, 168, 344]",24.0,"[None, None, None]",,83754,12.0,mouselab-mdp,0
"[360, 1023, 1729]","[u'down', u'down', u'left']",train_hidden,,,"[0, 4, 8, 15]","{u'mouseover': {u'state': {u'target': [], u'time': []}, u'edge': {u'target': [], u'time': []}}, u'click': {u'state': {u'target': [], u'time': []}, u'edge': {u'target': [], u'time': []}}, u'mouseout': {u'state': {u'target': [], u'time': []}, u'edge': {u'target': [], u'time': []}}}",,"[8, 8, -24]","[358, 138, 179]",-8.0,"[None, None, None]",,87472,13.0,mouselab-mdp,0
"[338, 1000, 1696]","[u'right', u'right', u'up']",train_hidden,,,"[0, 1, 5, 9]","{u'mouseover': {u'state': {u'target': [], u'time': []}, u'edge': {u'target': [], u'time': []}}, u'click': {u'state': {u'target': [], u'time': []}, u'edge': {u'target': [], u'time': []}}, u'mouseout': {u'state': {u'target': [], u'time': []}, u'edge': {u'target': [], u'time': []}}}",,"[8, -24, 24]","[333, 151, 195]",8.0,"[None, None, None]",,91148,14.0,mouselab-mdp,0
"[6570, 7275, 8106]","[u'up', u'up', u'right']",train_inspector,,,"[0, 2, 6, 12]","{u'mouseover': {u'state': {u'target': [], u'time': []}, u'edge': {u'target': [], u'time': []}}, u'click': {u'state': {u'target': [u'3', u'2', u'1'], u'time': [2353, 3095, 4442]}, u'edge': {u'target': [], u'time': []}}, u'mouseout': {u'state': {u'target': [], u'time': []}, u'edge': {u'target': [], u'time': []}}}",,"[8, 8, -8]","[6565, 179, 308]",8.0,"[None, None, None]",,104133,15.0,mouselab-mdp,0
"[5126, 5789, 7508]","[u'up', u'up', u'left']",train_inspector,,,"[0, 2, 6, 11]","{u'mouseover': {u'state': {u'target': [], u'time': []}, u'edge': {u'target': [], u'time': []}}, u'click': {u'state': {u'target': [u'2', u'4', u'1'], u'time': [570, 1919, 2882]}, u'edge': {u'target': [], u'time': []}}, u'mouseout': {u'state': {u'target': [], u'time': []}, u'edge': {u'target': [], u'time': []}}}",,"[8, -8, 8]","[5122, 152, 1206]",8.0,"[None, None, None]",,114660,16.0,mouselab-mdp,0
"[3416, 4075, 4711]","[u'down', u'down', u'right']",train_inspector,,,"[0, 4, 8, 16]","{u'mouseover': {u'state': {u'target': [], u'time': []}, u'edge': {u'target': [], u'time': []}}, u'click': {u'state': {u'target': [u'1', u'4', u'3'], u'time': [540, 1265, 1922]}, u'edge': {u'target': [], u'time': []}}, u'mouseout': {u'state': {u'target': [], u'time': []}, u'edge': {u'target': [], u'time': []}}}",,"[8, 8, -24]","[3413, 130, 125]",-8.0,"[None, None, None]",,121956,17.0,mouselab-mdp,0
"[5181, 5838, 7645]","[u'left', u'left', u'down']",train_inspector,,,"[0, 3, 7, 14]","{u'mouseover': {u'state': {u'target': [], u'time': []}, u'edge': {u'target': [], u'time': []}}, u'click': {u'state': {u'target': [u'2', u'3', u'1'], u'time': [1764, 2604, 3499]}, u'edge': {u'target': [], u'time': []}}, u'mouseout': {u'state': {u'target': [], u'time': []}, u'edge': {u'target': [], u'time': []}}}",,"[24, 24, 8]","[5178, 137, 1278]",56.0,"[None, None, None]",,132768,18.0,mouselab-mdp,0
"[3364, 4065, 4858]","[u'down', u'down', u'left']",train_inspector,,,"[0, 4, 8, 15]","{u'mouseover': {u'state': {u'target': [], u'time': []}, u'edge': {u'target': [], u'time': []}}, u'click': {u'state': {u'target': [u'1', u'4', u'3'], u'time': [898, 1474, 2116]}, u'edge': {u'target': [], u'time': []}}, u'mouseout': {u'state': {u'target': [], u'time': []}, u'edge': {u'target': [], u'time': []}}}",,"[40, 8, 24]","[3360, 164, 290]",72.0,"[None, None, None]",,140259,19.0,mouselab-mdp,0
"[18190, 18928, 19604]","[u'down', u'down', u'left']",train_inspect_cost,,,"[0, 4, 8, 15]","{u'mouseover': {u'state': {u'target': [], u'time': []}, u'edge': {u'target': [], u'time': []}}, u'click': {u'state': {u'target': [u'1', u'4', u'3', u'2', u'6', u'5', u'8', u'7'], u'time': [5345, 6236, 7000, 7640, 8395, 9936, 11073, 11842]}, u'edge': {u'target': [], u'time': []}}, u'mouseout': {u'state': {u'target': [], u'time': []}, u'edge': {u'target': [], u'time': []}}}",,"[-8, 24, 40]","[18188, 218, 163]",48.0,"[None, None, None]",,165661,20.0,mouselab-mdp,0
"[18556, 19159, 19938]","[u'up', u'up', u'left']",train_inspect_cost,,,"[0, 2, 6, 11]","{u'mouseover': {u'state': {u'target': [], u'time': []}, u'edge': {u'target': [], u'time': []}}, u'click': {u'state': {u'target': [u'1', u'3', u'2', u'4', u'8', u'16', u'15', u'5', u'6', u'7', u'10', u'12', u'11'], u'time': [2913, 3574, 4240, 4821, 5705, 6502, 7544, 10423, 11925, 12854, 15110, 15854, 16650]}, u'edge': {u'target': [], u'time': []}}, u'mouseout': {u'state': {u'target': [], u'time': []}, u'edge': {u'target': [], u'time': []}}}",,"[-8, 8, 40]","[18552, 82, 248]",27.0,"[None, None, None]",,188617,21.0,mouselab-mdp,0
"[18728, 19303, 20237]","[u'right', u'right', u'down']",train_inspect_cost,,,"[0, 1, 5, 10]","{u'mouseover': {u'state': {u'target': [], u'time': []}, u'edge': {u'target': [], u'time': []}}, u'click': {u'state': {u'target': [u'1', u'2', u'3', u'4', u'5', u'9', u'10', u'6', u'8', u'7', u'13', u'16', u'15', u'14', u'12'], u'time': [1101, 1732, 4040, 4653, 6755, 7492, 8083, 8863, 10047, 10844, 11599, 13171, 13963, 14757, 16627]}, u'edge': {u'target': [], u'time': []}}, u'mouseout': {u'state': {u'target': [], u'time': []}, u'edge': {u'target': [], u'time': []}}}",,"[8, -8, 8]","[18723, 60, 424]",-7.0,"[None, None, None]",,211184,22.0,mouselab-mdp,0
"[11973, 12628, 13213]","[u'down', u'down', u'left']",train_inspect_cost,,,"[0, 4, 8, 15]","{u'mouseover': {u'state': {u'target': [], u'time': []}, u'edge': {u'target': [], u'time': []}}, u'click': {u'state': {u'target': [u'1', u'3', u'4', u'2', u'7', u'13', u'14', u'8', u'15', u'16'], u'time': [1654, 2867, 3457, 4171, 5421, 5987, 6594, 7859, 8538, 9188]}, u'edge': {u'target': [], u'time': []}}, u'mouseout': {u'state': {u'target': [], u'time': []}, u'edge': {u'target': [], u'time': []}}}",,"[24, -8, 40]","[11970, 134, 67]",46.0,"[None, None, None]",,226668,23.0,mouselab-mdp,0
"[11313, 11879, 13928]","[u'right', u'right', u'up']",train_inspect_cost,,,"[0, 1, 5, 9]","{u'mouseover': {u'state': {u'target': [], u'time': []}, u'edge': {u'target': [], u'time': []}}, u'click': {u'state': {u'target': [u'2', u'6', u'1', u'5', u'4', u'8', u'3', u'7', u'10', u'9'], u'time': [1184, 1724, 3860, 4919, 5687, 6230, 6880, 7393, 8901, 9812]}, u'edge': {u'target': [], u'time': []}}, u'mouseout': {u'state': {u'target': [], u'time': []}, u'edge': {u'target': [], u'time': []}}}",,"[8, -8, 24]","[11310, 46, 1523]",14.0,"[None, None, None]",,243262,24.0,mouselab-mdp,0
"[14525, 15191, 16604]","[u'left', u'left', u'up']",train_final,,,"[0, 3, 7, 13]","{u'mouseover': {u'state': {u'target': [], u'time': []}, u'edge': {u'target': [], u'time': []}}, u'click': {u'state': {u'target': [u'2', u'1', u'4', u'3', u'7', u'13'], u'time': [7645, 9400, 10112, 11424, 12274, 12849]}, u'edge': {u'target': [], u'time': []}}, u'mouseout': {u'state': {u'target': [], u'time': []}, u'edge': {u'target': [], u'time': []}}}",,"[24, 8, 40]","[14521, 142, 896]",66.0,"[None, None, None]",,265726,25.0,mouselab-mdp,0
"[17899, 18605, 19311]","[u'down', u'down', u'right']",train_final,,,"[0, 4, 8, 16]","{u'mouseover': {u'state': {u'target': [], u'time': []}, u'edge': {u'target': [], u'time': []}}, u'click': {u'state': {u'target': [u'2', u'1', u'4', u'3', u'7', u'5', u'8', u'16', u'15', u'12', u'6', u'11', u'9', u'10', u'14'], u'time': [3439, 4071, 4743, 5327, 6231, 7685, 8425, 10166, 10820, 11663, 12175, 12892, 13719, 14263, 16039]}, u'edge': {u'target': [], u'time': []}}, u'mouseout': {u'state': {u'target': [], u'time': []}, u'edge': {u'target': [], u'time': []}}}",,"[-8, 8, 8]","[17896, 212, 183]",-7.0,"[None, None, None]",,287562,26.0,mouselab-mdp,0
"[43942, 44485, 45932]","[u'right', u'right', u'up']",train_final,,,"[0, 1, 5, 9]","{u'mouseover': {u'state': {u'target': [], u'time': []}, u'edge': {u'target': [], u'time': []}}, u'click': {u'state': {u'target': [u'1', u'5', u'9'], u'time': [1526, 40511, 42369]}, u'edge': {u'target': [], u'time': []}}, u'mouseout': {u'state': {u'target': [], u'time': []}, u'edge': {u'target': [], u'time': []}}}",,"[24, 40, 40]","[43939, 26, 945]",101.0,"[None, None, None]",,336773,27.0,mouselab-mdp,0
"[8421, 8994, 10082]","[u'up', u'up', u'right']",train_final,,,"[0, 2, 6, 12]","{u'mouseover': {u'state': {u'target': [], u'time': []}, u'edge': {u'target': [], u'time': []}}, u'click': {u'state': {u'target': [u'1', u'2', u'3', u'6', u'12', u'11'], u'time': [2464, 3079, 3638, 4360, 4917, 5557]}, u'edge': {u'target': [], u'time': []}}, u'mouseout': {u'state': {u'target': [], u'time': []}, u'edge': {u'target': [], u'time': []}}}",,"[24, -8, 24]","[8415, 62, 576]",34.0,"[None, None, None]",,349571,28.0,mouselab-mdp,0
"[8530, 9132, 9833]","[u'up', u'up', u'right']",train_final,,,"[0, 2, 6, 12]","{u'mouseover': {u'state': {u'target': [], u'time': []}, u'edge': {u'target': [], u'time': []}}, u'click': {u'state': {u'target': [u'2', u'1', u'3', u'4', u'7', u'6', u'12'], u'time': [1081, 1753, 2913, 3384, 5132, 5839, 7058]}, u'edge': {u'target': [], u'time': []}}, u'mouseout': {u'state': {u'target': [], u'time': []}, u'edge': {u'target': [], u'time': []}}}",,"[8, -8, 24]","[8526, 75, 186]",17.0,"[None, None, None]",,361824,29.0,mouselab-mdp,0
"[11935, 12568, 13288]","[u'down', u'down', u'left']",test,,,"[0, 4, 8, 15]","{u'mouseover': {u'state': {u'target': [], u'time': []}, u'edge': {u'target': [], u'time': []}}, u'click': {u'state': {u'target': [u'1', u'2', u'3', u'4', u'8', u'6', u'12', u'11', u'16', u'15'], u'time': [3657, 4409, 4994, 5570, 6469, 7154, 7708, 8217, 8860, 9371]}, u'edge': {u'target': [], u'time': []}}, u'mouseout': {u'state': {u'target': [], u'time': []}, u'edge': {u'target': [], u'time': []}}}",,"[-8, 8, 8]","[11931, 133, 206]",-2.0,"[None, None, None]",,379907,30.0,mouselab-mdp,0
"[7442, 8031, 8768]","[u'up', u'up', u'right']",test,,,"[0, 2, 6, 12]","{u'mouseover': {u'state': {u'target': [], u'time': []}, u'edge': {u'target': [], u'time': []}}, u'click': {u'state': {u'target': [u'1', u'2', u'3', u'4', u'6', u'11', u'12'], u'time': [781, 1378, 2787, 3229, 3848, 5611, 6180]}, u'edge': {u'target': [], u'time': []}}, u'mouseout': {u'state': {u'target': [], u'time': []}, u'edge': {u'target': [], u'time': []}}}",,"[8, 24, 24]","[7439, 60, 214]",49.0,"[None, None, None]",,391013,31.0,mouselab-mdp,0
"[10218, 10837, 11541]","[u'right', u'right', u'down']",test,,,"[0, 1, 5, 10]","{u'mouseover': {u'state': {u'target': [], u'time': []}, u'edge': {u'target': [], u'time': []}}, u'click': {u'state': {u'target': [u'2', u'1', u'3', u'5', u'9', u'10', u'7'], u'time': [880, 1536, 2149, 3850, 4399, 4959, 8650]}, u'edge': {u'target': [], u'time': []}}, u'mouseout': {u'state': {u'target': [], u'time': []}, u'edge': {u'target': [], u'time': []}}}",,"[40, -24, 24]","[10215, 91, 164]",33.0,"[None, None, None]",,404663,32.0,mouselab-mdp,0
"[13814, 14459, 15230]","[u'left', u'left', u'down']",test,,,"[0, 3, 7, 14]","{u'mouseover': {u'state': {u'target': [], u'time': []}, u'edge': {u'target': [], u'time': []}}, u'click': {u'state': {u'target': [u'1', u'5', u'2', u'3', u'4', u'7', u'14', u'13', u'6', u'8'], u'time': [903, 2133, 2821, 3961, 4553, 5276, 6647, 7245, 8352, 9277]}, u'edge': {u'target': [], u'time': []}}, u'mouseout': {u'state': {u'target': [], u'time': []}, u'edge': {u'target': [], u'time': []}}}",,"[40, -8, 8]","[13807, 115, 254]",30.0,"[None, None, None]",,423198,33.0,mouselab-mdp,0
"[8063, 8769, 10449]","[u'left', u'left', u'up']",test,,,"[0, 3, 7, 13]","{u'mouseover': {u'state': {u'target': [], u'time': []}, u'edge': {u'target': [], u'time': []}}, u'click': {u'state': {u'target': [u'1', u'4', u'3', u'2', u'7', u'14', u'13'], u'time': [2699, 3400, 3961, 4536, 5536, 6087, 6726]}, u'edge': {u'target': [], u'time': []}}, u'mouseout': {u'state': {u'target': [], u'time': []}, u'edge': {u'target': [], u'time': []}}}",,"[40, 8, 24]","[8057, 186, 1165]",65.0,"[None, None, None]",,436176,34.0,mouselab-mdp,0
"[7356, 8034, 8682]","[u'up', u'up', u'right']",test,,,"[0, 2, 6, 12]","{u'mouseover': {u'state': {u'target': [], u'time': []}, u'edge': {u'target': [], u'time': []}}, u'click': {u'state': {u'target': [u'1', u'2', u'3', u'4', u'6', u'5', u'8', u'11', u'12'], u'time': [918, 1388, 1867, 2323, 3121, 3801, 4489, 5183, 5850]}, u'edge': {u'target': [], u'time': []}}, u'mouseout': {u'state': {u'target': [], u'time': []}, u'edge': {u'target': [], u'time': []}}}",,"[8, 24, 8]","[7353, 145, 113]",31.0,"[None, None, None]",,447484,35.0,mouselab-mdp,0
"[10142, 10802, 11487]","[u'left', u'left', u'up']",test,,,"[0, 3, 7, 13]","{u'mouseover': {u'state': {u'target': [], u'time': []}, u'edge': {u'target': [], u'time': []}}, u'click': {u'state': {u'target': [u'2', u'1', u'4', u'3', u'7', u'14', u'13'], u'time': [2837, 3762, 4290, 4794, 6651, 7658, 8330]}, u'edge': {u'target': [], u'time': []}}, u'mouseout': {u'state': {u'target': [], u'time': []}, u'edge': {u'target': [], u'time': []}}}",,"[24, -24, 24]","[10139, 139, 166]",17.0,"[None, None, None]",,461326,36.0,mouselab-mdp,0
"[6149, 6782, 7305]","[u'down', u'down', u'right']",test,,,"[0, 4, 8, 16]","{u'mouseover': {u'state': {u'target': [], u'time': []}, u'edge': {u'target': [], u'time': []}}, u'click': {u'state': {u'target': [u'1', u'2', u'3', u'4', u'8', u'16', u'15'], u'time': [820, 1309, 1798, 2287, 3144, 4263, 5016]}, u'edge': {u'target': [], u'time': []}}, u'mouseout': {u'state': {u'target': [], u'time': []}, u'edge': {u'target': [], u'time': []}}}",,"[40, 8, 8]","[6144, 108, 2]",49.0,"[None, None, None]",,471482,37.0,mouselab-mdp,0
"[12449, 13086, 13761]","[u'down', u'down', u'right']",test,,,"[0, 4, 8, 16]","{u'mouseover': {u'state': {u'target': [], u'time': []}, u'edge': {u'target': [], u'time': []}}, u'click': {u'state': {u'target': [u'4', u'1', u'2', u'3', u'6', u'12', u'11', u'5', u'10', u'7', u'14', u'8', u'16'], u'time': [1339, 1941, 2458, 3034, 3654, 4230, 4787, 6756, 7183, 8286, 8724, 9890, 10987]}, u'edge': {u'target': [], u'time': []}}, u'mouseout': {u'state': {u'target': [], u'time': []}, u'edge': {u'target': [], u'time': []}}}",,"[-8, -8, 40]","[12446, 101, 159]",11.0,"[None, None, None]",,487212,38.0,mouselab-mdp,0
"[11710, 12414, 13090]","[u'down', u'down', u'left']",test,,,"[0, 4, 8, 15]","{u'mouseover': {u'state': {u'target': [], u'time': []}, u'edge': {u'target': [], u'time': []}}, u'click': {u'state': {u'target': [u'1', u'4', u'3', u'2', u'6', u'7', u'8', u'16', u'15', u'11', u'12'], u'time': [971, 1425, 1912, 2393, 4034, 4800, 6778, 7361, 7913, 8745, 9833]}, u'edge': {u'target': [], u'time': []}}, u'mouseout': {u'state': {u'target': [], u'time': []}, u'edge': {u'target': [], u'time': []}}}",,"[8, 8, 8]","[11708, 185, 150]",13.0,"[None, None, None]",,502127,39.0,mouselab-mdp,0
"[9014, 9629, 10277]","[u'left', u'left', u'up']",test,,,"[0, 3, 7, 13]","{u'mouseover': {u'state': {u'target': [], u'time': []}, u'edge': {u'target': [], u'time': []}}, u'click': {u'state': {u'target': [u'1', u'2', u'3', u'4', u'7', u'14', u'13'], u'time': [718, 1264, 1788, 2266, 3185, 3664, 4169]}, u'edge': {u'target': [], u'time': []}}, u'mouseout': {u'state': {u'target': [], u'time': []}, u'edge': {u'target': [], u'time': []}}}",,"[8, -8, 24]","[9011, 117, 144]",17.0,"[None, None, None]",,514735,40.0,mouselab-mdp,0
"[6876, 7543, 8230]","[u'down', u'down', u'right']",test,,,"[0, 4, 8, 16]","{u'mouseover': {u'state': {u'target': [], u'time': []}, u'edge': {u'target': [], u'time': []}}, u'click': {u'state': {u'target': [u'1', u'2', u'3', u'4', u'8', u'16', u'15'], u'time': [943, 2508, 3076, 3660, 4336, 4883, 5408]}, u'edge': {u'target': [], u'time': []}}, u'mouseout': {u'state': {u'target': [], u'time': []}, u'edge': {u'target': [], u'time': []}}}",,"[24, -8, 8]","[6873, 154, 170]",17.0,"[None, None, None]",,525007,41.0,mouselab-mdp,0
"[4666, 5276, 5946]","[u'left', u'left', u'down']",test,,,"[0, 3, 7, 14]","{u'mouseover': {u'state': {u'target': [], u'time': []}, u'edge': {u'target': [], u'time': []}}, u'click': {u'state': {u'target': [u'1', u'2', u'3', u'4', u'7', u'14', u'13'], u'time': [569, 986, 1429, 1945, 2509, 2978, 3463]}, u'edge': {u'target': [], u'time': []}}, u'mouseout': {u'state': {u'target': [], u'time': []}, u'edge': {u'target': [], u'time': []}}}",,"[24, 8, 24]","[4663, 93, 151]",49.0,"[None, None, None]",,532944,42.0,mouselab-mdp,0
"[12463, 13107, 16829]","[u'right', u'right', u'up']",test,,,"[0, 1, 5, 9]","{u'mouseover': {u'state': {u'target': [], u'time': []}, u'edge': {u'target': [], u'time': []}}, u'click': {u'state': {u'target': [u'1', u'2', u'3', u'4', u'5', u'8', u'7', u'9', u'10', u'6'], u'time': [668, 2205, 2652, 3194, 3756, 4413, 6297, 7717, 8245, 10254]}, u'edge': {u'target': [], u'time': []}}, u'mouseout': {u'state': {u'target': [], u'time': []}, u'edge': {u'target': [], u'time': []}}}",,"[8, -8, 8]","[12461, 116, 3219]",-2.0,"[None, None, None]",,552438,43.0,mouselab-mdp,0
"[7783, 8377, 9000]","[u'left', u'left', u'down']",test,,,"[0, 3, 7, 14]","{u'mouseover': {u'state': {u'target': [], u'time': []}, u'edge': {u'target': [], u'time': []}}, u'click': {u'state': {u'target': [u'1', u'4', u'3', u'2', u'5', u'7', u'13', u'14'], u'time': [892, 1391, 1891, 2342, 3883, 5052, 5820, 6293]}, u'edge': {u'target': [], u'time': []}}, u'mouseout': {u'state': {u'target': [], u'time': []}, u'edge': {u'target': [], u'time': []}}}",,"[8, 8, 24]","[7775, 71, 110]",32.0,"[None, None, None]",,564157,44.0,mouselab-mdp,0
"[10730, 11316, 11841]","[u'right', u'right', u'up']",test,,,"[0, 1, 5, 9]","{u'mouseover': {u'state': {u'target': [], u'time': []}, u'edge': {u'target': [], u'time': []}}, u'click': {u'state': {u'target': [u'1', u'2', u'3', u'4', u'5', u'10', u'9'], u'time': [4900, 5397, 6015, 6552, 7396, 8249, 8835]}, u'edge': {u'target': [], u'time': []}}, u'mouseout': {u'state': {u'target': [], u'time': []}, u'edge': {u'target': [], u'time': []}}}",,"[8, 40, 40]","[10727, 65, 4]",81.0,"[None, None, None]",,580091,45.0,mouselab-mdp,0
"[8518, 10092, 10834]","[u'up', u'up', u'left']",test,,,"[0, 2, 6, 11]","{u'mouseover': {u'state': {u'target': [], u'time': []}, u'edge': {u'target': [], u'time': []}}, u'click': {u'state': {u'target': [u'1', u'4', u'3', u'2', u'6', u'7', u'8'], u'time': [2959, 3393, 4234, 4754, 5220, 6531, 7036]}, u'edge': {u'target': [], u'time': []}}, u'mouseout': {u'state': {u'target': [], u'time': []}, u'edge': {u'target': [], u'time': []}}}",,"[8, 24, -8]","[8514, 1055, 215]",17.0,"[None, None, None]",,593415,46.0,mouselab-mdp,0
"[5720, 6429, 7136]","[u'down', u'down', u'left']",test,,,"[0, 4, 8, 15]","{u'mouseover': {u'state': {u'target': [], u'time': []}, u'edge': {u'target': [], u'time': []}}, u'click': {u'state': {u'target': [u'1', u'4', u'3', u'2', u'8', u'15', u'16'], u'time': [934, 1455, 2174, 2670, 3505, 4013, 4507]}, u'edge': {u'target': [], u'time': []}}, u'mouseout': {u'state': {u'target': [], u'time': []}, u'edge': {u'target': [], u'time': []}}}",,"[8, -8, 8]","[5716, 190, 186]",1.0,"[None, None, None]",,602579,47.0,mouselab-mdp,0
"[7563, 8161, 8727]","[u'right', u'right', u'down']",test,,,"[0, 1, 5, 10]","{u'mouseover': {u'state': {u'target': [], u'time': []}, u'edge': {u'target': [], u'time': []}}, u'click': {u'state': {u'target': [u'1', u'2', u'3', u'4', u'5', u'10', u'9'], u'time': [1185, 1967, 3459, 4007, 5191, 5552, 6104]}, u'edge': {u'target': [], u'time': []}}, u'mouseout': {u'state': {u'target': [], u'time': []}, u'edge': {u'target': [], u'time': []}}}",,"[24, -8, 24]","[7560, 75, 42]",33.0,"[None, None, None]",,613543,48.0,mouselab-mdp,0
"[9120, 9795, 10551]","[u'down', u'down', u'left']",test,,,"[0, 4, 8, 15]","{u'mouseover': {u'state': {u'target': [], u'time': []}, u'edge': {u'target': [], u'time': []}}, u'click': {u'state': {u'target': [u'4', u'1', u'2', u'3', u'8', u'5', u'9', u'10', u'16', u'15'], u'time': [1230, 1732, 2259, 3131, 3835, 5003, 5656, 6276, 7467, 8067]}, u'edge': {u'target': [], u'time': []}}, u'mouseout': {u'state': {u'target': [], u'time': []}, u'edge': {u'target': [], u'time': []}}}",,"[24, 8, 8]","[9116, 153, 217]",30.0,"[None, None, None]",,626193,49.0,mouselab-mdp,0
"[2697, 3685, 7900]","[u'right', u'right', u'up']",train_basic,,,"[0, 1, 5, 9]","{u'mouseover': {u'state': {u'target': [], u'time': []}, u'edge': {u'target': [], u'time': []}}, u'click': {u'state': {u'target': [], u'time': []}, u'edge': {u'target': [], u'time': []}}, u'mouseout': {u'state': {u'target': [], u'time': []}, u'edge': {u'target': [], u'time': []}}}",,"[8, -8, 40]","[2691, 466, 1199]",40.0,"[None, None, None]",,13521,0.0,mouselab-mdp,1
"[2903, 3767, 4764]","[u'left', u'left', u'up']",train_basic,,,"[0, 3, 7, 13]","{u'mouseover': {u'state': {u'target': [], u'time': []}, u'edge': {u'target': [], u'time': []}}, u'click': {u'state': {u'target': [], u'time': []}, u'edge': {u'target': [], u'time': []}}, u'mouseout': {u'state': {u'target': [], u'time': []}, u'edge': {u'target': [], u'time': []}}}",,"[-8, 40, 8]","[2897, 311, 420]",40.0,"[None, None, None]",,21377,1.0,mouselab-mdp,1
"[2305, 3959, 4812]","[u'left', u'left', u'up']",train_basic,,,"[0, 3, 7, 13]","{u'mouseover': {u'state': {u'target': [], u'time': []}, u'edge': {u'target': [], u'time': []}}, u'click': {u'state': {u'target': [], u'time': []}, u'edge': {u'target': [], u'time': []}}, u'mouseout': {u'state': {u'target': [], u'time': []}, u'edge': {u'target': [], u'time': []}}}",,"[24, 24, -8]","[2279, 1121, 295]",40.0,"[None, None, None]",,28640,2.0,mouselab-mdp,1
"[1252, 1840, 2534]","[u'down', u'down', u'right']",train_basic,,,"[0, 4, 8, 16]","{u'mouseover': {u'state': {u'target': [], u'time': []}, u'edge': {u'target': [], u'time': []}}, u'click': {u'state': {u'target': [], u'time': []}, u'edge': {u'target': [], u'time': []}}, u'mouseout': {u'state': {u'target': [], u'time': []}, u'edge': {u'target': [], u'time': []}}}",,"[-24, 8, 24]","[1248, 38, 172]",8.0,"[None, None, None]",,35190,3.0,mouselab-mdp,1
"[1044, 1649, 2203]","[u'right', u'right', u'up']",train_basic,,,"[0, 1, 5, 9]","{u'mouseover': {u'state': {u'target': [], u'time': []}, u'edge': {u'target': [], u'time': []}}, u'click': {u'state': {u'target': [], u'time': []}, u'edge': {u'target': [], u'time': []}}, u'mouseout': {u'state': {u'target': [], u'time': []}, u'edge': {u'target': [], u'time': []}}}",,"[24, 40, 40]","[1038, 79, 13]",104.0,"[None, None, None]",,40449,4.0,mouselab-mdp,1
"[920, 2480, 3040]","[u'right', u'right', u'up']",train_basic,,,"[0, 1, 5, 9]","{u'mouseover': {u'state': {u'target': [], u'time': []}, u'edge': {u'target': [], u'time': []}}, u'click': {u'state': {u'target': [], u'time': []}, u'edge': {u'target': [], u'time': []}}, u'mouseout': {u'state': {u'target': [], u'time': []}, u'edge': {u'target': [], u'time': []}}}",,"[40, 8, 24]","[916, 1042, 32]",72.0,"[None, None, None]",,45796,5.0,mouselab-mdp,1
"[1791, 2343, 3115]","[u'down', u'down', u'right']",train_basic,,,"[0, 4, 8, 16]","{u'mouseover': {u'state': {u'target': [], u'time': []}, u'edge': {u'target': [], u'time': []}}, u'click': {u'state': {u'target': [], u'time': []}, u'edge': {u'target': [], u'time': []}}, u'mouseout': {u'state': {u'target': [], u'time': []}, u'edge': {u'target': [], u'time': []}}}",,"[-8, 24, 8]","[1788, 22, 230]",24.0,"[None, None, None]",,51018,6.0,mouselab-mdp,1
"[3157, 3710, 4507]","[u'up', u'up', u'left']",train_basic,,,"[0, 2, 6, 11]","{u'mouseover': {u'state': {u'target': [], u'time': []}, u'edge': {u'target': [], u'time': []}}, u'click': {u'state': {u'target': [], u'time': []}, u'edge': {u'target': [], u'time': []}}, u'mouseout': {u'state': {u'target': [], u'time': []}, u'edge': {u'target': [], u'time': []}}}",,"[-24, -8, 24]","[3152, 6, 196]",-8.0,"[None, None, None]",,57576,7.0,mouselab-mdp,1
"[1326, 1884, 3905]","[u'down', u'down', u'right']",train_basic,,,"[0, 4, 8, 16]","{u'mouseover': {u'state': {u'target': [], u'time': []}, u'edge': {u'target': [], u'time': []}}, u'click': {u'state': {u'target': [], u'time': []}, u'edge': {u'target': [], u'time': []}}, u'mouseout': {u'state': {u'target': [], u'time': []}, u'edge': {u'target': [], u'time': []}}}",,"[24, 24, 8]","[1318, 40, 1461]",56.0,"[None, None, None]",,63729,8.0,mouselab-mdp,1
"[865, 2249, 2970]","[u'left', u'left', u'down']",train_basic,,,"[0, 3, 7, 14]","{u'mouseover': {u'state': {u'target': [], u'time': []}, u'edge': {u'target': [], u'time': []}}, u'click': {u'state': {u'target': [], u'time': []}, u'edge': {u'target': [], u'time': []}}, u'mouseout': {u'state': {u'target': [], u'time': []}, u'edge': {u'target': [], u'time': []}}}",,"[24, 8, 8]","[860, 865, 174]",40.0,"[None, None, None]",,68762,9.0,mouselab-mdp,1
"[1743, 3005, 3770]","[u'down', u'down', u'left']",train_hidden,,,"[0, 4, 8, 15]","{u'mouseover': {u'state': {u'target': [], u'time': []}, u'edge': {u'target': [], u'time': []}}, u'click': {u'state': {u'target': [], u'time': []}, u'edge': {u'target': [], u'time': []}}, u'mouseout': {u'state': {u'target': [], u'time': []}, u'edge': {u'target': [], u'time': []}}}",,"[-24, -24, -8]","[1736, 635, 233]",-56.0,"[None, None, None]",,79400,10.0,mouselab-mdp,1
"[7966, 9028, 10635]","[u'right', u'right', u'down']",train_hidden,,,"[0, 1, 5, 10]","{u'mouseover': {u'state': {u'target': [], u'time': []}, u'edge': {u'target': [], u'time': []}}, u'click': {u'state': {u'target': [], u'time': []}, u'edge': {u'target': [], u'time': []}}, u'mouseout': {u'state': {u'target': [], u'time': []}, u'edge': {u'target': [], u'time': []}}}",,"[8, 24, -40]","[7942, 515, 1087]",-8.0,"[None, None, None]",,92901,11.0,mouselab-mdp,1
"[522, 1214, 2029]","[u'up', u'up', u'right']",train_hidden,,,"[0, 2, 6, 12]","{u'mouseover': {u'state': {u'target': [], u'time': []}, u'edge': {u'target': [], u'time': []}}, u'click': {u'state': {u'target': [], u'time': []}, u'edge': {u'target': [], u'time': []}}, u'mouseout': {u'state': {u'target': [], u'time': []}, u'edge': {u'target': [], u'time': []}}}",,"[-8, 8, -8]","[512, 162, 280]",-8.0,"[None, None, None]",,97828,12.0,mouselab-mdp,1
"[733, 1475, 2209]","[u'down', u'down', u'left']",train_hidden,,,"[0, 4, 8, 15]","{u'mouseover': {u'state': {u'target': [], u'time': []}, u'edge': {u'target': [], u'time': []}}, u'click': {u'state': {u'target': [], u'time': []}, u'edge': {u'target': [], u'time': []}}, u'mouseout': {u'state': {u'target': [], u'time': []}, u'edge': {u'target': [], u'time': []}}}",,"[-24, -8, 8]","[729, 206, 214]",-24.0,"[None, None, None]",,102024,13.0,mouselab-mdp,1
"[480, 1162, 1827]","[u'left', u'left', u'down']",train_hidden,,,"[0, 3, 7, 14]","{u'mouseover': {u'state': {u'target': [], u'time': []}, u'edge': {u'target': [], u'time': []}}, u'click': {u'state': {u'target': [], u'time': []}, u'edge': {u'target': [], u'time': []}}, u'mouseout': {u'state': {u'target': [], u'time': []}, u'edge': {u'target': [], u'time': []}}}",,"[-8, 8, -8]","[476, 160, 135]",-8.0,"[None, None, None]",,105835,14.0,mouselab-mdp,1
"[8748, 9664, 10346]","[u'left', u'left', u'down']",train_inspector,,,"[0, 3, 7, 14]","{u'mouseover': {u'state': {u'target': [], u'time': []}, u'edge': {u'target': [], u'time': []}}, u'click': {u'state': {u'target': [u'7', u'13', u'14'], u'time': [4793, 5981, 7071]}, u'edge': {u'target': [], u'time': []}}, u'mouseout': {u'state': {u'target': [], u'time': []}, u'edge': {u'target': [], u'time': []}}}",,"[-40, 8, 24]","[8742, 389, 138]",-8.0,"[None, None, None]",,120708,15.0,mouselab-mdp,1
"[8398, 9484, 10119]","[u'right', u'right', u'down']",train_inspector,,,"[0, 1, 5, 10]","{u'mouseover': {u'state': {u'target': [], u'time': []}, u'edge': {u'target': [], u'time': []}}, u'click': {u'state': {u'target': [u'8', u'4', u'15'], u'time': [1725, 2534, 3532]}, u'edge': {u'target': [], u'time': []}}, u'mouseout': {u'state': {u'target': [], u'time': []}, u'edge': {u'target': [], u'time': []}}}",,"[-40, -8, 8]","[8393, 574, 119]",-40.0,"[None, None, None]",,133382,16.0,mouselab-mdp,1
"[5266, 6228, 7213]","[u'right', u'right', u'up']",train_inspector,,,"[0, 1, 5, 9]","{u'mouseover': {u'state': {u'target': [], u'time': []}, u'edge': {u'target': [], u'time': []}}, u'click': {u'state': {u'target': [u'2', u'6', u'12', u'11'], u'time': [2121, 2641, 3134, 3696]}, u'edge': {u'target': [], u'time': []}}, u'mouseout': {u'state': {u'target': [], u'time': []}, u'edge': {u'target': [], u'time': []}}}",,"[24, 8, -8]","[5261, 441, 467]",24.0,"[None, None, None]",,143077,17.0,mouselab-mdp,1
"[7169, 7834, 8469]","[u'up', u'up', u'right']",train_inspector,,,"[0, 2, 6, 12]","{u'mouseover': {u'state': {u'target': [], u'time': []}, u'edge': {u'target': [], u'time': []}}, u'click': {u'state': {u'target': [u'1', u'5', u'8'], u'time': [2021, 3856, 5192]}, u'edge': {u'target': [], u'time': []}}, u'mouseout': {u'state': {u'target': [], u'time': []}, u'edge': {u'target': [], u'time': []}}}",,"[-8, -8, -8]","[7165, 135, 108]",-24.0,"[None, None, None]",,153831,18.0,mouselab-mdp,1
"[10624, 11351, 11952]","[u'down', u'down', u'left']",train_inspector,,,"[0, 4, 8, 15]","{u'mouseover': {u'state': {u'target': [], u'time': []}, u'edge': {u'target': [], u'time': []}}, u'click': {u'state': {u'target': [u'5', u'12', u'6'], u'time': [6556, 8813, 8883]}, u'edge': {u'target': [], u'time': []}}, u'mouseout': {u'state': {u'target': [], u'time': []}, u'edge': {u'target': [], u'time': []}}}",,"[8, -8, 40]","[10613, 154, 56]",40.0,"[None, None, None]",,168608,19.0,mouselab-mdp,1
"[18411, 18998, 19543]","[u'left', u'left', u'up']",train_inspect_cost,,,"[0, 3, 7, 13]","{u'mouseover': {u'state': {u'target': [], u'time': []}, u'edge': {u'target': [], u'time': []}}, u'click': {u'state': {u'target': [u'1', u'8', u'15', u'16', u'4', u'5', u'10', u'9', u'13', u'7', u'14'], u'time': [9812, 11291, 11908, 12500, 13238, 14011, 14487, 15294, 16345, 16701, 17044]}, u'edge': {u'target': [], u'time': []}}, u'mouseout': {u'state': {u'target': [], u'time': []}, u'edge': {u'target': [], u'time': []}}}",,"[-24, -24, 24]","[18405, 67, 28]",-35.0,"[None, None, None]",,193349,20.0,mouselab-mdp,1
"[3341, 3915, 4519]","[u'up', u'up', u'left']",train_inspect_cost,,,"[0, 2, 6, 11]","{u'mouseover': {u'state': {u'target': [], u'time': []}, u'edge': {u'target': [], u'time': []}}, u'click': {u'state': {u'target': [u'12', u'11'], u'time': [713, 1248]}, u'edge': {u'target': [], u'time': []}}, u'mouseout': {u'state': {u'target': [], u'time': []}, u'edge': {u'target': [], u'time': []}}}",,"[24, -8, 24]","[3332, 51, 51]",38.0,"[None, None, None]",,200442,21.0,mouselab-mdp,1
"[7276, 7896, 8490]","[u'down', u'down', u'right']",train_inspect_cost,,,"[0, 4, 8, 16]","{u'mouseover': {u'state': {u'target': [], u'time': []}, u'edge': {u'target': [], u'time': []}}, u'click': {u'state': {u'target': [u'6', u'12', u'11', u'8', u'15', u'16'], u'time': [1807, 2887, 3825, 4631, 5252, 6114]}, u'edge': {u'target': [], u'time': []}}, u'mouseout': {u'state': {u'target': [], u'time': []}, u'edge': {u'target': [], u'time': []}}}",,"[8, 40, 8]","[7272, 35, 75]",50.0,"[None, None, None]",,211258,22.0,mouselab-mdp,1
"[6376, 6984, 8100]","[u'right', u'right', u'down']",train_inspect_cost,,,"[0, 1, 5, 10]","{u'mouseover': {u'state': {u'target': [], u'time': []}, u'edge': {u'target': [], u'time': []}}, u'click': {u'state': {u'target': [u'5', u'10'], u'time': [2414, 3125]}, u'edge': {u'target': [], u'time': []}}, u'mouseout': {u'state': {u'target': [], u'time': []}, u'edge': {u'target': [], u'time': []}}}",,"[-8, 8, 24]","[6373, 79, 582]",22.0,"[None, None, None]",,222292,23.0,mouselab-mdp,1
"[8173, 8732, 9597]","[u'right', u'right', u'down']",train_inspect_cost,,,"[0, 1, 5, 10]","{u'mouseover': {u'state': {u'target': [], u'time': []}, u'edge': {u'target': [], u'time': []}}, u'click': {u'state': {u'target': [u'13', u'7', u'14', u'8', u'15', u'10', u'9'], u'time': [1127, 1740, 2184, 4405, 4732, 6624, 7321]}, u'edge': {u'target': [], u'time': []}}, u'mouseout': {u'state': {u'target': [], u'time': []}, u'edge': {u'target': [], u'time': []}}}",,"[-8, -8, 24]","[8169, 43, 313]",1.0,"[None, None, None]",,234533,24.0,mouselab-mdp,1
"[18106, 18766, 19309]","[u'left', u'left', u'down']",train_final,,,"[0, 3, 7, 14]","{u'mouseover': {u'state': {u'target': [], u'time': []}, u'edge': {u'target': [], u'time': []}}, u'click': {u'state': {u'target': [u'7', u'14'], u'time': [16970, 17322]}, u'edge': {u'target': [], u'time': []}}, u'mouseout': {u'state': {u'target': [], u'time': []}, u'edge': {u'target': [], u'time': []}}}",,"[8, 8, 8]","[18100, 139, 21]",22.0,"[None, None, None]",,258671,25.0,mouselab-mdp,1
"[9586, 10459, 11009]","[u'right', u'right', u'up']",train_final,,,"[0, 1, 5, 9]","{u'mouseover': {u'state': {u'target': [], u'time': []}, u'edge': {u'target': [], u'time': []}}, u'click': {u'state': {u'target': [u'10', u'15', u'16', u'12', u'11', u'13', u'14', u'9'], u'time': [991, 1992, 2568, 3741, 4111, 5146, 6992, 8519]}, u'edge': {u'target': [], u'time': []}}, u'mouseout': {u'state': {u'target': [], u'time': []}, u'edge': {u'target': [], u'time': []}}}",,"[-8, 8, 8]","[9580, 370, 8]",0.0,"[None, None, None]",,272622,26.0,mouselab-mdp,1
"[5074, 5618, 6907]","[u'up', u'up', u'right']",train_final,,,"[0, 2, 6, 12]","{u'mouseover': {u'state': {u'target': [], u'time': []}, u'edge': {u'target': [], u'time': []}}, u'click': {u'state': {u'target': [u'9', u'10', u'15', u'16', u'12', u'11'], u'time': [742, 1314, 2014, 3014, 3658, 4330]}, u'edge': {u'target': [], u'time': []}}, u'mouseout': {u'state': {u'target': [], u'time': []}, u'edge': {u'target': [], u'time': []}}}",,"[24, 24, 24]","[5066, 28, 744]",66.0,"[None, None, None]",,281825,27.0,mouselab-mdp,1
"[2858, 3707, 4280]","[u'left', u'left', u'down']",train_final,,,"[0, 3, 7, 14]","{u'mouseover': {u'state': {u'target': [], u'time': []}, u'edge': {u'target': [], u'time': []}}, u'click': {u'state': {u'target': [u'13', u'14'], u'time': [1157, 1733]}, u'edge': {u'target': [], u'time': []}}, u'mouseout': {u'state': {u'target': [], u'time': []}, u'edge': {u'target': [], u'time': []}}}",,"[8, -8, 24]","[2855, 323, 53]",22.0,"[None, None, None]",,288465,28.0,mouselab-mdp,1
"[4232, 5278, 5804]","[u'right', u'right', u'up']",train_final,,,"[0, 1, 5, 9]","{u'mouseover': {u'state': {u'target': [], u'time': []}, u'edge': {u'target': [], u'time': []}}, u'click': {u'state': {u'target': [u'14', u'10', u'9'], u'time': [1610, 2315, 3051]}, u'edge': {u'target': [], u'time': []}}, u'mouseout': {u'state': {u'target': [], u'time': []}, u'edge': {u'target': [], u'time': []}}}",,"[40, 8, 24]","[4228, 515, 4]",69.0,"[None, None, None]",,297100,29.0,mouselab-mdp,1
"[15337, 15944, 16573]","[u'right', u'right', u'down']",test,,,"[0, 1, 5, 10]","{u'mouseover': {u'state': {u'target': [], u'time': []}, u'edge': {u'target': [], u'time': []}}, u'click': {u'state': {u'target': [u'11', u'12', u'16', u'15', u'13', u'14', u'9', u'10'], u'time': [2900, 4440, 5469, 6451, 7311, 7980, 10212, 12537]}, u'edge': {u'target': [], u'time': []}}, u'mouseout': {u'state': {u'target': [], u'time': []}, u'edge': {u'target': [], u'time': []}}}",,"[8, 8, 8]","[15295, 74, 94]",16.0,"[None, None, None]",,371215,30.0,mouselab-mdp,1
"[6822, 7406, 7962]","[u'left', u'left', u'up']",test,,,"[0, 3, 7, 13]","{u'mouseover': {u'state': {u'target': [], u'time': []}, u'edge': {u'target': [], u'time': []}}, u'click': {u'state': {u'target': [u'12', u'11', u'15', u'16', u'9', u'10', u'13', u'14'], u'time': [993, 1700, 2444, 2996, 3945, 4539, 5517, 6106]}, u'edge': {u'target': [], u'time': []}}, u'mouseout': {u'state': {u'target': [], u'time': []}, u'edge': {u'target': [], u'time': []}}}",,"[-8, -40, 40]","[6814, 48, 14]",-16.0,"[None, None, None]",,382164,31.0,mouselab-mdp,1
"[7138, 7756, 8280]","[u'up', u'up', u'left']",test,,,"[0, 2, 6, 11]","{u'mouseover': {u'state': {u'target': [], u'time': []}, u'edge': {u'target': [], u'time': []}}, u'click': {u'state': {u'target': [u'13', u'14', u'15', u'16', u'9', u'10', u'12', u'11'], u'time': [1219, 1791, 2557, 3254, 4257, 4907, 5650, 6158]}, u'edge': {u'target': [], u'time': []}}, u'mouseout': {u'state': {u'target': [], u'time': []}, u'edge': {u'target': [], u'time': []}}}",,"[24, 24, 24]","[7134, 106, 7]",64.0,"[None, None, None]",,392977,32.0,mouselab-mdp,1
"[4367, 5083, 5664]","[u'left', u'left', u'down']",test,,,"[0, 3, 7, 14]","{u'mouseover': {u'state': {u'target': [], u'time': []}, u'edge': {u'target': [], u'time': []}}, u'click': {u'state': {u'target': [u'13', u'14'], u'time': [1236, 3022]}, u'edge': {u'target': [], u'time': []}}, u'mouseout': {u'state': {u'target': [], u'time': []}, u'edge': {u'target': [], u'time': []}}}",,"[-8, 40, 24]","[4361, 178, 64]",54.0,"[None, None, None]",,401238,33.0,mouselab-mdp,1
"[9544, 10078, 10636]","[u'right', u'right', u'down']",test,,,"[0, 1, 5, 10]","{u'mouseover': {u'state': {u'target': [], u'time': []}, u'edge': {u'target': [], u'time': []}}, u'click': {u'state': {u'target': [u'13', u'14', u'16', u'15', u'9', u'10'], u'time': [1458, 2188, 6070, 6737, 7821, 8466]}, u'edge': {u'target': [], u'time': []}}, u'mouseout': {u'state': {u'target': [], u'time': []}, u'edge': {u'target': [], u'time': []}}}",,"[-8, 8, 40]","[9541, 5, 40]",34.0,"[None, None, None]",,414610,34.0,mouselab-mdp,1
"[2360, 3044, 3663]","[u'left', u'left', u'up']",test,,,"[0, 3, 7, 13]","{u'mouseover': {u'state': {u'target': [], u'time': []}, u'edge': {u'target': [], u'time': []}}, u'click': {u'state': {u'target': [u'13'], u'time': [1173]}, u'edge': {u'target': [], u'time': []}}, u'mouseout': {u'state': {u'target': [], u'time': []}, u'edge': {u'target': [], u'time': []}}}",,"[-8, 24, 40]","[2355, 161, 84]",55.0,"[None, None, None]",,420468,35.0,mouselab-mdp,1
"[5834, 6415, 7018]","[u'right', u'right', u'down']",test,,,"[0, 1, 5, 10]","{u'mouseover': {u'state': {u'target': [], u'time': []}, u'edge': {u'target': [], u'time': []}}, u'click': {u'state': {u'target': [u'13', u'14', u'15', u'16', u'9', u'10'], u'time': [1181, 1913, 2562, 3255, 4051, 4748]}, u'edge': {u'target': [], u'time': []}}, u'mouseout': {u'state': {u'target': [], u'time': []}, u'edge': {u'target': [], u'time': []}}}",,"[-24, -8, 24]","[5830, 59, 73]",-14.0,"[None, None, None]",,430579,36.0,mouselab-mdp,1
"[3167, 3830, 4476]","[u'left', u'left', u'down']",test,,,"[0, 3, 7, 14]","{u'mouseover': {u'state': {u'target': [], u'time': []}, u'edge': {u'target': [], u'time': []}}, u'click': {u'state': {u'target': [u'13', u'14'], u'time': [1450, 2247]}, u'edge': {u'target': [], u'time': []}}, u'mouseout': {u'state': {u'target': [], u'time': []}, u'edge': {u'target': [], u'time': []}}}",,"[-24, -8, 24]","[3163, 131, 130]",-10.0,"[None, None, None]",,438284,37.0,mouselab-mdp,1
"[3874, 4495, 5099]","[u'up', u'up', u'left']",test,,,"[0, 2, 6, 11]","{u'mouseover': {u'state': {u'target': [], u'time': []}, u'edge': {u'target': [], u'time': []}}, u'click': {u'state': {u'target': [u'12', u'11'], u'time': [2015, 2689]}, u'edge': {u'target': [], u'time': []}}, u'mouseout': {u'state': {u'target': [], u'time': []}, u'edge': {u'target': [], u'time': []}}}",,"[8, -24, 40]","[3869, 60, 76]",22.0,"[None, None, None]",,446042,38.0,mouselab-mdp,1
"[6247, 6932, 7561]","[u'right', u'right', u'up']",test,,,"[0, 1, 5, 9]","{u'mouseover': {u'state': {u'target': [], u'time': []}, u'edge': {u'target': [], u'time': []}}, u'click': {u'state': {u'target': [u'13', u'14', u'9'], u'time': [1777, 3285, 5196]}, u'edge': {u'target': [], u'time': []}}, u'mouseout': {u'state': {u'target': [], u'time': []}, u'edge': {u'target': [], u'time': []}}}",,"[-8, -8, 24]","[6243, 149, 78]",5.0,"[None, None, None]",,455976,39.0,mouselab-mdp,1
"[2773, 3380, 3999]","[u'left', u'left', u'up']",test,,,"[0, 3, 7, 13]","{u'mouseover': {u'state': {u'target': [], u'time': []}, u'edge': {u'target': [], u'time': []}}, u'click': {u'state': {u'target': [u'13'], u'time': [1703]}, u'edge': {u'target': [], u'time': []}}, u'mouseout': {u'state': {u'target': [], u'time': []}, u'edge': {u'target': [], u'time': []}}}",,"[8, 8, 24]","[2768, 77, 102]",39.0,"[None, None, None]",,462479,40.0,mouselab-mdp,1
"[7141, 7775, 8448]","[u'left', u'left', u'down']",test,,,"[0, 3, 7, 14]","{u'mouseover': {u'state': {u'target': [], u'time': []}, u'edge': {u'target': [], u'time': []}}, u'click': {u'state': {u'target': [u'11', u'12', u'10', u'9', u'16', u'15', u'13', u'14'], u'time': [830, 1559, 2395, 3548, 4403, 4824, 5743, 6341]}, u'edge': {u'target': [], u'time': []}}, u'mouseout': {u'state': {u'target': [], u'time': []}, u'edge': {u'target': [], u'time': []}}}",,"[-8, 8, 8]","[7136, 108, 141]",0.0,"[None, None, None]",,473752,41.0,mouselab-mdp,1
"[6802, 7383, 7963]","[u'left', u'left', u'down']",test,,,"[0, 3, 7, 14]","{u'mouseover': {u'state': {u'target': [], u'time': []}, u'edge': {u'target': [], u'time': []}}, u'click': {u'state': {u'target': [u'11', u'12', u'10', u'9', u'16', u'15', u'14', u'13'], u'time': [1035, 2092, 2824, 3401, 4172, 4703, 5443, 5996]}, u'edge': {u'target': [], u'time': []}}, u'mouseout': {u'state': {u'target': [], u'time': []}, u'edge': {u'target': [], u'time': []}}}",,"[24, -24, 8]","[6799, 43, 69]",0.0,"[None, None, None]",,484102,42.0,mouselab-mdp,1
"[3785, 4329, 4951]","[u'right', u'right', u'up']",test,,,"[0, 1, 5, 9]","{u'mouseover': {u'state': {u'target': [], u'time': []}, u'edge': {u'target': [], u'time': []}}, u'click': {u'state': {u'target': [u'11', u'12', u'10', u'9'], u'time': [818, 1353, 2062, 2612]}, u'edge': {u'target': [], u'time': []}}, u'mouseout': {u'state': {u'target': [], u'time': []}, u'edge': {u'target': [], u'time': []}}}",,"[8, -8, 40]","[3782, 27, 80]",36.0,"[None, None, None]",,492269,43.0,mouselab-mdp,1
"[11437, 11987, 12530]","[u'up', u'up', u'right']",test,,,"[0, 2, 6, 12]","{u'mouseover': {u'state': {u'target': [], u'time': []}, u'edge': {u'target': [], u'time': []}}, u'click': {u'state': {u'target': [u'15', u'16', u'13', u'14', u'12', u'11', u'10', u'9'], u'time': [793, 1391, 2401, 3085, 7744, 8743, 9960, 10614]}, u'edge': {u'target': [], u'time': []}}, u'mouseout': {u'state': {u'target': [], u'time': []}, u'edge': {u'target': [], u'time': []}}}",,"[-8, 8, 24]","[11433, 25, 31]",16.0,"[None, None, None]",,507717,44.0,mouselab-mdp,1
"[7314, 8022, 8644]","[u'left', u'left', u'up']",test,,,"[0, 3, 7, 13]","{u'mouseover': {u'state': {u'target': [], u'time': []}, u'edge': {u'target': [], u'time': []}}, u'click': {u'state': {u'target': [u'11', u'12', u'15', u'16', u'9', u'10', u'13', u'14'], u'time': [1272, 1897, 2978, 3585, 4450, 5145, 6080, 6655]}, u'edge': {u'target': [], u'time': []}}, u'mouseout': {u'state': {u'target': [], u'time': []}, u'edge': {u'target': [], u'time': []}}}",,"[8, 8, 40]","[7305, 183, 98]",48.0,"[None, None, None]",,518788,45.0,mouselab-mdp,1
"[3092, 3628, 4644]","[u'up', u'up', u'left']",test,,,"[0, 2, 6, 11]","{u'mouseover': {u'state': {u'target': [], u'time': []}, u'edge': {u'target': [], u'time': []}}, u'click': {u'state': {u'target': [u'11'], u'time': [1346]}, u'edge': {u'target': [], u'time': []}}, u'mouseout': {u'state': {u'target': [], u'time': []}, u'edge': {u'target': [], u'time': []}}}",,"[8, 8, 40]","[3089, 14, 385]",55.0,"[None, None, None]",,525600,46.0,mouselab-mdp,1
"[7604, 8217, 8763]","[u'up', u'up', u'right']",test,,,"[0, 2, 6, 12]","{u'mouseover': {u'state': {u'target': [], u'time': []}, u'edge': {u'target': [], u'time': []}}, u'click': {u'state': {u'target': [u'13', u'15', u'9', u'10', u'12'], u'time': [1512, 2907, 4502, 5142, 5989]}, u'edge': {u'target': [], u'time': []}}, u'mouseout': {u'state': {u'target': [], u'time': []}, u'edge': {u'target': [], u'time': []}}}",,"[8, 8, 40]","[7601, 75, 23]",51.0,"[None, None, None]",,536505,47.0,mouselab-mdp,1
"[2369, 3077, 4347]","[u'up', u'up', u'left']",test,,,"[0, 2, 6, 11]","{u'mouseover': {u'state': {u'target': [], u'time': []}, u'edge': {u'target': [], u'time': []}}, u'click': {u'state': {u'target': [u'11'], u'time': [1047]}, u'edge': {u'target': [], u'time': []}}, u'mouseout': {u'state': {u'target': [], u'time': []}, u'edge': {u'target': [], u'time': []}}}",,"[-8, 8, 40]","[2365, 156, 748]",39.0,"[None, None, None]",,543169,48.0,mouselab-mdp,1
"[8598, 9355, 9946]","[u'right', u'right', u'down']",test,,,"[0, 1, 5, 10]","{u'mouseover': {u'state': {u'target': [], u'time': []}, u'edge': {u'target': [], u'time': []}}, u'click': {u'state': {u'target': [u'13', u'14', u'16', u'15', u'9', u'10', u'11', u'12'], u'time': [1104, 2118, 2799, 3395, 4128, 4737, 6301, 6945]}, u'edge': {u'target': [], u'time': []}}, u'mouseout': {u'state': {u'target': [], u'time': []}, u'edge': {u'target': [], u'time': []}}}",,"[-24, -8, 8]","[8593, 218, 53]",-32.0,"[None, None, None]",,555598,49.0,mouselab-mdp,1
"[24059, 25087, 26419]","[u'up', u'up', u'right']",train_basic,,,"[0, 2, 6, 12]","{u'mouseover': {u'state': {u'target': [], u'time': []}, u'edge': {u'target': [], u'time': []}}, u'click': {u'state': {u'target': [], u'time': []}, u'edge': {u'target': [], u'time': []}}, u'mouseout': {u'state': {u'target': [], u'time': []}, u'edge': {u'target': [], u'time': []}}}",,"[8, -8, 24]","[24054, 525, 808]",24.0,"[None, None, None]",,30210,0.0,mouselab-mdp,2
"[2029, 2933, 3759]","[u'down', u'down', u'right']",train_basic,,,"[0, 4, 8, 16]","{u'mouseover': {u'state': {u'target': [], u'time': []}, u'edge': {u'target': [], u'time': []}}, u'click': {u'state': {u'target': [], u'time': []}, u'edge': {u'target': [], u'time': []}}, u'mouseout': {u'state': {u'target': [], u'time': []}, u'edge': {u'target': [], u'time': []}}}",,"[24, -8, 8]","[2027, 387, 311]",24.0,"[None, None, None]",,43316,1.0,mouselab-mdp,2
"[2129, 3031, 3836]","[u'left', u'left', u'down']",train_basic,,,"[0, 3, 7, 14]","{u'mouseover': {u'state': {u'target': [], u'time': []}, u'edge': {u'target': [], u'time': []}}, u'click': {u'state': {u'target': [], u'time': []}, u'edge': {u'target': [], u'time': []}}, u'mouseout': {u'state': {u'target': [], u'time': []}, u'edge': {u'target': [], u'time': []}}}",,"[40, 8, 8]","[2126, 382, 290]",56.0,"[None, None, None]",,51387,2.0,mouselab-mdp,2
"[1886, 2652, 3436]","[u'right', u'right', u'down']",train_basic,,,"[0, 1, 5, 10]","{u'mouseover': {u'state': {u'target': [], u'time': []}, u'edge': {u'target': [], u'time': []}}, u'click': {u'state': {u'target': [], u'time': []}, u'edge': {u'target': [], u'time': []}}, u'mouseout': {u'state': {u'target': [], u'time': []}, u'edge': {u'target': [], u'time': []}}}",,"[8, -8, 40]","[1879, 245, 264]",40.0,"[None, None, None]",,57541,3.0,mouselab-mdp,2
"[5768, 6480, 7146]","[u'right', u'right', u'up']",train_basic,,,"[0, 1, 5, 9]","{u'mouseover': {u'state': {u'target': [], u'time': []}, u'edge': {u'target': [], u'time': []}}, u'click': {u'state': {u'target': [], u'time': []}, u'edge': {u'target': [], u'time': []}}, u'mouseout': {u'state': {u'target': [], u'time': []}, u'edge': {u'target': [], u'time': []}}}",,"[-8, 8, 8]","[5766, 191, 142]",8.0,"[None, None, None]",,67216,4.0,mouselab-mdp,2
"[3145, 3846, 4499]","[u'right', u'right', u'up']",train_basic,,,"[0, 1, 5, 9]","{u'mouseover': {u'state': {u'target': [], u'time': []}, u'edge': {u'target': [], u'time': []}}, u'click': {u'state': {u'target': [], u'time': []}, u'edge': {u'target': [], u'time': []}}, u'mouseout': {u'state': {u'target': [], u'time': []}, u'edge': {u'target': [], u'time': []}}}",,"[40, 24, -8]","[3142, 191, 144]",56.0,"[None, None, None]",,75362,5.0,mouselab-mdp,2
"[3945, 4549, 5150]","[u'up', u'up', u'right']",train_basic,,,"[0, 2, 6, 12]","{u'mouseover': {u'state': {u'target': [], u'time': []}, u'edge': {u'target': [], u'time': []}}, u'click': {u'state': {u'target': [], u'time': []}, u'edge': {u'target': [], u'time': []}}, u'mouseout': {u'state': {u'target': [], u'time': []}, u'edge': {u'target': [], u'time': []}}}",,"[24, 8, 8]","[3939, 81, 81]",40.0,"[None, None, None]",,82938,6.0,mouselab-mdp,2
"[2607, 3263, 3906]","[u'up', u'up', u'right']",train_basic,,,"[0, 2, 6, 12]","{u'mouseover': {u'state': {u'target': [], u'time': []}, u'edge': {u'target': [], u'time': []}}, u'click': {u'state': {u'target': [], u'time': []}, u'edge': {u'target': [], u'time': []}}, u'mouseout': {u'state': {u'target': [], u'time': []}, u'edge': {u'target': [], u'time': []}}}",,"[24, 24, 8]","[2605, 139, 131]",56.0,"[None, None, None]",,89351,7.0,mouselab-mdp,2
"[3215, 3843, 4447]","[u'down', u'down', u'left']",train_basic,,,"[0, 4, 8, 15]","{u'mouseover': {u'state': {u'target': [], u'time': []}, u'edge': {u'target': [], u'time': []}}, u'click': {u'state': {u'target': [], u'time': []}, u'edge': {u'target': [], u'time': []}}, u'mouseout': {u'state': {u'target': [], u'time': []}, u'edge': {u'target': [], u'time': []}}}",,"[8, 40, 8]","[3213, 115, 84]",56.0,"[None, None, None]",,96047,8.0,mouselab-mdp,2
"[4054, 4694, 5295]","[u'left', u'left', u'up']",train_basic,,,"[0, 3, 7, 13]","{u'mouseover': {u'state': {u'target': [], u'time': []}, u'edge': {u'target': [], u'time': []}}, u'click': {u'state': {u'target': [], u'time': []}, u'edge': {u'target': [], u'time': []}}, u'mouseout': {u'state': {u'target': [], u'time': []}, u'edge': {u'target': [], u'time': []}}}",,"[8, 24, 8]","[4050, 131, 81]",40.0,"[None, None, None]",,103800,9.0,mouselab-mdp,2
"[11495, 12460, 13253]","[u'up', u'up', u'right']",train_hidden,,,"[0, 2, 6, 12]","{u'mouseover': {u'state': {u'target': [], u'time': []}, u'edge': {u'target': [], u'time': []}}, u'click': {u'state': {u'target': [], u'time': []}, u'edge': {u'target': [], u'time': []}}, u'mouseout': {u'state': {u'target': [], u'time': []}, u'edge': {u'target': [], u'time': []}}}",,"[-8, -8, -8]","[11489, 448, 275]",-24.0,"[None, None, None]",,121930,10.0,mouselab-mdp,2
"[556, 1462, 2980]","[u'left', u'left', u'up']",train_hidden,,,"[0, 3, 7, 13]","{u'mouseover': {u'state': {u'target': [], u'time': []}, u'edge': {u'target': [], u'time': []}}, u'click': {u'state': {u'target': [], u'time': []}, u'edge': {u'target': [], u'time': []}}, u'mouseout': {u'state': {u'target': [], u'time': []}, u'edge': {u'target': [], u'time': []}}}",,"[24, 24, 24]","[553, 394, 998]",72.0,"[None, None, None]",,128041,11.0,mouselab-mdp,2
"[1138, 2037, 2980]","[u'down', u'down', u'right']",train_hidden,,,"[0, 4, 8, 16]","{u'mouseover': {u'state': {u'target': [], u'time': []}, u'edge': {u'target': [], u'time': []}}, u'click': {u'state': {u'target': [], u'time': []}, u'edge': {u'target': [], u'time': []}}, u'mouseout': {u'state': {u'target': [], u'time': []}, u'edge': {u'target': [], u'time': []}}}",,"[-8, -8, 8]","[1132, 382, 426]",-8.0,"[None, None, None]",,133923,12.0,mouselab-mdp,2
"[505, 1401, 2208]","[u'right', u'right', u'up']",train_hidden,,,"[0, 1, 5, 9]","{u'mouseover': {u'state': {u'target': [], u'time': []}, u'edge': {u'target': [], u'time': []}}, u'click': {u'state': {u'target': [], u'time': []}, u'edge': {u'target': [], u'time': []}}, u'mouseout': {u'state': {u'target': [], u'time': []}, u'edge': {u'target': [], u'time': []}}}",,"[-8, 8, 8]","[503, 371, 295]",8.0,"[None, None, None]",,138736,13.0,mouselab-mdp,2
"[1149, 1974, 2890]","[u'up', u'up', u'left']",train_hidden,,,"[0, 2, 6, 11]","{u'mouseover': {u'state': {u'target': [], u'time': []}, u'edge': {u'target': [], u'time': []}}, u'click': {u'state': {u'target': [], u'time': []}, u'edge': {u'target': [], u'time': []}}, u'mouseout': {u'state': {u'target': [], u'time': []}, u'edge': {u'target': [], u'time': []}}}",,"[8, 8, -8]","[1147, 315, 398]",8.0,"[None, None, None]",,144158,14.0,mouselab-mdp,2
"[20019, 20876, 21611]","[u'right', u'right', u'down']",train_inspector,,,"[0, 1, 5, 10]","{u'mouseover': {u'state': {u'target': [], u'time': []}, u'edge': {u'target': [], u'time': []}}, u'click': {u'state': {u'target': [u'3', u'7', u'13'], u'time': [13751, 14573, 15258]}, u'edge': {u'target': [], u'time': []}}, u'mouseout': {u'state': {u'target': [], u'time': []}, u'edge': {u'target': [], u'time': []}}}",,"[-24, -8, -8]","[20018, 333, 220]",-40.0,"[None, None, None]",,170795,15.0,mouselab-mdp,2
"[5229, 5809, 6378]","[u'up', u'up', u'right']",train_inspector,,,"[0, 2, 6, 12]","{u'mouseover': {u'state': {u'target': [], u'time': []}, u'edge': {u'target': [], u'time': []}}, u'click': {u'state': {u'target': [u'2', u'6', u'11'], u'time': [1044, 1651, 3791]}, u'edge': {u'target': [], u'time': []}}, u'mouseout': {u'state': {u'target': [], u'time': []}, u'edge': {u'target': [], u'time': []}}}",,"[-8, 24, -8]","[5227, 69, 55]",8.0,"[None, None, None]",,180867,16.0,mouselab-mdp,2
"[7330, 8067, 8812]","[u'right', u'right', u'up']",train_inspector,,,"[0, 1, 5, 9]","{u'mouseover': {u'state': {u'target': [], u'time': []}, u'edge': {u'target': [], u'time': []}}, u'click': {u'state': {u'target': [u'4', u'8', u'3'], u'time': [985, 2344, 6126]}, u'edge': {u'target': [], u'time': []}}, u'mouseout': {u'state': {u'target': [], u'time': []}, u'edge': {u'target': [], u'time': []}}}",,"[-8, -8, -24]","[7328, 224, 221]",-40.0,"[None, None, None]",,192123,17.0,mouselab-mdp,2
"[4939, 5518, 6253]","[u'up', u'up', u'left']",train_inspector,,,"[0, 2, 6, 11]","{u'mouseover': {u'state': {u'target': [], u'time': []}, u'edge': {u'target': [], u'time': []}}, u'click': {u'state': {u'target': [u'2', u'3', u'1'], u'time': [1138, 2226, 3773]}, u'edge': {u'target': [], u'time': []}}, u'mouseout': {u'state': {u'target': [], u'time': []}, u'edge': {u'target': [], u'time': []}}}",,"[8, -24, -24]","[4935, 64, 217]",-40.0,"[None, None, None]",,200885,18.0,mouselab-mdp,2
"[4087, 4921, 5691]","[u'up', u'up', u'right']",train_inspector,,,"[0, 2, 6, 12]","{u'mouseover': {u'state': {u'target': [], u'time': []}, u'edge': {u'target': [], u'time': []}}, u'click': {u'state': {u'target': [u'3', u'4', u'1'], u'time': [1408, 2275, 3124]}, u'edge': {u'target': [], u'time': []}}, u'mouseout': {u'state': {u'target': [], u'time': []}, u'edge': {u'target': [], u'time': []}}}",,"[-8, 8, -8]","[4080, 315, 253]",-8.0,"[None, None, None]",,209450,19.0,mouselab-mdp,2
"[23591, 24230, 24938]","[u'left', u'left', u'down']",train_inspect_cost,,,"[0, 3, 7, 14]","{u'mouseover': {u'state': {u'target': [], u'time': []}, u'edge': {u'target': [], u'time': []}}, u'click': {u'state': {u'target': [u'14', u'10', u'16'], u'time': [20232, 21678, 22578]}, u'edge': {u'target': [], u'time': []}}, u'mouseout': {u'state': {u'target': [], u'time': []}, u'edge': {u'target': [], u'time': []}}}",,"[-8, 24, 8]","[23588, 119, 194]",21.0,"[None, None, None]",,239308,20.0,mouselab-mdp,2
"[6485, 7029, 7914]","[u'left', u'left', u'down']",train_inspect_cost,,,"[0, 3, 7, 14]","{u'mouseover': {u'state': {u'target': [], u'time': []}, u'edge': {u'target': [], u'time': []}}, u'click': {u'state': {u'target': [u'14', u'11', u'10'], u'time': [983, 1950, 5170]}, u'edge': {u'target': [], u'time': []}}, u'mouseout': {u'state': {u'target': [], u'time': []}, u'edge': {u'target': [], u'time': []}}}",,"[8, 8, 24]","[6483, 36, 355]",37.0,"[None, None, None]",,249578,21.0,mouselab-mdp,2
"[5445, 6044, 6617]","[u'down', u'down', u'left']",train_inspect_cost,,,"[0, 4, 8, 15]","{u'mouseover': {u'state': {u'target': [], u'time': []}, u'edge': {u'target': [], u'time': []}}, u'click': {u'state': {u'target': [u'14', u'15', u'10', u'12'], u'time': [1066, 1903, 2839, 4181]}, u'edge': {u'target': [], u'time': []}}, u'mouseout': {u'state': {u'target': [], u'time': []}, u'edge': {u'target': [], u'time': []}}}",,"[-40, -24, 24]","[5442, 78, 55]",-44.0,"[None, None, None]",,258979,22.0,mouselab-mdp,2
"[11104, 11804, 12445]","[u'left', u'left', u'up']",train_inspect_cost,,,"[0, 3, 7, 13]","{u'mouseover': {u'state': {u'target': [], u'time': []}, u'edge': {u'target': [], u'time': []}}, u'click': {u'state': {u'target': [u'11', u'10', u'16', u'13'], u'time': [3328, 5761, 6927, 10029]}, u'edge': {u'target': [], u'time': []}}, u'mouseout': {u'state': {u'target': [], u'time': []}, u'edge': {u'target': [], u'time': []}}}",,"[-8, -40, 40]","[11102, 182, 124]",-12.0,"[None, None, None]",,274485,23.0,mouselab-mdp,2
"[5685, 6354, 6996]","[u'left', u'left', u'down']",train_inspect_cost,,,"[0, 3, 7, 14]","{u'mouseover': {u'state': {u'target': [], u'time': []}, u'edge': {u'target': [], u'time': []}}, u'click': {u'state': {u'target': [u'6', u'15', u'7'], u'time': [1343, 3780, 4699]}, u'edge': {u'target': [], u'time': []}}, u'mouseout': {u'state': {u'target': [], u'time': []}, u'edge': {u'target': [], u'time': []}}}",,"[8, 40, -24]","[5683, 159, 136]",21.0,"[None, None, None]",,283994,24.0,mouselab-mdp,2
"[12386, 13522, 14324]","[u'left', u'left', u'up']",train_final,,,"[0, 3, 7, 13]","{u'mouseover': {u'state': {u'target': [], u'time': []}, u'edge': {u'target': [], u'time': []}}, u'click': {u'state': {u'target': [], u'time': []}, u'edge': {u'target': [], u'time': []}}, u'mouseout': {u'state': {u'target': [], u'time': []}, u'edge': {u'target': [], u'time': []}}}",,"[40, -8, -8]","[12384, 617, 285]",24.0,"[None, None, None]",,303346,25.0,mouselab-mdp,2
"[612, 1797, 2557]","[u'up', u'up', u'left']",train_final,,,"[0, 2, 6, 11]","{u'mouseover': {u'state': {u'target': [], u'time': []}, u'edge': {u'target': [], u'time': []}}, u'click': {u'state': {u'target': [], u'time': []}, u'edge': {u'target': [], u'time': []}}, u'mouseout': {u'state': {u'target': [], u'time': []}, u'edge': {u'target': [], u'time': []}}}",,"[-40, -24, -24]","[609, 669, 248]",-88.0,"[None, None, None]",,308322,26.0,mouselab-mdp,2
"[490, 1391, 5010]","[u'right', u'right', u'down']",train_final,,,"[0, 1, 5, 10]","{u'mouseover': {u'state': {u'target': [], u'time': []}, u'edge': {u'target': [], u'time': []}}, u'click': {u'state': {u'target': [], u'time': []}, u'edge': {u'target': [], u'time': []}}, u'mouseout': {u'state': {u'target': [], u'time': []}, u'edge': {u'target': [], u'time': []}}}",,"[8, -8, 8]","[485, 383, 3098]",8.0,"[None, None, None]",,316248,27.0,mouselab-mdp,2
"[5655, 6220, 7165]","[u'down', u'down', u'left']",train_final,,,"[0, 4, 8, 15]","{u'mouseover': {u'state': {u'target': [], u'time': []}, u'edge': {u'target': [], u'time': []}}, u'click': {u'state': {u'target': [u'1', u'2', u'4'], u'time': [2482, 3579, 4689]}, u'edge': {u'target': [], u'time': []}}, u'mouseout': {u'state': {u'target': [], u'time': []}, u'edge': {u'target': [], u'time': []}}}",,"[8, -24, -24]","[5652, 48, 427]",-43.0,"[None, None, None]",,326138,28.0,mouselab-mdp,2
"[1787, 2556, 3247]","[u'left', u'left', u'up']",train_final,,,"[0, 3, 7, 13]","{u'mouseover': {u'state': {u'target': [], u'time': []}, u'edge': {u'target': [], u'time': []}}, u'click': {u'state': {u'target': [], u'time': []}, u'edge': {u'target': [], u'time': []}}, u'mouseout': {u'state': {u'target': [], u'time': []}, u'edge': {u'target': [], u'time': []}}}",,"[-8, -8, -8]","[1785, 259, 169]",-24.0,"[None, None, None]",,331990,29.0,mouselab-mdp,2
"[6163, 6775, 7607]","[u'left', u'left', u'up']",test,,,"[0, 3, 7, 13]","{u'mouseover': {u'state': {u'target': [], u'time': []}, u'edge': {u'target': [], u'time': []}}, u'click': {u'state': {u'target': [u'2', u'3', u'1'], u'time': [2825, 3710, 4978]}, u'edge': {u'target': [], u'time': []}}, u'mouseout': {u'state': {u'target': [], u'time': []}, u'edge': {u'target': [], u'time': []}}}",,"[24, 24, -8]","[6161, 104, 320]",37.0,"[None, None, None]",,347318,30.0,mouselab-mdp,2
"[3555, 4304, 5406]","[u'up', u'up', u'left']",test,,,"[0, 2, 6, 11]","{u'mouseover': {u'state': {u'target': [], u'time': []}, u'edge': {u'target': [], u'time': []}}, u'click': {u'state': {u'target': [u'3', u'4', u'1'], u'time': [819, 1650, 2378]}, u'edge': {u'target': [], u'time': []}}, u'mouseout': {u'state': {u'target': [], u'time': []}, u'edge': {u'target': [], u'time': []}}}",,"[8, 40, -8]","[3552, 226, 578]",37.0,"[None, None, None]",,355543,31.0,mouselab-mdp,2
"[6661, 7254, 8025]","[u'down', u'down', u'right']",test,,,"[0, 4, 8, 16]","{u'mouseover': {u'state': {u'target': [], u'time': []}, u'edge': {u'target': [], u'time': []}}, u'click': {u'state': {u'target': [u'1', u'4', u'3', u'16'], u'time': [1700, 2838, 3748, 5603]}, u'edge': {u'target': [], u'time': []}}, u'mouseout': {u'state': {u'target': [], u'time': []}, u'edge': {u'target': [], u'time': []}}}",,"[40, 8, 8]","[6654, 69, 259]",52.0,"[None, None, None]",,365882,32.0,mouselab-mdp,2
"[4020, 4576, 5789]","[u'down', u'down', u'left']",test,,,"[0, 4, 8, 15]","{u'mouseover': {u'state': {u'target': [], u'time': []}, u'edge': {u'target': [], u'time': []}}, u'click': {u'state': {u'target': [u'4', u'1', u'3'], u'time': [1020, 2064, 2986]}, u'edge': {u'target': [], u'time': []}}, u'mouseout': {u'state': {u'target': [], u'time': []}, u'edge': {u'target': [], u'time': []}}}",,"[24, -40, -8]","[4018, 33, 695]",-27.0,"[None, None, None]",,373984,33.0,mouselab-mdp,2
"[8193, 8836, 9485]","[u'right', u'right', u'down']",test,,,"[0, 1, 5, 10]","{u'mouseover': {u'state': {u'target': [], u'time': []}, u'edge': {u'target': [], u'time': []}}, u'click': {u'state': {u'target': [u'2', u'3', u'4', u'1', u'10'], u'time': [2845, 3892, 4715, 5509, 6825]}, u'edge': {u'target': [], u'time': []}}, u'mouseout': {u'state': {u'target': [], u'time': []}, u'edge': {u'target': [], u'time': []}}}",,"[24, -8, 8]","[8190, 130, 130]",19.0,"[None, None, None]",,386489,34.0,mouselab-mdp,2
"[4153, 4779, 5748]","[u'up', u'up', u'right']",test,,,"[0, 2, 6, 12]","{u'mouseover': {u'state': {u'target': [], u'time': []}, u'edge': {u'target': [], u'time': []}}, u'click': {u'state': {u'target': [u'2', u'3', u'1'], u'time': [1240, 2317, 3151]}, u'edge': {u'target': [], u'time': []}}, u'mouseout': {u'state': {u'target': [], u'time': []}, u'edge': {u'target': [], u'time': []}}}",,"[8, 24, -24]","[4150, 116, 452]",5.0,"[None, None, None]",,395407,35.0,mouselab-mdp,2
"[6436, 7091, 7787]","[u'right', u'right', u'up']",test,,,"[0, 1, 5, 9]","{u'mouseover': {u'state': {u'target': [], u'time': []}, u'edge': {u'target': [], u'time': []}}, u'click': {u'state': {u'target': [u'3', u'2', u'1', u'4'], u'time': [2501, 3458, 4310, 5408]}, u'edge': {u'target': [], u'time': []}}, u'mouseout': {u'state': {u'target': [], u'time': []}, u'edge': {u'target': [], u'time': []}}}",,"[8, -24, 8]","[6434, 137, 184]",-12.0,"[None, None, None]",,405941,36.0,mouselab-mdp,2
"[4713, 5436, 6174]","[u'right', u'right', u'down']",test,,,"[0, 1, 5, 10]","{u'mouseover': {u'state': {u'target': [], u'time': []}, u'edge': {u'target': [], u'time': []}}, u'click': {u'state': {u'target': [u'4', u'10'], u'time': [2205, 3804]}, u'edge': {u'target': [], u'time': []}}, u'mouseout': {u'state': {u'target': [], u'time': []}, u'edge': {u'target': [], u'time': []}}}",,"[24, -24, 24]","[4706, 202, 224]",22.0,"[None, None, None]",,414665,37.0,mouselab-mdp,2
"[4212, 5046, 5904]","[u'right', u'right', u'down']",test,,,"[0, 1, 5, 10]","{u'mouseover': {u'state': {u'target': [], u'time': []}, u'edge': {u'target': [], u'time': []}}, u'click': {u'state': {u'target': [u'14', u'10'], u'time': [1459, 2439]}, u'edge': {u'target': [], u'time': []}}, u'mouseout': {u'state': {u'target': [], u'time': []}, u'edge': {u'target': [], u'time': []}}}",,"[-24, -8, 24]","[4210, 325, 350]",-10.0,"[None, None, None]",,422924,38.0,mouselab-mdp,2
"[1099, 1967, 2555]","[u'right', u'right', u'up']",test,,,"[0, 1, 5, 9]","{u'mouseover': {u'state': {u'target': [], u'time': []}, u'edge': {u'target': [], u'time': []}}, u'click': {u'state': {u'target': [], u'time': []}, u'edge': {u'target': [], u'time': []}}, u'mouseout': {u'state': {u'target': [], u'time': []}, u'edge': {u'target': [], u'time': []}}}",,"[-8, -8, -8]","[1097, 352, 76]",-24.0,"[None, None, None]",,428068,39.0,mouselab-mdp,2
"[3119, 3758, 4530]","[u'up', u'up', u'right']",test,,,"[0, 2, 6, 12]","{u'mouseover': {u'state': {u'target': [], u'time': []}, u'edge': {u'target': [], u'time': []}}, u'click': {u'state': {u'target': [u'16', u'12'], u'time': [879, 1954]}, u'edge': {u'target': [], u'time': []}}, u'mouseout': {u'state': {u'target': [], u'time': []}, u'edge': {u'target': [], u'time': []}}}",,"[-24, -8, 24]","[3117, 131, 254]",-10.0,"[None, None, None]",,435409,40.0,mouselab-mdp,2
"[3478, 4196, 4896]","[u'down', u'down', u'left']",test,,,"[0, 4, 8, 15]","{u'mouseover': {u'state': {u'target': [], u'time': []}, u'edge': {u'target': [], u'time': []}}, u'click': {u'state': {u'target': [u'13', u'15'], u'time': [978, 2282]}, u'edge': {u'target': [], u'time': []}}, u'mouseout': {u'state': {u'target': [], u'time': []}, u'edge': {u'target': [], u'time': []}}}",,"[-8, 8, 40]","[3476, 199, 183]",38.0,"[None, None, None]",,442846,41.0,mouselab-mdp,2
"[9577, 10242, 10963]","[u'down', u'down', u'right']",test,,,"[0, 4, 8, 16]","{u'mouseover': {u'state': {u'target': [], u'time': []}, u'edge': {u'target': [], u'time': []}}, u'click': {u'state': {u'target': [u'15', u'10', u'12', u'13', u'14', u'16'], u'time': [1199, 2274, 3188, 4239, 5645, 6630]}, u'edge': {u'target': [], u'time': []}}, u'mouseout': {u'state': {u'target': [], u'time': []}, u'edge': {u'target': [], u'time': []}}}",,"[8, -8, 8]","[9575, 150, 206]",2.0,"[None, None, None]",,456070,42.0,mouselab-mdp,2
"[7823, 8528, 9246]","[u'left', u'left', u'up']",test,,,"[0, 3, 7, 13]","{u'mouseover': {u'state': {u'target': [], u'time': []}, u'edge': {u'target': [], u'time': []}}, u'click': {u'state': {u'target': [u'10', u'16', u'13'], u'time': [2870, 3959, 6757]}, u'edge': {u'target': [], u'time': []}}, u'mouseout': {u'state': {u'target': [], u'time': []}, u'edge': {u'target': [], u'time': []}}}",,"[8, -8, 40]","[7817, 194, 196]",37.0,"[None, None, None]",,467723,43.0,mouselab-mdp,2
"[3412, 4202, 4992]","[u'down', u'down', u'left']",test,,,"[0, 4, 8, 15]","{u'mouseover': {u'state': {u'target': [], u'time': []}, u'edge': {u'target': [], u'time': []}}, u'click': {u'state': {u'target': [u'14', u'15'], u'time': [1030, 1895]}, u'edge': {u'target': [], u'time': []}}, u'mouseout': {u'state': {u'target': [], u'time': []}, u'edge': {u'target': [], u'time': []}}}",,"[-8, 8, 24]","[3410, 275, 282]",22.0,"[None, None, None]",,475267,44.0,mouselab-mdp,2
"[5290, 6063, 6832]","[u'down', u'down', u'left']",test,,,"[0, 4, 8, 15]","{u'mouseover': {u'state': {u'target': [], u'time': []}, u'edge': {u'target': [], u'time': []}}, u'click': {u'state': {u'target': [u'15', u'14', u'11', u'10'], u'time': [1260, 2011, 3291, 4443]}, u'edge': {u'target': [], u'time': []}}, u'mouseout': {u'state': {u'target': [], u'time': []}, u'edge': {u'target': [], u'time': []}}}",,"[8, 24, 24]","[5287, 257, 260]",52.0,"[None, None, None]",,484481,45.0,mouselab-mdp,2
"[3697, 4378, 5134]","[u'left', u'left', u'down']",test,,,"[0, 3, 7, 14]","{u'mouseover': {u'state': {u'target': [], u'time': []}, u'edge': {u'target': [], u'time': []}}, u'click': {u'state': {u'target': [u'14'], u'time': [2112]}, u'edge': {u'target': [], u'time': []}}, u'mouseout': {u'state': {u'target': [], u'time': []}, u'edge': {u'target': [], u'time': []}}}",,"[-24, 40, 40]","[3695, 170, 242]",55.0,"[None, None, None]",,492447,46.0,mouselab-mdp,2
"[7348, 8181, 8816]","[u'right', u'right', u'up']",test,,,"[0, 1, 5, 9]","{u'mouseover': {u'state': {u'target': [], u'time': []}, u'edge': {u'target': [], u'time': []}}, u'click': {u'state': {u'target': [u'14', u'15', u'9'], u'time': [2897, 3690, 6075]}, u'edge': {u'target': [], u'time': []}}, u'mouseout': {u'state': {u'target': [], u'time': []}, u'edge': {u'target': [], u'time': []}}}",,"[24, 24, 40]","[7341, 316, 118]",85.0,"[None, None, None]",,504098,47.0,mouselab-mdp,2
"[9077, 9846, 10452]","[u'left', u'left', u'up']",test,,,"[0, 3, 7, 13]","{u'mouseover': {u'state': {u'target': [], u'time': []}, u'edge': {u'target': [], u'time': []}}, u'click': {u'state': {u'target': [u'12', u'9', u'16', u'14', u'13', u'15', u'11'], u'time': [1566, 2887, 3849, 4798, 5754, 6810, 8057]}, u'edge': {u'target': [], u'time': []}}, u'mouseout': {u'state': {u'target': [], u'time': []}, u'edge': {u'target': [], u'time': []}}}",,"[8, 8, 8]","[9075, 256, 97]",17.0,"[None, None, None]",,517333,48.0,mouselab-mdp,2
"[1857, 2548, 3254]","[u'left', u'left', u'down']",test,,,"[0, 3, 7, 14]","{u'mouseover': {u'state': {u'target': [], u'time': []}, u'edge': {u'target': [], u'time': []}}, u'click': {u'state': {u'target': [u'14'], u'time': [765]}, u'edge': {u'target': [], u'time': []}}, u'mouseout': {u'state': {u'target': [], u'time': []}, u'edge': {u'target': [], u'time': []}}}",,"[8, -8, 40]","[1850, 177, 183]",39.0,"[None, None, None]",,522852,49.0,mouselab-mdp,2
"[1364, 2546, 3697]","[u'down', u'down', u'right']",train_basic,,,"[0, 4, 8, 16]","{u'mouseover': {u'state': {u'target': [], u'time': []}, u'edge': {u'target': [], u'time': []}}, u'click': {u'state': {u'target': [], u'time': []}, u'edge': {u'target': [], u'time': []}}, u'mouseout': {u'state': {u'target': [], u'time': []}, u'edge': {u'target': [], u'time': []}}}",,"[8, -8, 40]","[1360, 647, 626]",40.0,"[None, None, None]",,5494,0.0,mouselab-mdp,3
"[5454, 7660, 8625]","[u'down', u'down', u'right']",train_basic,,,"[0, 4, 8, 16]","{u'mouseover': {u'state': {u'target': [], u'time': []}, u'edge': {u'target': [], u'time': []}}, u'click': {u'state': {u'target': [], u'time': []}, u'edge': {u'target': [], u'time': []}}, u'mouseout': {u'state': {u'target': [], u'time': []}, u'edge': {u'target': [], u'time': []}}}",,"[24, -24, 8]","[5452, 1679, 443]",8.0,"[None, None, None]",,17238,1.0,mouselab-mdp,3
"[4409, 5096, 5640]","[u'up', u'up', u'right']",train_basic,,,"[0, 2, 6, 12]","{u'mouseover': {u'state': {u'target': [], u'time': []}, u'edge': {u'target': [], u'time': []}}, u'click': {u'state': {u'target': [], u'time': []}, u'edge': {u'target': [], u'time': []}}, u'mouseout': {u'state': {u'target': [], u'time': []}, u'edge': {u'target': [], u'time': []}}}",,"[-24, 40, -8]","[4407, 166, 27]",8.0,"[None, None, None]",,25045,2.0,mouselab-mdp,3
"[1610, 2266, 3002]","[u'up', u'up', u'left']",train_basic,,,"[0, 2, 6, 11]","{u'mouseover': {u'state': {u'target': [], u'time': []}, u'edge': {u'target': [], u'time': []}}, u'click': {u'state': {u'target': [], u'time': []}, u'edge': {u'target': [], u'time': []}}, u'mouseout': {u'state': {u'target': [], u'time': []}, u'edge': {u'target': [], u'time': []}}}",,"[8, 24, 24]","[1608, 138, 208]",56.0,"[None, None, None]",,30116,3.0,mouselab-mdp,3
"[4250, 5176, 5753]","[u'down', u'down', u'left']",train_basic,,,"[0, 4, 8, 15]","{u'mouseover': {u'state': {u'target': [], u'time': []}, u'edge': {u'target': [], u'time': []}}, u'click': {u'state': {u'target': [], u'time': []}, u'edge': {u'target': [], u'time': []}}, u'mouseout': {u'state': {u'target': [], u'time': []}, u'edge': {u'target': [], u'time': []}}}",,"[8, -8, 8]","[4249, 412, 49]",8.0,"[None, None, None]",,37924,4.0,mouselab-mdp,3
"[2765, 3404, 4013]","[u'down', u'down', u'right']",train_basic,,,"[0, 4, 8, 16]","{u'mouseover': {u'state': {u'target': [], u'time': []}, u'edge': {u'target': [], u'time': []}}, u'click': {u'state': {u'target': [], u'time': []}, u'edge': {u'target': [], u'time': []}}, u'mouseout': {u'state': {u'target': [], u'time': []}, u'edge': {u'target': [], u'time': []}}}",,"[40, -8, 8]","[2763, 121, 81]",40.0,"[None, None, None]",,43909,5.0,mouselab-mdp,3
"[983, 1637, 2293]","[u'up', u'up', u'right']",train_basic,,,"[0, 2, 6, 12]","{u'mouseover': {u'state': {u'target': [], u'time': []}, u'edge': {u'target': [], u'time': []}}, u'click': {u'state': {u'target': [], u'time': []}, u'edge': {u'target': [], u'time': []}}, u'mouseout': {u'state': {u'target': [], u'time': []}, u'edge': {u'target': [], u'time': []}}}",,"[8, 24, 8]","[982, 130, 143]",40.0,"[None, None, None]",,48293,6.0,mouselab-mdp,3
"[2917, 3509, 4116]","[u'left', u'left', u'down']",train_basic,,,"[0, 3, 7, 14]","{u'mouseover': {u'state': {u'target': [], u'time': []}, u'edge': {u'target': [], u'time': []}}, u'click': {u'state': {u'target': [], u'time': []}, u'edge': {u'target': [], u'time': []}}, u'mouseout': {u'state': {u'target': [], u'time': []}, u'edge': {u'target': [], u'time': []}}}",,"[-8, 24, 40]","[2916, 76, 96]",56.0,"[None, None, None]",,54293,7.0,mouselab-mdp,3
"[914, 1633, 2288]","[u'up', u'up', u'left']",train_basic,,,"[0, 2, 6, 11]","{u'mouseover': {u'state': {u'target': [], u'time': []}, u'edge': {u'target': [], u'time': []}}, u'click': {u'state': {u'target': [], u'time': []}, u'edge': {u'target': [], u'time': []}}, u'mouseout': {u'state': {u'target': [], u'time': []}, u'edge': {u'target': [], u'time': []}}}",,"[8, 24, 8]","[913, 204, 145]",40.0,"[None, None, None]",,58388,8.0,mouselab-mdp,3
"[1282, 1939, 2674]","[u'up', u'up', u'right']",train_basic,,,"[0, 2, 6, 12]","{u'mouseover': {u'state': {u'target': [], u'time': []}, u'edge': {u'target': [], u'time': []}}, u'click': {u'state': {u'target': [], u'time': []}, u'edge': {u'target': [], u'time': []}}, u'mouseout': {u'state': {u'target': [], u'time': []}, u'edge': {u'target': [], u'time': []}}}",,"[8, 40, 8]","[1281, 133, 218]",56.0,"[None, None, None]",,62997,9.0,mouselab-mdp,3
"[889, 1878, 3367]","[u'up', u'up', u'right']",train_hidden,,,"[0, 2, 6, 12]","{u'mouseover': {u'state': {u'target': [], u'time': []}, u'edge': {u'target': [], u'time': []}}, u'click': {u'state': {u'target': [], u'time': []}, u'edge': {u'target': [], u'time': []}}, u'mouseout': {u'state': {u'target': [], u'time': []}, u'edge': {u'target': [], u'time': []}}}",,"[24, -8, 8]","[887, 466, 966]",24.0,"[None, None, None]",,70052,10.0,mouselab-mdp,3
"[399, 1167, 2303]","[u'down', u'down', u'right']",train_hidden,,,"[0, 4, 8, 16]","{u'mouseover': {u'state': {u'target': [], u'time': []}, u'edge': {u'target': [], u'time': []}}, u'click': {u'state': {u'target': [], u'time': []}, u'edge': {u'target': [], u'time': []}}, u'mouseout': {u'state': {u'target': [], u'time': []}, u'edge': {u'target': [], u'time': []}}}",,"[40, 24, -8]","[398, 245, 618]",56.0,"[None, None, None]",,74692,11.0,mouselab-mdp,3
"[475, 1307, 2395]","[u'right', u'right', u'up']",train_hidden,,,"[0, 1, 5, 9]","{u'mouseover': {u'state': {u'target': [], u'time': []}, u'edge': {u'target': [], u'time': []}}, u'click': {u'state': {u'target': [], u'time': []}, u'edge': {u'target': [], u'time': []}}, u'mouseout': {u'state': {u'target': [], u'time': []}, u'edge': {u'target': [], u'time': []}}}",,"[-40, -8, -24]","[473, 318, 564]",-72.0,"[None, None, None]",,79109,12.0,mouselab-mdp,3
"[506, 1242, 2266]","[u'down', u'down', u'left']",train_hidden,,,"[0, 4, 8, 15]","{u'mouseover': {u'state': {u'target': [], u'time': []}, u'edge': {u'target': [], u'time': []}}, u'click': {u'state': {u'target': [], u'time': []}, u'edge': {u'target': [], u'time': []}}, u'mouseout': {u'state': {u'target': [], u'time': []}, u'edge': {u'target': [], u'time': []}}}",,"[-8, 24, 8]","[505, 221, 510]",24.0,"[None, None, None]",,83493,13.0,mouselab-mdp,3
"[7192, 7927, 9014]","[u'up', u'up', u'left']",train_hidden,,,"[0, 2, 6, 11]","{u'mouseover': {u'state': {u'target': [], u'time': []}, u'edge': {u'target': [], u'time': []}}, u'click': {u'state': {u'target': [], u'time': []}, u'edge': {u'target': [], u'time': []}}, u'mouseout': {u'state': {u'target': [], u'time': []}, u'edge': {u'target': [], u'time': []}}}",,"[-40, -24, 24]","[7190, 222, 559]",-40.0,"[None, None, None]",,94661,14.0,mouselab-mdp,3
"[23436, 24459, 25035]","[u'right', u'right', u'up']",train_inspector,,,"[0, 1, 5, 9]","{u'mouseover': {u'state': {u'target': [], u'time': []}, u'edge': {u'target': [], u'time': []}}, u'click': {u'state': {u'target': [u'9', u'6', u'8', u'7', u'5', u'10', u'14', u'13', u'3', u'16', u'4', u'15', u'11', u'2', u'12', u'1'], u'time': [4131, 5396, 6512, 7659, 10009, 13170, 14512, 15384, 16039, 16816, 17164, 17484, 18563, 18963, 19299, 20516]}, u'edge': {u'target': [], u'time': []}}, u'mouseout': {u'state': {u'target': [], u'time': []}, u'edge': {u'target': [], u'time': []}}}",,"[24, 24, -8]","[23433, 506, 64]",40.0,"[None, None, None]",,123428,15.0,mouselab-mdp,3
"[10579, 14755, 15412]","[u'up', u'up', u'left']",train_inspector,,,"[0, 2, 6, 11]","{u'mouseover': {u'state': {u'target': [], u'time': []}, u'edge': {u'target': [], u'time': []}}, u'click': {u'state': {u'target': [u'9', u'1', u'5', u'10'], u'time': [7266, 8505, 9003, 9544]}, u'edge': {u'target': [], u'time': []}}, u'mouseout': {u'state': {u'target': [], u'time': []}, u'edge': {u'target': [], u'time': []}}}",,"[-24, 24, 8]","[10578, 3658, 137]",8.0,"[None, None, None]",,140837,16.0,mouselab-mdp,3
"[5674, 6234, 6874]","[u'right', u'right', u'down']",train_inspector,,,"[0, 1, 5, 10]","{u'mouseover': {u'state': {u'target': [], u'time': []}, u'edge': {u'target': [], u'time': []}}, u'click': {u'state': {u'target': [u'5', u'9', u'1', u'10'], u'time': [1390, 1868, 2767, 3511]}, u'edge': {u'target': [], u'time': []}}, u'mouseout': {u'state': {u'target': [], u'time': []}, u'edge': {u'target': [], u'time': []}}}",,"[-24, 40, 24]","[5672, 38, 116]",40.0,"[None, None, None]",,151605,17.0,mouselab-mdp,3
"[11549, 12093, 12652]","[u'down', u'down', u'left']",train_inspector,,,"[0, 4, 8, 15]","{u'mouseover': {u'state': {u'target': [], u'time': []}, u'edge': {u'target': [], u'time': []}}, u'click': {u'state': {u'target': [u'2', u'6', u'12', u'11', u'7', u'3', u'9', u'5', u'8', u'4', u'15'], u'time': [1702, 2689, 3152, 3922, 4473, 5289, 6458, 6769, 7521, 8417, 9078]}, u'edge': {u'target': [], u'time': []}}, u'mouseout': {u'state': {u'target': [], u'time': []}, u'edge': {u'target': [], u'time': []}}}",,"[8, -8, 40]","[11547, 30, 39]",40.0,"[None, None, None]",,167124,18.0,mouselab-mdp,3
"[13225, 13753, 14297]","[u'up', u'up', u'right']",train_inspector,,,"[0, 2, 6, 12]","{u'mouseover': {u'state': {u'target': [], u'time': []}, u'edge': {u'target': [], u'time': []}}, u'click': {u'state': {u'target': [u'6', u'8', u'7', u'5', u'16', u'4', u'15', u'13', u'14', u'11', u'12', u'9', u'10', u'1', u'2'], u'time': [886, 1693, 2266, 2950, 3709, 4070, 4534, 5634, 6781, 8572, 8933, 9729, 10793, 11454, 11957]}, u'edge': {u'target': [], u'time': []}}, u'mouseout': {u'state': {u'target': [], u'time': []}, u'edge': {u'target': [], u'time': []}}}",,"[24, 8, 8]","[13223, 14, 26]",40.0,"[None, None, None]",,183572,19.0,mouselab-mdp,3
"[15092, 16483, 19716]","[u'down', u'down', u'left']",train_inspect_cost,,,"[0, 4, 8, 15]","{u'mouseover': {u'state': {u'target': [], u'time': []}, u'edge': {u'target': [], u'time': []}}, u'click': {u'state': {u'target': [u'6', u'12', u'5', u'1', u'7', u'13', u'8'], u'time': [4097, 4887, 5682, 12054, 12974, 13471, 14165]}, u'edge': {u'target': [], u'time': []}}, u'mouseout': {u'state': {u'target': [], u'time': []}, u'edge': {u'target': [], u'time': []}}}",,"[-40, 8, -24]","[15091, 872, 2716]",-63.0,"[None, None, None]",,207734,20.0,mouselab-mdp,3
"[16983, 17639, 18550]","[u'right', u'right', u'up']",train_inspect_cost,,,"[0, 1, 5, 9]","{u'mouseover': {u'state': {u'target': [], u'time': []}, u'edge': {u'target': [], u'time': []}}, u'click': {u'state': {u'target': [u'8', u'6', u'5', u'7', u'9', u'10', u'1', u'3', u'2', u'4', u'15', u'16', u'12', u'11', u'13'], u'time': [1100, 2334, 4211, 5906, 7114, 8106, 8562, 9634, 10854, 11472, 12931, 13434, 14551, 15338, 16138]}, u'edge': {u'target': [], u'time': []}}, u'mouseout': {u'state': {u'target': [], u'time': []}, u'edge': {u'target': [], u'time': []}}}",,"[8, 8, 8]","[16980, 130, 392]",9.0,"[None, None, None]",,228917,21.0,mouselab-mdp,3
"[7309, 7884, 8461]","[u'right', u'right', u'down']",train_inspect_cost,,,"[0, 1, 5, 10]","{u'mouseover': {u'state': {u'target': [], u'time': []}, u'edge': {u'target': [], u'time': []}}, u'click': {u'state': {u'target': [u'5', u'6', u'7', u'8', u'15', u'16', u'10', u'12', u'1'], u'time': [347, 1097, 1721, 2281, 2701, 3137, 3890, 4929, 5913]}, u'edge': {u'target': [], u'time': []}}, u'mouseout': {u'state': {u'target': [], u'time': []}, u'edge': {u'target': [], u'time': []}}}",,"[24, -24, 40]","[7307, 37, 45]",31.0,"[None, None, None]",,239844,22.0,mouselab-mdp,3
"[9384, 10040, 10697]","[u'down', u'down', u'left']",train_inspect_cost,,,"[0, 4, 8, 15]","{u'mouseover': {u'state': {u'target': [], u'time': []}, u'edge': {u'target': [], u'time': []}}, u'click': {u'state': {u'target': [u'5', u'8', u'7', u'6', u'13', u'14', u'15', u'16', u'11', u'12', u'2', u'3', u'4'], u'time': [613, 1411, 1996, 2598, 3476, 4137, 5029, 5501, 6340, 6788, 7713, 8245, 8572]}, u'edge': {u'target': [], u'time': []}}, u'mouseout': {u'state': {u'target': [], u'time': []}, u'edge': {u'target': [], u'time': []}}}",,"[24, 24, -8]","[9381, 147, 131]",27.0,"[None, None, None]",,252612,23.0,mouselab-mdp,3
"[10870, 11638, 12198]","[u'right', u'right', u'up']",train_inspect_cost,,,"[0, 1, 5, 9]","{u'mouseover': {u'state': {u'target': [], u'time': []}, u'edge': {u'target': [], u'time': []}}, u'click': {u'state': {u'target': [u'8', u'7', u'4', u'15', u'16', u'14', u'13', u'3', u'2', u'6', u'11', u'12', u'5', u'9', u'10', u'1'], u'time': [943, 1658, 3178, 3746, 4226, 5039, 5490, 5954, 7098, 7401, 7798, 8147, 8779, 9210, 9530, 10483]}, u'edge': {u'target': [], u'time': []}}, u'mouseout': {u'state': {u'target': [], u'time': []}, u'edge': {u'target': [], u'time': []}}}",,"[-8, 8, 40]","[10869, 227, 43]",24.0,"[None, None, None]",,266789,24.0,mouselab-mdp,3
"[26198, 26774, 27318]","[u'right', u'right', u'up']",train_final,,,"[0, 1, 5, 9]","{u'mouseover': {u'state': {u'target': [], u'time': []}, u'edge': {u'target': [], u'time': []}}, u'click': {u'state': {u'target': [u'6', u'5', u'8', u'7', u'1', u'9', u'10', u'12', u'11'], u'time': [16092, 17042, 17868, 18474, 19570, 20891, 21922, 23101, 23654]}, u'edge': {u'target': [], u'time': []}}, u'mouseout': {u'state': {u'target': [], u'time': []}, u'edge': {u'target': [], u'time': []}}}",,"[8, 24, 8]","[26196, 41, 17]",31.0,"[None, None, None]",,298309,25.0,mouselab-mdp,3
"[18657, 19175, 19889]","[u'up', u'up', u'left']",train_final,,,"[0, 2, 6, 11]","{u'mouseover': {u'state': {u'target': [], u'time': []}, u'edge': {u'target': [], u'time': []}}, u'click': {u'state': {u'target': [u'6', u'5', u'7', u'8', u'2', u'12', u'9', u'13', u'14', u'3', u'15', u'4', u'16', u'11'], u'time': [2445, 3109, 3742, 4437, 5870, 6629, 8253, 10053, 10915, 11765, 12550, 13198, 13605, 17557]}, u'edge': {u'target': [], u'time': []}}, u'mouseout': {u'state': {u'target': [], u'time': []}, u'edge': {u'target': [], u'time': []}}}",,"[24, -8, 40]","[18655, 5, 181]",42.0,"[None, None, None]",,320550,26.0,mouselab-mdp,3
"[18749, 19373, 20382]","[u'down', u'down', u'left']",train_final,,,"[0, 4, 8, 15]","{u'mouseover': {u'state': {u'target': [], u'time': []}, u'edge': {u'target': [], u'time': []}}, u'click': {u'state': {u'target': [u'6', u'8', u'4', u'15', u'16', u'7', u'13', u'14', u'3', u'11', u'12', u'2', u'9', u'5'], u'time': [1554, 4001, 4857, 5682, 6538, 8334, 8906, 9305, 10634, 13655, 14728, 15439, 16145, 16585]}, u'edge': {u'target': [], u'time': []}}, u'mouseout': {u'state': {u'target': [], u'time': []}, u'edge': {u'target': [], u'time': []}}}",,"[8, 40, -8]","[18748, 109, 485]",26.0,"[None, None, None]",,343045,27.0,mouselab-mdp,3
"[8810, 9432, 10521]","[u'right', u'right', u'up']",train_final,,,"[0, 1, 5, 9]","{u'mouseover': {u'state': {u'target': [], u'time': []}, u'edge': {u'target': [], u'time': []}}, u'click': {u'state': {u'target': [u'6', u'13', u'7', u'8', u'5', u'9', u'10', u'1'], u'time': [1613, 3069, 4066, 4674, 6117, 6910, 7469, 7917]}, u'edge': {u'target': [], u'time': []}}, u'mouseout': {u'state': {u'target': [], u'time': []}, u'edge': {u'target': [], u'time': []}}}",,"[8, 40, 24]","[8808, 103, 579]",64.0,"[None, None, None]",,355573,28.0,mouselab-mdp,3
"[15272, 15926, 16567]","[u'up', u'up', u'right']",train_final,,,"[0, 2, 6, 12]","{u'mouseover': {u'state': {u'target': [], u'time': []}, u'edge': {u'target': [], u'time': []}}, u'click': {u'state': {u'target': [u'6', u'5', u'7', u'13', u'14', u'11', u'12', u'2', u'8', u'4', u'9', u'10'], u'time': [883, 1507, 2052, 2611, 3580, 5603, 6528, 7467, 11140, 11611, 12433, 13267]}, u'edge': {u'target': [], u'time': []}}, u'mouseout': {u'state': {u'target': [], u'time': []}, u'edge': {u'target': [], u'time': []}}}",,"[40, 8, 8]","[15264, 130, 121]",44.0,"[None, None, None]",,374502,29.0,mouselab-mdp,3
"[22895, 23421, 24094]","[u'left', u'left', u'up']",test,,,"[0, 3, 7, 13]","{u'mouseover': {u'state': {u'target': [], u'time': []}, u'edge': {u'target': [], u'time': []}}, u'click': {u'state': {u'target': [u'6', u'7', u'14', u'3', u'13', u'5', u'8', u'9', u'12', u'11', u'2', u'1', u'10', u'4'], u'time': [1555, 2982, 5209, 6353, 7017, 8561, 9949, 12043, 13033, 13785, 14313, 15137, 15638, 20903]}, u'edge': {u'target': [], u'time': []}}, u'mouseout': {u'state': {u'target': [], u'time': []}, u'edge': {u'target': [], u'time': []}}}",,"[-24, 24, 8]","[22892, 2, 137]",-6.0,"[None, None, None]",,406037,30.0,mouselab-mdp,3
"[14401, 15457, 16256]","[u'left', u'left', u'up']",test,,,"[0, 3, 7, 13]","{u'mouseover': {u'state': {u'target': [], u'time': []}, u'edge': {u'target': [], u'time': []}}, u'click': {u'state': {u'target': [u'6', u'7', u'8', u'4', u'16', u'15', u'5', u'9', u'10', u'12', u'11'], u'time': [837, 1908, 2622, 3556, 4147, 4613, 5950, 6426, 7009, 8060, 8780]}, u'edge': {u'target': [], u'time': []}}, u'mouseout': {u'state': {u'target': [], u'time': []}, u'edge': {u'target': [], u'time': []}}}",,"[-40, -8, -8]","[14399, 534, 282]",-67.0,"[None, None, None]",,424677,31.0,mouselab-mdp,3
"[11134, 11695, 12350]","[u'right', u'right', u'up']",test,,,"[0, 1, 5, 9]","{u'mouseover': {u'state': {u'target': [], u'time': []}, u'edge': {u'target': [], u'time': []}}, u'click': {u'state': {u'target': [u'6', u'11', u'2', u'7', u'13', u'14', u'3', u'4'], u'time': [1651, 2434, 3879, 4787, 5667, 6357, 7777, 8920]}, u'edge': {u'target': [], u'time': []}}, u'mouseout': {u'state': {u'target': [], u'time': []}, u'edge': {u'target': [], u'time': []}}}",,"[-24, -8, 8]","[11133, 44, 136]",-32.0,"[None, None, None]",,438949,32.0,mouselab-mdp,3
"[5366, 6198, 7142]","[u'right', u'right', u'up']",test,,,"[0, 1, 5, 9]","{u'mouseover': {u'state': {u'target': [], u'time': []}, u'edge': {u'target': [], u'time': []}}, u'click': {u'state': {u'target': [u'5', u'7', u'8', u'6'], u'time': [1194, 2035, 2730, 3364]}, u'edge': {u'target': [], u'time': []}}, u'mouseout': {u'state': {u'target': [], u'time': []}, u'edge': {u'target': [], u'time': []}}}",,"[-8, 24, 24]","[5364, 319, 430]",36.0,"[None, None, None]",,448469,33.0,mouselab-mdp,3
"[10343, 10871, 11590]","[u'down', u'down', u'left']",test,,,"[0, 4, 8, 15]","{u'mouseover': {u'state': {u'target': [], u'time': []}, u'edge': {u'target': [], u'time': []}}, u'click': {u'state': {u'target': [u'5', u'7', u'6', u'11', u'2', u'12', u'4', u'8'], u'time': [939, 1874, 3346, 4100, 4900, 6823, 8195, 8723]}, u'edge': {u'target': [], u'time': []}}, u'mouseout': {u'state': {u'target': [], u'time': []}, u'edge': {u'target': [], u'time': []}}}",,"[8, 8, -24]","[10341, 6, 192]",-16.0,"[None, None, None]",,462502,34.0,mouselab-mdp,3
"[6548, 7123, 8085]","[u'left', u'left', u'up']",test,,,"[0, 3, 7, 13]","{u'mouseover': {u'state': {u'target': [], u'time': []}, u'edge': {u'target': [], u'time': []}}, u'click': {u'state': {u'target': [u'5', u'7', u'6', u'3'], u'time': [973, 1807, 2912, 5444]}, u'edge': {u'target': [], u'time': []}}, u'mouseout': {u'state': {u'target': [], u'time': []}, u'edge': {u'target': [], u'time': []}}}",,"[24, 24, 8]","[6546, 59, 439]",52.0,"[None, None, None]",,473078,35.0,mouselab-mdp,3
"[9568, 10849, 11842]","[u'up', u'up', u'left']",test,,,"[0, 2, 6, 11]","{u'mouseover': {u'state': {u'target': [], u'time': []}, u'edge': {u'target': [], u'time': []}}, u'click': {u'state': {u'target': [u'5', u'7', u'8', u'6', u'13', u'3'], u'time': [1013, 2308, 3132, 4133, 5642, 6573]}, u'edge': {u'target': [], u'time': []}}, u'mouseout': {u'state': {u'target': [], u'time': []}, u'edge': {u'target': [], u'time': []}}}",,"[8, -8, -8]","[9567, 765, 474]",-14.0,"[None, None, None]",,487349,36.0,mouselab-mdp,3
"[21161, 21720, 22520]","[u'left', u'left', u'down']",test,,,"[0, 3, 7, 14]","{u'mouseover': {u'state': {u'target': [], u'time': []}, u'edge': {u'target': [], u'time': []}}, u'click': {u'state': {u'target': [u'5', u'9', u'10', u'1', u'7', u'3'], u'time': [13098, 14581, 16564, 18151, 19089, 19700]}, u'edge': {u'target': [], u'time': []}}, u'mouseout': {u'state': {u'target': [], u'time': []}, u'edge': {u'target': [], u'time': []}}}",,"[8, 8, 8]","[21159, 41, 287]",18.0,"[None, None, None]",,512167,37.0,mouselab-mdp,3
"[5634, 6241, 6801]","[u'down', u'down', u'right']",test,,,"[0, 4, 8, 16]","{u'mouseover': {u'state': {u'target': [], u'time': []}, u'edge': {u'target': [], u'time': []}}, u'click': {u'state': {u'target': [u'7', u'8', u'4', u'15', u'16'], u'time': [614, 1973, 2925, 3922, 4486]}, u'edge': {u'target': [], u'time': []}}, u'mouseout': {u'state': {u'target': [], u'time': []}, u'edge': {u'target': [], u'time': []}}}",,"[8, 24, 24]","[5631, 86, 45]",51.0,"[None, None, None]",,521141,38.0,mouselab-mdp,3
"[6924, 7564, 8332]","[u'up', u'up', u'right']",test,,,"[0, 2, 6, 12]","{u'mouseover': {u'state': {u'target': [], u'time': []}, u'edge': {u'target': [], u'time': []}}, u'click': {u'state': {u'target': [u'8', u'16', u'9', u'5', u'7', u'13', u'6', u'2'], u'time': [505, 1008, 2112, 2538, 3311, 4128, 5223, 5743]}, u'edge': {u'target': [], u'time': []}}, u'mouseout': {u'state': {u'target': [], u'time': []}, u'edge': {u'target': [], u'time': []}}}",,"[24, 8, 8]","[6921, 121, 252]",32.0,"[None, None, None]",,531878,39.0,mouselab-mdp,3
"[3957, 4516, 5141]","[u'up', u'up', u'right']",test,,,"[0, 2, 6, 12]","{u'mouseover': {u'state': {u'target': [], u'time': []}, u'edge': {u'target': [], u'time': []}}, u'click': {u'state': {u'target': [u'2', u'6', u'12', u'11'], u'time': [778, 1585, 2000, 3065]}, u'edge': {u'target': [], u'time': []}}, u'mouseout': {u'state': {u'target': [], u'time': []}, u'edge': {u'target': [], u'time': []}}}",,"[40, 24, -8]","[3954, 32, 107]",52.0,"[None, None, None]",,538822,40.0,mouselab-mdp,3
"[28199, 28838, 29954]","[u'right', u'right', u'down']",test,,,"[0, 1, 5, 10]","{u'mouseover': {u'state': {u'target': [], u'time': []}, u'edge': {u'target': [], u'time': []}}, u'click': {u'state': {u'target': [u'1', u'5', u'9', u'10', u'4', u'8', u'15', u'3', u'2', u'6', u'12', u'11', u'16', u'14', u'7', u'13'], u'time': [814, 1441, 2801, 3330, 4151, 4762, 5482, 7170, 8226, 9474, 10225, 11882, 13122, 14378, 15282, 16162]}, u'edge': {u'target': [], u'time': []}}, u'mouseout': {u'state': {u'target': [], u'time': []}, u'edge': {u'target': [], u'time': []}}}",,"[24, -8, -8]","[28197, 120, 597]",-8.0,"[None, None, None]",,570741,41.0,mouselab-mdp,3
"[12923, 13451, 14139]","[u'right', u'right', u'up']",test,,,"[0, 1, 5, 9]","{u'mouseover': {u'state': {u'target': [], u'time': []}, u'edge': {u'target': [], u'time': []}}, u'click': {u'state': {u'target': [u'8', u'7', u'4', u'16', u'15', u'5', u'9', u'1', u'10', u'12', u'6', u'2'], u'time': [1087, 1863, 2722, 3359, 3822, 5686, 6303, 6732, 8206, 10590, 11276, 12031]}, u'edge': {u'target': [], u'time': []}}, u'mouseout': {u'state': {u'target': [], u'time': []}, u'edge': {u'target': [], u'time': []}}}",,"[8, 24, 24]","[12921, 11, 170]",44.0,"[None, None, None]",,586837,42.0,mouselab-mdp,3
"[11285, 11845, 12564]","[u'right', u'right', u'down']",test,,,"[0, 1, 5, 10]","{u'mouseover': {u'state': {u'target': [], u'time': []}, u'edge': {u'target': [], u'time': []}}, u'click': {u'state': {u'target': [u'1', u'4', u'5', u'9', u'10', u'3', u'6', u'12', u'16', u'8'], u'time': [1515, 2040, 2633, 3253, 3706, 5083, 6686, 7502, 8498, 9618]}, u'edge': {u'target': [], u'time': []}}, u'mouseout': {u'state': {u'target': [], u'time': []}, u'edge': {u'target': [], u'time': []}}}",,"[8, -8, 40]","[11283, 45, 194]",30.0,"[None, None, None]",,603813,43.0,mouselab-mdp,3
"[18786, 19362, 20002]","[u'left', u'left', u'up']",test,,,"[0, 3, 7, 13]","{u'mouseover': {u'state': {u'target': [], u'time': []}, u'edge': {u'target': [], u'time': []}}, u'click': {u'state': {u'target': [u'5', u'4', u'3', u'7', u'13', u'14', u'8', u'15', u'16', u'2', u'6', u'12', u'11', u'9', u'1'], u'time': [1462, 4581, 5998, 6594, 7205, 7685, 8674, 9493, 10422, 11262, 11797, 13125, 14059, 15262, 15702]}, u'edge': {u'target': [], u'time': []}}, u'mouseout': {u'state': {u'target': [], u'time': []}, u'edge': {u'target': [], u'time': []}}}",,"[8, 8, -8]","[18784, 53, 115]",-7.0,"[None, None, None]",,625829,44.0,mouselab-mdp,3
"[11574, 12100, 12789]","[u'right', u'right', u'up']",test,,,"[0, 1, 5, 9]","{u'mouseover': {u'state': {u'target': [], u'time': []}, u'edge': {u'target': [], u'time': []}}, u'click': {u'state': {u'target': [u'8', u'7', u'3', u'13', u'14', u'6', u'11', u'2', u'5', u'9', u'10', u'1'], u'time': [1725, 2552, 3252, 4595, 5169, 6193, 6696, 7897, 8825, 9221, 9800, 10241]}, u'edge': {u'target': [], u'time': []}}, u'mouseout': {u'state': {u'target': [], u'time': []}, u'edge': {u'target': [], u'time': []}}}",,"[24, 8, 24]","[11571, 10, 162]",44.0,"[None, None, None]",,640839,45.0,mouselab-mdp,3
"[15564, 16204, 16843]","[u'up', u'up', u'right']",test,,,"[0, 2, 6, 12]","{u'mouseover': {u'state': {u'target': [], u'time': []}, u'edge': {u'target': [], u'time': []}}, u'click': {u'state': {u'target': [u'8', u'4', u'15', u'16', u'7', u'6', u'11', u'12', u'2', u'5'], u'time': [4224, 5040, 5784, 6805, 8320, 9357, 9882, 10444, 11272, 13904]}, u'edge': {u'target': [], u'time': []}}, u'mouseout': {u'state': {u'target': [], u'time': []}, u'edge': {u'target': [], u'time': []}}}",,"[24, 24, 24]","[15561, 112, 124]",62.0,"[None, None, None]",,660038,46.0,mouselab-mdp,3
"[14521, 15110, 15670]","[u'left', u'left', u'up']",test,,,"[0, 3, 7, 13]","{u'mouseover': {u'state': {u'target': [], u'time': []}, u'edge': {u'target': [], u'time': []}}, u'click': {u'state': {u'target': [u'7', u'3', u'13', u'14', u'4', u'8', u'15', u'6', u'11', u'9', u'1', u'5', u'10'], u'time': [839, 2171, 2663, 4386, 5930, 6938, 7424, 8895, 9522, 10586, 11527, 12591, 13499]}, u'edge': {u'target': [], u'time': []}}, u'mouseout': {u'state': {u'target': [], u'time': []}, u'edge': {u'target': [], u'time': []}}}",,"[-8, 24, -8]","[14519, 75, 32]",-5.0,"[None, None, None]",,677671,47.0,mouselab-mdp,3
"[5531, 7323, 7866]","[u'left', u'left', u'up']",test,,,"[0, 3, 7, 13]","{u'mouseover': {u'state': {u'target': [], u'time': []}, u'edge': {u'target': [], u'time': []}}, u'click': {u'state': {u'target': [u'5', u'7', u'3', u'13'], u'time': [1536, 3126, 3712, 4582]}, u'edge': {u'target': [], u'time': []}}, u'mouseout': {u'state': {u'target': [], u'time': []}, u'edge': {u'target': [], u'time': []}}}",,"[40, 8, 8]","[5529, 1263, 24]",52.0,"[None, None, None]",,687621,48.0,mouselab-mdp,3
