action_times,actions,block,button_pressed,key_press,path,queries,responses,rewards,rt,score,simulation_mode,stimulus,time_elapsed,trial_index,trial_id,trial_type,pid
,,,0.0,,,,,,3735,,,"<h1 id=""trainingcompleted"">Training Completed</h1>

<p>Well done! You've completed the training phase and you're ready to
play <em>Web of Cash</em> for real. You will have <strong>20
rounds</strong> to make as much money as you can. Remember, <strong>you will earn 1 cent for every $10 you make in the game.</strong>
Good luck!</p>",373995,,,button-response,0
,,,0.0,,,,,,14702,,,"<h1 id=""trainingcompleted"">Training Completed</h1>

<p>Well done! You've completed the training phase and you're ready to
play <em>Web of Cash</em> for real. You will have <strong>20
rounds</strong> to make as much money as you can. Remember, <strong>you will earn 1 cent for every $10 you make in the game.</strong>
Good luck!</p>",763544,,,button-response,1
,,,0.0,,,,,,5293,,,"<h1 id=""trainingcompleted"">Training Completed</h1>

<p>Well done! You've completed the training phase and you're ready to
play <em>Web of Cash</em> for real. You will have <strong>20
rounds</strong> to make as much money as you can. Remember, <strong>you will earn 1 cent for every $10 you make in the game.</strong>
Good luck!</p>",362914,,,button-response,2
,,,0.0,,,,,,6019,,,"<h1 id=""trainingcompleted"">Training Completed</h1>

<p>Well done! You've completed the training phase and you're ready to
play <em>Web of Cash</em> for real. You will have <strong>20
rounds</strong> to make as much money as you can. Remember, <strong>you will earn 1 cent for every $10 you make in the game.</strong>
Good luck!</p>",357309,,,button-response,3
,,,0.0,,,,,,3471,,,"<h1 id=""trainingcompleted"">Training Completed</h1>

<p>Well done! You've completed the training phase and you're ready to
play <em>Web of Cash</em> for real. You will have <strong>20
rounds</strong> to make as much money as you can. Remember, <strong>you will earn 1 cent for every $10 you make in the game.</strong>
Good luck!</p>",606371,,,button-response,4
,,,0.0,,,,,,1944,,,"<h1 id=""trainingcompleted"">Training Completed</h1>

<p>Well done! You've completed the training phase and you're ready to
play <em>Web of Cash</em> for real. You will have <strong>20
rounds</strong> to make as much money as you can. Remember, <strong>you will earn 1 cent for every $10 you make in the game.</strong>
Good luck!</p>",257856,,,button-response,5
