action_times,actions,button_pressed,correct,delays,path,queries,questions,responses,rt,score,stimulus,time_elapsed,trial_index,trial_i,trial_type,view_history,pid
,,,,,,,,,132071,,,132072,,,instructions,"[{""page_index"":0,""viewing_time"":45069},{""page_index"":1,""viewing_time"":34468},{""page_index"":2,""viewing_time"":29752},{""page_index"":3,""viewing_time"":22781}]",0
,,,,,,,,,22180,,,197694,,,instructions,"[{""page_index"":0,""viewing_time"":12069},{""page_index"":1,""viewing_time"":4325},{""page_index"":2,""viewing_time"":4201},{""page_index"":3,""viewing_time"":1584}]",0
,,,,,,,,,452081,,,452083,,,instructions,"[{""page_index"":0,""viewing_time"":62492},{""page_index"":1,""viewing_time"":340656},{""page_index"":2,""viewing_time"":32876},{""page_index"":3,""viewing_time"":16056}]",1
,,,,,,,,,179535,,,179540,,,instructions,"[{""page_index"":0,""viewing_time"":60339},{""page_index"":1,""viewing_time"":56211},{""page_index"":2,""viewing_time"":41776},{""page_index"":3,""viewing_time"":21206}]",2
,,,,,,,,,79033,,,304847,,,instructions,"[{""page_index"":0,""viewing_time"":17839},{""page_index"":1,""viewing_time"":26794},{""page_index"":2,""viewing_time"":23393},{""page_index"":3,""viewing_time"":11006}]",2
,,,,,,,,,148295,,,148296,,,instructions,"[{""page_index"":0,""viewing_time"":56013},{""page_index"":1,""viewing_time"":32223},{""page_index"":2,""viewing_time"":43593},{""page_index"":3,""viewing_time"":16465}]",3
,,,,,,,,,28563,,,227326,,,instructions,"[{""page_index"":0,""viewing_time"":5402},{""page_index"":1,""viewing_time"":3760},{""page_index"":2,""viewing_time"":12544},{""page_index"":3,""viewing_time"":6856}]",3
,,,,,,,,,226632,,,226633,,,instructions,"[{""page_index"":0,""viewing_time"":53084},{""page_index"":1,""viewing_time"":20507},{""page_index"":2,""viewing_time"":139985},{""page_index"":3,""viewing_time"":13055}]",4
,,,,,,,,,34226,,,290530,,,instructions,"[{""page_index"":0,""viewing_time"":5442},{""page_index"":1,""viewing_time"":7108},{""page_index"":2,""viewing_time"":11020},{""page_index"":3,""viewing_time"":10656}]",4
,,,,,,,,,89364,,,89368,,,instructions,"[{""page_index"":0,""viewing_time"":41929},{""page_index"":1,""viewing_time"":29611},{""page_index"":2,""viewing_time"":9321},{""page_index"":3,""viewing_time"":8500}]",5
,,,,,,,,,42752,,,42754,,,instructions,"[{""page_index"":0,""viewing_time"":25542},{""page_index"":1,""viewing_time"":12162},{""page_index"":2,""viewing_time"":5047}]",6
,,,,,,,,,29612,,,89770,,,instructions,"[{""page_index"":0,""viewing_time"":10177},{""page_index"":1,""viewing_time"":14709},{""page_index"":2,""viewing_time"":4725}]",6
,,,,,,,,,128371,,,128375,,,instructions,"[{""page_index"":0,""viewing_time"":49955},{""page_index"":1,""viewing_time"":51473},{""page_index"":2,""viewing_time"":26939}]",7
,,,,,,,,,145862,,,145866,,,instructions,"[{""page_index"":0,""viewing_time"":56717},{""page_index"":1,""viewing_time"":56397},{""page_index"":2,""viewing_time"":32744}]",8
,,,,,,,,,151241,,,151242,,,instructions,"[{""page_index"":0,""viewing_time"":41330},{""page_index"":1,""viewing_time"":44354},{""page_index"":2,""viewing_time"":39660},{""page_index"":3,""viewing_time"":25895}]",9
,,,,,,,,,9684,,,9686,,,instructions,"[{""page_index"":0,""viewing_time"":4460},{""page_index"":1,""viewing_time"":1783},{""page_index"":2,""viewing_time"":2645},{""page_index"":3,""viewing_time"":794}]",10
,,,,,,,,,63430,,,86060,,,instructions,"[{""page_index"":0,""viewing_time"":4308},{""page_index"":1,""viewing_time"":3103},{""page_index"":2,""viewing_time"":5637},{""page_index"":1,""viewing_time"":494},{""page_index"":0,""viewing_time"":8460},{""page_index"":1,""viewing_time"":23796},{""page_index"":2,""viewing_time"":5330},{""page_index"":3,""viewing_time"":12300}]",10
,,,,,,,,,163736,,,163737,,,instructions,"[{""page_index"":0,""viewing_time"":149967},{""page_index"":1,""viewing_time"":8624},{""page_index"":2,""viewing_time"":5144}]",11
,,,,,,,,,25017,,,222064,,,instructions,"[{""page_index"":0,""viewing_time"":5472},{""page_index"":1,""viewing_time"":7680},{""page_index"":2,""viewing_time"":11864}]",11
,,,,,,,,,104278,,,104279,,,instructions,"[{""page_index"":0,""viewing_time"":46910},{""page_index"":1,""viewing_time"":36967},{""page_index"":2,""viewing_time"":20400}]",12
,,,,,,,,,114100,,,114101,,,instructions,"[{""page_index"":0,""viewing_time"":52768},{""page_index"":1,""viewing_time"":32606},{""page_index"":2,""viewing_time"":28725}]",13
,,,,,,,,,85298,,,85300,,,instructions,"[{""page_index"":0,""viewing_time"":12489},{""page_index"":1,""viewing_time"":25548},{""page_index"":2,""viewing_time"":31073},{""page_index"":3,""viewing_time"":16187}]",14
,,,,,,,,,134348,,,134350,,,instructions,"[{""page_index"":0,""viewing_time"":54532},{""page_index"":1,""viewing_time"":51163},{""page_index"":2,""viewing_time"":28652}]",15
,,,,,,,,,98663,,,98664,,,instructions,"[{""page_index"":0,""viewing_time"":46070},{""page_index"":1,""viewing_time"":15600},{""page_index"":2,""viewing_time"":27718},{""page_index"":3,""viewing_time"":9275}]",16
,,,,,,,,,91984,,,221993,,,instructions,"[{""page_index"":0,""viewing_time"":32478},{""page_index"":1,""viewing_time"":16061},{""page_index"":2,""viewing_time"":31182},{""page_index"":3,""viewing_time"":12263}]",16
,,,,,,,,,125399,,,125403,,,instructions,"[{""page_index"":0,""viewing_time"":46112},{""page_index"":1,""viewing_time"":29659},{""page_index"":2,""viewing_time"":30925},{""page_index"":3,""viewing_time"":18700}]",17
,,,,,,,,,47932,,,206917,,,instructions,"[{""page_index"":0,""viewing_time"":7324},{""page_index"":1,""viewing_time"":6835},{""page_index"":2,""viewing_time"":31482},{""page_index"":3,""viewing_time"":2290}]",17
,,,,,,,,,109113,,,109114,,,instructions,"[{""page_index"":0,""viewing_time"":45726},{""page_index"":1,""viewing_time"":38219},{""page_index"":2,""viewing_time"":25167}]",18
,,,,,,,,,124996,,,124998,,,instructions,"[{""page_index"":0,""viewing_time"":26193},{""page_index"":1,""viewing_time"":40486},{""page_index"":2,""viewing_time"":41361},{""page_index"":3,""viewing_time"":16956}]",19
,,,,,,,,,161536,,,161538,,,instructions,"[{""page_index"":0,""viewing_time"":65902},{""page_index"":1,""viewing_time"":47220},{""page_index"":2,""viewing_time"":20369},{""page_index"":3,""viewing_time"":28044}]",20
,,,,,,,,,139454,,,392743,,,instructions,"[{""page_index"":0,""viewing_time"":14274},{""page_index"":1,""viewing_time"":34919},{""page_index"":2,""viewing_time"":62013},{""page_index"":3,""viewing_time"":28247}]",20
,,,,,,,,,139514,,,139516,,,instructions,"[{""page_index"":0,""viewing_time"":41894},{""page_index"":1,""viewing_time"":14419},{""page_index"":0,""viewing_time"":9593},{""page_index"":1,""viewing_time"":4077},{""page_index"":0,""viewing_time"":9605},{""page_index"":1,""viewing_time"":10848},{""page_index"":2,""viewing_time"":3018},{""page_index"":1,""viewing_time"":1935},{""page_index"":0,""viewing_time"":5319},{""page_index"":1,""viewing_time"":13714},{""page_index"":2,""viewing_time"":7898},{""page_index"":1,""viewing_time"":2304},{""page_index"":2,""viewing_time"":14890}]",21
,,,,,,,,,52692,,,222701,,,instructions,"[{""page_index"":0,""viewing_time"":4425},{""page_index"":1,""viewing_time"":13882},{""page_index"":0,""viewing_time"":9561},{""page_index"":1,""viewing_time"":11614},{""page_index"":2,""viewing_time"":13210}]",21
,,,,,,,,,117701,,,117701,,,instructions,"[{""page_index"":0,""viewing_time"":35693},{""page_index"":1,""viewing_time"":31480},{""page_index"":2,""viewing_time"":31895},{""page_index"":3,""viewing_time"":18632}]",22
,,,,,,,,,69941,,,237667,,,instructions,"[{""page_index"":0,""viewing_time"":9701},{""page_index"":1,""viewing_time"":20232},{""page_index"":2,""viewing_time"":26399},{""page_index"":3,""viewing_time"":13608}]",22
,,,,,,,,,78461,,,336697,,,instructions,"[{""page_index"":0,""viewing_time"":27966},{""page_index"":1,""viewing_time"":34031},{""page_index"":2,""viewing_time"":14232},{""page_index"":3,""viewing_time"":2232}]",22
,,,,,,,,,4806,,,364849,,,instructions,"[{""page_index"":0,""viewing_time"":2182},{""page_index"":1,""viewing_time"":200},{""page_index"":2,""viewing_time"":1640},{""page_index"":3,""viewing_time"":783}]",22
,,,,,,,,,57374,,,435952,,,instructions,"[{""page_index"":0,""viewing_time"":27502},{""page_index"":1,""viewing_time"":15104},{""page_index"":2,""viewing_time"":10184},{""page_index"":3,""viewing_time"":4584}]",22
,,,,,,,,,8047,,,469320,,,instructions,"[{""page_index"":0,""viewing_time"":4727},{""page_index"":1,""viewing_time"":223},{""page_index"":0,""viewing_time"":176},{""page_index"":1,""viewing_time"":176},{""page_index"":0,""viewing_time"":304},{""page_index"":1,""viewing_time"":736},{""page_index"":2,""viewing_time"":1000},{""page_index"":3,""viewing_time"":704}]",22
,,,,,,,,,124140,,,124141,,,instructions,"[{""page_index"":0,""viewing_time"":33545},{""page_index"":1,""viewing_time"":33335},{""page_index"":2,""viewing_time"":30050},{""page_index"":3,""viewing_time"":27208}]",23
,,,,,,,,,57682,,,57682,,,instructions,"[{""page_index"":0,""viewing_time"":27972},{""page_index"":1,""viewing_time"":20390},{""page_index"":2,""viewing_time"":9319}]",24
,,,,,,,,,48341,,,48343,,,instructions,"[{""page_index"":0,""viewing_time"":14467},{""page_index"":1,""viewing_time"":8523},{""page_index"":2,""viewing_time"":17063},{""page_index"":3,""viewing_time"":8286}]",25
,,,,,,,,,73617,,,73620,,,instructions,"[{""page_index"":0,""viewing_time"":3481},{""page_index"":1,""viewing_time"":2606},{""page_index"":2,""viewing_time"":39480},{""page_index"":3,""viewing_time"":28048}]",26
,,,,,,,,,70873,,,70874,,,instructions,"[{""page_index"":0,""viewing_time"":35699},{""page_index"":1,""viewing_time"":24691},{""page_index"":2,""viewing_time"":10481}]",27
,,,,,,,,,27878,,,116168,,,instructions,"[{""page_index"":0,""viewing_time"":6234},{""page_index"":1,""viewing_time"":7792},{""page_index"":2,""viewing_time"":13851}]",27
,,,,,,,,,39877,,,172275,,,instructions,"[{""page_index"":0,""viewing_time"":2834},{""page_index"":1,""viewing_time"":5957},{""page_index"":2,""viewing_time"":9601},{""page_index"":1,""viewing_time"":20992},{""page_index"":2,""viewing_time"":493}]",27
,,,,,,,,,17868,,,206147,,,instructions,"[{""page_index"":0,""viewing_time"":14315},{""page_index"":1,""viewing_time"":3364},{""page_index"":2,""viewing_time"":189}]",27
,,,,,,,,,4609,,,232439,,,instructions,"[{""page_index"":0,""viewing_time"":2489},{""page_index"":1,""viewing_time"":528},{""page_index"":0,""viewing_time"":586},{""page_index"":1,""viewing_time"":461},{""page_index"":2,""viewing_time"":545}]",27
,,,,,,,,,61499,,,61501,,,instructions,"[{""page_index"":0,""viewing_time"":38311},{""page_index"":1,""viewing_time"":18758},{""page_index"":2,""viewing_time"":4429}]",28
,,,,,,,,,78891,,,167143,,,instructions,"[{""page_index"":0,""viewing_time"":32265},{""page_index"":1,""viewing_time"":24552},{""page_index"":2,""viewing_time"":22073}]",28
,,,,,,,,,219463,,,219465,,,instructions,"[{""page_index"":0,""viewing_time"":94249},{""page_index"":1,""viewing_time"":1509},{""page_index"":0,""viewing_time"":7076},{""page_index"":1,""viewing_time"":2082},{""page_index"":0,""viewing_time"":5299},{""page_index"":1,""viewing_time"":8627},{""page_index"":0,""viewing_time"":11879},{""page_index"":1,""viewing_time"":35952},{""page_index"":2,""viewing_time"":28607},{""page_index"":3,""viewing_time"":24182}]",29
,,,,,,,,,29464,,,298745,,,instructions,"[{""page_index"":0,""viewing_time"":6601},{""page_index"":1,""viewing_time"":4406},{""page_index"":0,""viewing_time"":780},{""page_index"":1,""viewing_time"":1361},{""page_index"":2,""viewing_time"":14583},{""page_index"":3,""viewing_time"":1732}]",29
,,,,,,,,,121010,,,121015,,,instructions,"[{""page_index"":0,""viewing_time"":53001},{""page_index"":1,""viewing_time"":44023},{""page_index"":2,""viewing_time"":23982}]",30
,,,,,,,,,135785,,,135786,,,instructions,"[{""page_index"":0,""viewing_time"":34543},{""page_index"":1,""viewing_time"":8768},{""page_index"":2,""viewing_time"":48560},{""page_index"":3,""viewing_time"":43912}]",31
,,,,,,,,,54723,,,237633,,,instructions,"[{""page_index"":0,""viewing_time"":8833},{""page_index"":1,""viewing_time"":6864},{""page_index"":2,""viewing_time"":24656},{""page_index"":3,""viewing_time"":14369}]",31
,,,,,,,,,49200,,,49201,,,instructions,"[{""page_index"":0,""viewing_time"":6999},{""page_index"":1,""viewing_time"":23781},{""page_index"":2,""viewing_time"":6264},{""page_index"":3,""viewing_time"":12155}]",32
,,,,,,,,,73717,,,154686,,,instructions,"[{""page_index"":0,""viewing_time"":12728},{""page_index"":1,""viewing_time"":17704},{""page_index"":2,""viewing_time"":26169},{""page_index"":3,""viewing_time"":17114}]",32
,,,,,,,,,111880,,,291965,,,instructions,"[{""page_index"":0,""viewing_time"":24323},{""page_index"":1,""viewing_time"":29915},{""page_index"":2,""viewing_time"":36006},{""page_index"":3,""viewing_time"":21635}]",32
,,,,,,,,,10114,,,331943,,,instructions,"[{""page_index"":0,""viewing_time"":1958},{""page_index"":1,""viewing_time"":4654},{""page_index"":2,""viewing_time"":2146},{""page_index"":3,""viewing_time"":1354}]",32
,,,,,,,,,39637,,,401589,,,instructions,"[{""page_index"":0,""viewing_time"":9900},{""page_index"":1,""viewing_time"":2624},{""page_index"":2,""viewing_time"":8151},{""page_index"":3,""viewing_time"":18961}]",32
,,,,,,,,,59944,,,482870,,,instructions,"[{""page_index"":0,""viewing_time"":12450},{""page_index"":1,""viewing_time"":29910},{""page_index"":2,""viewing_time"":12964},{""page_index"":3,""viewing_time"":4619}]",32
,,,,,,,,,18020,,,523500,,,instructions,"[{""page_index"":0,""viewing_time"":2685},{""page_index"":1,""viewing_time"":4335},{""page_index"":2,""viewing_time"":5422},{""page_index"":3,""viewing_time"":5577}]",32
,,,,,,,,,71333,,,71334,,,instructions,"[{""page_index"":0,""viewing_time"":46658},{""page_index"":1,""viewing_time"":5849},{""page_index"":2,""viewing_time"":18825}]",33
,,,,,,,,,40703,,,138888,,,instructions,"[{""page_index"":0,""viewing_time"":10713},{""page_index"":1,""viewing_time"":21218},{""page_index"":2,""viewing_time"":8771}]",33
,,,,,,,,,8770,,,261048,,,instructions,"[{""page_index"":0,""viewing_time"":5792},{""page_index"":1,""viewing_time"":1240},{""page_index"":2,""viewing_time"":1738}]",33
,,,,,,,,,44660,,,339201,,,instructions,"[{""page_index"":0,""viewing_time"":16089},{""page_index"":1,""viewing_time"":18545},{""page_index"":2,""viewing_time"":10025}]",33
,,,,,,,,,13095,,,366575,,,instructions,"[{""page_index"":0,""viewing_time"":4249},{""page_index"":1,""viewing_time"":2874},{""page_index"":2,""viewing_time"":5972}]",33
,,,,,,,,,9836,,,401755,,,instructions,"[{""page_index"":0,""viewing_time"":8468},{""page_index"":1,""viewing_time"":834},{""page_index"":2,""viewing_time"":533}]",33
,,,,,,,,,117712,,,117715,,,instructions,"[{""page_index"":0,""viewing_time"":50739},{""page_index"":1,""viewing_time"":7081},{""page_index"":0,""viewing_time"":16805},{""page_index"":1,""viewing_time"":22479},{""page_index"":2,""viewing_time"":20607}]",34
,,,,,,,,,60682,,,217308,,,instructions,"[{""page_index"":0,""viewing_time"":13299},{""page_index"":1,""viewing_time"":23415},{""page_index"":2,""viewing_time"":23967}]",34
,,,,,,,,,17541,,,267306,,,instructions,"[{""page_index"":0,""viewing_time"":3236},{""page_index"":1,""viewing_time"":6056},{""page_index"":2,""viewing_time"":8248}]",34
,,,,,,,,,47973,,,47974,,,instructions,"[{""page_index"":0,""viewing_time"":14445},{""page_index"":1,""viewing_time"":6857},{""page_index"":2,""viewing_time"":21154},{""page_index"":3,""viewing_time"":5516}]",35
,,,,,,,,,42774,,,122023,,,instructions,"[{""page_index"":0,""viewing_time"":7263},{""page_index"":1,""viewing_time"":9462},{""page_index"":2,""viewing_time"":3096},{""page_index"":1,""viewing_time"":2928},{""page_index"":2,""viewing_time"":16048},{""page_index"":3,""viewing_time"":3976}]",35
,,,,,,,,,21572,,,163419,,,instructions,"[{""page_index"":0,""viewing_time"":2841},{""page_index"":1,""viewing_time"":2482},{""page_index"":2,""viewing_time"":8789},{""page_index"":3,""viewing_time"":7459}]",35
,,,,,,,,,74385,,,74387,,,instructions,"[{""page_index"":0,""viewing_time"":32817},{""page_index"":1,""viewing_time"":26047},{""page_index"":2,""viewing_time"":15520}]",36
,,,,,,,,,26678,,,121794,,,instructions,"[{""page_index"":0,""viewing_time"":8741},{""page_index"":1,""viewing_time"":6760},{""page_index"":2,""viewing_time"":11176}]",36
,,,,,,,,,27983,,,163721,,,instructions,"[{""page_index"":0,""viewing_time"":9879},{""page_index"":1,""viewing_time"":12271},{""page_index"":2,""viewing_time"":5832}]",36
,,,,,,,,,109778,,,109779,,,instructions,"[{""page_index"":0,""viewing_time"":25657},{""page_index"":1,""viewing_time"":11269},{""page_index"":0,""viewing_time"":9916},{""page_index"":1,""viewing_time"":5087},{""page_index"":0,""viewing_time"":7863},{""page_index"":1,""viewing_time"":11311},{""page_index"":2,""viewing_time"":22302},{""page_index"":3,""viewing_time"":16373}]",37
,,,,,,,,,49849,,,199136,,,instructions,"[{""page_index"":0,""viewing_time"":8167},{""page_index"":1,""viewing_time"":7765},{""page_index"":2,""viewing_time"":26865},{""page_index"":3,""viewing_time"":7051}]",37
,,,,,,,,,121524,,,121526,,,instructions,"[{""page_index"":0,""viewing_time"":48352},{""page_index"":1,""viewing_time"":35211},{""page_index"":2,""viewing_time"":37958}]",38
,,,,,,,,,297151,,,297153,,,instructions,"[{""page_index"":0,""viewing_time"":83645},{""page_index"":1,""viewing_time"":124119},{""page_index"":2,""viewing_time"":58361},{""page_index"":3,""viewing_time"":31023}]",39
,,,,,,,,,14580,,,387868,,,instructions,"[{""page_index"":0,""viewing_time"":3521},{""page_index"":1,""viewing_time"":1640},{""page_index"":2,""viewing_time"":7636},{""page_index"":3,""viewing_time"":1782}]",39
,,,,,,,,,146544,,,146545,,,instructions,"[{""page_index"":0,""viewing_time"":68256},{""page_index"":1,""viewing_time"":64704},{""page_index"":2,""viewing_time"":13582}]",40
,,,,,,,,,113554,,,291784,,,instructions,"[{""page_index"":0,""viewing_time"":38258},{""page_index"":1,""viewing_time"":45168},{""page_index"":2,""viewing_time"":30127}]",40
,,,,,,,,,71302,,,394904,,,instructions,"[{""page_index"":0,""viewing_time"":28269},{""page_index"":1,""viewing_time"":27522},{""page_index"":2,""viewing_time"":15510}]",40
,,,,,,,,,4387,,,430664,,,instructions,"[{""page_index"":0,""viewing_time"":2394},{""page_index"":1,""viewing_time"":880},{""page_index"":2,""viewing_time"":1112}]",40
,,,,,,,,,76328,,,76328,,,instructions,"[{""page_index"":0,""viewing_time"":30464},{""page_index"":1,""viewing_time"":27687},{""page_index"":2,""viewing_time"":18176}]",41
,,,,,,,,,414866,,,414868,,,instructions,"[{""page_index"":0,""viewing_time"":374230},{""page_index"":1,""viewing_time"":26669},{""page_index"":2,""viewing_time"":13966}]",42
,,,,,,,,,145151,,,145151,,,instructions,"[{""page_index"":0,""viewing_time"":53231},{""page_index"":1,""viewing_time"":53629},{""page_index"":2,""viewing_time"":38289}]",43
,,,,,,,,,154139,,,154143,,,instructions,"[{""page_index"":0,""viewing_time"":26733},{""page_index"":1,""viewing_time"":26009},{""page_index"":2,""viewing_time"":88424},{""page_index"":3,""viewing_time"":12947}]",44
,,,,,,,,,163492,,,163494,,,instructions,"[{""page_index"":0,""viewing_time"":84953},{""page_index"":1,""viewing_time"":43991},{""page_index"":2,""viewing_time"":34548}]",45
,,,,,,,,,72281,,,274036,,,instructions,"[{""page_index"":0,""viewing_time"":24519},{""page_index"":1,""viewing_time"":1472},{""page_index"":0,""viewing_time"":6848},{""page_index"":1,""viewing_time"":27792},{""page_index"":2,""viewing_time"":11650}]",45
,,,,,,,,,4214,,,297124,,,instructions,"[{""page_index"":0,""viewing_time"":2757},{""page_index"":1,""viewing_time"":688},{""page_index"":2,""viewing_time"":769}]",45
,,,,,,,,,4453,,,312339,,,instructions,"[{""page_index"":0,""viewing_time"":2717},{""page_index"":1,""viewing_time"":904},{""page_index"":2,""viewing_time"":831}]",45
,,,,,,,,,3086,,,328435,,,instructions,"[{""page_index"":0,""viewing_time"":1669},{""page_index"":1,""viewing_time"":832},{""page_index"":2,""viewing_time"":584}]",45
,,,,,,,,,5193,,,351371,,,instructions,"[{""page_index"":0,""viewing_time"":2952},{""page_index"":1,""viewing_time"":408},{""page_index"":0,""viewing_time"":640},{""page_index"":1,""viewing_time"":680},{""page_index"":2,""viewing_time"":512}]",45
,,,,,,,,,50266,,,455019,,,instructions,"[{""page_index"":0,""viewing_time"":38099},{""page_index"":1,""viewing_time"":10962},{""page_index"":2,""viewing_time"":1205}]",45
,,,,,,,,,394342,,,394345,,,instructions,"[{""page_index"":0,""viewing_time"":78500},{""page_index"":1,""viewing_time"":44494},{""page_index"":2,""viewing_time"":42349},{""page_index"":3,""viewing_time"":33617},{""page_index"":2,""viewing_time"":4188},{""page_index"":1,""viewing_time"":2381},{""page_index"":0,""viewing_time"":19270},{""page_index"":1,""viewing_time"":69181},{""page_index"":2,""viewing_time"":73115},{""page_index"":3,""viewing_time"":27246}]",46
,,,,,,,,,342396,,,342399,,,instructions,"[{""page_index"":0,""viewing_time"":104242},{""page_index"":1,""viewing_time"":117279},{""page_index"":2,""viewing_time"":66993},{""page_index"":3,""viewing_time"":53878}]",47
,,,,,,,,,107985,,,585914,,,instructions,"[{""page_index"":0,""viewing_time"":15162},{""page_index"":1,""viewing_time"":30552},{""page_index"":2,""viewing_time"":32951},{""page_index"":3,""viewing_time"":29319}]",47
,,,,,,,,,182591,,,827746,,,instructions,"[{""page_index"":0,""viewing_time"":50063},{""page_index"":1,""viewing_time"":80575},{""page_index"":2,""viewing_time"":31451},{""page_index"":3,""viewing_time"":20501}]",47
,,,,,,,,,5957,,,1241659,,,instructions,"[{""page_index"":0,""viewing_time"":2844},{""page_index"":1,""viewing_time"":639},{""page_index"":2,""viewing_time"":1909},{""page_index"":3,""viewing_time"":564}]",47
,,,,,,,,,250799,,,250801,,,instructions,"[{""page_index"":0,""viewing_time"":24451},{""page_index"":1,""viewing_time"":21242},{""page_index"":2,""viewing_time"":58173},{""page_index"":3,""viewing_time"":26767},{""page_index"":2,""viewing_time"":2019},{""page_index"":1,""viewing_time"":1101},{""page_index"":0,""viewing_time"":24891},{""page_index"":1,""viewing_time"":23242},{""page_index"":2,""viewing_time"":1635},{""page_index"":1,""viewing_time"":11596},{""page_index"":2,""viewing_time"":25284},{""page_index"":3,""viewing_time"":30397}]",48
,,,,,,,,,16465,,,539631,,,instructions,"[{""page_index"":0,""viewing_time"":8917},{""page_index"":1,""viewing_time"":1005},{""page_index"":0,""viewing_time"":1858},{""page_index"":1,""viewing_time"":2019},{""page_index"":2,""viewing_time"":1488},{""page_index"":3,""viewing_time"":1177}]",48
,,,,,,,,,10800,,,572328,,,instructions,"[{""page_index"":0,""viewing_time"":1937},{""page_index"":1,""viewing_time"":1686},{""page_index"":2,""viewing_time"":6590},{""page_index"":3,""viewing_time"":587}]",48
,,,,,,,,,78045,,,684729,,,instructions,"[{""page_index"":0,""viewing_time"":7913},{""page_index"":1,""viewing_time"":16526},{""page_index"":2,""viewing_time"":45962},{""page_index"":3,""viewing_time"":7643}]",48
,,,,,,,,,297497,,,297498,,,instructions,"[{""page_index"":0,""viewing_time"":99463},{""page_index"":1,""viewing_time"":111679},{""page_index"":2,""viewing_time"":86353}]",49
,,,,,,,,,228583,,,626530,,,instructions,"[{""page_index"":0,""viewing_time"":70054},{""page_index"":1,""viewing_time"":116840},{""page_index"":2,""viewing_time"":41688}]",49
,,,,,,,,,91454,,,91454,,,instructions,"[{""page_index"":0,""viewing_time"":53872},{""page_index"":1,""viewing_time"":21823},{""page_index"":2,""viewing_time"":15759}]",50
,,,,,,,,,25530,,,133253,,,instructions,"[{""page_index"":0,""viewing_time"":7826},{""page_index"":1,""viewing_time"":10339},{""page_index"":2,""viewing_time"":7365}]",50
,,,,,,,,,71082,,,71083,,,instructions,"[{""page_index"":0,""viewing_time"":22521},{""page_index"":1,""viewing_time"":17147},{""page_index"":2,""viewing_time"":19741},{""page_index"":3,""viewing_time"":11672}]",51
,,,,,,,,,92184,,,92184,,,instructions,"[{""page_index"":0,""viewing_time"":36372},{""page_index"":1,""viewing_time"":38768},{""page_index"":2,""viewing_time"":17043}]",52
,,,,,,,,,259426,,,259428,,,instructions,"[{""page_index"":0,""viewing_time"":129710},{""page_index"":1,""viewing_time"":93390},{""page_index"":2,""viewing_time"":36325}]",53
,,,,,,,,,193812,,,193812,,,instructions,"[{""page_index"":0,""viewing_time"":62012},{""page_index"":1,""viewing_time"":81624},{""page_index"":2,""viewing_time"":50176}]",54
,,,,,,,,,49242,,,49242,,,instructions,"[{""page_index"":0,""viewing_time"":24606},{""page_index"":1,""viewing_time"":8168},{""page_index"":2,""viewing_time"":10647},{""page_index"":3,""viewing_time"":5820}]",55
,,,,,,,,,28322,,,104586,,,instructions,"[{""page_index"":0,""viewing_time"":7648},{""page_index"":1,""viewing_time"":3990},{""page_index"":2,""viewing_time"":11099},{""page_index"":3,""viewing_time"":5584}]",55
,,,,,,,,,32055,,,163792,,,instructions,"[{""page_index"":0,""viewing_time"":5723},{""page_index"":1,""viewing_time"":9762},{""page_index"":2,""viewing_time"":11671},{""page_index"":3,""viewing_time"":4898}]",55
,,,,,,,,,22361,,,214650,,,instructions,"[{""page_index"":0,""viewing_time"":7669},{""page_index"":1,""viewing_time"":3308},{""page_index"":2,""viewing_time"":8495},{""page_index"":3,""viewing_time"":2888}]",55
,,,,,,,,,64501,,,304823,,,instructions,"[{""page_index"":0,""viewing_time"":4814},{""page_index"":1,""viewing_time"":10038},{""page_index"":0,""viewing_time"":13181},{""page_index"":1,""viewing_time"":6844},{""page_index"":2,""viewing_time"":20480},{""page_index"":3,""viewing_time"":9143}]",55
,,,,,,,,,162878,,,162879,,,instructions,"[{""page_index"":0,""viewing_time"":69111},{""page_index"":1,""viewing_time"":64453},{""page_index"":2,""viewing_time"":29313}]",56
,,,,,,,,,110997,,,110998,,,instructions,"[{""page_index"":0,""viewing_time"":26634},{""page_index"":1,""viewing_time"":35482},{""page_index"":2,""viewing_time"":31248},{""page_index"":3,""viewing_time"":17632}]",57
,,,,,,,,,252158,,,252159,,,instructions,"[{""page_index"":0,""viewing_time"":58965},{""page_index"":1,""viewing_time"":35665},{""page_index"":2,""viewing_time"":28641},{""page_index"":1,""viewing_time"":1740},{""page_index"":0,""viewing_time"":25483},{""page_index"":1,""viewing_time"":90376},{""page_index"":2,""viewing_time"":11288}]",58
,,,,,,,,,77757,,,370455,,,instructions,"[{""page_index"":0,""viewing_time"":21461},{""page_index"":1,""viewing_time"":39395},{""page_index"":2,""viewing_time"":16901}]",58
,,,,,,,,,109947,,,109948,,,instructions,"[{""page_index"":0,""viewing_time"":22642},{""page_index"":1,""viewing_time"":903},{""page_index"":0,""viewing_time"":1220},{""page_index"":1,""viewing_time"":24091},{""page_index"":2,""viewing_time"":35649},{""page_index"":3,""viewing_time"":25441}]",59
,,,,,,,,,308866,,,308867,,,instructions,"[{""page_index"":0,""viewing_time"":153046},{""page_index"":1,""viewing_time"":107381},{""page_index"":2,""viewing_time"":48436}]",60
,,,,,,,,,69763,,,69764,,,instructions,"[{""page_index"":0,""viewing_time"":30034},{""page_index"":1,""viewing_time"":29816},{""page_index"":2,""viewing_time"":9912}]",61
,,,,,,,,,15542,,,125667,,,instructions,"[{""page_index"":0,""viewing_time"":2670},{""page_index"":1,""viewing_time"":5264},{""page_index"":2,""viewing_time"":7608}]",61
,,,,,,,,,190657,,,190658,,,instructions,"[{""page_index"":0,""viewing_time"":68356},{""page_index"":1,""viewing_time"":46395},{""page_index"":2,""viewing_time"":55872},{""page_index"":3,""viewing_time"":20033}]",62
,,,,,,,,,111002,,,111002,,,instructions,"[{""page_index"":0,""viewing_time"":47617},{""page_index"":1,""viewing_time"":36294},{""page_index"":2,""viewing_time"":27081}]",63
,,,,,,,,,100227,,,261828,,,instructions,"[{""page_index"":0,""viewing_time"":56402},{""page_index"":1,""viewing_time"":28245},{""page_index"":2,""viewing_time"":15580}]",63
,,,,,,,,,132198,,,132199,,,instructions,"[{""page_index"":0,""viewing_time"":38581},{""page_index"":1,""viewing_time"":77189},{""page_index"":2,""viewing_time"":16426}]",64
,,,,,,,,,93704,,,93705,,,instructions,"[{""page_index"":0,""viewing_time"":33005},{""page_index"":1,""viewing_time"":32043},{""page_index"":2,""viewing_time"":28655}]",65
,,,,,,,,,136465,,,136469,,,instructions,"[{""page_index"":0,""viewing_time"":73379},{""page_index"":1,""viewing_time"":37463},{""page_index"":2,""viewing_time"":25620}]",66
,,,,,,,,,74599,,,74599,,,instructions,"[{""page_index"":0,""viewing_time"":20988},{""page_index"":1,""viewing_time"":33254},{""page_index"":2,""viewing_time"":20356}]",67
,,,,,,,,,113015,,,113015,,,instructions,"[{""page_index"":0,""viewing_time"":44532},{""page_index"":1,""viewing_time"":42621},{""page_index"":2,""viewing_time"":25861}]",68
,,,,,,,,,85470,,,85472,,,instructions,"[{""page_index"":0,""viewing_time"":36461},{""page_index"":1,""viewing_time"":23736},{""page_index"":2,""viewing_time"":25272}]",69
,,,,,,,,,85347,,,85348,,,instructions,"[{""page_index"":0,""viewing_time"":23025},{""page_index"":1,""viewing_time"":36411},{""page_index"":2,""viewing_time"":25910}]",70
,,,,,,,,,127033,,,127036,,,instructions,"[{""page_index"":0,""viewing_time"":57530},{""page_index"":1,""viewing_time"":39377},{""page_index"":2,""viewing_time"":30123}]",71
,,,,,,,,,93756,,,93758,,,instructions,"[{""page_index"":0,""viewing_time"":29950},{""page_index"":1,""viewing_time"":14018},{""page_index"":2,""viewing_time"":27193},{""page_index"":3,""viewing_time"":22594}]",72
,,,,,,,,,337244,,,337245,,,instructions,"[{""page_index"":0,""viewing_time"":72060},{""page_index"":1,""viewing_time"":104136},{""page_index"":2,""viewing_time"":123882},{""page_index"":3,""viewing_time"":37165}]",73
,,,,,,,,,148914,,,148914,,,instructions,"[{""page_index"":0,""viewing_time"":97679},{""page_index"":1,""viewing_time"":21850},{""page_index"":2,""viewing_time"":23507},{""page_index"":3,""viewing_time"":5877}]",74
,,,,,,,,,45619,,,228203,,,instructions,"[{""page_index"":0,""viewing_time"":4656},{""page_index"":1,""viewing_time"":11060},{""page_index"":2,""viewing_time"":24575},{""page_index"":3,""viewing_time"":5328}]",74
,,,,,,,,,129947,,,129948,,,instructions,"[{""page_index"":0,""viewing_time"":50082},{""page_index"":1,""viewing_time"":46038},{""page_index"":2,""viewing_time"":33826}]",75
,,,,,,,,,110547,,,110549,,,instructions,"[{""page_index"":0,""viewing_time"":33007},{""page_index"":1,""viewing_time"":28331},{""page_index"":2,""viewing_time"":30348},{""page_index"":3,""viewing_time"":18860}]",76
,,,,,,,,,163157,,,163158,,,instructions,"[{""page_index"":0,""viewing_time"":41759},{""page_index"":1,""viewing_time"":43049},{""page_index"":2,""viewing_time"":51950},{""page_index"":3,""viewing_time"":26398}]",77
,,,,,,,,,44406,,,44407,,,instructions,"[{""page_index"":0,""viewing_time"":16489},{""page_index"":1,""viewing_time"":5628},{""page_index"":2,""viewing_time"":13425},{""page_index"":3,""viewing_time"":8863}]",78
,,,,,,,,,9814,,,78574,,,instructions,"[{""page_index"":0,""viewing_time"":1833},{""page_index"":1,""viewing_time"":900},{""page_index"":2,""viewing_time"":3301},{""page_index"":3,""viewing_time"":3779}]",78
,,,,,,,,,143256,,,143258,,,instructions,"[{""page_index"":0,""viewing_time"":36220},{""page_index"":1,""viewing_time"":33375},{""page_index"":2,""viewing_time"":39483},{""page_index"":3,""viewing_time"":34177}]",79
,,,,,,,,,200118,,,200121,,,instructions,"[{""page_index"":0,""viewing_time"":51263},{""page_index"":1,""viewing_time"":45902},{""page_index"":2,""viewing_time"":55598},{""page_index"":3,""viewing_time"":47354}]",80
,,,,,,,,,203372,,,203374,,,instructions,"[{""page_index"":0,""viewing_time"":52498},{""page_index"":1,""viewing_time"":4052},{""page_index"":0,""viewing_time"":14468},{""page_index"":1,""viewing_time"":23611},{""page_index"":0,""viewing_time"":6441},{""page_index"":1,""viewing_time"":12535},{""page_index"":0,""viewing_time"":14455},{""page_index"":1,""viewing_time"":10536},{""page_index"":0,""viewing_time"":21373},{""page_index"":1,""viewing_time"":12643},{""page_index"":0,""viewing_time"":2048},{""page_index"":1,""viewing_time"":513},{""page_index"":2,""viewing_time"":6753},{""page_index"":3,""viewing_time"":1536},{""page_index"":2,""viewing_time"":5487},{""page_index"":3,""viewing_time"":14422}]",81
,,,,,,,,,49402,,,286468,,,instructions,"[{""page_index"":0,""viewing_time"":5381},{""page_index"":1,""viewing_time"":13134},{""page_index"":2,""viewing_time"":21720},{""page_index"":3,""viewing_time"":9166}]",81
,,,,,,,,,72340,,,388475,,,instructions,"[{""page_index"":0,""viewing_time"":21311},{""page_index"":1,""viewing_time"":19964},{""page_index"":2,""viewing_time"":24965},{""page_index"":3,""viewing_time"":6100}]",81
,,,,,,,,,31452,,,456081,,,instructions,"[{""page_index"":0,""viewing_time"":9308},{""page_index"":1,""viewing_time"":5623},{""page_index"":2,""viewing_time"":9121},{""page_index"":3,""viewing_time"":7400}]",81
,,,,,,,,,41884,,,529672,,,instructions,"[{""page_index"":0,""viewing_time"":7049},{""page_index"":1,""viewing_time"":15054},{""page_index"":2,""viewing_time"":17358},{""page_index"":3,""viewing_time"":2422}]",81
,,,,,,,,,40775,,,605668,,,instructions,"[{""page_index"":0,""viewing_time"":5803},{""page_index"":1,""viewing_time"":21088},{""page_index"":2,""viewing_time"":12766},{""page_index"":3,""viewing_time"":1117}]",81
,,,,,,,,,15592,,,640068,,,instructions,"[{""page_index"":0,""viewing_time"":3027},{""page_index"":1,""viewing_time"":2324},{""page_index"":2,""viewing_time"":2563},{""page_index"":3,""viewing_time"":7677}]",81
,,,,,,,,,51082,,,707945,,,instructions,"[{""page_index"":0,""viewing_time"":6924},{""page_index"":1,""viewing_time"":8843},{""page_index"":2,""viewing_time"":10940},{""page_index"":3,""viewing_time"":10042},{""page_index"":2,""viewing_time"":1722},{""page_index"":1,""viewing_time"":8843},{""page_index"":2,""viewing_time"":2839},{""page_index"":3,""viewing_time"":928}]",81
,,,,,,,,,75437,,,818642,,,instructions,"[{""page_index"":0,""viewing_time"":8366},{""page_index"":1,""viewing_time"":37298},{""page_index"":2,""viewing_time"":27676},{""page_index"":3,""viewing_time"":2096}]",81
,,,,,,,,,78699,,,78702,,,instructions,"[{""page_index"":0,""viewing_time"":19605},{""page_index"":1,""viewing_time"":32215},{""page_index"":2,""viewing_time"":26876}]",82
,,,,,,,,,122156,,,122156,,,instructions,"[{""page_index"":0,""viewing_time"":42583},{""page_index"":1,""viewing_time"":27883},{""page_index"":2,""viewing_time"":32693},{""page_index"":3,""viewing_time"":18995}]",83
,,,,,,,,,40839,,,214674,,,instructions,"[{""page_index"":0,""viewing_time"":13929},{""page_index"":1,""viewing_time"":8858},{""page_index"":2,""viewing_time"":15850},{""page_index"":3,""viewing_time"":2202}]",83
,,,,,,,,,86400,,,86401,,,instructions,"[{""page_index"":0,""viewing_time"":7506},{""page_index"":1,""viewing_time"":8589},{""page_index"":2,""viewing_time"":70304}]",84
,,,,,,,,,10524,,,116181,,,instructions,"[{""page_index"":0,""viewing_time"":4074},{""page_index"":1,""viewing_time"":1954},{""page_index"":2,""viewing_time"":4496}]",84
,,,,,,,,,25101,,,155803,,,instructions,"[{""page_index"":0,""viewing_time"":5231},{""page_index"":1,""viewing_time"":10622},{""page_index"":2,""viewing_time"":9247}]",84
,,,,,,,,,22024,,,195345,,,instructions,"[{""page_index"":0,""viewing_time"":13429},{""page_index"":1,""viewing_time"":6319},{""page_index"":2,""viewing_time"":2276}]",84
,,,,,,,,,2876,,,214562,,,instructions,"[{""page_index"":0,""viewing_time"":1657},{""page_index"":1,""viewing_time"":483},{""page_index"":2,""viewing_time"":735}]",84
,,,,,,,,,59439,,,290049,,,instructions,"[{""page_index"":0,""viewing_time"":14403},{""page_index"":1,""viewing_time"":24648},{""page_index"":2,""viewing_time"":20387}]",84
,,,,,,,,,131975,,,131975,,,instructions,"[{""page_index"":0,""viewing_time"":57898},{""page_index"":1,""viewing_time"":46437},{""page_index"":2,""viewing_time"":27639}]",85
,,,,,,,,,259124,,,259126,,,instructions,"[{""page_index"":0,""viewing_time"":181435},{""page_index"":1,""viewing_time"":30132},{""page_index"":2,""viewing_time"":21688},{""page_index"":3,""viewing_time"":25867}]",86
,,,,,,,,,42797,,,363305,,,instructions,"[{""page_index"":0,""viewing_time"":5005},{""page_index"":1,""viewing_time"":17296},{""page_index"":2,""viewing_time"":9713},{""page_index"":3,""viewing_time"":10782}]",86
,,,,,,,,,171872,,,171875,,,instructions,"[{""page_index"":0,""viewing_time"":72272},{""page_index"":1,""viewing_time"":36217},{""page_index"":2,""viewing_time"":29531},{""page_index"":3,""viewing_time"":33850}]",87
,,,,,,,,,22598,,,22598,,,instructions,"[{""page_index"":0,""viewing_time"":9811},{""page_index"":1,""viewing_time"":5433},{""page_index"":2,""viewing_time"":7354}]",88
,,,,,,,,,168686,,,168687,,,instructions,"[{""page_index"":0,""viewing_time"":48996},{""page_index"":1,""viewing_time"":39051},{""page_index"":2,""viewing_time"":57124},{""page_index"":3,""viewing_time"":23513}]",89
,,,,,,,,,109291,,,109292,,,instructions,"[{""page_index"":0,""viewing_time"":51863},{""page_index"":1,""viewing_time"":39390},{""page_index"":2,""viewing_time"":18037}]",90
,,,,,,,,,40976,,,182127,,,instructions,"[{""page_index"":0,""viewing_time"":17368},{""page_index"":1,""viewing_time"":12795},{""page_index"":2,""viewing_time"":10812}]",90
,,,,,,,,,128651,,,128653,,,instructions,"[{""page_index"":0,""viewing_time"":40534},{""page_index"":1,""viewing_time"":32157},{""page_index"":0,""viewing_time"":9123},{""page_index"":1,""viewing_time"":26967},{""page_index"":2,""viewing_time"":19870}]",91
,,,,,,,,,9501,,,163618,,,instructions,"[{""page_index"":0,""viewing_time"":4408},{""page_index"":1,""viewing_time"":2465},{""page_index"":2,""viewing_time"":2628}]",91
,,,,,,,,,37995,,,223043,,,instructions,"[{""page_index"":0,""viewing_time"":20356},{""page_index"":1,""viewing_time"":12532},{""page_index"":2,""viewing_time"":5107}]",91
,,,,,,,,,92459,,,92460,,,instructions,"[{""page_index"":0,""viewing_time"":60514},{""page_index"":1,""viewing_time"":20967},{""page_index"":2,""viewing_time"":10976}]",92
,,,,,,,,,27964,,,148939,,,instructions,"[{""page_index"":0,""viewing_time"":9804},{""page_index"":1,""viewing_time"":5967},{""page_index"":2,""viewing_time"":12192}]",92
,,,,,,,,,42301,,,216570,,,instructions,"[{""page_index"":0,""viewing_time"":10988},{""page_index"":1,""viewing_time"":15992},{""page_index"":2,""viewing_time"":15320}]",92
,,,,,,,,,34652,,,286562,,,instructions,"[{""page_index"":0,""viewing_time"":22909},{""page_index"":1,""viewing_time"":9006},{""page_index"":2,""viewing_time"":2737}]",92
,,,,,,,,,76509,,,406570,,,instructions,"[{""page_index"":0,""viewing_time"":22581},{""page_index"":1,""viewing_time"":38272},{""page_index"":2,""viewing_time"":15655}]",92
,,,,,,,,,185272,,,185274,,,instructions,"[{""page_index"":0,""viewing_time"":78829},{""page_index"":1,""viewing_time"":58204},{""page_index"":2,""viewing_time"":48238}]",93
,,,,,,,,,46163,,,265377,,,instructions,"[{""page_index"":0,""viewing_time"":15268},{""page_index"":1,""viewing_time"":14223},{""page_index"":2,""viewing_time"":16672}]",93
,,,,,,,,,81482,,,81484,,,instructions,"[{""page_index"":0,""viewing_time"":30433},{""page_index"":1,""viewing_time"":29062},{""page_index"":2,""viewing_time"":21986}]",94
,,,,,,,,,27210,,,27212,,,instructions,"[{""page_index"":0,""viewing_time"":12120},{""page_index"":1,""viewing_time"":9619},{""page_index"":2,""viewing_time"":4049},{""page_index"":3,""viewing_time"":1420}]",95
,,,,,,,,,27893,,,84572,,,instructions,"[{""page_index"":0,""viewing_time"":3305},{""page_index"":1,""viewing_time"":3836},{""page_index"":0,""viewing_time"":5293},{""page_index"":1,""viewing_time"":1558},{""page_index"":2,""viewing_time"":11704},{""page_index"":3,""viewing_time"":2194}]",95
,,,,,,,,,38935,,,142574,,,instructions,"[{""page_index"":0,""viewing_time"":11336},{""page_index"":1,""viewing_time"":9289},{""page_index"":2,""viewing_time"":9753},{""page_index"":3,""viewing_time"":8556}]",95
,,,,,,,,,4567,,,163611,,,instructions,"[{""page_index"":0,""viewing_time"":1800},{""page_index"":1,""viewing_time"":226},{""page_index"":0,""viewing_time"":724},{""page_index"":1,""viewing_time"":90},{""page_index"":2,""viewing_time"":1315},{""page_index"":3,""viewing_time"":411}]",95
,,,,,,,,,3957,,,187928,,,instructions,"[{""page_index"":0,""viewing_time"":1823},{""page_index"":1,""viewing_time"":839},{""page_index"":2,""viewing_time"":959},{""page_index"":3,""viewing_time"":335}]",95
,,,,,,,,,3245,,,203156,,,instructions,"[{""page_index"":0,""viewing_time"":1135},{""page_index"":1,""viewing_time"":713},{""page_index"":2,""viewing_time"":1102},{""page_index"":3,""viewing_time"":294}]",95
,,,,,,,,,13072,,,226942,,,instructions,"[{""page_index"":0,""viewing_time"":1613},{""page_index"":1,""viewing_time"":1875},{""page_index"":2,""viewing_time"":4261},{""page_index"":3,""viewing_time"":5321}]",95
,,,,,,,,,5128,,,245113,,,instructions,"[{""page_index"":0,""viewing_time"":1864},{""page_index"":1,""viewing_time"":813},{""page_index"":2,""viewing_time"":1271},{""page_index"":3,""viewing_time"":1179}]",95
,,,,,,,,,42127,,,42128,,,instructions,"[{""page_index"":0,""viewing_time"":15167},{""page_index"":1,""viewing_time"":16240},{""page_index"":2,""viewing_time"":10719}]",96
,,,,,,,,,41389,,,104006,,,instructions,"[{""page_index"":0,""viewing_time"":7166},{""page_index"":1,""viewing_time"":16831},{""page_index"":2,""viewing_time"":17392}]",96
,,,,,,,,,11661,,,145517,,,instructions,"[{""page_index"":0,""viewing_time"":1213},{""page_index"":1,""viewing_time"":3936},{""page_index"":2,""viewing_time"":6512}]",96
,,,,,,,,,9638,,,170141,,,instructions,"[{""page_index"":0,""viewing_time"":1574},{""page_index"":1,""viewing_time"":1584},{""page_index"":2,""viewing_time"":6480}]",96
,,,,,,,,,20598,,,20598,,,instructions,"[{""page_index"":0,""viewing_time"":12742},{""page_index"":1,""viewing_time"":3147},{""page_index"":2,""viewing_time"":4707}]",97
,,,,,,,,,22489,,,68245,,,instructions,"[{""page_index"":0,""viewing_time"":6355},{""page_index"":1,""viewing_time"":10111},{""page_index"":2,""viewing_time"":6023}]",97
,,,,,,,,,21879,,,111933,,,instructions,"[{""page_index"":0,""viewing_time"":2961},{""page_index"":1,""viewing_time"":3609},{""page_index"":2,""viewing_time"":15308}]",97
,,,,,,,,,35538,,,159165,,,instructions,"[{""page_index"":0,""viewing_time"":3818},{""page_index"":1,""viewing_time"":19836},{""page_index"":2,""viewing_time"":11883}]",97
,,,,,,,,,110696,,,110698,,,instructions,"[{""page_index"":0,""viewing_time"":47810},{""page_index"":1,""viewing_time"":33498},{""page_index"":2,""viewing_time"":17958},{""page_index"":3,""viewing_time"":11429}]",99
,,,,,,,,,43742,,,195605,,,instructions,"[{""page_index"":0,""viewing_time"":5621},{""page_index"":1,""viewing_time"":9261},{""page_index"":2,""viewing_time"":18584},{""page_index"":3,""viewing_time"":10275}]",99
,,,,,,,,,28323,,,248985,,,instructions,"[{""page_index"":0,""viewing_time"":3896},{""page_index"":1,""viewing_time"":10293},{""page_index"":2,""viewing_time"":8057},{""page_index"":3,""viewing_time"":6076}]",99
,,,,,,,,,148582,,,148582,,,instructions,"[{""page_index"":0,""viewing_time"":37770},{""page_index"":1,""viewing_time"":40350},{""page_index"":2,""viewing_time"":48756},{""page_index"":3,""viewing_time"":21705}]",100
,,,,,,,,,42761,,,42763,,,instructions,"[{""page_index"":0,""viewing_time"":15856},{""page_index"":1,""viewing_time"":8206},{""page_index"":2,""viewing_time"":7448},{""page_index"":3,""viewing_time"":11249}]",101
,,,,,,,,,3902,,,66658,,,instructions,"[{""page_index"":0,""viewing_time"":429},{""page_index"":1,""viewing_time"":2280},{""page_index"":2,""viewing_time"":747},{""page_index"":3,""viewing_time"":445}]",101
,,,,,,,,,44017,,,137896,,,instructions,"[{""page_index"":0,""viewing_time"":1945},{""page_index"":1,""viewing_time"":727},{""page_index"":2,""viewing_time"":4968},{""page_index"":3,""viewing_time"":12839},{""page_index"":2,""viewing_time"":22873},{""page_index"":3,""viewing_time"":664}]",101
,,,,,,,,,73445,,,73445,,,instructions,"[{""page_index"":0,""viewing_time"":26262},{""page_index"":1,""viewing_time"":29899},{""page_index"":2,""viewing_time"":17283}]",102
,,,,,,,,,121729,,,121731,,,instructions,"[{""page_index"":0,""viewing_time"":62719},{""page_index"":1,""viewing_time"":20794},{""page_index"":2,""viewing_time"":31647},{""page_index"":3,""viewing_time"":6568}]",103
,,,,,,,,,101706,,,101708,,,instructions,"[{""page_index"":0,""viewing_time"":26106},{""page_index"":1,""viewing_time"":30404},{""page_index"":2,""viewing_time"":32459},{""page_index"":3,""viewing_time"":12736}]",104
,,,,,,,,,94919,,,94923,,,instructions,"[{""page_index"":0,""viewing_time"":37894},{""page_index"":1,""viewing_time"":21509},{""page_index"":2,""viewing_time"":24426},{""page_index"":3,""viewing_time"":11089}]",105
,,,,,,,,,5492,,,129063,,,instructions,"[{""page_index"":0,""viewing_time"":2019},{""page_index"":1,""viewing_time"":1289},{""page_index"":2,""viewing_time"":1389},{""page_index"":3,""viewing_time"":794}]",105
,,,,,,,,,868624,,,868630,,,instructions,"[{""page_index"":0,""viewing_time"":557519},{""page_index"":1,""viewing_time"":40492},{""page_index"":2,""viewing_time"":103352},{""page_index"":3,""viewing_time"":167247}]",106
,,,,,,,,,27487,,,931598,,,instructions,"[{""page_index"":0,""viewing_time"":9806},{""page_index"":1,""viewing_time"":2564},{""page_index"":2,""viewing_time"":10060},{""page_index"":3,""viewing_time"":5049}]",106
,,,,,,,,,246926,,,246927,,,instructions,"[{""page_index"":0,""viewing_time"":143937},{""page_index"":1,""viewing_time"":72842},{""page_index"":2,""viewing_time"":30146}]",107
,,,,,,,,,59121,,,332485,,,instructions,"[{""page_index"":0,""viewing_time"":22486},{""page_index"":1,""viewing_time"":21356},{""page_index"":2,""viewing_time"":15279}]",107
,,,,,,,,,100524,,,100526,,,instructions,"[{""page_index"":0,""viewing_time"":55959},{""page_index"":1,""viewing_time"":25576},{""page_index"":2,""viewing_time"":7005},{""page_index"":3,""viewing_time"":11983}]",108
,,,,,,,,,58052,,,210880,,,instructions,"[{""page_index"":0,""viewing_time"":8731},{""page_index"":1,""viewing_time"":15090},{""page_index"":2,""viewing_time"":25710},{""page_index"":3,""viewing_time"":8520}]",108
,,,,,,,,,124198,,,371560,,,instructions,"[{""page_index"":0,""viewing_time"":5073},{""page_index"":1,""viewing_time"":29761},{""page_index"":2,""viewing_time"":34577},{""page_index"":3,""viewing_time"":18616},{""page_index"":2,""viewing_time"":12917},{""page_index"":1,""viewing_time"":8287},{""page_index"":2,""viewing_time"":7322},{""page_index"":3,""viewing_time"":7645}]",108
,,,,,,,,,91264,,,505656,,,instructions,"[{""page_index"":0,""viewing_time"":19046},{""page_index"":1,""viewing_time"":1346},{""page_index"":0,""viewing_time"":5050},{""page_index"":1,""viewing_time"":23685},{""page_index"":2,""viewing_time"":25466},{""page_index"":3,""viewing_time"":16670}]",108
,,,,,,,,,72508,,,622109,,,instructions,"[{""page_index"":0,""viewing_time"":29439},{""page_index"":1,""viewing_time"":17750},{""page_index"":2,""viewing_time"":22537},{""page_index"":3,""viewing_time"":2781}]",108
,,,,,,,,,21271,,,665647,,,instructions,"[{""page_index"":0,""viewing_time"":3562},{""page_index"":1,""viewing_time"":1297},{""page_index"":2,""viewing_time"":3964},{""page_index"":3,""viewing_time"":12448}]",108
,,,,,,,,,349942,,,349944,,,instructions,"[{""page_index"":0,""viewing_time"":86693},{""page_index"":1,""viewing_time"":167055},{""page_index"":2,""viewing_time"":85240},{""page_index"":3,""viewing_time"":10951}]",109
,,,,,,,,,92834,,,632680,,,instructions,"[{""page_index"":0,""viewing_time"":62507},{""page_index"":1,""viewing_time"":26025},{""page_index"":2,""viewing_time"":2457},{""page_index"":3,""viewing_time"":1845}]",109
,,,,,,,,,150262,,,817019,,,instructions,"[{""page_index"":0,""viewing_time"":18101},{""page_index"":1,""viewing_time"":52791},{""page_index"":2,""viewing_time"":70936},{""page_index"":3,""viewing_time"":8433}]",109
,,,,,,,,,7156,,,849361,,,instructions,"[{""page_index"":0,""viewing_time"":3071},{""page_index"":1,""viewing_time"":692},{""page_index"":2,""viewing_time"":2099},{""page_index"":3,""viewing_time"":1294}]",109
,,,,,,,,,6366,,,869354,,,instructions,"[{""page_index"":0,""viewing_time"":2724},{""page_index"":1,""viewing_time"":864},{""page_index"":2,""viewing_time"":1841},{""page_index"":3,""viewing_time"":936}]",109
,,,,,,,,,109949,,,992344,,,instructions,"[{""page_index"":0,""viewing_time"":52437},{""page_index"":1,""viewing_time"":36535},{""page_index"":2,""viewing_time"":8771},{""page_index"":3,""viewing_time"":12205}]",109
,,,,,,,,,116162,,,116164,,,instructions,"[{""page_index"":0,""viewing_time"":64313},{""page_index"":1,""viewing_time"":48453},{""page_index"":2,""viewing_time"":3393}]",110
,,,,,,,,,27777,,,166409,,,instructions,"[{""page_index"":0,""viewing_time"":19919},{""page_index"":1,""viewing_time"":5664},{""page_index"":2,""viewing_time"":2192}]",110
,,,,,,,,,12094,,,196370,,,instructions,"[{""page_index"":0,""viewing_time"":5068},{""page_index"":1,""viewing_time"":4472},{""page_index"":2,""viewing_time"":2552}]",110
,,,,,,,,,18165,,,232234,,,instructions,"[{""page_index"":0,""viewing_time"":4795},{""page_index"":1,""viewing_time"":3961},{""page_index"":2,""viewing_time"":9407}]",110
,,,,,,,,,11666,,,260961,,,instructions,"[{""page_index"":0,""viewing_time"":2600},{""page_index"":1,""viewing_time"":2088},{""page_index"":2,""viewing_time"":6976}]",110
,,,,,,,,,17740,,,296066,,,instructions,"[{""page_index"":0,""viewing_time"":2929},{""page_index"":1,""viewing_time"":4384},{""page_index"":2,""viewing_time"":10424}]",110
,,,,,,,,,15892,,,329074,,,instructions,"[{""page_index"":0,""viewing_time"":7154},{""page_index"":1,""viewing_time"":2448},{""page_index"":2,""viewing_time"":6288}]",110
,,,,,,,,,13593,,,357666,,,instructions,"[{""page_index"":0,""viewing_time"":2759},{""page_index"":1,""viewing_time"":2512},{""page_index"":2,""viewing_time"":8320}]",110
,,,,,,,,,9943,,,383569,,,instructions,"[{""page_index"":0,""viewing_time"":2869},{""page_index"":1,""viewing_time"":1992},{""page_index"":2,""viewing_time"":5080}]",110
,,,,,,,,,21661,,,428706,,,instructions,"[{""page_index"":0,""viewing_time"":6339},{""page_index"":1,""viewing_time"":10375},{""page_index"":2,""viewing_time"":4945}]",110
,,,,,,,,,11660,,,456522,,,instructions,"[{""page_index"":0,""viewing_time"":3330},{""page_index"":1,""viewing_time"":2360},{""page_index"":2,""viewing_time"":5968}]",110
,,,,,,,,,33427,,,505489,,,instructions,"[{""page_index"":0,""viewing_time"":5298},{""page_index"":1,""viewing_time"":15183},{""page_index"":2,""viewing_time"":12944}]",110
,,,,,,,,,17836,,,545546,,,instructions,"[{""page_index"":0,""viewing_time"":2665},{""page_index"":1,""viewing_time"":5216},{""page_index"":2,""viewing_time"":9953}]",110
,,,,,,,,,19763,,,581674,,,instructions,"[{""page_index"":0,""viewing_time"":16201},{""page_index"":1,""viewing_time"":1640},{""page_index"":2,""viewing_time"":1920}]",110
,,,,,,,,,14107,,,615994,,,instructions,"[{""page_index"":0,""viewing_time"":9920},{""page_index"":1,""viewing_time"":2848},{""page_index"":2,""viewing_time"":1336}]",110
,,,,,,,,,228729,,,228730,,,instructions,"[{""page_index"":0,""viewing_time"":59184},{""page_index"":1,""viewing_time"":17131},{""page_index"":0,""viewing_time"":8460},{""page_index"":1,""viewing_time"":2522},{""page_index"":0,""viewing_time"":3702},{""page_index"":1,""viewing_time"":11442},{""page_index"":0,""viewing_time"":1806},{""page_index"":1,""viewing_time"":2330},{""page_index"":0,""viewing_time"":2310},{""page_index"":1,""viewing_time"":2521},{""page_index"":0,""viewing_time"":1967},{""page_index"":1,""viewing_time"":1313},{""page_index"":0,""viewing_time"":1792},{""page_index"":1,""viewing_time"":960},{""page_index"":0,""viewing_time"":1583},{""page_index"":1,""viewing_time"":961},{""page_index"":0,""viewing_time"":2207},{""page_index"":1,""viewing_time"":1658},{""page_index"":0,""viewing_time"":2038},{""page_index"":1,""viewing_time"":889},{""page_index"":0,""viewing_time"":1327},{""page_index"":1,""viewing_time"":689},{""page_index"":0,""viewing_time"":975},{""page_index"":1,""viewing_time"":818},{""page_index"":0,""viewing_time"":1014},{""page_index"":1,""viewing_time"":641},{""page_index"":0,""viewing_time"":1399},{""page_index"":1,""viewing_time"":1929},{""page_index"":0,""viewing_time"":1399},{""page_index"":1,""viewing_time"":1793},{""page_index"":0,""viewing_time"":1519},{""page_index"":1,""viewing_time"":952},{""page_index"":0,""viewing_time"":1016},{""page_index"":1,""viewing_time"":801},{""page_index"":0,""viewing_time"":1231},{""page_index"":1,""viewing_time"":1730},{""page_index"":0,""viewing_time"":3334},{""page_index"":1,""viewing_time"":1753},{""page_index"":0,""viewing_time"":1663},{""page_index"":1,""viewing_time"":1737},{""page_index"":0,""viewing_time"":1023},{""page_index"":1,""viewing_time"":1577},{""page_index"":0,""viewing_time"":1320},{""page_index"":1,""viewing_time"":512},{""page_index"":0,""viewing_time"":687},{""page_index"":1,""viewing_time"":353},{""page_index"":0,""viewing_time"":607},{""page_index"":1,""viewing_time"":329},{""page_index"":0,""viewing_time"":536},{""page_index"":1,""viewing_time"":336},{""page_index"":0,""viewing_time"":503},{""page_index"":1,""viewing_time"":449},{""page_index"":0,""viewing_time"":479},{""page_index"":1,""viewing_time"":377},{""page_index"":0,""viewing_time"":479},{""page_index"":1,""viewing_time"":385},{""page_index"":0,""viewing_time"":496},{""page_index"":1,""viewing_time"":312},{""page_index"":0,""viewing_time"":503},{""page_index"":1,""viewing_time"":345},{""page_index"":0,""viewing_time"":431},{""page_index"":1,""viewing_time"":289},{""page_index"":0,""viewing_time"":479},{""page_index"":1,""viewing_time"":273},{""page_index"":0,""viewing_time"":495},{""page_index"":1,""viewing_time"":305},{""page_index"":0,""viewing_time"":495},{""page_index"":1,""viewing_time"":281},{""page_index"":0,""viewing_time"":463},{""page_index"":1,""viewing_time"":257},{""page_index"":0,""viewing_time"":439},{""page_index"":1,""viewing_time"":217},{""page_index"":0,""viewing_time"":496},{""page_index"":1,""viewing_time"":304},{""page_index"":0,""viewing_time"":511},{""page_index"":1,""viewing_time"":377},{""page_index"":0,""viewing_time"":448},{""page_index"":1,""viewing_time"":248},{""page_index"":0,""viewing_time"":447},{""page_index"":1,""viewing_time"":217},{""page_index"":0,""viewing_time"":479},{""page_index"":1,""viewing_time"":265},{""page_index"":0,""viewing_time"":432},{""page_index"":1,""viewing_time"":192},{""page_index"":0,""viewing_time"":479},{""page_index"":1,""viewing_time"":321},{""page_index"":0,""viewing_time"":455},{""page_index"":1,""viewing_time"":305},{""page_index"":0,""viewing_time"":567},{""page_index"":1,""viewing_time"":399},{""page_index"":0,""viewing_time"":505},{""page_index"":1,""viewing_time"":418},{""page_index"":0,""viewing_time"":478},{""page_index"":1,""viewing_time"":297},{""page_index"":0,""viewing_time"":511},{""page_index"":1,""viewing_time"":538},{""page_index"":0,""viewing_time"":471},{""page_index"":1,""viewing_time"":4520},{""page_index"":0,""viewing_time"":1311},{""page_index"":1,""viewing_time"":4313},{""page_index"":0,""viewing_time"":999},{""page_index"":1,""viewing_time"":960},{""page_index"":0,""viewing_time"":1712},{""page_index"":1,""viewing_time"":11770},{""page_index"":2,""viewing_time"":22454}]",111
,,,,,,,,,89564,,,362878,,,instructions,"[{""page_index"":0,""viewing_time"":41158},{""page_index"":1,""viewing_time"":36054},{""page_index"":2,""viewing_time"":12352}]",111
,,,,,,,,,42297,,,420808,,,instructions,"[{""page_index"":0,""viewing_time"":3895},{""page_index"":1,""viewing_time"":6936},{""page_index"":0,""viewing_time"":19337},{""page_index"":1,""viewing_time"":3744},{""page_index"":2,""viewing_time"":8384}]",111
,,,,,,,,,6823,,,445464,,,instructions,"[{""page_index"":0,""viewing_time"":3039},{""page_index"":1,""viewing_time"":3327},{""page_index"":2,""viewing_time"":456}]",111
,,,,,,,,,336194,,,336194,,,instructions,"[{""page_index"":0,""viewing_time"":97322},{""page_index"":1,""viewing_time"":208270},{""page_index"":2,""viewing_time"":30601}]",112
,,,,,,,,,49682,,,49684,,,instructions,"[{""page_index"":0,""viewing_time"":21681},{""page_index"":1,""viewing_time"":13208},{""page_index"":2,""viewing_time"":14792}]",113
,,,,,,,,,48293,,,132474,,,instructions,"[{""page_index"":0,""viewing_time"":27677},{""page_index"":1,""viewing_time"":9569},{""page_index"":2,""viewing_time"":11046}]",113
,,,,,,,,,62908,,,62911,,,instructions,"[{""page_index"":0,""viewing_time"":8761},{""page_index"":1,""viewing_time"":45672},{""page_index"":2,""viewing_time"":8472}]",114
,,,,,,,,,112587,,,112588,,,instructions,"[{""page_index"":0,""viewing_time"":45769},{""page_index"":1,""viewing_time"":43232},{""page_index"":2,""viewing_time"":23585}]",115
,,,,,,,,,55238,,,199185,,,instructions,"[{""page_index"":0,""viewing_time"":11669},{""page_index"":1,""viewing_time"":16848},{""page_index"":0,""viewing_time"":16074},{""page_index"":1,""viewing_time"":5057},{""page_index"":2,""viewing_time"":5590}]",115
,,,,,,,,,151547,,,151548,,,instructions,"[{""page_index"":0,""viewing_time"":45713},{""page_index"":1,""viewing_time"":34423},{""page_index"":2,""viewing_time"":44718},{""page_index"":3,""viewing_time"":26692}]",116
,,,,,,,,,175282,,,175282,,,instructions,"[{""page_index"":0,""viewing_time"":92668},{""page_index"":1,""viewing_time"":40216},{""page_index"":2,""viewing_time"":4667},{""page_index"":1,""viewing_time"":828},{""page_index"":2,""viewing_time"":36903}]",117
,,,,,,,,,130402,,,352173,,,instructions,"[{""page_index"":0,""viewing_time"":22437},{""page_index"":1,""viewing_time"":9755},{""page_index"":2,""viewing_time"":4383},{""page_index"":1,""viewing_time"":1128},{""page_index"":0,""viewing_time"":38260},{""page_index"":1,""viewing_time"":35080},{""page_index"":2,""viewing_time"":19356}]",117
,,,,,,,,,64001,,,64001,,,instructions,"[{""page_index"":0,""viewing_time"":31406},{""page_index"":1,""viewing_time"":20614},{""page_index"":2,""viewing_time"":11980}]",118
,,,,,,,,,10143,,,95335,,,instructions,"[{""page_index"":0,""viewing_time"":2211},{""page_index"":1,""viewing_time"":1556},{""page_index"":2,""viewing_time"":6375}]",118
,,,,,,,,,83337,,,83340,,,instructions,"[{""page_index"":0,""viewing_time"":39125},{""page_index"":1,""viewing_time"":30911},{""page_index"":2,""viewing_time"":13294}]",119
,,,,,,,,,118544,,,118546,,,instructions,"[{""page_index"":0,""viewing_time"":36868},{""page_index"":1,""viewing_time"":26226},{""page_index"":2,""viewing_time"":35924},{""page_index"":3,""viewing_time"":19526}]",120
,,,,,,,,,88467,,,88528,,,instructions,"[{""page_index"":0,""viewing_time"":21633},{""page_index"":1,""viewing_time"":14266},{""page_index"":2,""viewing_time"":9410},{""page_index"":3,""viewing_time"":20739},{""page_index"":2,""viewing_time"":21519},{""page_index"":3,""viewing_time"":846}]",121
,,,,,,,,,57624,,,186609,,,instructions,"[{""page_index"":0,""viewing_time"":15865},{""page_index"":1,""viewing_time"":19042},{""page_index"":2,""viewing_time"":13603},{""page_index"":3,""viewing_time"":9111}]",121
,,,,,,,,,139907,,,139910,,,instructions,"[{""page_index"":0,""viewing_time"":74695},{""page_index"":1,""viewing_time"":37576},{""page_index"":2,""viewing_time"":27633}]",122
,,,,,,,,,98780,,,98783,,,instructions,"[{""page_index"":0,""viewing_time"":63600},{""page_index"":1,""viewing_time"":17521},{""page_index"":2,""viewing_time"":17656}]",123
,,,,,,,,,61322,,,183544,,,instructions,"[{""page_index"":0,""viewing_time"":45376},{""page_index"":1,""viewing_time"":4175},{""page_index"":2,""viewing_time"":11769}]",123
,,,,,,,,,364478,,,364480,,,instructions,"[{""page_index"":0,""viewing_time"":211578},{""page_index"":1,""viewing_time"":1929},{""page_index"":0,""viewing_time"":5261},{""page_index"":1,""viewing_time"":2400},{""page_index"":0,""viewing_time"":4578},{""page_index"":1,""viewing_time"":86208},{""page_index"":2,""viewing_time"":52522}]",124
,,,,,,,,,92573,,,518324,,,instructions,"[{""page_index"":0,""viewing_time"":27741},{""page_index"":1,""viewing_time"":26574},{""page_index"":2,""viewing_time"":38256}]",124
,,,,,,,,,72417,,,613576,,,instructions,"[{""page_index"":0,""viewing_time"":8188},{""page_index"":1,""viewing_time"":20376},{""page_index"":2,""viewing_time"":20024},{""page_index"":1,""viewing_time"":21481},{""page_index"":2,""viewing_time"":2346}]",124
,,,,,,,,,8209,,,634247,,,instructions,"[{""page_index"":0,""viewing_time"":6458},{""page_index"":1,""viewing_time"":797},{""page_index"":2,""viewing_time"":953}]",124
,,,,,,,,,125172,,,125173,,,instructions,"[{""page_index"":0,""viewing_time"":26764},{""page_index"":1,""viewing_time"":52424},{""page_index"":2,""viewing_time"":26932},{""page_index"":3,""viewing_time"":19050}]",125
,,,,,,,,,114196,,,279366,,,instructions,"[{""page_index"":0,""viewing_time"":5187},{""page_index"":1,""viewing_time"":4047},{""page_index"":2,""viewing_time"":20813},{""page_index"":3,""viewing_time"":9886},{""page_index"":2,""viewing_time"":1866},{""page_index"":1,""viewing_time"":38431},{""page_index"":2,""viewing_time"":6397},{""page_index"":1,""viewing_time"":650},{""page_index"":0,""viewing_time"":23240},{""page_index"":1,""viewing_time"":1059},{""page_index"":2,""viewing_time"":1596},{""page_index"":3,""viewing_time"":1023}]",125
,,,,,,,,,295566,,,295566,,,instructions,"[{""page_index"":0,""viewing_time"":79804},{""page_index"":1,""viewing_time"":60193},{""page_index"":2,""viewing_time"":52648},{""page_index"":3,""viewing_time"":102920}]",126
,,,,,,,,,80233,,,80235,,,instructions,"[{""page_index"":0,""viewing_time"":35538},{""page_index"":1,""viewing_time"":26289},{""page_index"":2,""viewing_time"":18405}]",127
,,,,,,,,,117980,,,117982,,,instructions,"[{""page_index"":0,""viewing_time"":45450},{""page_index"":1,""viewing_time"":367},{""page_index"":0,""viewing_time"":2719},{""page_index"":1,""viewing_time"":36341},{""page_index"":2,""viewing_time"":33101}]",128
,,,,,,,,,134692,,,134694,,,instructions,"[{""page_index"":0,""viewing_time"":73998},{""page_index"":1,""viewing_time"":8125},{""page_index"":0,""viewing_time"":2340},{""page_index"":1,""viewing_time"":24452},{""page_index"":2,""viewing_time"":25777}]",129
,,,,,,,,,81862,,,258783,,,instructions,"[{""page_index"":0,""viewing_time"":36242},{""page_index"":1,""viewing_time"":30168},{""page_index"":2,""viewing_time"":15452}]",129
,,,,,,,,,144431,,,144433,,,instructions,"[{""page_index"":0,""viewing_time"":90811},{""page_index"":1,""viewing_time"":30794},{""page_index"":2,""viewing_time"":22823}]",130
,,,,,,,,,53475,,,53486,,,instructions,"[{""page_index"":0,""viewing_time"":20865},{""page_index"":1,""viewing_time"":19956},{""page_index"":2,""viewing_time"":12654}]",131
,,,,,,,,,39799,,,119513,,,instructions,"[{""page_index"":0,""viewing_time"":16859},{""page_index"":1,""viewing_time"":17806},{""page_index"":2,""viewing_time"":5124}]",131
,,,,,,,,,10511,,,145650,,,instructions,"[{""page_index"":0,""viewing_time"":2781},{""page_index"":1,""viewing_time"":2007},{""page_index"":2,""viewing_time"":5723}]",131
,,,,,,,,,73307,,,73309,,,instructions,"[{""page_index"":0,""viewing_time"":37034},{""page_index"":1,""viewing_time"":21299},{""page_index"":2,""viewing_time"":14973}]",132
,,,,,,,,,76996,,,76998,,,instructions,"[{""page_index"":0,""viewing_time"":36564},{""page_index"":1,""viewing_time"":17718},{""page_index"":2,""viewing_time"":22712}]",133
,,,,,,,,,82688,,,82690,,,instructions,"[{""page_index"":0,""viewing_time"":39620},{""page_index"":1,""viewing_time"":31469},{""page_index"":2,""viewing_time"":11598}]",134
,,,,,,,,,77422,,,206028,,,instructions,"[{""page_index"":0,""viewing_time"":8643},{""page_index"":1,""viewing_time"":4805},{""page_index"":2,""viewing_time"":19491},{""page_index"":1,""viewing_time"":10447},{""page_index"":0,""viewing_time"":27164},{""page_index"":1,""viewing_time"":911},{""page_index"":0,""viewing_time"":3014},{""page_index"":1,""viewing_time"":769},{""page_index"":2,""viewing_time"":2177}]",134
,,,,,,,,,45529,,,273350,,,instructions,"[{""page_index"":0,""viewing_time"":30105},{""page_index"":1,""viewing_time"":13065},{""page_index"":2,""viewing_time"":2358}]",134
,,,,,,,,,9427,,,311289,,,instructions,"[{""page_index"":0,""viewing_time"":7898},{""page_index"":1,""viewing_time"":655},{""page_index"":2,""viewing_time"":873}]",134
,,,,,,,,,471073,,,471075,,,instructions,"[{""page_index"":0,""viewing_time"":61173},{""page_index"":1,""viewing_time"":42252},{""page_index"":2,""viewing_time"":347837},{""page_index"":3,""viewing_time"":19810}]",135
,,,,,,,,,34154,,,34155,,,instructions,"[{""page_index"":0,""viewing_time"":15727},{""page_index"":1,""viewing_time"":4470},{""page_index"":2,""viewing_time"":4777},{""page_index"":3,""viewing_time"":9178}]",136
,,,,,,,,,25273,,,90311,,,instructions,"[{""page_index"":0,""viewing_time"":7414},{""page_index"":1,""viewing_time"":5196},{""page_index"":2,""viewing_time"":7325},{""page_index"":3,""viewing_time"":5336}]",136
,,,,,,,,,56652,,,56654,,,instructions,"[{""page_index"":0,""viewing_time"":21508},{""page_index"":1,""viewing_time"":11495},{""page_index"":2,""viewing_time"":13056},{""page_index"":3,""viewing_time"":10592}]",137
,,,,,,,,,114745,,,114746,,,instructions,"[{""page_index"":0,""viewing_time"":46480},{""page_index"":1,""viewing_time"":28920},{""page_index"":2,""viewing_time"":27479},{""page_index"":3,""viewing_time"":11866}]",138
,,,,,,,,,22494,,,169648,,,instructions,"[{""page_index"":0,""viewing_time"":5270},{""page_index"":1,""viewing_time"":3144},{""page_index"":2,""viewing_time"":9663},{""page_index"":3,""viewing_time"":4416}]",138
,,,,,,,,,14146,,,14148,,,instructions,"[{""page_index"":0,""viewing_time"":7743},{""page_index"":1,""viewing_time"":5029},{""page_index"":2,""viewing_time"":1372}]",139
,,,,,,,,,20801,,,54428,,,instructions,"[{""page_index"":0,""viewing_time"":6948},{""page_index"":1,""viewing_time"":5472},{""page_index"":2,""viewing_time"":8380}]",139
,,,,,,,,,6788,,,78044,,,instructions,"[{""page_index"":0,""viewing_time"":2514},{""page_index"":1,""viewing_time"":881},{""page_index"":2,""viewing_time"":3392}]",139
,,,,,,,,,17566,,,117210,,,instructions,"[{""page_index"":0,""viewing_time"":8532},{""page_index"":1,""viewing_time"":3168},{""page_index"":2,""viewing_time"":5864}]",139
,,,,,,,,,140676,,,140680,,,instructions,"[{""page_index"":0,""viewing_time"":44201},{""page_index"":1,""viewing_time"":60348},{""page_index"":2,""viewing_time"":36124}]",140
