action_times,actions,button_pressed,correct,delays,path,queries,questions,responses,rt,score,stimulus,time_elapsed,trial_index,trial_i,trial_type,view_history,pid
,,,,,,,,,146906,,,146908,,,instructions,"[{""page_index"":0,""viewing_time"":32734},{""page_index"":1,""viewing_time"":29034},{""page_index"":2,""viewing_time"":85133}]",0
,,,,,,,,,132071,,,132072,,,instructions,"[{""page_index"":0,""viewing_time"":45069},{""page_index"":1,""viewing_time"":34468},{""page_index"":2,""viewing_time"":29752},{""page_index"":3,""viewing_time"":22781}]",1
,,,,,,,,,22180,,,197694,,,instructions,"[{""page_index"":0,""viewing_time"":12069},{""page_index"":1,""viewing_time"":4325},{""page_index"":2,""viewing_time"":4201},{""page_index"":3,""viewing_time"":1584}]",1
,,,,,,,,,104226,,,104228,,,instructions,"[{""page_index"":0,""viewing_time"":52225},{""page_index"":1,""viewing_time"":34729},{""page_index"":2,""viewing_time"":17270}]",2
,,,,,,,,,32256,,,160344,,,instructions,"[{""page_index"":0,""viewing_time"":12720},{""page_index"":1,""viewing_time"":11549},{""page_index"":2,""viewing_time"":7987}]",2
,,,,,,,,,85449,,,85449,,,instructions,"[{""page_index"":0,""viewing_time"":26169},{""page_index"":1,""viewing_time"":20568},{""page_index"":2,""viewing_time"":27327},{""page_index"":3,""viewing_time"":11384}]",3
,,,,,,,,,16641,,,148480,,,instructions,"[{""page_index"":0,""viewing_time"":6297},{""page_index"":1,""viewing_time"":7880},{""page_index"":2,""viewing_time"":1640},{""page_index"":3,""viewing_time"":824}]",3
,,,,,,,,,452081,,,452083,,,instructions,"[{""page_index"":0,""viewing_time"":62492},{""page_index"":1,""viewing_time"":340656},{""page_index"":2,""viewing_time"":32876},{""page_index"":3,""viewing_time"":16056}]",4
,,,,,,,,,179535,,,179540,,,instructions,"[{""page_index"":0,""viewing_time"":60339},{""page_index"":1,""viewing_time"":56211},{""page_index"":2,""viewing_time"":41776},{""page_index"":3,""viewing_time"":21206}]",5
,,,,,,,,,79033,,,304847,,,instructions,"[{""page_index"":0,""viewing_time"":17839},{""page_index"":1,""viewing_time"":26794},{""page_index"":2,""viewing_time"":23393},{""page_index"":3,""viewing_time"":11006}]",5
,,,,,,,,,70411,,,70411,,,instructions,"[{""page_index"":0,""viewing_time"":6855},{""page_index"":1,""viewing_time"":20118},{""page_index"":2,""viewing_time"":30436},{""page_index"":3,""viewing_time"":13001}]",6
,,,,,,,,,34830,,,136885,,,instructions,"[{""page_index"":0,""viewing_time"":1600},{""page_index"":1,""viewing_time"":2498},{""page_index"":2,""viewing_time"":9108},{""page_index"":1,""viewing_time"":2607},{""page_index"":2,""viewing_time"":7954},{""page_index"":3,""viewing_time"":11062}]",6
,,,,,,,,,226145,,,226147,,,instructions,"[{""page_index"":0,""viewing_time"":103956},{""page_index"":1,""viewing_time"":54393},{""page_index"":2,""viewing_time"":45158},{""page_index"":3,""viewing_time"":22635}]",7
,,,,,,,,,148295,,,148296,,,instructions,"[{""page_index"":0,""viewing_time"":56013},{""page_index"":1,""viewing_time"":32223},{""page_index"":2,""viewing_time"":43593},{""page_index"":3,""viewing_time"":16465}]",8
,,,,,,,,,28563,,,227326,,,instructions,"[{""page_index"":0,""viewing_time"":5402},{""page_index"":1,""viewing_time"":3760},{""page_index"":2,""viewing_time"":12544},{""page_index"":3,""viewing_time"":6856}]",8
,,,,,,,,,226632,,,226633,,,instructions,"[{""page_index"":0,""viewing_time"":53084},{""page_index"":1,""viewing_time"":20507},{""page_index"":2,""viewing_time"":139985},{""page_index"":3,""viewing_time"":13055}]",9
,,,,,,,,,34226,,,290530,,,instructions,"[{""page_index"":0,""viewing_time"":5442},{""page_index"":1,""viewing_time"":7108},{""page_index"":2,""viewing_time"":11020},{""page_index"":3,""viewing_time"":10656}]",9
,,,,,,,,,89364,,,89368,,,instructions,"[{""page_index"":0,""viewing_time"":41929},{""page_index"":1,""viewing_time"":29611},{""page_index"":2,""viewing_time"":9321},{""page_index"":3,""viewing_time"":8500}]",10
,,,,,,,,,114619,,,114620,,,instructions,"[{""page_index"":0,""viewing_time"":61226},{""page_index"":1,""viewing_time"":39953},{""page_index"":2,""viewing_time"":13440}]",11
,,,,,,,,,42752,,,42754,,,instructions,"[{""page_index"":0,""viewing_time"":25542},{""page_index"":1,""viewing_time"":12162},{""page_index"":2,""viewing_time"":5047}]",12
,,,,,,,,,29612,,,89770,,,instructions,"[{""page_index"":0,""viewing_time"":10177},{""page_index"":1,""viewing_time"":14709},{""page_index"":2,""viewing_time"":4725}]",12
,,,,,,,,,128371,,,128375,,,instructions,"[{""page_index"":0,""viewing_time"":49955},{""page_index"":1,""viewing_time"":51473},{""page_index"":2,""viewing_time"":26939}]",13
,,,,,,,,,145862,,,145866,,,instructions,"[{""page_index"":0,""viewing_time"":56717},{""page_index"":1,""viewing_time"":56397},{""page_index"":2,""viewing_time"":32744}]",14
,,,,,,,,,151241,,,151242,,,instructions,"[{""page_index"":0,""viewing_time"":41330},{""page_index"":1,""viewing_time"":44354},{""page_index"":2,""viewing_time"":39660},{""page_index"":3,""viewing_time"":25895}]",15
,,,,,,,,,9684,,,9686,,,instructions,"[{""page_index"":0,""viewing_time"":4460},{""page_index"":1,""viewing_time"":1783},{""page_index"":2,""viewing_time"":2645},{""page_index"":3,""viewing_time"":794}]",16
,,,,,,,,,63430,,,86060,,,instructions,"[{""page_index"":0,""viewing_time"":4308},{""page_index"":1,""viewing_time"":3103},{""page_index"":2,""viewing_time"":5637},{""page_index"":1,""viewing_time"":494},{""page_index"":0,""viewing_time"":8460},{""page_index"":1,""viewing_time"":23796},{""page_index"":2,""viewing_time"":5330},{""page_index"":3,""viewing_time"":12300}]",16
,,,,,,,,,163736,,,163737,,,instructions,"[{""page_index"":0,""viewing_time"":149967},{""page_index"":1,""viewing_time"":8624},{""page_index"":2,""viewing_time"":5144}]",17
,,,,,,,,,25017,,,222064,,,instructions,"[{""page_index"":0,""viewing_time"":5472},{""page_index"":1,""viewing_time"":7680},{""page_index"":2,""viewing_time"":11864}]",17
,,,,,,,,,104278,,,104279,,,instructions,"[{""page_index"":0,""viewing_time"":46910},{""page_index"":1,""viewing_time"":36967},{""page_index"":2,""viewing_time"":20400}]",18
,,,,,,,,,114100,,,114101,,,instructions,"[{""page_index"":0,""viewing_time"":52768},{""page_index"":1,""viewing_time"":32606},{""page_index"":2,""viewing_time"":28725}]",19
,,,,,,,,,85298,,,85300,,,instructions,"[{""page_index"":0,""viewing_time"":12489},{""page_index"":1,""viewing_time"":25548},{""page_index"":2,""viewing_time"":31073},{""page_index"":3,""viewing_time"":16187}]",20
,,,,,,,,,121432,,,121433,,,instructions,"[{""page_index"":0,""viewing_time"":62992},{""page_index"":1,""viewing_time"":36591},{""page_index"":2,""viewing_time"":21848}]",21
,,,,,,,,,134348,,,134350,,,instructions,"[{""page_index"":0,""viewing_time"":54532},{""page_index"":1,""viewing_time"":51163},{""page_index"":2,""viewing_time"":28652}]",22
,,,,,,,,,52076,,,52076,,,instructions,"[{""page_index"":0,""viewing_time"":21824},{""page_index"":1,""viewing_time"":18128},{""page_index"":2,""viewing_time"":5168},{""page_index"":3,""viewing_time"":6955}]",23
,,,,,,,,,65684,,,140531,,,instructions,"[{""page_index"":0,""viewing_time"":19756},{""page_index"":1,""viewing_time"":15486},{""page_index"":2,""viewing_time"":11564},{""page_index"":3,""viewing_time"":18877}]",23
,,,,,,,,,122050,,,122051,,,instructions,"[{""page_index"":0,""viewing_time"":34027},{""page_index"":1,""viewing_time"":40257},{""page_index"":2,""viewing_time"":30357},{""page_index"":3,""viewing_time"":17409}]",24
,,,,,,,,,128524,,,307648,,,instructions,"[{""page_index"":0,""viewing_time"":13760},{""page_index"":1,""viewing_time"":11546},{""page_index"":2,""viewing_time"":2573},{""page_index"":3,""viewing_time"":100644}]",24
,,,,,,,,,4098,,,372189,,,instructions,"[{""page_index"":0,""viewing_time"":1147},{""page_index"":1,""viewing_time"":649},{""page_index"":2,""viewing_time"":925},{""page_index"":3,""viewing_time"":1376}]",24
,,,,,,,,,98663,,,98664,,,instructions,"[{""page_index"":0,""viewing_time"":46070},{""page_index"":1,""viewing_time"":15600},{""page_index"":2,""viewing_time"":27718},{""page_index"":3,""viewing_time"":9275}]",25
,,,,,,,,,91984,,,221993,,,instructions,"[{""page_index"":0,""viewing_time"":32478},{""page_index"":1,""viewing_time"":16061},{""page_index"":2,""viewing_time"":31182},{""page_index"":3,""viewing_time"":12263}]",25
,,,,,,,,,125399,,,125403,,,instructions,"[{""page_index"":0,""viewing_time"":46112},{""page_index"":1,""viewing_time"":29659},{""page_index"":2,""viewing_time"":30925},{""page_index"":3,""viewing_time"":18700}]",26
,,,,,,,,,47932,,,206917,,,instructions,"[{""page_index"":0,""viewing_time"":7324},{""page_index"":1,""viewing_time"":6835},{""page_index"":2,""viewing_time"":31482},{""page_index"":3,""viewing_time"":2290}]",26
,,,,,,,,,63930,,,63931,,,instructions,"[{""page_index"":0,""viewing_time"":24865},{""page_index"":1,""viewing_time"":13177},{""page_index"":2,""viewing_time"":13549},{""page_index"":3,""viewing_time"":12339}]",27
,,,,,,,,,129671,,,230382,,,instructions,"[{""page_index"":0,""viewing_time"":3934},{""page_index"":1,""viewing_time"":18058},{""page_index"":2,""viewing_time"":15798},{""page_index"":3,""viewing_time"":17049},{""page_index"":2,""viewing_time"":3813},{""page_index"":1,""viewing_time"":7450},{""page_index"":0,""viewing_time"":34010},{""page_index"":1,""viewing_time"":1733},{""page_index"":0,""viewing_time"":1337},{""page_index"":1,""viewing_time"":3872},{""page_index"":0,""viewing_time"":1297},{""page_index"":1,""viewing_time"":2844},{""page_index"":0,""viewing_time"":3539},{""page_index"":1,""viewing_time"":2087},{""page_index"":2,""viewing_time"":8200},{""page_index"":3,""viewing_time"":4650}]",27
,,,,,,,,,27976,,,289755,,,instructions,"[{""page_index"":0,""viewing_time"":9660},{""page_index"":1,""viewing_time"":3730},{""page_index"":2,""viewing_time"":13752},{""page_index"":3,""viewing_time"":834}]",27
,,,,,,,,,22265,,,331843,,,instructions,"[{""page_index"":0,""viewing_time"":3804},{""page_index"":1,""viewing_time"":632},{""page_index"":0,""viewing_time"":1373},{""page_index"":1,""viewing_time"":1091},{""page_index"":2,""viewing_time"":14625},{""page_index"":3,""viewing_time"":740}]",27
,,,,,,,,,52793,,,413280,,,instructions,"[{""page_index"":0,""viewing_time"":2690},{""page_index"":1,""viewing_time"":2369},{""page_index"":2,""viewing_time"":47004},{""page_index"":3,""viewing_time"":729}]",27
,,,,,,,,,32684,,,473890,,,instructions,"[{""page_index"":0,""viewing_time"":5054},{""page_index"":1,""viewing_time"":5088},{""page_index"":2,""viewing_time"":10719},{""page_index"":3,""viewing_time"":11823}]",27
,,,,,,,,,109113,,,109114,,,instructions,"[{""page_index"":0,""viewing_time"":45726},{""page_index"":1,""viewing_time"":38219},{""page_index"":2,""viewing_time"":25167}]",28
,,,,,,,,,124996,,,124998,,,instructions,"[{""page_index"":0,""viewing_time"":26193},{""page_index"":1,""viewing_time"":40486},{""page_index"":2,""viewing_time"":41361},{""page_index"":3,""viewing_time"":16956}]",29
,,,,,,,,,161536,,,161538,,,instructions,"[{""page_index"":0,""viewing_time"":65902},{""page_index"":1,""viewing_time"":47220},{""page_index"":2,""viewing_time"":20369},{""page_index"":3,""viewing_time"":28044}]",30
,,,,,,,,,139454,,,392743,,,instructions,"[{""page_index"":0,""viewing_time"":14274},{""page_index"":1,""viewing_time"":34919},{""page_index"":2,""viewing_time"":62013},{""page_index"":3,""viewing_time"":28247}]",30
,,,,,,,,,139514,,,139516,,,instructions,"[{""page_index"":0,""viewing_time"":41894},{""page_index"":1,""viewing_time"":14419},{""page_index"":0,""viewing_time"":9593},{""page_index"":1,""viewing_time"":4077},{""page_index"":0,""viewing_time"":9605},{""page_index"":1,""viewing_time"":10848},{""page_index"":2,""viewing_time"":3018},{""page_index"":1,""viewing_time"":1935},{""page_index"":0,""viewing_time"":5319},{""page_index"":1,""viewing_time"":13714},{""page_index"":2,""viewing_time"":7898},{""page_index"":1,""viewing_time"":2304},{""page_index"":2,""viewing_time"":14890}]",31
,,,,,,,,,52692,,,222701,,,instructions,"[{""page_index"":0,""viewing_time"":4425},{""page_index"":1,""viewing_time"":13882},{""page_index"":0,""viewing_time"":9561},{""page_index"":1,""viewing_time"":11614},{""page_index"":2,""viewing_time"":13210}]",31
,,,,,,,,,83252,,,83254,,,instructions,"[{""page_index"":0,""viewing_time"":31497},{""page_index"":1,""viewing_time"":21160},{""page_index"":2,""viewing_time"":15337},{""page_index"":3,""viewing_time"":15256}]",32
,,,,,,,,,37730,,,154466,,,instructions,"[{""page_index"":0,""viewing_time"":10611},{""page_index"":1,""viewing_time"":11323},{""page_index"":2,""viewing_time"":13241},{""page_index"":3,""viewing_time"":2554}]",32
,,,,,,,,,40214,,,217244,,,instructions,"[{""page_index"":0,""viewing_time"":21185},{""page_index"":1,""viewing_time"":2784},{""page_index"":2,""viewing_time"":12086},{""page_index"":3,""viewing_time"":4158}]",32
,,,,,,,,,117701,,,117701,,,instructions,"[{""page_index"":0,""viewing_time"":35693},{""page_index"":1,""viewing_time"":31480},{""page_index"":2,""viewing_time"":31895},{""page_index"":3,""viewing_time"":18632}]",33
,,,,,,,,,69941,,,237667,,,instructions,"[{""page_index"":0,""viewing_time"":9701},{""page_index"":1,""viewing_time"":20232},{""page_index"":2,""viewing_time"":26399},{""page_index"":3,""viewing_time"":13608}]",33
,,,,,,,,,78461,,,336697,,,instructions,"[{""page_index"":0,""viewing_time"":27966},{""page_index"":1,""viewing_time"":34031},{""page_index"":2,""viewing_time"":14232},{""page_index"":3,""viewing_time"":2232}]",33
,,,,,,,,,4806,,,364849,,,instructions,"[{""page_index"":0,""viewing_time"":2182},{""page_index"":1,""viewing_time"":200},{""page_index"":2,""viewing_time"":1640},{""page_index"":3,""viewing_time"":783}]",33
,,,,,,,,,57374,,,435952,,,instructions,"[{""page_index"":0,""viewing_time"":27502},{""page_index"":1,""viewing_time"":15104},{""page_index"":2,""viewing_time"":10184},{""page_index"":3,""viewing_time"":4584}]",33
,,,,,,,,,8047,,,469320,,,instructions,"[{""page_index"":0,""viewing_time"":4727},{""page_index"":1,""viewing_time"":223},{""page_index"":0,""viewing_time"":176},{""page_index"":1,""viewing_time"":176},{""page_index"":0,""viewing_time"":304},{""page_index"":1,""viewing_time"":736},{""page_index"":2,""viewing_time"":1000},{""page_index"":3,""viewing_time"":704}]",33
,,,,,,,,,159781,,,159782,,,instructions,"[{""page_index"":0,""viewing_time"":37729},{""page_index"":1,""viewing_time"":36561},{""page_index"":2,""viewing_time"":47786},{""page_index"":3,""viewing_time"":37704}]",34
,,,,,,,,,65614,,,283027,,,instructions,"[{""page_index"":0,""viewing_time"":18542},{""page_index"":1,""viewing_time"":28024},{""page_index"":2,""viewing_time"":10850},{""page_index"":3,""viewing_time"":8197}]",34
,,,,,,,,,6667,,,317066,,,instructions,"[{""page_index"":0,""viewing_time"":2848},{""page_index"":1,""viewing_time"":911},{""page_index"":2,""viewing_time"":2311},{""page_index"":3,""viewing_time"":597}]",34
,,,,,,,,,101350,,,101352,,,instructions,"[{""page_index"":0,""viewing_time"":20686},{""page_index"":1,""viewing_time"":26946},{""page_index"":0,""viewing_time"":21770},{""page_index"":1,""viewing_time"":4430},{""page_index"":2,""viewing_time"":16265},{""page_index"":3,""viewing_time"":11251}]",35
,,,,,,,,,40886,,,173021,,,instructions,"[{""page_index"":0,""viewing_time"":6135},{""page_index"":1,""viewing_time"":7846},{""page_index"":2,""viewing_time"":18346},{""page_index"":3,""viewing_time"":8558}]",35
,,,,,,,,,124140,,,124141,,,instructions,"[{""page_index"":0,""viewing_time"":33545},{""page_index"":1,""viewing_time"":33335},{""page_index"":2,""viewing_time"":30050},{""page_index"":3,""viewing_time"":27208}]",36
,,,,,,,,,57682,,,57682,,,instructions,"[{""page_index"":0,""viewing_time"":27972},{""page_index"":1,""viewing_time"":20390},{""page_index"":2,""viewing_time"":9319}]",37
,,,,,,,,,48341,,,48343,,,instructions,"[{""page_index"":0,""viewing_time"":14467},{""page_index"":1,""viewing_time"":8523},{""page_index"":2,""viewing_time"":17063},{""page_index"":3,""viewing_time"":8286}]",38
,,,,,,,,,73617,,,73620,,,instructions,"[{""page_index"":0,""viewing_time"":3481},{""page_index"":1,""viewing_time"":2606},{""page_index"":2,""viewing_time"":39480},{""page_index"":3,""viewing_time"":28048}]",39
,,,,,,,,,70873,,,70874,,,instructions,"[{""page_index"":0,""viewing_time"":35699},{""page_index"":1,""viewing_time"":24691},{""page_index"":2,""viewing_time"":10481}]",40
,,,,,,,,,27878,,,116168,,,instructions,"[{""page_index"":0,""viewing_time"":6234},{""page_index"":1,""viewing_time"":7792},{""page_index"":2,""viewing_time"":13851}]",40
,,,,,,,,,39877,,,172275,,,instructions,"[{""page_index"":0,""viewing_time"":2834},{""page_index"":1,""viewing_time"":5957},{""page_index"":2,""viewing_time"":9601},{""page_index"":1,""viewing_time"":20992},{""page_index"":2,""viewing_time"":493}]",40
,,,,,,,,,17868,,,206147,,,instructions,"[{""page_index"":0,""viewing_time"":14315},{""page_index"":1,""viewing_time"":3364},{""page_index"":2,""viewing_time"":189}]",40
,,,,,,,,,4609,,,232439,,,instructions,"[{""page_index"":0,""viewing_time"":2489},{""page_index"":1,""viewing_time"":528},{""page_index"":0,""viewing_time"":586},{""page_index"":1,""viewing_time"":461},{""page_index"":2,""viewing_time"":545}]",40
,,,,,,,,,61499,,,61501,,,instructions,"[{""page_index"":0,""viewing_time"":38311},{""page_index"":1,""viewing_time"":18758},{""page_index"":2,""viewing_time"":4429}]",41
,,,,,,,,,78891,,,167143,,,instructions,"[{""page_index"":0,""viewing_time"":32265},{""page_index"":1,""viewing_time"":24552},{""page_index"":2,""viewing_time"":22073}]",41
,,,,,,,,,74090,,,74092,,,instructions,"[{""page_index"":0,""viewing_time"":22857},{""page_index"":1,""viewing_time"":24735},{""page_index"":2,""viewing_time"":15368},{""page_index"":3,""viewing_time"":11128}]",42
,,,,,,,,,89485,,,89487,,,instructions,"[{""page_index"":0,""viewing_time"":26027},{""page_index"":1,""viewing_time"":27184},{""page_index"":2,""viewing_time"":21760},{""page_index"":3,""viewing_time"":14512}]",43
,,,,,,,,,38375,,,158224,,,instructions,"[{""page_index"":0,""viewing_time"":5582},{""page_index"":1,""viewing_time"":11057},{""page_index"":2,""viewing_time"":19704},{""page_index"":3,""viewing_time"":2031}]",43
,,,,,,,,,4431,,,183513,,,instructions,"[{""page_index"":0,""viewing_time"":1590},{""page_index"":1,""viewing_time"":720},{""page_index"":2,""viewing_time"":1336},{""page_index"":3,""viewing_time"":784}]",43
,,,,,,,,,219463,,,219465,,,instructions,"[{""page_index"":0,""viewing_time"":94249},{""page_index"":1,""viewing_time"":1509},{""page_index"":0,""viewing_time"":7076},{""page_index"":1,""viewing_time"":2082},{""page_index"":0,""viewing_time"":5299},{""page_index"":1,""viewing_time"":8627},{""page_index"":0,""viewing_time"":11879},{""page_index"":1,""viewing_time"":35952},{""page_index"":2,""viewing_time"":28607},{""page_index"":3,""viewing_time"":24182}]",44
,,,,,,,,,29464,,,298745,,,instructions,"[{""page_index"":0,""viewing_time"":6601},{""page_index"":1,""viewing_time"":4406},{""page_index"":0,""viewing_time"":780},{""page_index"":1,""viewing_time"":1361},{""page_index"":2,""viewing_time"":14583},{""page_index"":3,""viewing_time"":1732}]",44
,,,,,,,,,121010,,,121015,,,instructions,"[{""page_index"":0,""viewing_time"":53001},{""page_index"":1,""viewing_time"":44023},{""page_index"":2,""viewing_time"":23982}]",45
,,,,,,,,,135785,,,135786,,,instructions,"[{""page_index"":0,""viewing_time"":34543},{""page_index"":1,""viewing_time"":8768},{""page_index"":2,""viewing_time"":48560},{""page_index"":3,""viewing_time"":43912}]",46
,,,,,,,,,54723,,,237633,,,instructions,"[{""page_index"":0,""viewing_time"":8833},{""page_index"":1,""viewing_time"":6864},{""page_index"":2,""viewing_time"":24656},{""page_index"":3,""viewing_time"":14369}]",46
,,,,,,,,,170511,,,170512,,,instructions,"[{""page_index"":0,""viewing_time"":56273},{""page_index"":1,""viewing_time"":42307},{""page_index"":2,""viewing_time"":37744},{""page_index"":3,""viewing_time"":34187}]",47
,,,,,,,,,63255,,,63257,,,instructions,"[{""page_index"":0,""viewing_time"":30392},{""page_index"":1,""viewing_time"":9242},{""page_index"":2,""viewing_time"":9369},{""page_index"":3,""viewing_time"":14250}]",48
,,,,,,,,,49200,,,49201,,,instructions,"[{""page_index"":0,""viewing_time"":6999},{""page_index"":1,""viewing_time"":23781},{""page_index"":2,""viewing_time"":6264},{""page_index"":3,""viewing_time"":12155}]",49
,,,,,,,,,73717,,,154686,,,instructions,"[{""page_index"":0,""viewing_time"":12728},{""page_index"":1,""viewing_time"":17704},{""page_index"":2,""viewing_time"":26169},{""page_index"":3,""viewing_time"":17114}]",49
,,,,,,,,,111880,,,291965,,,instructions,"[{""page_index"":0,""viewing_time"":24323},{""page_index"":1,""viewing_time"":29915},{""page_index"":2,""viewing_time"":36006},{""page_index"":3,""viewing_time"":21635}]",49
,,,,,,,,,10114,,,331943,,,instructions,"[{""page_index"":0,""viewing_time"":1958},{""page_index"":1,""viewing_time"":4654},{""page_index"":2,""viewing_time"":2146},{""page_index"":3,""viewing_time"":1354}]",49
,,,,,,,,,39637,,,401589,,,instructions,"[{""page_index"":0,""viewing_time"":9900},{""page_index"":1,""viewing_time"":2624},{""page_index"":2,""viewing_time"":8151},{""page_index"":3,""viewing_time"":18961}]",49
,,,,,,,,,59944,,,482870,,,instructions,"[{""page_index"":0,""viewing_time"":12450},{""page_index"":1,""viewing_time"":29910},{""page_index"":2,""viewing_time"":12964},{""page_index"":3,""viewing_time"":4619}]",49
,,,,,,,,,18020,,,523500,,,instructions,"[{""page_index"":0,""viewing_time"":2685},{""page_index"":1,""viewing_time"":4335},{""page_index"":2,""viewing_time"":5422},{""page_index"":3,""viewing_time"":5577}]",49
,,,,,,,,,194503,,,194505,,,instructions,"[{""page_index"":0,""viewing_time"":81266},{""page_index"":1,""viewing_time"":34627},{""page_index"":2,""viewing_time"":68808},{""page_index"":3,""viewing_time"":9801}]",50
,,,,,,,,,71333,,,71334,,,instructions,"[{""page_index"":0,""viewing_time"":46658},{""page_index"":1,""viewing_time"":5849},{""page_index"":2,""viewing_time"":18825}]",51
,,,,,,,,,40703,,,138888,,,instructions,"[{""page_index"":0,""viewing_time"":10713},{""page_index"":1,""viewing_time"":21218},{""page_index"":2,""viewing_time"":8771}]",51
,,,,,,,,,8770,,,261048,,,instructions,"[{""page_index"":0,""viewing_time"":5792},{""page_index"":1,""viewing_time"":1240},{""page_index"":2,""viewing_time"":1738}]",51
,,,,,,,,,44660,,,339201,,,instructions,"[{""page_index"":0,""viewing_time"":16089},{""page_index"":1,""viewing_time"":18545},{""page_index"":2,""viewing_time"":10025}]",51
,,,,,,,,,13095,,,366575,,,instructions,"[{""page_index"":0,""viewing_time"":4249},{""page_index"":1,""viewing_time"":2874},{""page_index"":2,""viewing_time"":5972}]",51
,,,,,,,,,9836,,,401755,,,instructions,"[{""page_index"":0,""viewing_time"":8468},{""page_index"":1,""viewing_time"":834},{""page_index"":2,""viewing_time"":533}]",51
,,,,,,,,,117712,,,117715,,,instructions,"[{""page_index"":0,""viewing_time"":50739},{""page_index"":1,""viewing_time"":7081},{""page_index"":0,""viewing_time"":16805},{""page_index"":1,""viewing_time"":22479},{""page_index"":2,""viewing_time"":20607}]",52
,,,,,,,,,60682,,,217308,,,instructions,"[{""page_index"":0,""viewing_time"":13299},{""page_index"":1,""viewing_time"":23415},{""page_index"":2,""viewing_time"":23967}]",52
,,,,,,,,,17541,,,267306,,,instructions,"[{""page_index"":0,""viewing_time"":3236},{""page_index"":1,""viewing_time"":6056},{""page_index"":2,""viewing_time"":8248}]",52
,,,,,,,,,47973,,,47974,,,instructions,"[{""page_index"":0,""viewing_time"":14445},{""page_index"":1,""viewing_time"":6857},{""page_index"":2,""viewing_time"":21154},{""page_index"":3,""viewing_time"":5516}]",53
,,,,,,,,,42774,,,122023,,,instructions,"[{""page_index"":0,""viewing_time"":7263},{""page_index"":1,""viewing_time"":9462},{""page_index"":2,""viewing_time"":3096},{""page_index"":1,""viewing_time"":2928},{""page_index"":2,""viewing_time"":16048},{""page_index"":3,""viewing_time"":3976}]",53
,,,,,,,,,21572,,,163419,,,instructions,"[{""page_index"":0,""viewing_time"":2841},{""page_index"":1,""viewing_time"":2482},{""page_index"":2,""viewing_time"":8789},{""page_index"":3,""viewing_time"":7459}]",53
,,,,,,,,,74385,,,74387,,,instructions,"[{""page_index"":0,""viewing_time"":32817},{""page_index"":1,""viewing_time"":26047},{""page_index"":2,""viewing_time"":15520}]",54
,,,,,,,,,26678,,,121794,,,instructions,"[{""page_index"":0,""viewing_time"":8741},{""page_index"":1,""viewing_time"":6760},{""page_index"":2,""viewing_time"":11176}]",54
,,,,,,,,,27983,,,163721,,,instructions,"[{""page_index"":0,""viewing_time"":9879},{""page_index"":1,""viewing_time"":12271},{""page_index"":2,""viewing_time"":5832}]",54
,,,,,,,,,22411,,,22412,,,instructions,"[{""page_index"":0,""viewing_time"":8812},{""page_index"":1,""viewing_time"":8808},{""page_index"":2,""viewing_time"":4789}]",55
,,,,,,,,,82462,,,82464,,,instructions,"[{""page_index"":0,""viewing_time"":30284},{""page_index"":1,""viewing_time"":28505},{""page_index"":2,""viewing_time"":23672}]",56
,,,,,,,,,109778,,,109779,,,instructions,"[{""page_index"":0,""viewing_time"":25657},{""page_index"":1,""viewing_time"":11269},{""page_index"":0,""viewing_time"":9916},{""page_index"":1,""viewing_time"":5087},{""page_index"":0,""viewing_time"":7863},{""page_index"":1,""viewing_time"":11311},{""page_index"":2,""viewing_time"":22302},{""page_index"":3,""viewing_time"":16373}]",57
,,,,,,,,,49849,,,199136,,,instructions,"[{""page_index"":0,""viewing_time"":8167},{""page_index"":1,""viewing_time"":7765},{""page_index"":2,""viewing_time"":26865},{""page_index"":3,""viewing_time"":7051}]",57
,,,,,,,,,82409,,,82410,,,instructions,"[{""page_index"":0,""viewing_time"":24936},{""page_index"":1,""viewing_time"":24525},{""page_index"":2,""viewing_time"":19942},{""page_index"":3,""viewing_time"":13005}]",58
,,,,,,,,,121524,,,121526,,,instructions,"[{""page_index"":0,""viewing_time"":48352},{""page_index"":1,""viewing_time"":35211},{""page_index"":2,""viewing_time"":37958}]",59
,,,,,,,,,73714,,,73714,,,instructions,"[{""page_index"":0,""viewing_time"":31183},{""page_index"":1,""viewing_time"":29315},{""page_index"":2,""viewing_time"":13215}]",60
,,,,,,,,,83378,,,83381,,,instructions,"[{""page_index"":0,""viewing_time"":26695},{""page_index"":1,""viewing_time"":28980},{""page_index"":2,""viewing_time"":27701}]",61
,,,,,,,,,47177,,,155868,,,instructions,"[{""page_index"":0,""viewing_time"":20358},{""page_index"":1,""viewing_time"":23754},{""page_index"":2,""viewing_time"":3065}]",61
,,,,,,,,,318136,,,318136,,,instructions,"[{""page_index"":0,""viewing_time"":150982},{""page_index"":1,""viewing_time"":77670},{""page_index"":0,""viewing_time"":13396},{""page_index"":1,""viewing_time"":9808},{""page_index"":2,""viewing_time"":66279}]",62
,,,,,,,,,228428,,,578950,,,instructions,"[{""page_index"":0,""viewing_time"":186340},{""page_index"":1,""viewing_time"":39447},{""page_index"":2,""viewing_time"":2640}]",62
,,,,,,,,,149980,,,149983,,,instructions,"[{""page_index"":0,""viewing_time"":54901},{""page_index"":1,""viewing_time"":32607},{""page_index"":2,""viewing_time"":40472},{""page_index"":3,""viewing_time"":21999}]",63
,,,,,,,,,74974,,,74974,,,instructions,"[{""page_index"":0,""viewing_time"":28246},{""page_index"":1,""viewing_time"":28374},{""page_index"":2,""viewing_time"":18352}]",64
,,,,,,,,,297151,,,297153,,,instructions,"[{""page_index"":0,""viewing_time"":83645},{""page_index"":1,""viewing_time"":124119},{""page_index"":2,""viewing_time"":58361},{""page_index"":3,""viewing_time"":31023}]",65
,,,,,,,,,14580,,,387868,,,instructions,"[{""page_index"":0,""viewing_time"":3521},{""page_index"":1,""viewing_time"":1640},{""page_index"":2,""viewing_time"":7636},{""page_index"":3,""viewing_time"":1782}]",65
,,,,,,,,,146544,,,146545,,,instructions,"[{""page_index"":0,""viewing_time"":68256},{""page_index"":1,""viewing_time"":64704},{""page_index"":2,""viewing_time"":13582}]",66
,,,,,,,,,113554,,,291784,,,instructions,"[{""page_index"":0,""viewing_time"":38258},{""page_index"":1,""viewing_time"":45168},{""page_index"":2,""viewing_time"":30127}]",66
,,,,,,,,,71302,,,394904,,,instructions,"[{""page_index"":0,""viewing_time"":28269},{""page_index"":1,""viewing_time"":27522},{""page_index"":2,""viewing_time"":15510}]",66
,,,,,,,,,4387,,,430664,,,instructions,"[{""page_index"":0,""viewing_time"":2394},{""page_index"":1,""viewing_time"":880},{""page_index"":2,""viewing_time"":1112}]",66
,,,,,,,,,76328,,,76328,,,instructions,"[{""page_index"":0,""viewing_time"":30464},{""page_index"":1,""viewing_time"":27687},{""page_index"":2,""viewing_time"":18176}]",67
,,,,,,,,,414866,,,414868,,,instructions,"[{""page_index"":0,""viewing_time"":374230},{""page_index"":1,""viewing_time"":26669},{""page_index"":2,""viewing_time"":13966}]",68
,,,,,,,,,145151,,,145151,,,instructions,"[{""page_index"":0,""viewing_time"":53231},{""page_index"":1,""viewing_time"":53629},{""page_index"":2,""viewing_time"":38289}]",69
,,,,,,,,,154139,,,154143,,,instructions,"[{""page_index"":0,""viewing_time"":26733},{""page_index"":1,""viewing_time"":26009},{""page_index"":2,""viewing_time"":88424},{""page_index"":3,""viewing_time"":12947}]",70
,,,,,,,,,131783,,,131784,,,instructions,"[{""page_index"":0,""viewing_time"":34112},{""page_index"":1,""viewing_time"":39240},{""page_index"":2,""viewing_time"":33130},{""page_index"":3,""viewing_time"":25300}]",71
,,,,,,,,,26904,,,194274,,,instructions,"[{""page_index"":0,""viewing_time"":8694},{""page_index"":1,""viewing_time"":4084},{""page_index"":2,""viewing_time"":6435},{""page_index"":3,""viewing_time"":7691}]",71
,,,,,,,,,41035,,,41037,,,instructions,"[{""page_index"":0,""viewing_time"":4928},{""page_index"":1,""viewing_time"":4378},{""page_index"":2,""viewing_time"":11326},{""page_index"":3,""viewing_time"":20401}]",72
,,,,,,,,,13289,,,104385,,,instructions,"[{""page_index"":0,""viewing_time"":9470},{""page_index"":1,""viewing_time"":1287},{""page_index"":2,""viewing_time"":1591},{""page_index"":3,""viewing_time"":940}]",72
,,,,,,,,,6457,,,135343,,,instructions,"[{""page_index"":0,""viewing_time"":2040},{""page_index"":1,""viewing_time"":1380},{""page_index"":2,""viewing_time"":1464},{""page_index"":3,""viewing_time"":1572}]",72
,,,,,,,,,7454,,,160274,,,instructions,"[{""page_index"":0,""viewing_time"":1983},{""page_index"":1,""viewing_time"":640},{""page_index"":0,""viewing_time"":1555},{""page_index"":1,""viewing_time"":688},{""page_index"":2,""viewing_time"":1600},{""page_index"":3,""viewing_time"":987}]",72
,,,,,,,,,49744,,,223066,,,instructions,"[{""page_index"":0,""viewing_time"":18428},{""page_index"":1,""viewing_time"":1703},{""page_index"":2,""viewing_time"":2092},{""page_index"":1,""viewing_time"":9466},{""page_index"":2,""viewing_time"":15695},{""page_index"":3,""viewing_time"":2359}]",72
,,,,,,,,,4984,,,245328,,,instructions,"[{""page_index"":0,""viewing_time"":1939},{""page_index"":1,""viewing_time"":732},{""page_index"":2,""viewing_time"":1464},{""page_index"":3,""viewing_time"":848}]",72
,,,,,,,,,4905,,,263269,,,instructions,"[{""page_index"":0,""viewing_time"":1805},{""page_index"":1,""viewing_time"":1031},{""page_index"":2,""viewing_time"":1176},{""page_index"":3,""viewing_time"":892}]",72
,,,,,,,,,4800,,,280669,,,instructions,"[{""page_index"":0,""viewing_time"":1556},{""page_index"":1,""viewing_time"":873},{""page_index"":2,""viewing_time"":1559},{""page_index"":3,""viewing_time"":811}]",72
,,,,,,,,,4881,,,296832,,,instructions,"[{""page_index"":0,""viewing_time"":1884},{""page_index"":1,""viewing_time"":969},{""page_index"":2,""viewing_time"":1272},{""page_index"":3,""viewing_time"":755}]",72
,,,,,,,,,54660,,,54662,,,instructions,"[{""page_index"":0,""viewing_time"":13980},{""page_index"":1,""viewing_time"":24046},{""page_index"":2,""viewing_time"":16632}]",73
,,,,,,,,,163492,,,163494,,,instructions,"[{""page_index"":0,""viewing_time"":84953},{""page_index"":1,""viewing_time"":43991},{""page_index"":2,""viewing_time"":34548}]",74
,,,,,,,,,72281,,,274036,,,instructions,"[{""page_index"":0,""viewing_time"":24519},{""page_index"":1,""viewing_time"":1472},{""page_index"":0,""viewing_time"":6848},{""page_index"":1,""viewing_time"":27792},{""page_index"":2,""viewing_time"":11650}]",74
,,,,,,,,,4214,,,297124,,,instructions,"[{""page_index"":0,""viewing_time"":2757},{""page_index"":1,""viewing_time"":688},{""page_index"":2,""viewing_time"":769}]",74
,,,,,,,,,4453,,,312339,,,instructions,"[{""page_index"":0,""viewing_time"":2717},{""page_index"":1,""viewing_time"":904},{""page_index"":2,""viewing_time"":831}]",74
,,,,,,,,,3086,,,328435,,,instructions,"[{""page_index"":0,""viewing_time"":1669},{""page_index"":1,""viewing_time"":832},{""page_index"":2,""viewing_time"":584}]",74
,,,,,,,,,5193,,,351371,,,instructions,"[{""page_index"":0,""viewing_time"":2952},{""page_index"":1,""viewing_time"":408},{""page_index"":0,""viewing_time"":640},{""page_index"":1,""viewing_time"":680},{""page_index"":2,""viewing_time"":512}]",74
,,,,,,,,,50266,,,455019,,,instructions,"[{""page_index"":0,""viewing_time"":38099},{""page_index"":1,""viewing_time"":10962},{""page_index"":2,""viewing_time"":1205}]",74
,,,,,,,,,394342,,,394345,,,instructions,"[{""page_index"":0,""viewing_time"":78500},{""page_index"":1,""viewing_time"":44494},{""page_index"":2,""viewing_time"":42349},{""page_index"":3,""viewing_time"":33617},{""page_index"":2,""viewing_time"":4188},{""page_index"":1,""viewing_time"":2381},{""page_index"":0,""viewing_time"":19270},{""page_index"":1,""viewing_time"":69181},{""page_index"":2,""viewing_time"":73115},{""page_index"":3,""viewing_time"":27246}]",75
,,,,,,,,,175644,,,175644,,,instructions,"[{""page_index"":0,""viewing_time"":60844},{""page_index"":1,""viewing_time"":43048},{""page_index"":2,""viewing_time"":37849},{""page_index"":3,""viewing_time"":33902}]",76
,,,,,,,,,39333,,,334963,,,instructions,"[{""page_index"":0,""viewing_time"":8085},{""page_index"":1,""viewing_time"":4161},{""page_index"":2,""viewing_time"":15216},{""page_index"":3,""viewing_time"":11871}]",76
,,,,,,,,,36739,,,36740,,,instructions,"[{""page_index"":0,""viewing_time"":15884},{""page_index"":1,""viewing_time"":13515},{""page_index"":2,""viewing_time"":7338}]",77
,,,,,,,,,40595,,,104153,,,instructions,"[{""page_index"":0,""viewing_time"":7641},{""page_index"":1,""viewing_time"":19353},{""page_index"":2,""viewing_time"":13600}]",77
,,,,,,,,,342396,,,342399,,,instructions,"[{""page_index"":0,""viewing_time"":104242},{""page_index"":1,""viewing_time"":117279},{""page_index"":2,""viewing_time"":66993},{""page_index"":3,""viewing_time"":53878}]",78
,,,,,,,,,107985,,,585914,,,instructions,"[{""page_index"":0,""viewing_time"":15162},{""page_index"":1,""viewing_time"":30552},{""page_index"":2,""viewing_time"":32951},{""page_index"":3,""viewing_time"":29319}]",78
,,,,,,,,,182591,,,827746,,,instructions,"[{""page_index"":0,""viewing_time"":50063},{""page_index"":1,""viewing_time"":80575},{""page_index"":2,""viewing_time"":31451},{""page_index"":3,""viewing_time"":20501}]",78
,,,,,,,,,5957,,,1241659,,,instructions,"[{""page_index"":0,""viewing_time"":2844},{""page_index"":1,""viewing_time"":639},{""page_index"":2,""viewing_time"":1909},{""page_index"":3,""viewing_time"":564}]",78
,,,,,,,,,175984,,,175985,,,instructions,"[{""page_index"":0,""viewing_time"":44102},{""page_index"":1,""viewing_time"":51172},{""page_index"":2,""viewing_time"":52431},{""page_index"":3,""viewing_time"":28279}]",79
,,,,,,,,,250799,,,250801,,,instructions,"[{""page_index"":0,""viewing_time"":24451},{""page_index"":1,""viewing_time"":21242},{""page_index"":2,""viewing_time"":58173},{""page_index"":3,""viewing_time"":26767},{""page_index"":2,""viewing_time"":2019},{""page_index"":1,""viewing_time"":1101},{""page_index"":0,""viewing_time"":24891},{""page_index"":1,""viewing_time"":23242},{""page_index"":2,""viewing_time"":1635},{""page_index"":1,""viewing_time"":11596},{""page_index"":2,""viewing_time"":25284},{""page_index"":3,""viewing_time"":30397}]",80
,,,,,,,,,16465,,,539631,,,instructions,"[{""page_index"":0,""viewing_time"":8917},{""page_index"":1,""viewing_time"":1005},{""page_index"":0,""viewing_time"":1858},{""page_index"":1,""viewing_time"":2019},{""page_index"":2,""viewing_time"":1488},{""page_index"":3,""viewing_time"":1177}]",80
,,,,,,,,,10800,,,572328,,,instructions,"[{""page_index"":0,""viewing_time"":1937},{""page_index"":1,""viewing_time"":1686},{""page_index"":2,""viewing_time"":6590},{""page_index"":3,""viewing_time"":587}]",80
,,,,,,,,,78045,,,684729,,,instructions,"[{""page_index"":0,""viewing_time"":7913},{""page_index"":1,""viewing_time"":16526},{""page_index"":2,""viewing_time"":45962},{""page_index"":3,""viewing_time"":7643}]",80
,,,,,,,,,297497,,,297498,,,instructions,"[{""page_index"":0,""viewing_time"":99463},{""page_index"":1,""viewing_time"":111679},{""page_index"":2,""viewing_time"":86353}]",81
,,,,,,,,,228583,,,626530,,,instructions,"[{""page_index"":0,""viewing_time"":70054},{""page_index"":1,""viewing_time"":116840},{""page_index"":2,""viewing_time"":41688}]",81
,,,,,,,,,91454,,,91454,,,instructions,"[{""page_index"":0,""viewing_time"":53872},{""page_index"":1,""viewing_time"":21823},{""page_index"":2,""viewing_time"":15759}]",82
,,,,,,,,,25530,,,133253,,,instructions,"[{""page_index"":0,""viewing_time"":7826},{""page_index"":1,""viewing_time"":10339},{""page_index"":2,""viewing_time"":7365}]",82
,,,,,,,,,71082,,,71083,,,instructions,"[{""page_index"":0,""viewing_time"":22521},{""page_index"":1,""viewing_time"":17147},{""page_index"":2,""viewing_time"":19741},{""page_index"":3,""viewing_time"":11672}]",83
,,,,,,,,,963274,,,963275,,,instructions,"[{""page_index"":0,""viewing_time"":93809},{""page_index"":1,""viewing_time"":107351},{""page_index"":0,""viewing_time"":22850},{""page_index"":1,""viewing_time"":7019},{""page_index"":0,""viewing_time"":2723},{""page_index"":1,""viewing_time"":5748},{""page_index"":0,""viewing_time"":16955},{""page_index"":1,""viewing_time"":32489},{""page_index"":0,""viewing_time"":4613},{""page_index"":1,""viewing_time"":1451},{""page_index"":2,""viewing_time"":61089},{""page_index"":1,""viewing_time"":16008},{""page_index"":2,""viewing_time"":11655},{""page_index"":3,""viewing_time"":38206},{""page_index"":2,""viewing_time"":78425},{""page_index"":1,""viewing_time"":1789},{""page_index"":0,""viewing_time"":154350},{""page_index"":1,""viewing_time"":101014},{""page_index"":2,""viewing_time"":125315},{""page_index"":3,""viewing_time"":80414}]",84
,,,,,,,,,92184,,,92184,,,instructions,"[{""page_index"":0,""viewing_time"":36372},{""page_index"":1,""viewing_time"":38768},{""page_index"":2,""viewing_time"":17043}]",85
,,,,,,,,,121664,,,121665,,,instructions,"[{""page_index"":0,""viewing_time"":56234},{""page_index"":1,""viewing_time"":44328},{""page_index"":2,""viewing_time"":21101}]",86
,,,,,,,,,35643,,,189827,,,instructions,"[{""page_index"":0,""viewing_time"":10516},{""page_index"":1,""viewing_time"":15991},{""page_index"":2,""viewing_time"":9136}]",86
,,,,,,,,,259426,,,259428,,,instructions,"[{""page_index"":0,""viewing_time"":129710},{""page_index"":1,""viewing_time"":93390},{""page_index"":2,""viewing_time"":36325}]",87
,,,,,,,,,165632,,,165634,,,instructions,"[{""page_index"":0,""viewing_time"":68152},{""page_index"":1,""viewing_time"":62480},{""page_index"":2,""viewing_time"":34996}]",88
,,,,,,,,,193812,,,193812,,,instructions,"[{""page_index"":0,""viewing_time"":62012},{""page_index"":1,""viewing_time"":81624},{""page_index"":2,""viewing_time"":50176}]",89
,,,,,,,,,49242,,,49242,,,instructions,"[{""page_index"":0,""viewing_time"":24606},{""page_index"":1,""viewing_time"":8168},{""page_index"":2,""viewing_time"":10647},{""page_index"":3,""viewing_time"":5820}]",90
,,,,,,,,,28322,,,104586,,,instructions,"[{""page_index"":0,""viewing_time"":7648},{""page_index"":1,""viewing_time"":3990},{""page_index"":2,""viewing_time"":11099},{""page_index"":3,""viewing_time"":5584}]",90
,,,,,,,,,32055,,,163792,,,instructions,"[{""page_index"":0,""viewing_time"":5723},{""page_index"":1,""viewing_time"":9762},{""page_index"":2,""viewing_time"":11671},{""page_index"":3,""viewing_time"":4898}]",90
,,,,,,,,,22361,,,214650,,,instructions,"[{""page_index"":0,""viewing_time"":7669},{""page_index"":1,""viewing_time"":3308},{""page_index"":2,""viewing_time"":8495},{""page_index"":3,""viewing_time"":2888}]",90
,,,,,,,,,64501,,,304823,,,instructions,"[{""page_index"":0,""viewing_time"":4814},{""page_index"":1,""viewing_time"":10038},{""page_index"":0,""viewing_time"":13181},{""page_index"":1,""viewing_time"":6844},{""page_index"":2,""viewing_time"":20480},{""page_index"":3,""viewing_time"":9143}]",90
,,,,,,,,,99954,,,99954,,,instructions,"[{""page_index"":0,""viewing_time"":37829},{""page_index"":1,""viewing_time"":18690},{""page_index"":2,""viewing_time"":26829},{""page_index"":3,""viewing_time"":16605}]",91
,,,,,,,,,162878,,,162879,,,instructions,"[{""page_index"":0,""viewing_time"":69111},{""page_index"":1,""viewing_time"":64453},{""page_index"":2,""viewing_time"":29313}]",92
,,,,,,,,,110997,,,110998,,,instructions,"[{""page_index"":0,""viewing_time"":26634},{""page_index"":1,""viewing_time"":35482},{""page_index"":2,""viewing_time"":31248},{""page_index"":3,""viewing_time"":17632}]",93
,,,,,,,,,252158,,,252159,,,instructions,"[{""page_index"":0,""viewing_time"":58965},{""page_index"":1,""viewing_time"":35665},{""page_index"":2,""viewing_time"":28641},{""page_index"":1,""viewing_time"":1740},{""page_index"":0,""viewing_time"":25483},{""page_index"":1,""viewing_time"":90376},{""page_index"":2,""viewing_time"":11288}]",94
,,,,,,,,,77757,,,370455,,,instructions,"[{""page_index"":0,""viewing_time"":21461},{""page_index"":1,""viewing_time"":39395},{""page_index"":2,""viewing_time"":16901}]",94
,,,,,,,,,136967,,,136968,,,instructions,"[{""page_index"":0,""viewing_time"":42185},{""page_index"":1,""viewing_time"":62357},{""page_index"":2,""viewing_time"":32423}]",95
,,,,,,,,,109947,,,109948,,,instructions,"[{""page_index"":0,""viewing_time"":22642},{""page_index"":1,""viewing_time"":903},{""page_index"":0,""viewing_time"":1220},{""page_index"":1,""viewing_time"":24091},{""page_index"":2,""viewing_time"":35649},{""page_index"":3,""viewing_time"":25441}]",96
,,,,,,,,,308866,,,308867,,,instructions,"[{""page_index"":0,""viewing_time"":153046},{""page_index"":1,""viewing_time"":107381},{""page_index"":2,""viewing_time"":48436}]",97
,,,,,,,,,69763,,,69764,,,instructions,"[{""page_index"":0,""viewing_time"":30034},{""page_index"":1,""viewing_time"":29816},{""page_index"":2,""viewing_time"":9912}]",98
,,,,,,,,,15542,,,125667,,,instructions,"[{""page_index"":0,""viewing_time"":2670},{""page_index"":1,""viewing_time"":5264},{""page_index"":2,""viewing_time"":7608}]",98
,,,,,,,,,190657,,,190658,,,instructions,"[{""page_index"":0,""viewing_time"":68356},{""page_index"":1,""viewing_time"":46395},{""page_index"":2,""viewing_time"":55872},{""page_index"":3,""viewing_time"":20033}]",99
,,,,,,,,,109661,,,109662,,,instructions,"[{""page_index"":0,""viewing_time"":62873},{""page_index"":1,""viewing_time"":27659},{""page_index"":2,""viewing_time"":19129}]",100
,,,,,,,,,96764,,,96765,,,instructions,"[{""page_index"":0,""viewing_time"":26905},{""page_index"":1,""viewing_time"":39820},{""page_index"":2,""viewing_time"":30039}]",101
,,,,,,,,,125694,,,125698,,,instructions,"[{""page_index"":0,""viewing_time"":34069},{""page_index"":1,""viewing_time"":37692},{""page_index"":2,""viewing_time"":29319},{""page_index"":3,""viewing_time"":24611}]",102
,,,,,,,,,111002,,,111002,,,instructions,"[{""page_index"":0,""viewing_time"":47617},{""page_index"":1,""viewing_time"":36294},{""page_index"":2,""viewing_time"":27081}]",103
,,,,,,,,,100227,,,261828,,,instructions,"[{""page_index"":0,""viewing_time"":56402},{""page_index"":1,""viewing_time"":28245},{""page_index"":2,""viewing_time"":15580}]",103
,,,,,,,,,132198,,,132199,,,instructions,"[{""page_index"":0,""viewing_time"":38581},{""page_index"":1,""viewing_time"":77189},{""page_index"":2,""viewing_time"":16426}]",104
,,,,,,,,,94906,,,94907,,,instructions,"[{""page_index"":0,""viewing_time"":37446},{""page_index"":1,""viewing_time"":26529},{""page_index"":2,""viewing_time"":25772},{""page_index"":3,""viewing_time"":5158}]",105
,,,,,,,,,63961,,,195534,,,instructions,"[{""page_index"":0,""viewing_time"":18569},{""page_index"":1,""viewing_time"":17112},{""page_index"":2,""viewing_time"":21291},{""page_index"":3,""viewing_time"":6989}]",105
,,,,,,,,,93704,,,93705,,,instructions,"[{""page_index"":0,""viewing_time"":33005},{""page_index"":1,""viewing_time"":32043},{""page_index"":2,""viewing_time"":28655}]",106
,,,,,,,,,136465,,,136469,,,instructions,"[{""page_index"":0,""viewing_time"":73379},{""page_index"":1,""viewing_time"":37463},{""page_index"":2,""viewing_time"":25620}]",107
,,,,,,,,,74599,,,74599,,,instructions,"[{""page_index"":0,""viewing_time"":20988},{""page_index"":1,""viewing_time"":33254},{""page_index"":2,""viewing_time"":20356}]",108
,,,,,,,,,224799,,,224802,,,instructions,"[{""page_index"":0,""viewing_time"":59355},{""page_index"":1,""viewing_time"":85633},{""page_index"":0,""viewing_time"":1082},{""page_index"":1,""viewing_time"":12779},{""page_index"":2,""viewing_time"":46844},{""page_index"":3,""viewing_time"":19104}]",109
,,,,,,,,,46163,,,352920,,,instructions,"[{""page_index"":0,""viewing_time"":21811},{""page_index"":1,""viewing_time"":8209},{""page_index"":2,""viewing_time"":11690},{""page_index"":3,""viewing_time"":4451}]",109
,,,,,,,,,105587,,,505933,,,instructions,"[{""page_index"":0,""viewing_time"":22653},{""page_index"":1,""viewing_time"":18904},{""page_index"":2,""viewing_time"":23052},{""page_index"":3,""viewing_time"":40975}]",109
,,,,,,,,,113015,,,113015,,,instructions,"[{""page_index"":0,""viewing_time"":44532},{""page_index"":1,""viewing_time"":42621},{""page_index"":2,""viewing_time"":25861}]",110
,,,,,,,,,85470,,,85472,,,instructions,"[{""page_index"":0,""viewing_time"":36461},{""page_index"":1,""viewing_time"":23736},{""page_index"":2,""viewing_time"":25272}]",111
,,,,,,,,,85347,,,85348,,,instructions,"[{""page_index"":0,""viewing_time"":23025},{""page_index"":1,""viewing_time"":36411},{""page_index"":2,""viewing_time"":25910}]",112
,,,,,,,,,341284,,,341289,,,instructions,"[{""page_index"":0,""viewing_time"":76882},{""page_index"":1,""viewing_time"":173851},{""page_index"":2,""viewing_time"":70945},{""page_index"":3,""viewing_time"":19603}]",113
,,,,,,,,,127033,,,127036,,,instructions,"[{""page_index"":0,""viewing_time"":57530},{""page_index"":1,""viewing_time"":39377},{""page_index"":2,""viewing_time"":30123}]",114
,,,,,,,,,93756,,,93758,,,instructions,"[{""page_index"":0,""viewing_time"":29950},{""page_index"":1,""viewing_time"":14018},{""page_index"":2,""viewing_time"":27193},{""page_index"":3,""viewing_time"":22594}]",115
,,,,,,,,,337244,,,337245,,,instructions,"[{""page_index"":0,""viewing_time"":72060},{""page_index"":1,""viewing_time"":104136},{""page_index"":2,""viewing_time"":123882},{""page_index"":3,""viewing_time"":37165}]",116
,,,,,,,,,148914,,,148914,,,instructions,"[{""page_index"":0,""viewing_time"":97679},{""page_index"":1,""viewing_time"":21850},{""page_index"":2,""viewing_time"":23507},{""page_index"":3,""viewing_time"":5877}]",117
,,,,,,,,,45619,,,228203,,,instructions,"[{""page_index"":0,""viewing_time"":4656},{""page_index"":1,""viewing_time"":11060},{""page_index"":2,""viewing_time"":24575},{""page_index"":3,""viewing_time"":5328}]",117
,,,,,,,,,129947,,,129948,,,instructions,"[{""page_index"":0,""viewing_time"":50082},{""page_index"":1,""viewing_time"":46038},{""page_index"":2,""viewing_time"":33826}]",118
,,,,,,,,,115557,,,115557,,,instructions,"[{""page_index"":0,""viewing_time"":24293},{""page_index"":1,""viewing_time"":64633},{""page_index"":2,""viewing_time"":26630}]",119
,,,,,,,,,160725,,,316084,,,instructions,"[{""page_index"":0,""viewing_time"":83748},{""page_index"":1,""viewing_time"":39461},{""page_index"":2,""viewing_time"":37515}]",119
,,,,,,,,,110547,,,110549,,,instructions,"[{""page_index"":0,""viewing_time"":33007},{""page_index"":1,""viewing_time"":28331},{""page_index"":2,""viewing_time"":30348},{""page_index"":3,""viewing_time"":18860}]",120
,,,,,,,,,224234,,,224236,,,instructions,"[{""page_index"":0,""viewing_time"":128222},{""page_index"":1,""viewing_time"":60758},{""page_index"":2,""viewing_time"":18865},{""page_index"":3,""viewing_time"":16385}]",121
,,,,,,,,,60234,,,372636,,,instructions,"[{""page_index"":0,""viewing_time"":8890},{""page_index"":1,""viewing_time"":19471},{""page_index"":2,""viewing_time"":12429},{""page_index"":3,""viewing_time"":19439}]",121
,,,,,,,,,9497,,,425184,,,instructions,"[{""page_index"":0,""viewing_time"":3951},{""page_index"":1,""viewing_time"":1943},{""page_index"":2,""viewing_time"":2456},{""page_index"":3,""viewing_time"":1145}]",121
,,,,,,,,,185761,,,632168,,,instructions,"[{""page_index"":0,""viewing_time"":75339},{""page_index"":1,""viewing_time"":51056},{""page_index"":2,""viewing_time"":35859},{""page_index"":3,""viewing_time"":23503}]",121
,,,,,,,,,163157,,,163158,,,instructions,"[{""page_index"":0,""viewing_time"":41759},{""page_index"":1,""viewing_time"":43049},{""page_index"":2,""viewing_time"":51950},{""page_index"":3,""viewing_time"":26398}]",122
,,,,,,,,,320827,,,320828,,,instructions,"[{""page_index"":0,""viewing_time"":104283},{""page_index"":1,""viewing_time"":83230},{""page_index"":2,""viewing_time"":84559},{""page_index"":3,""viewing_time"":48753}]",123
,,,,,,,,,44406,,,44407,,,instructions,"[{""page_index"":0,""viewing_time"":16489},{""page_index"":1,""viewing_time"":5628},{""page_index"":2,""viewing_time"":13425},{""page_index"":3,""viewing_time"":8863}]",124
,,,,,,,,,9814,,,78574,,,instructions,"[{""page_index"":0,""viewing_time"":1833},{""page_index"":1,""viewing_time"":900},{""page_index"":2,""viewing_time"":3301},{""page_index"":3,""viewing_time"":3779}]",124
,,,,,,,,,132089,,,132090,,,instructions,"[{""page_index"":0,""viewing_time"":47658},{""page_index"":1,""viewing_time"":33271},{""page_index"":2,""viewing_time"":35135},{""page_index"":3,""viewing_time"":16024}]",125
,,,,,,,,,143256,,,143258,,,instructions,"[{""page_index"":0,""viewing_time"":36220},{""page_index"":1,""viewing_time"":33375},{""page_index"":2,""viewing_time"":39483},{""page_index"":3,""viewing_time"":34177}]",126
,,,,,,,,,200118,,,200121,,,instructions,"[{""page_index"":0,""viewing_time"":51263},{""page_index"":1,""viewing_time"":45902},{""page_index"":2,""viewing_time"":55598},{""page_index"":3,""viewing_time"":47354}]",127
,,,,,,,,,203372,,,203374,,,instructions,"[{""page_index"":0,""viewing_time"":52498},{""page_index"":1,""viewing_time"":4052},{""page_index"":0,""viewing_time"":14468},{""page_index"":1,""viewing_time"":23611},{""page_index"":0,""viewing_time"":6441},{""page_index"":1,""viewing_time"":12535},{""page_index"":0,""viewing_time"":14455},{""page_index"":1,""viewing_time"":10536},{""page_index"":0,""viewing_time"":21373},{""page_index"":1,""viewing_time"":12643},{""page_index"":0,""viewing_time"":2048},{""page_index"":1,""viewing_time"":513},{""page_index"":2,""viewing_time"":6753},{""page_index"":3,""viewing_time"":1536},{""page_index"":2,""viewing_time"":5487},{""page_index"":3,""viewing_time"":14422}]",128
,,,,,,,,,49402,,,286468,,,instructions,"[{""page_index"":0,""viewing_time"":5381},{""page_index"":1,""viewing_time"":13134},{""page_index"":2,""viewing_time"":21720},{""page_index"":3,""viewing_time"":9166}]",128
,,,,,,,,,72340,,,388475,,,instructions,"[{""page_index"":0,""viewing_time"":21311},{""page_index"":1,""viewing_time"":19964},{""page_index"":2,""viewing_time"":24965},{""page_index"":3,""viewing_time"":6100}]",128
,,,,,,,,,31452,,,456081,,,instructions,"[{""page_index"":0,""viewing_time"":9308},{""page_index"":1,""viewing_time"":5623},{""page_index"":2,""viewing_time"":9121},{""page_index"":3,""viewing_time"":7400}]",128
,,,,,,,,,41884,,,529672,,,instructions,"[{""page_index"":0,""viewing_time"":7049},{""page_index"":1,""viewing_time"":15054},{""page_index"":2,""viewing_time"":17358},{""page_index"":3,""viewing_time"":2422}]",128
,,,,,,,,,40775,,,605668,,,instructions,"[{""page_index"":0,""viewing_time"":5803},{""page_index"":1,""viewing_time"":21088},{""page_index"":2,""viewing_time"":12766},{""page_index"":3,""viewing_time"":1117}]",128
,,,,,,,,,15592,,,640068,,,instructions,"[{""page_index"":0,""viewing_time"":3027},{""page_index"":1,""viewing_time"":2324},{""page_index"":2,""viewing_time"":2563},{""page_index"":3,""viewing_time"":7677}]",128
,,,,,,,,,51082,,,707945,,,instructions,"[{""page_index"":0,""viewing_time"":6924},{""page_index"":1,""viewing_time"":8843},{""page_index"":2,""viewing_time"":10940},{""page_index"":3,""viewing_time"":10042},{""page_index"":2,""viewing_time"":1722},{""page_index"":1,""viewing_time"":8843},{""page_index"":2,""viewing_time"":2839},{""page_index"":3,""viewing_time"":928}]",128
,,,,,,,,,75437,,,818642,,,instructions,"[{""page_index"":0,""viewing_time"":8366},{""page_index"":1,""viewing_time"":37298},{""page_index"":2,""viewing_time"":27676},{""page_index"":3,""viewing_time"":2096}]",128
,,,,,,,,,78699,,,78702,,,instructions,"[{""page_index"":0,""viewing_time"":19605},{""page_index"":1,""viewing_time"":32215},{""page_index"":2,""viewing_time"":26876}]",129
,,,,,,,,,122156,,,122156,,,instructions,"[{""page_index"":0,""viewing_time"":42583},{""page_index"":1,""viewing_time"":27883},{""page_index"":2,""viewing_time"":32693},{""page_index"":3,""viewing_time"":18995}]",130
,,,,,,,,,40839,,,214674,,,instructions,"[{""page_index"":0,""viewing_time"":13929},{""page_index"":1,""viewing_time"":8858},{""page_index"":2,""viewing_time"":15850},{""page_index"":3,""viewing_time"":2202}]",130
,,,,,,,,,86400,,,86401,,,instructions,"[{""page_index"":0,""viewing_time"":7506},{""page_index"":1,""viewing_time"":8589},{""page_index"":2,""viewing_time"":70304}]",131
,,,,,,,,,10524,,,116181,,,instructions,"[{""page_index"":0,""viewing_time"":4074},{""page_index"":1,""viewing_time"":1954},{""page_index"":2,""viewing_time"":4496}]",131
,,,,,,,,,25101,,,155803,,,instructions,"[{""page_index"":0,""viewing_time"":5231},{""page_index"":1,""viewing_time"":10622},{""page_index"":2,""viewing_time"":9247}]",131
,,,,,,,,,22024,,,195345,,,instructions,"[{""page_index"":0,""viewing_time"":13429},{""page_index"":1,""viewing_time"":6319},{""page_index"":2,""viewing_time"":2276}]",131
,,,,,,,,,2876,,,214562,,,instructions,"[{""page_index"":0,""viewing_time"":1657},{""page_index"":1,""viewing_time"":483},{""page_index"":2,""viewing_time"":735}]",131
,,,,,,,,,59439,,,290049,,,instructions,"[{""page_index"":0,""viewing_time"":14403},{""page_index"":1,""viewing_time"":24648},{""page_index"":2,""viewing_time"":20387}]",131
,,,,,,,,,126065,,,126068,,,instructions,"[{""page_index"":0,""viewing_time"":42414},{""page_index"":1,""viewing_time"":35491},{""page_index"":2,""viewing_time"":20981},{""page_index"":3,""viewing_time"":27177}]",132
,,,,,,,,,96748,,,96751,,,instructions,"[{""page_index"":0,""viewing_time"":67172},{""page_index"":1,""viewing_time"":11288},{""page_index"":2,""viewing_time"":13112},{""page_index"":3,""viewing_time"":5174}]",133
,,,,,,,,,53629,,,205842,,,instructions,"[{""page_index"":0,""viewing_time"":23565},{""page_index"":1,""viewing_time"":6805},{""page_index"":2,""viewing_time"":15103},{""page_index"":3,""viewing_time"":8155}]",133
,,,,,,,,,26183,,,285529,,,instructions,"[{""page_index"":0,""viewing_time"":4584},{""page_index"":1,""viewing_time"":1854},{""page_index"":2,""viewing_time"":11125},{""page_index"":3,""viewing_time"":8619}]",133
,,,,,,,,,131975,,,131975,,,instructions,"[{""page_index"":0,""viewing_time"":57898},{""page_index"":1,""viewing_time"":46437},{""page_index"":2,""viewing_time"":27639}]",134
,,,,,,,,,259124,,,259126,,,instructions,"[{""page_index"":0,""viewing_time"":181435},{""page_index"":1,""viewing_time"":30132},{""page_index"":2,""viewing_time"":21688},{""page_index"":3,""viewing_time"":25867}]",135
,,,,,,,,,42797,,,363305,,,instructions,"[{""page_index"":0,""viewing_time"":5005},{""page_index"":1,""viewing_time"":17296},{""page_index"":2,""viewing_time"":9713},{""page_index"":3,""viewing_time"":10782}]",135
,,,,,,,,,171872,,,171875,,,instructions,"[{""page_index"":0,""viewing_time"":72272},{""page_index"":1,""viewing_time"":36217},{""page_index"":2,""viewing_time"":29531},{""page_index"":3,""viewing_time"":33850}]",136
,,,,,,,,,22598,,,22598,,,instructions,"[{""page_index"":0,""viewing_time"":9811},{""page_index"":1,""viewing_time"":5433},{""page_index"":2,""viewing_time"":7354}]",137
,,,,,,,,,168686,,,168687,,,instructions,"[{""page_index"":0,""viewing_time"":48996},{""page_index"":1,""viewing_time"":39051},{""page_index"":2,""viewing_time"":57124},{""page_index"":3,""viewing_time"":23513}]",138
,,,,,,,,,204469,,,204473,,,instructions,"[{""page_index"":0,""viewing_time"":58575},{""page_index"":1,""viewing_time"":69241},{""page_index"":2,""viewing_time"":50931},{""page_index"":3,""viewing_time"":25718}]",139
,,,,,,,,,112792,,,112793,,,instructions,"[{""page_index"":0,""viewing_time"":27303},{""page_index"":1,""viewing_time"":33843},{""page_index"":2,""viewing_time"":31988},{""page_index"":3,""viewing_time"":19658}]",140
,,,,,,,,,33417,,,215422,,,instructions,"[{""page_index"":0,""viewing_time"":10575},{""page_index"":1,""viewing_time"":11757},{""page_index"":2,""viewing_time"":8728},{""page_index"":3,""viewing_time"":2356}]",140
,,,,,,,,,109291,,,109292,,,instructions,"[{""page_index"":0,""viewing_time"":51863},{""page_index"":1,""viewing_time"":39390},{""page_index"":2,""viewing_time"":18037}]",141
,,,,,,,,,40976,,,182127,,,instructions,"[{""page_index"":0,""viewing_time"":17368},{""page_index"":1,""viewing_time"":12795},{""page_index"":2,""viewing_time"":10812}]",141
,,,,,,,,,57911,,,57912,,,instructions,"[{""page_index"":0,""viewing_time"":10050},{""page_index"":1,""viewing_time"":24168},{""page_index"":2,""viewing_time"":12170},{""page_index"":3,""viewing_time"":11523}]",142
,,,,,,,,,128651,,,128653,,,instructions,"[{""page_index"":0,""viewing_time"":40534},{""page_index"":1,""viewing_time"":32157},{""page_index"":0,""viewing_time"":9123},{""page_index"":1,""viewing_time"":26967},{""page_index"":2,""viewing_time"":19870}]",143
,,,,,,,,,9501,,,163618,,,instructions,"[{""page_index"":0,""viewing_time"":4408},{""page_index"":1,""viewing_time"":2465},{""page_index"":2,""viewing_time"":2628}]",143
,,,,,,,,,37995,,,223043,,,instructions,"[{""page_index"":0,""viewing_time"":20356},{""page_index"":1,""viewing_time"":12532},{""page_index"":2,""viewing_time"":5107}]",143
,,,,,,,,,100057,,,100059,,,instructions,"[{""page_index"":0,""viewing_time"":39949},{""page_index"":1,""viewing_time"":20664},{""page_index"":2,""viewing_time"":22852},{""page_index"":3,""viewing_time"":16591}]",144
,,,,,,,,,27881,,,180409,,,instructions,"[{""page_index"":0,""viewing_time"":9275},{""page_index"":1,""viewing_time"":6851},{""page_index"":2,""viewing_time"":9993},{""page_index"":3,""viewing_time"":1761}]",144
,,,,,,,,,85698,,,85700,,,instructions,"[{""page_index"":0,""viewing_time"":29881},{""page_index"":1,""viewing_time"":36511},{""page_index"":2,""viewing_time"":19304}]",145
,,,,,,,,,76296,,,76298,,,instructions,"[{""page_index"":0,""viewing_time"":24253},{""page_index"":1,""viewing_time"":23433},{""page_index"":2,""viewing_time"":16510},{""page_index"":3,""viewing_time"":12097}]",146
,,,,,,,,,44525,,,146366,,,instructions,"[{""page_index"":0,""viewing_time"":29045},{""page_index"":1,""viewing_time"":2584},{""page_index"":2,""viewing_time"":2200},{""page_index"":3,""viewing_time"":10694}]",146
,,,,,,,,,53543,,,53548,,,instructions,"[{""page_index"":0,""viewing_time"":32355},{""page_index"":1,""viewing_time"":7588},{""page_index"":2,""viewing_time"":13593}]",147
,,,,,,,,,32412,,,113963,,,instructions,"[{""page_index"":0,""viewing_time"":5795},{""page_index"":1,""viewing_time"":19421},{""page_index"":2,""viewing_time"":7191}]",147
,,,,,,,,,22024,,,154307,,,instructions,"[{""page_index"":0,""viewing_time"":11385},{""page_index"":1,""viewing_time"":9039},{""page_index"":2,""viewing_time"":1596}]",147
,,,,,,,,,92459,,,92460,,,instructions,"[{""page_index"":0,""viewing_time"":60514},{""page_index"":1,""viewing_time"":20967},{""page_index"":2,""viewing_time"":10976}]",148
,,,,,,,,,27964,,,148939,,,instructions,"[{""page_index"":0,""viewing_time"":9804},{""page_index"":1,""viewing_time"":5967},{""page_index"":2,""viewing_time"":12192}]",148
,,,,,,,,,42301,,,216570,,,instructions,"[{""page_index"":0,""viewing_time"":10988},{""page_index"":1,""viewing_time"":15992},{""page_index"":2,""viewing_time"":15320}]",148
,,,,,,,,,34652,,,286562,,,instructions,"[{""page_index"":0,""viewing_time"":22909},{""page_index"":1,""viewing_time"":9006},{""page_index"":2,""viewing_time"":2737}]",148
,,,,,,,,,76509,,,406570,,,instructions,"[{""page_index"":0,""viewing_time"":22581},{""page_index"":1,""viewing_time"":38272},{""page_index"":2,""viewing_time"":15655}]",148
,,,,,,,,,431251,,,431252,,,instructions,"[{""page_index"":0,""viewing_time"":35866},{""page_index"":1,""viewing_time"":381505},{""page_index"":2,""viewing_time"":13879}]",149
,,,,,,,,,112688,,,586720,,,instructions,"[{""page_index"":0,""viewing_time"":45577},{""page_index"":1,""viewing_time"":14983},{""page_index"":2,""viewing_time"":7696},{""page_index"":1,""viewing_time"":969},{""page_index"":0,""viewing_time"":11864},{""page_index"":1,""viewing_time"":15167},{""page_index"":2,""viewing_time"":16431}]",149
,,,,,,,,,49446,,,653783,,,instructions,"[{""page_index"":0,""viewing_time"":10830},{""page_index"":1,""viewing_time"":10144},{""page_index"":2,""viewing_time"":28471}]",149
,,,,,,,,,185272,,,185274,,,instructions,"[{""page_index"":0,""viewing_time"":78829},{""page_index"":1,""viewing_time"":58204},{""page_index"":2,""viewing_time"":48238}]",150
,,,,,,,,,46163,,,265377,,,instructions,"[{""page_index"":0,""viewing_time"":15268},{""page_index"":1,""viewing_time"":14223},{""page_index"":2,""viewing_time"":16672}]",150
,,,,,,,,,146730,,,146731,,,instructions,"[{""page_index"":0,""viewing_time"":44663},{""page_index"":1,""viewing_time"":71308},{""page_index"":2,""viewing_time"":30758}]",151
,,,,,,,,,81482,,,81484,,,instructions,"[{""page_index"":0,""viewing_time"":30433},{""page_index"":1,""viewing_time"":29062},{""page_index"":2,""viewing_time"":21986}]",152
,,,,,,,,,27210,,,27212,,,instructions,"[{""page_index"":0,""viewing_time"":12120},{""page_index"":1,""viewing_time"":9619},{""page_index"":2,""viewing_time"":4049},{""page_index"":3,""viewing_time"":1420}]",153
,,,,,,,,,27893,,,84572,,,instructions,"[{""page_index"":0,""viewing_time"":3305},{""page_index"":1,""viewing_time"":3836},{""page_index"":0,""viewing_time"":5293},{""page_index"":1,""viewing_time"":1558},{""page_index"":2,""viewing_time"":11704},{""page_index"":3,""viewing_time"":2194}]",153
,,,,,,,,,38935,,,142574,,,instructions,"[{""page_index"":0,""viewing_time"":11336},{""page_index"":1,""viewing_time"":9289},{""page_index"":2,""viewing_time"":9753},{""page_index"":3,""viewing_time"":8556}]",153
,,,,,,,,,4567,,,163611,,,instructions,"[{""page_index"":0,""viewing_time"":1800},{""page_index"":1,""viewing_time"":226},{""page_index"":0,""viewing_time"":724},{""page_index"":1,""viewing_time"":90},{""page_index"":2,""viewing_time"":1315},{""page_index"":3,""viewing_time"":411}]",153
,,,,,,,,,3957,,,187928,,,instructions,"[{""page_index"":0,""viewing_time"":1823},{""page_index"":1,""viewing_time"":839},{""page_index"":2,""viewing_time"":959},{""page_index"":3,""viewing_time"":335}]",153
,,,,,,,,,3245,,,203156,,,instructions,"[{""page_index"":0,""viewing_time"":1135},{""page_index"":1,""viewing_time"":713},{""page_index"":2,""viewing_time"":1102},{""page_index"":3,""viewing_time"":294}]",153
,,,,,,,,,13072,,,226942,,,instructions,"[{""page_index"":0,""viewing_time"":1613},{""page_index"":1,""viewing_time"":1875},{""page_index"":2,""viewing_time"":4261},{""page_index"":3,""viewing_time"":5321}]",153
,,,,,,,,,5128,,,245113,,,instructions,"[{""page_index"":0,""viewing_time"":1864},{""page_index"":1,""viewing_time"":813},{""page_index"":2,""viewing_time"":1271},{""page_index"":3,""viewing_time"":1179}]",153
,,,,,,,,,42127,,,42128,,,instructions,"[{""page_index"":0,""viewing_time"":15167},{""page_index"":1,""viewing_time"":16240},{""page_index"":2,""viewing_time"":10719}]",154
,,,,,,,,,41389,,,104006,,,instructions,"[{""page_index"":0,""viewing_time"":7166},{""page_index"":1,""viewing_time"":16831},{""page_index"":2,""viewing_time"":17392}]",154
,,,,,,,,,11661,,,145517,,,instructions,"[{""page_index"":0,""viewing_time"":1213},{""page_index"":1,""viewing_time"":3936},{""page_index"":2,""viewing_time"":6512}]",154
,,,,,,,,,9638,,,170141,,,instructions,"[{""page_index"":0,""viewing_time"":1574},{""page_index"":1,""viewing_time"":1584},{""page_index"":2,""viewing_time"":6480}]",154
,,,,,,,,,20598,,,20598,,,instructions,"[{""page_index"":0,""viewing_time"":12742},{""page_index"":1,""viewing_time"":3147},{""page_index"":2,""viewing_time"":4707}]",155
,,,,,,,,,22489,,,68245,,,instructions,"[{""page_index"":0,""viewing_time"":6355},{""page_index"":1,""viewing_time"":10111},{""page_index"":2,""viewing_time"":6023}]",155
,,,,,,,,,21879,,,111933,,,instructions,"[{""page_index"":0,""viewing_time"":2961},{""page_index"":1,""viewing_time"":3609},{""page_index"":2,""viewing_time"":15308}]",155
,,,,,,,,,35538,,,159165,,,instructions,"[{""page_index"":0,""viewing_time"":3818},{""page_index"":1,""viewing_time"":19836},{""page_index"":2,""viewing_time"":11883}]",155
,,,,,,,,,110696,,,110698,,,instructions,"[{""page_index"":0,""viewing_time"":47810},{""page_index"":1,""viewing_time"":33498},{""page_index"":2,""viewing_time"":17958},{""page_index"":3,""viewing_time"":11429}]",157
,,,,,,,,,43742,,,195605,,,instructions,"[{""page_index"":0,""viewing_time"":5621},{""page_index"":1,""viewing_time"":9261},{""page_index"":2,""viewing_time"":18584},{""page_index"":3,""viewing_time"":10275}]",157
,,,,,,,,,28323,,,248985,,,instructions,"[{""page_index"":0,""viewing_time"":3896},{""page_index"":1,""viewing_time"":10293},{""page_index"":2,""viewing_time"":8057},{""page_index"":3,""viewing_time"":6076}]",157
,,,,,,,,,132773,,,132777,,,instructions,"[{""page_index"":0,""viewing_time"":87021},{""page_index"":1,""viewing_time"":23143},{""page_index"":2,""viewing_time"":22607}]",158
,,,,,,,,,16414,,,168908,,,instructions,"[{""page_index"":0,""viewing_time"":5707},{""page_index"":1,""viewing_time"":7145},{""page_index"":2,""viewing_time"":3560}]",158
,,,,,,,,,148582,,,148582,,,instructions,"[{""page_index"":0,""viewing_time"":37770},{""page_index"":1,""viewing_time"":40350},{""page_index"":2,""viewing_time"":48756},{""page_index"":3,""viewing_time"":21705}]",159
,,,,,,,,,42761,,,42763,,,instructions,"[{""page_index"":0,""viewing_time"":15856},{""page_index"":1,""viewing_time"":8206},{""page_index"":2,""viewing_time"":7448},{""page_index"":3,""viewing_time"":11249}]",160
,,,,,,,,,3902,,,66658,,,instructions,"[{""page_index"":0,""viewing_time"":429},{""page_index"":1,""viewing_time"":2280},{""page_index"":2,""viewing_time"":747},{""page_index"":3,""viewing_time"":445}]",160
,,,,,,,,,44017,,,137896,,,instructions,"[{""page_index"":0,""viewing_time"":1945},{""page_index"":1,""viewing_time"":727},{""page_index"":2,""viewing_time"":4968},{""page_index"":3,""viewing_time"":12839},{""page_index"":2,""viewing_time"":22873},{""page_index"":3,""viewing_time"":664}]",160
,,,,,,,,,73445,,,73445,,,instructions,"[{""page_index"":0,""viewing_time"":26262},{""page_index"":1,""viewing_time"":29899},{""page_index"":2,""viewing_time"":17283}]",161
,,,,,,,,,121729,,,121731,,,instructions,"[{""page_index"":0,""viewing_time"":62719},{""page_index"":1,""viewing_time"":20794},{""page_index"":2,""viewing_time"":31647},{""page_index"":3,""viewing_time"":6568}]",162
,,,,,,,,,103845,,,103847,,,instructions,"[{""page_index"":0,""viewing_time"":28858},{""page_index"":1,""viewing_time"":32358},{""page_index"":2,""viewing_time"":18068},{""page_index"":3,""viewing_time"":24557}]",163
,,,,,,,,,115794,,,115795,,,instructions,"[{""page_index"":0,""viewing_time"":55069},{""page_index"":1,""viewing_time"":41599},{""page_index"":2,""viewing_time"":19125}]",164
,,,,,,,,,88568,,,88570,,,instructions,"[{""page_index"":0,""viewing_time"":36039},{""page_index"":1,""viewing_time"":34336},{""page_index"":2,""viewing_time"":18191}]",165
,,,,,,,,,101706,,,101708,,,instructions,"[{""page_index"":0,""viewing_time"":26106},{""page_index"":1,""viewing_time"":30404},{""page_index"":2,""viewing_time"":32459},{""page_index"":3,""viewing_time"":12736}]",166
,,,,,,,,,94919,,,94923,,,instructions,"[{""page_index"":0,""viewing_time"":37894},{""page_index"":1,""viewing_time"":21509},{""page_index"":2,""viewing_time"":24426},{""page_index"":3,""viewing_time"":11089}]",167
,,,,,,,,,5492,,,129063,,,instructions,"[{""page_index"":0,""viewing_time"":2019},{""page_index"":1,""viewing_time"":1289},{""page_index"":2,""viewing_time"":1389},{""page_index"":3,""viewing_time"":794}]",167
,,,,,,,,,67997,,,67998,,,instructions,"[{""page_index"":0,""viewing_time"":24612},{""page_index"":1,""viewing_time"":34215},{""page_index"":2,""viewing_time"":9168}]",168
,,,,,,,,,21204,,,113013,,,instructions,"[{""page_index"":0,""viewing_time"":8620},{""page_index"":1,""viewing_time"":7742},{""page_index"":2,""viewing_time"":4841}]",168
,,,,,,,,,868624,,,868630,,,instructions,"[{""page_index"":0,""viewing_time"":557519},{""page_index"":1,""viewing_time"":40492},{""page_index"":2,""viewing_time"":103352},{""page_index"":3,""viewing_time"":167247}]",169
,,,,,,,,,27487,,,931598,,,instructions,"[{""page_index"":0,""viewing_time"":9806},{""page_index"":1,""viewing_time"":2564},{""page_index"":2,""viewing_time"":10060},{""page_index"":3,""viewing_time"":5049}]",169
,,,,,,,,,246926,,,246927,,,instructions,"[{""page_index"":0,""viewing_time"":143937},{""page_index"":1,""viewing_time"":72842},{""page_index"":2,""viewing_time"":30146}]",170
,,,,,,,,,59121,,,332485,,,instructions,"[{""page_index"":0,""viewing_time"":22486},{""page_index"":1,""viewing_time"":21356},{""page_index"":2,""viewing_time"":15279}]",170
,,,,,,,,,100524,,,100526,,,instructions,"[{""page_index"":0,""viewing_time"":55959},{""page_index"":1,""viewing_time"":25576},{""page_index"":2,""viewing_time"":7005},{""page_index"":3,""viewing_time"":11983}]",171
,,,,,,,,,58052,,,210880,,,instructions,"[{""page_index"":0,""viewing_time"":8731},{""page_index"":1,""viewing_time"":15090},{""page_index"":2,""viewing_time"":25710},{""page_index"":3,""viewing_time"":8520}]",171
,,,,,,,,,124198,,,371560,,,instructions,"[{""page_index"":0,""viewing_time"":5073},{""page_index"":1,""viewing_time"":29761},{""page_index"":2,""viewing_time"":34577},{""page_index"":3,""viewing_time"":18616},{""page_index"":2,""viewing_time"":12917},{""page_index"":1,""viewing_time"":8287},{""page_index"":2,""viewing_time"":7322},{""page_index"":3,""viewing_time"":7645}]",171
,,,,,,,,,91264,,,505656,,,instructions,"[{""page_index"":0,""viewing_time"":19046},{""page_index"":1,""viewing_time"":1346},{""page_index"":0,""viewing_time"":5050},{""page_index"":1,""viewing_time"":23685},{""page_index"":2,""viewing_time"":25466},{""page_index"":3,""viewing_time"":16670}]",171
,,,,,,,,,72508,,,622109,,,instructions,"[{""page_index"":0,""viewing_time"":29439},{""page_index"":1,""viewing_time"":17750},{""page_index"":2,""viewing_time"":22537},{""page_index"":3,""viewing_time"":2781}]",171
,,,,,,,,,21271,,,665647,,,instructions,"[{""page_index"":0,""viewing_time"":3562},{""page_index"":1,""viewing_time"":1297},{""page_index"":2,""viewing_time"":3964},{""page_index"":3,""viewing_time"":12448}]",171
,,,,,,,,,349942,,,349944,,,instructions,"[{""page_index"":0,""viewing_time"":86693},{""page_index"":1,""viewing_time"":167055},{""page_index"":2,""viewing_time"":85240},{""page_index"":3,""viewing_time"":10951}]",172
,,,,,,,,,92834,,,632680,,,instructions,"[{""page_index"":0,""viewing_time"":62507},{""page_index"":1,""viewing_time"":26025},{""page_index"":2,""viewing_time"":2457},{""page_index"":3,""viewing_time"":1845}]",172
,,,,,,,,,150262,,,817019,,,instructions,"[{""page_index"":0,""viewing_time"":18101},{""page_index"":1,""viewing_time"":52791},{""page_index"":2,""viewing_time"":70936},{""page_index"":3,""viewing_time"":8433}]",172
,,,,,,,,,7156,,,849361,,,instructions,"[{""page_index"":0,""viewing_time"":3071},{""page_index"":1,""viewing_time"":692},{""page_index"":2,""viewing_time"":2099},{""page_index"":3,""viewing_time"":1294}]",172
,,,,,,,,,6366,,,869354,,,instructions,"[{""page_index"":0,""viewing_time"":2724},{""page_index"":1,""viewing_time"":864},{""page_index"":2,""viewing_time"":1841},{""page_index"":3,""viewing_time"":936}]",172
,,,,,,,,,109949,,,992344,,,instructions,"[{""page_index"":0,""viewing_time"":52437},{""page_index"":1,""viewing_time"":36535},{""page_index"":2,""viewing_time"":8771},{""page_index"":3,""viewing_time"":12205}]",172
,,,,,,,,,104703,,,104704,,,instructions,"[{""page_index"":0,""viewing_time"":37469},{""page_index"":1,""viewing_time"":47625},{""page_index"":2,""viewing_time"":19608}]",173
,,,,,,,,,57075,,,57079,,,instructions,"[{""page_index"":0,""viewing_time"":35892},{""page_index"":1,""viewing_time"":15610},{""page_index"":2,""viewing_time"":5570}]",174
,,,,,,,,,22399,,,101744,,,instructions,"[{""page_index"":0,""viewing_time"":9940},{""page_index"":1,""viewing_time"":7518},{""page_index"":2,""viewing_time"":4939}]",174
,,,,,,,,,4107,,,122305,,,instructions,"[{""page_index"":0,""viewing_time"":1996},{""page_index"":1,""viewing_time"":884},{""page_index"":2,""viewing_time"":1226}]",174
,,,,,,,,,39175,,,177223,,,instructions,"[{""page_index"":0,""viewing_time"":14861},{""page_index"":1,""viewing_time"":13270},{""page_index"":2,""viewing_time"":11042}]",174
,,,,,,,,,5980,,,5983,,,instructions,"[{""page_index"":0,""viewing_time"":3006},{""page_index"":1,""viewing_time"":1468},{""page_index"":2,""viewing_time"":1504}]",174
,,,,,,,,,116162,,,116164,,,instructions,"[{""page_index"":0,""viewing_time"":64313},{""page_index"":1,""viewing_time"":48453},{""page_index"":2,""viewing_time"":3393}]",175
,,,,,,,,,27777,,,166409,,,instructions,"[{""page_index"":0,""viewing_time"":19919},{""page_index"":1,""viewing_time"":5664},{""page_index"":2,""viewing_time"":2192}]",175
,,,,,,,,,12094,,,196370,,,instructions,"[{""page_index"":0,""viewing_time"":5068},{""page_index"":1,""viewing_time"":4472},{""page_index"":2,""viewing_time"":2552}]",175
,,,,,,,,,18165,,,232234,,,instructions,"[{""page_index"":0,""viewing_time"":4795},{""page_index"":1,""viewing_time"":3961},{""page_index"":2,""viewing_time"":9407}]",175
,,,,,,,,,11666,,,260961,,,instructions,"[{""page_index"":0,""viewing_time"":2600},{""page_index"":1,""viewing_time"":2088},{""page_index"":2,""viewing_time"":6976}]",175
,,,,,,,,,17740,,,296066,,,instructions,"[{""page_index"":0,""viewing_time"":2929},{""page_index"":1,""viewing_time"":4384},{""page_index"":2,""viewing_time"":10424}]",175
,,,,,,,,,15892,,,329074,,,instructions,"[{""page_index"":0,""viewing_time"":7154},{""page_index"":1,""viewing_time"":2448},{""page_index"":2,""viewing_time"":6288}]",175
,,,,,,,,,13593,,,357666,,,instructions,"[{""page_index"":0,""viewing_time"":2759},{""page_index"":1,""viewing_time"":2512},{""page_index"":2,""viewing_time"":8320}]",175
,,,,,,,,,9943,,,383569,,,instructions,"[{""page_index"":0,""viewing_time"":2869},{""page_index"":1,""viewing_time"":1992},{""page_index"":2,""viewing_time"":5080}]",175
,,,,,,,,,21661,,,428706,,,instructions,"[{""page_index"":0,""viewing_time"":6339},{""page_index"":1,""viewing_time"":10375},{""page_index"":2,""viewing_time"":4945}]",175
,,,,,,,,,11660,,,456522,,,instructions,"[{""page_index"":0,""viewing_time"":3330},{""page_index"":1,""viewing_time"":2360},{""page_index"":2,""viewing_time"":5968}]",175
,,,,,,,,,33427,,,505489,,,instructions,"[{""page_index"":0,""viewing_time"":5298},{""page_index"":1,""viewing_time"":15183},{""page_index"":2,""viewing_time"":12944}]",175
,,,,,,,,,17836,,,545546,,,instructions,"[{""page_index"":0,""viewing_time"":2665},{""page_index"":1,""viewing_time"":5216},{""page_index"":2,""viewing_time"":9953}]",175
,,,,,,,,,19763,,,581674,,,instructions,"[{""page_index"":0,""viewing_time"":16201},{""page_index"":1,""viewing_time"":1640},{""page_index"":2,""viewing_time"":1920}]",175
,,,,,,,,,14107,,,615994,,,instructions,"[{""page_index"":0,""viewing_time"":9920},{""page_index"":1,""viewing_time"":2848},{""page_index"":2,""viewing_time"":1336}]",175
,,,,,,,,,19910,,,19912,,,instructions,"[{""page_index"":0,""viewing_time"":3148},{""page_index"":1,""viewing_time"":6622},{""page_index"":2,""viewing_time"":10138}]",176
,,,,,,,,,228729,,,228730,,,instructions,"[{""page_index"":0,""viewing_time"":59184},{""page_index"":1,""viewing_time"":17131},{""page_index"":0,""viewing_time"":8460},{""page_index"":1,""viewing_time"":2522},{""page_index"":0,""viewing_time"":3702},{""page_index"":1,""viewing_time"":11442},{""page_index"":0,""viewing_time"":1806},{""page_index"":1,""viewing_time"":2330},{""page_index"":0,""viewing_time"":2310},{""page_index"":1,""viewing_time"":2521},{""page_index"":0,""viewing_time"":1967},{""page_index"":1,""viewing_time"":1313},{""page_index"":0,""viewing_time"":1792},{""page_index"":1,""viewing_time"":960},{""page_index"":0,""viewing_time"":1583},{""page_index"":1,""viewing_time"":961},{""page_index"":0,""viewing_time"":2207},{""page_index"":1,""viewing_time"":1658},{""page_index"":0,""viewing_time"":2038},{""page_index"":1,""viewing_time"":889},{""page_index"":0,""viewing_time"":1327},{""page_index"":1,""viewing_time"":689},{""page_index"":0,""viewing_time"":975},{""page_index"":1,""viewing_time"":818},{""page_index"":0,""viewing_time"":1014},{""page_index"":1,""viewing_time"":641},{""page_index"":0,""viewing_time"":1399},{""page_index"":1,""viewing_time"":1929},{""page_index"":0,""viewing_time"":1399},{""page_index"":1,""viewing_time"":1793},{""page_index"":0,""viewing_time"":1519},{""page_index"":1,""viewing_time"":952},{""page_index"":0,""viewing_time"":1016},{""page_index"":1,""viewing_time"":801},{""page_index"":0,""viewing_time"":1231},{""page_index"":1,""viewing_time"":1730},{""page_index"":0,""viewing_time"":3334},{""page_index"":1,""viewing_time"":1753},{""page_index"":0,""viewing_time"":1663},{""page_index"":1,""viewing_time"":1737},{""page_index"":0,""viewing_time"":1023},{""page_index"":1,""viewing_time"":1577},{""page_index"":0,""viewing_time"":1320},{""page_index"":1,""viewing_time"":512},{""page_index"":0,""viewing_time"":687},{""page_index"":1,""viewing_time"":353},{""page_index"":0,""viewing_time"":607},{""page_index"":1,""viewing_time"":329},{""page_index"":0,""viewing_time"":536},{""page_index"":1,""viewing_time"":336},{""page_index"":0,""viewing_time"":503},{""page_index"":1,""viewing_time"":449},{""page_index"":0,""viewing_time"":479},{""page_index"":1,""viewing_time"":377},{""page_index"":0,""viewing_time"":479},{""page_index"":1,""viewing_time"":385},{""page_index"":0,""viewing_time"":496},{""page_index"":1,""viewing_time"":312},{""page_index"":0,""viewing_time"":503},{""page_index"":1,""viewing_time"":345},{""page_index"":0,""viewing_time"":431},{""page_index"":1,""viewing_time"":289},{""page_index"":0,""viewing_time"":479},{""page_index"":1,""viewing_time"":273},{""page_index"":0,""viewing_time"":495},{""page_index"":1,""viewing_time"":305},{""page_index"":0,""viewing_time"":495},{""page_index"":1,""viewing_time"":281},{""page_index"":0,""viewing_time"":463},{""page_index"":1,""viewing_time"":257},{""page_index"":0,""viewing_time"":439},{""page_index"":1,""viewing_time"":217},{""page_index"":0,""viewing_time"":496},{""page_index"":1,""viewing_time"":304},{""page_index"":0,""viewing_time"":511},{""page_index"":1,""viewing_time"":377},{""page_index"":0,""viewing_time"":448},{""page_index"":1,""viewing_time"":248},{""page_index"":0,""viewing_time"":447},{""page_index"":1,""viewing_time"":217},{""page_index"":0,""viewing_time"":479},{""page_index"":1,""viewing_time"":265},{""page_index"":0,""viewing_time"":432},{""page_index"":1,""viewing_time"":192},{""page_index"":0,""viewing_time"":479},{""page_index"":1,""viewing_time"":321},{""page_index"":0,""viewing_time"":455},{""page_index"":1,""viewing_time"":305},{""page_index"":0,""viewing_time"":567},{""page_index"":1,""viewing_time"":399},{""page_index"":0,""viewing_time"":505},{""page_index"":1,""viewing_time"":418},{""page_index"":0,""viewing_time"":478},{""page_index"":1,""viewing_time"":297},{""page_index"":0,""viewing_time"":511},{""page_index"":1,""viewing_time"":538},{""page_index"":0,""viewing_time"":471},{""page_index"":1,""viewing_time"":4520},{""page_index"":0,""viewing_time"":1311},{""page_index"":1,""viewing_time"":4313},{""page_index"":0,""viewing_time"":999},{""page_index"":1,""viewing_time"":960},{""page_index"":0,""viewing_time"":1712},{""page_index"":1,""viewing_time"":11770},{""page_index"":2,""viewing_time"":22454}]",177
,,,,,,,,,89564,,,362878,,,instructions,"[{""page_index"":0,""viewing_time"":41158},{""page_index"":1,""viewing_time"":36054},{""page_index"":2,""viewing_time"":12352}]",177
,,,,,,,,,42297,,,420808,,,instructions,"[{""page_index"":0,""viewing_time"":3895},{""page_index"":1,""viewing_time"":6936},{""page_index"":0,""viewing_time"":19337},{""page_index"":1,""viewing_time"":3744},{""page_index"":2,""viewing_time"":8384}]",177
,,,,,,,,,6823,,,445464,,,instructions,"[{""page_index"":0,""viewing_time"":3039},{""page_index"":1,""viewing_time"":3327},{""page_index"":2,""viewing_time"":456}]",177
,,,,,,,,,336194,,,336194,,,instructions,"[{""page_index"":0,""viewing_time"":97322},{""page_index"":1,""viewing_time"":208270},{""page_index"":2,""viewing_time"":30601}]",178
,,,,,,,,,49682,,,49684,,,instructions,"[{""page_index"":0,""viewing_time"":21681},{""page_index"":1,""viewing_time"":13208},{""page_index"":2,""viewing_time"":14792}]",179
,,,,,,,,,48293,,,132474,,,instructions,"[{""page_index"":0,""viewing_time"":27677},{""page_index"":1,""viewing_time"":9569},{""page_index"":2,""viewing_time"":11046}]",179
,,,,,,,,,94588,,,94591,,,instructions,"[{""page_index"":0,""viewing_time"":28179},{""page_index"":1,""viewing_time"":16968},{""page_index"":0,""viewing_time"":1426},{""page_index"":1,""viewing_time"":247},{""page_index"":2,""viewing_time"":1999},{""page_index"":1,""viewing_time"":8789},{""page_index"":2,""viewing_time"":18954},{""page_index"":3,""viewing_time"":18022}]",180
,,,,,,,,,16623,,,151009,,,instructions,"[{""page_index"":0,""viewing_time"":7507},{""page_index"":1,""viewing_time"":5814},{""page_index"":2,""viewing_time"":2411},{""page_index"":3,""viewing_time"":889}]",180
,,,,,,,,,37208,,,207754,,,instructions,"[{""page_index"":0,""viewing_time"":3360},{""page_index"":1,""viewing_time"":5123},{""page_index"":2,""viewing_time"":23620},{""page_index"":3,""viewing_time"":5102}]",180
,,,,,,,,,205297,,,205299,,,instructions,"[{""page_index"":0,""viewing_time"":40631},{""page_index"":1,""viewing_time"":24698},{""page_index"":2,""viewing_time"":64772},{""page_index"":3,""viewing_time"":17204},{""page_index"":2,""viewing_time"":4623},{""page_index"":1,""viewing_time"":49174},{""page_index"":2,""viewing_time"":2076},{""page_index"":3,""viewing_time"":2119}]",181
,,,,,,,,,135004,,,432394,,,instructions,"[{""page_index"":0,""viewing_time"":47621},{""page_index"":1,""viewing_time"":28140},{""page_index"":2,""viewing_time"":49303},{""page_index"":3,""viewing_time"":9939}]",181
,,,,,,,,,112271,,,112275,,,instructions,"[{""page_index"":0,""viewing_time"":41444},{""page_index"":1,""viewing_time"":37424},{""page_index"":2,""viewing_time"":17033},{""page_index"":3,""viewing_time"":16368}]",182
,,,,,,,,,63720,,,214501,,,instructions,"[{""page_index"":0,""viewing_time"":22783},{""page_index"":1,""viewing_time"":11719},{""page_index"":2,""viewing_time"":23833},{""page_index"":3,""viewing_time"":5384}]",182
,,,,,,,,,37265,,,286319,,,instructions,"[{""page_index"":0,""viewing_time"":5927},{""page_index"":1,""viewing_time"":10304},{""page_index"":2,""viewing_time"":13224},{""page_index"":3,""viewing_time"":7809}]",182
,,,,,,,,,161186,,,161191,,,instructions,"[{""page_index"":0,""viewing_time"":51707},{""page_index"":1,""viewing_time"":43198},{""page_index"":2,""viewing_time"":32414},{""page_index"":3,""viewing_time"":33864}]",183
,,,,,,,,,103564,,,103568,,,instructions,"[{""page_index"":0,""viewing_time"":35630},{""page_index"":1,""viewing_time"":45416},{""page_index"":2,""viewing_time"":22513}]",184
,,,,,,,,,62908,,,62911,,,instructions,"[{""page_index"":0,""viewing_time"":8761},{""page_index"":1,""viewing_time"":45672},{""page_index"":2,""viewing_time"":8472}]",185
,,,,,,,,,112587,,,112588,,,instructions,"[{""page_index"":0,""viewing_time"":45769},{""page_index"":1,""viewing_time"":43232},{""page_index"":2,""viewing_time"":23585}]",186
,,,,,,,,,55238,,,199185,,,instructions,"[{""page_index"":0,""viewing_time"":11669},{""page_index"":1,""viewing_time"":16848},{""page_index"":0,""viewing_time"":16074},{""page_index"":1,""viewing_time"":5057},{""page_index"":2,""viewing_time"":5590}]",186
,,,,,,,,,151547,,,151548,,,instructions,"[{""page_index"":0,""viewing_time"":45713},{""page_index"":1,""viewing_time"":34423},{""page_index"":2,""viewing_time"":44718},{""page_index"":3,""viewing_time"":26692}]",187
,,,,,,,,,92585,,,92595,,,instructions,"[{""page_index"":0,""viewing_time"":55604},{""page_index"":1,""viewing_time"":18666},{""page_index"":2,""viewing_time"":18313}]",188
,,,,,,,,,139146,,,139146,,,instructions,"[{""page_index"":0,""viewing_time"":34427},{""page_index"":1,""viewing_time"":39807},{""page_index"":2,""viewing_time"":38726},{""page_index"":3,""viewing_time"":26185}]",189
,,,,,,,,,175282,,,175282,,,instructions,"[{""page_index"":0,""viewing_time"":92668},{""page_index"":1,""viewing_time"":40216},{""page_index"":2,""viewing_time"":4667},{""page_index"":1,""viewing_time"":828},{""page_index"":2,""viewing_time"":36903}]",190
,,,,,,,,,130402,,,352173,,,instructions,"[{""page_index"":0,""viewing_time"":22437},{""page_index"":1,""viewing_time"":9755},{""page_index"":2,""viewing_time"":4383},{""page_index"":1,""viewing_time"":1128},{""page_index"":0,""viewing_time"":38260},{""page_index"":1,""viewing_time"":35080},{""page_index"":2,""viewing_time"":19356}]",190
,,,,,,,,,72820,,,72820,,,instructions,"[{""page_index"":0,""viewing_time"":27654},{""page_index"":1,""viewing_time"":19619},{""page_index"":2,""viewing_time"":18139},{""page_index"":3,""viewing_time"":7407}]",191
,,,,,,,,,14213,,,112416,,,instructions,"[{""page_index"":0,""viewing_time"":3029},{""page_index"":1,""viewing_time"":2080},{""page_index"":2,""viewing_time"":4590},{""page_index"":3,""viewing_time"":4514}]",191
,,,,,,,,,3027,,,132000,,,instructions,"[{""page_index"":0,""viewing_time"":907},{""page_index"":1,""viewing_time"":552},{""page_index"":2,""viewing_time"":857},{""page_index"":3,""viewing_time"":711}]",191
,,,,,,,,,15547,,,160927,,,instructions,"[{""page_index"":0,""viewing_time"":10977},{""page_index"":1,""viewing_time"":3239},{""page_index"":2,""viewing_time"":675},{""page_index"":3,""viewing_time"":656}]",191
,,,,,,,,,2566,,,173236,,,instructions,"[{""page_index"":0,""viewing_time"":517},{""page_index"":1,""viewing_time"":498},{""page_index"":2,""viewing_time"":796},{""page_index"":3,""viewing_time"":754}]",191
,,,,,,,,,27090,,,212336,,,instructions,"[{""page_index"":0,""viewing_time"":2217},{""page_index"":1,""viewing_time"":8079},{""page_index"":2,""viewing_time"":12281},{""page_index"":3,""viewing_time"":4513}]",191
,,,,,,,,,27552,,,257588,,,instructions,"[{""page_index"":0,""viewing_time"":7901},{""page_index"":1,""viewing_time"":3426},{""page_index"":2,""viewing_time"":12096},{""page_index"":3,""viewing_time"":4128}]",191
,,,,,,,,,3206,,,278312,,,instructions,"[{""page_index"":0,""viewing_time"":1045},{""page_index"":1,""viewing_time"":504},{""page_index"":2,""viewing_time"":839},{""page_index"":3,""viewing_time"":817}]",191
,,,,,,,,,64001,,,64001,,,instructions,"[{""page_index"":0,""viewing_time"":31406},{""page_index"":1,""viewing_time"":20614},{""page_index"":2,""viewing_time"":11980}]",192
,,,,,,,,,10143,,,95335,,,instructions,"[{""page_index"":0,""viewing_time"":2211},{""page_index"":1,""viewing_time"":1556},{""page_index"":2,""viewing_time"":6375}]",192
,,,,,,,,,83337,,,83340,,,instructions,"[{""page_index"":0,""viewing_time"":39125},{""page_index"":1,""viewing_time"":30911},{""page_index"":2,""viewing_time"":13294}]",193
,,,,,,,,,118544,,,118546,,,instructions,"[{""page_index"":0,""viewing_time"":36868},{""page_index"":1,""viewing_time"":26226},{""page_index"":2,""viewing_time"":35924},{""page_index"":3,""viewing_time"":19526}]",194
,,,,,,,,,86182,,,86185,,,instructions,"[{""page_index"":0,""viewing_time"":22964},{""page_index"":1,""viewing_time"":26346},{""page_index"":2,""viewing_time"":21619},{""page_index"":3,""viewing_time"":15249}]",195
,,,,,,,,,67286,,,195615,,,instructions,"[{""page_index"":0,""viewing_time"":10342},{""page_index"":1,""viewing_time"":11352},{""page_index"":2,""viewing_time"":33967},{""page_index"":3,""viewing_time"":11623}]",195
,,,,,,,,,88467,,,88528,,,instructions,"[{""page_index"":0,""viewing_time"":21633},{""page_index"":1,""viewing_time"":14266},{""page_index"":2,""viewing_time"":9410},{""page_index"":3,""viewing_time"":20739},{""page_index"":2,""viewing_time"":21519},{""page_index"":3,""viewing_time"":846}]",196
,,,,,,,,,57624,,,186609,,,instructions,"[{""page_index"":0,""viewing_time"":15865},{""page_index"":1,""viewing_time"":19042},{""page_index"":2,""viewing_time"":13603},{""page_index"":3,""viewing_time"":9111}]",196
,,,,,,,,,139907,,,139910,,,instructions,"[{""page_index"":0,""viewing_time"":74695},{""page_index"":1,""viewing_time"":37576},{""page_index"":2,""viewing_time"":27633}]",197
,,,,,,,,,98780,,,98783,,,instructions,"[{""page_index"":0,""viewing_time"":63600},{""page_index"":1,""viewing_time"":17521},{""page_index"":2,""viewing_time"":17656}]",198
,,,,,,,,,61322,,,183544,,,instructions,"[{""page_index"":0,""viewing_time"":45376},{""page_index"":1,""viewing_time"":4175},{""page_index"":2,""viewing_time"":11769}]",198
,,,,,,,,,98022,,,98024,,,instructions,"[{""page_index"":0,""viewing_time"":26667},{""page_index"":1,""viewing_time"":22885},{""page_index"":2,""viewing_time"":31724},{""page_index"":3,""viewing_time"":16744}]",199
,,,,,,,,,364478,,,364480,,,instructions,"[{""page_index"":0,""viewing_time"":211578},{""page_index"":1,""viewing_time"":1929},{""page_index"":0,""viewing_time"":5261},{""page_index"":1,""viewing_time"":2400},{""page_index"":0,""viewing_time"":4578},{""page_index"":1,""viewing_time"":86208},{""page_index"":2,""viewing_time"":52522}]",200
,,,,,,,,,92573,,,518324,,,instructions,"[{""page_index"":0,""viewing_time"":27741},{""page_index"":1,""viewing_time"":26574},{""page_index"":2,""viewing_time"":38256}]",200
,,,,,,,,,72417,,,613576,,,instructions,"[{""page_index"":0,""viewing_time"":8188},{""page_index"":1,""viewing_time"":20376},{""page_index"":2,""viewing_time"":20024},{""page_index"":1,""viewing_time"":21481},{""page_index"":2,""viewing_time"":2346}]",200
,,,,,,,,,8209,,,634247,,,instructions,"[{""page_index"":0,""viewing_time"":6458},{""page_index"":1,""viewing_time"":797},{""page_index"":2,""viewing_time"":953}]",200
,,,,,,,,,118567,,,118568,,,instructions,"[{""page_index"":0,""viewing_time"":43629},{""page_index"":1,""viewing_time"":25612},{""page_index"":2,""viewing_time"":34924},{""page_index"":3,""viewing_time"":14401}]",201
,,,,,,,,,41871,,,212084,,,instructions,"[{""page_index"":0,""viewing_time"":17859},{""page_index"":1,""viewing_time"":5421},{""page_index"":2,""viewing_time"":12215},{""page_index"":3,""viewing_time"":6375}]",201
,,,,,,,,,76607,,,315286,,,instructions,"[{""page_index"":0,""viewing_time"":6512},{""page_index"":1,""viewing_time"":22909},{""page_index"":2,""viewing_time"":38894},{""page_index"":3,""viewing_time"":8291}]",201
,,,,,,,,,5614,,,341894,,,instructions,"[{""page_index"":0,""viewing_time"":1372},{""page_index"":1,""viewing_time"":1556},{""page_index"":2,""viewing_time"":1591},{""page_index"":3,""viewing_time"":1094}]",201
,,,,,,,,,14498,,,380902,,,instructions,"[{""page_index"":0,""viewing_time"":2114},{""page_index"":1,""viewing_time"":719},{""page_index"":2,""viewing_time"":10703},{""page_index"":3,""viewing_time"":961}]",201
,,,,,,,,,4503,,,405658,,,instructions,"[{""page_index"":0,""viewing_time"":2053},{""page_index"":1,""viewing_time"":541},{""page_index"":2,""viewing_time"":1084},{""page_index"":3,""viewing_time"":824}]",201
,,,,,,,,,34854,,,34856,,,instructions,"[{""page_index"":0,""viewing_time"":19244},{""page_index"":1,""viewing_time"":4935},{""page_index"":2,""viewing_time"":5106},{""page_index"":3,""viewing_time"":5566}]",202
,,,,,,,,,52488,,,120041,,,instructions,"[{""page_index"":0,""viewing_time"":13251},{""page_index"":1,""viewing_time"":7529},{""page_index"":2,""viewing_time"":3631},{""page_index"":3,""viewing_time"":28074}]",202
,,,,,,,,,125172,,,125173,,,instructions,"[{""page_index"":0,""viewing_time"":26764},{""page_index"":1,""viewing_time"":52424},{""page_index"":2,""viewing_time"":26932},{""page_index"":3,""viewing_time"":19050}]",203
,,,,,,,,,114196,,,279366,,,instructions,"[{""page_index"":0,""viewing_time"":5187},{""page_index"":1,""viewing_time"":4047},{""page_index"":2,""viewing_time"":20813},{""page_index"":3,""viewing_time"":9886},{""page_index"":2,""viewing_time"":1866},{""page_index"":1,""viewing_time"":38431},{""page_index"":2,""viewing_time"":6397},{""page_index"":1,""viewing_time"":650},{""page_index"":0,""viewing_time"":23240},{""page_index"":1,""viewing_time"":1059},{""page_index"":2,""viewing_time"":1596},{""page_index"":3,""viewing_time"":1023}]",203
,,,,,,,,,295566,,,295566,,,instructions,"[{""page_index"":0,""viewing_time"":79804},{""page_index"":1,""viewing_time"":60193},{""page_index"":2,""viewing_time"":52648},{""page_index"":3,""viewing_time"":102920}]",204
,,,,,,,,,80233,,,80235,,,instructions,"[{""page_index"":0,""viewing_time"":35538},{""page_index"":1,""viewing_time"":26289},{""page_index"":2,""viewing_time"":18405}]",205
,,,,,,,,,100480,,,100482,,,instructions,"[{""page_index"":0,""viewing_time"":38270},{""page_index"":1,""viewing_time"":47368},{""page_index"":2,""viewing_time"":14840}]",206
,,,,,,,,,65845,,,185889,,,instructions,"[{""page_index"":0,""viewing_time"":6366},{""page_index"":1,""viewing_time"":21298},{""page_index"":2,""viewing_time"":8569},{""page_index"":1,""viewing_time"":8929},{""page_index"":0,""viewing_time"":14650},{""page_index"":1,""viewing_time"":4904},{""page_index"":2,""viewing_time"":1128}]",206
,,,,,,,,,117980,,,117982,,,instructions,"[{""page_index"":0,""viewing_time"":45450},{""page_index"":1,""viewing_time"":367},{""page_index"":0,""viewing_time"":2719},{""page_index"":1,""viewing_time"":36341},{""page_index"":2,""viewing_time"":33101}]",207
,,,,,,,,,305403,,,305404,,,instructions,"[{""page_index"":0,""viewing_time"":173695},{""page_index"":1,""viewing_time"":27541},{""page_index"":0,""viewing_time"":44849},{""page_index"":1,""viewing_time"":10392},{""page_index"":0,""viewing_time"":7941},{""page_index"":1,""viewing_time"":6361},{""page_index"":0,""viewing_time"":2988},{""page_index"":1,""viewing_time"":3572},{""page_index"":2,""viewing_time"":28054}]",208
,,,,,,,,,105375,,,450749,,,instructions,"[{""page_index"":0,""viewing_time"":21397},{""page_index"":1,""viewing_time"":14016},{""page_index"":2,""viewing_time"":6803},{""page_index"":1,""viewing_time"":19573},{""page_index"":2,""viewing_time"":7745},{""page_index"":1,""viewing_time"":24327},{""page_index"":2,""viewing_time"":11513}]",208
,,,,,,,,,1679,,,470820,,,instructions,"[{""page_index"":0,""viewing_time"":1129},{""page_index"":1,""viewing_time"":327},{""page_index"":2,""viewing_time"":223}]",208
,,,,,,,,,134692,,,134694,,,instructions,"[{""page_index"":0,""viewing_time"":73998},{""page_index"":1,""viewing_time"":8125},{""page_index"":0,""viewing_time"":2340},{""page_index"":1,""viewing_time"":24452},{""page_index"":2,""viewing_time"":25777}]",209
,,,,,,,,,81862,,,258783,,,instructions,"[{""page_index"":0,""viewing_time"":36242},{""page_index"":1,""viewing_time"":30168},{""page_index"":2,""viewing_time"":15452}]",209
,,,,,,,,,144431,,,144433,,,instructions,"[{""page_index"":0,""viewing_time"":90811},{""page_index"":1,""viewing_time"":30794},{""page_index"":2,""viewing_time"":22823}]",210
,,,,,,,,,53475,,,53486,,,instructions,"[{""page_index"":0,""viewing_time"":20865},{""page_index"":1,""viewing_time"":19956},{""page_index"":2,""viewing_time"":12654}]",211
,,,,,,,,,39799,,,119513,,,instructions,"[{""page_index"":0,""viewing_time"":16859},{""page_index"":1,""viewing_time"":17806},{""page_index"":2,""viewing_time"":5124}]",211
,,,,,,,,,10511,,,145650,,,instructions,"[{""page_index"":0,""viewing_time"":2781},{""page_index"":1,""viewing_time"":2007},{""page_index"":2,""viewing_time"":5723}]",211
,,,,,,,,,73307,,,73309,,,instructions,"[{""page_index"":0,""viewing_time"":37034},{""page_index"":1,""viewing_time"":21299},{""page_index"":2,""viewing_time"":14973}]",212
,,,,,,,,,49126,,,49127,,,instructions,"[{""page_index"":0,""viewing_time"":21508},{""page_index"":1,""viewing_time"":19291},{""page_index"":2,""viewing_time"":8325}]",213
,,,,,,,,,76996,,,76998,,,instructions,"[{""page_index"":0,""viewing_time"":36564},{""page_index"":1,""viewing_time"":17718},{""page_index"":2,""viewing_time"":22712}]",214
,,,,,,,,,82688,,,82690,,,instructions,"[{""page_index"":0,""viewing_time"":39620},{""page_index"":1,""viewing_time"":31469},{""page_index"":2,""viewing_time"":11598}]",215
,,,,,,,,,77422,,,206028,,,instructions,"[{""page_index"":0,""viewing_time"":8643},{""page_index"":1,""viewing_time"":4805},{""page_index"":2,""viewing_time"":19491},{""page_index"":1,""viewing_time"":10447},{""page_index"":0,""viewing_time"":27164},{""page_index"":1,""viewing_time"":911},{""page_index"":0,""viewing_time"":3014},{""page_index"":1,""viewing_time"":769},{""page_index"":2,""viewing_time"":2177}]",215
,,,,,,,,,45529,,,273350,,,instructions,"[{""page_index"":0,""viewing_time"":30105},{""page_index"":1,""viewing_time"":13065},{""page_index"":2,""viewing_time"":2358}]",215
,,,,,,,,,9427,,,311289,,,instructions,"[{""page_index"":0,""viewing_time"":7898},{""page_index"":1,""viewing_time"":655},{""page_index"":2,""viewing_time"":873}]",215
,,,,,,,,,471073,,,471075,,,instructions,"[{""page_index"":0,""viewing_time"":61173},{""page_index"":1,""viewing_time"":42252},{""page_index"":2,""viewing_time"":347837},{""page_index"":3,""viewing_time"":19810}]",216
,,,,,,,,,210813,,,210813,,,instructions,"[{""page_index"":0,""viewing_time"":44752},{""page_index"":1,""viewing_time"":41110},{""page_index"":2,""viewing_time"":24855},{""page_index"":3,""viewing_time"":100095}]",217
,,,,,,,,,15877,,,304517,,,instructions,"[{""page_index"":0,""viewing_time"":1444},{""page_index"":1,""viewing_time"":2128},{""page_index"":2,""viewing_time"":3552},{""page_index"":3,""viewing_time"":8752}]",217
,,,,,,,,,34154,,,34155,,,instructions,"[{""page_index"":0,""viewing_time"":15727},{""page_index"":1,""viewing_time"":4470},{""page_index"":2,""viewing_time"":4777},{""page_index"":3,""viewing_time"":9178}]",218
,,,,,,,,,25273,,,90311,,,instructions,"[{""page_index"":0,""viewing_time"":7414},{""page_index"":1,""viewing_time"":5196},{""page_index"":2,""viewing_time"":7325},{""page_index"":3,""viewing_time"":5336}]",218
,,,,,,,,,91645,,,91645,,,instructions,"[{""page_index"":0,""viewing_time"":27185},{""page_index"":1,""viewing_time"":33861},{""page_index"":2,""viewing_time"":18203},{""page_index"":3,""viewing_time"":12393}]",219
