action_times,actions,button_pressed,correct,delays,path,queries,questions,responses,rt,score,stimulus,time_elapsed,trial_index,trial_i,trial_type,view_history,pid
"[33292, 51350, 52408]","[u'left', u'left', u'down']",,,"[5, 0, 1]","[u'1', 4, 8, 15]","{u'mouseover': {u'state': {u'target': [], u'time': []}, u'edge': {u'target': [], u'time': []}}, u'click': {u'state': {u'target': [u'2', u'6', u'11', u'5', u'9', u'16', u'3', u'7', u'12'], u'time': [2650, 7777, 9897, 16490, 18103, 19414, 23097, 25958, 26828]}, u'edge': {u'target': [], u'time': []}}, u'mouseout': {u'state': {u'target': [], u'time': []}, u'edge': {u'target': [], u'time': []}}}",,,"[33290, 9953, 257]",-2.0,,231748,1.0,11.0,mouselab-mdp,,0
"[4830, 13917, 32223]","[u'up', u'up', u'right']",,,"[5, 0, 1]","[u'1', 3, 7, 13]","{u'mouseover': {u'state': {u'target': [], u'time': []}, u'edge': {u'target': [], u'time': []}}, u'click': {u'state': {u'target': [u'3', u'7', u'13', u'12'], u'time': [2630, 12133, 16265, 17877]}, u'edge': {u'target': [], u'time': []}}, u'mouseout': {u'state': {u'target': [], u'time': []}, u'edge': {u'target': [], u'time': []}}}",,,"[4830, 2395, 17307]",17.0,,287773,2.0,0.0,mouselab-mdp,,0
"[18668, 27044, 28539]","[u'up', u'up', u'left']",,,"[5, 0, 1]","[u'1', 3, 7, 12]","{u'mouseover': {u'state': {u'target': [], u'time': []}, u'edge': {u'target': [], u'time': []}}, u'click': {u'state': {u'target': [u'5', u'4', u'2', u'3', u'9', u'16', u'17', u'7', u'13', u'12'], u'time': [1885, 2787, 4346, 5245, 8074, 10380, 11296, 12475, 15524, 16233]}, u'edge': {u'target': [], u'time': []}}, u'mouseout': {u'state': {u'target': [], u'time': []}, u'edge': {u'target': [], u'time': []}}}",,,"[18668, 514, 848]",34.0,,345790,3.0,1.0,mouselab-mdp,,0
"[11983, 20366, 22805]","[u'up', u'up', u'left']",,,"[5, 0, 1]","[u'1', 3, 7, 12]","{u'mouseover': {u'state': {u'target': [], u'time': []}, u'edge': {u'target': [], u'time': []}}, u'click': {u'state': {u'target': [u'5', u'2', u'4', u'3', u'7', u'6', u'13', u'12', u'10', u'11'], u'time': [1510, 2169, 3135, 3796, 5134, 6219, 7237, 8171, 9367, 9971]}, u'edge': {u'target': [], u'time': []}}, u'mouseout': {u'state': {u'target': [], u'time': []}, u'edge': {u'target': [], u'time': []}}}",,,"[11981, 590, 1801]",24.0,,401942,4.0,7.0,mouselab-mdp,,0
"[15830, 23838, 25613]","[u'left', u'left', u'down']",,,"[5, 0, 1]","[u'1', 4, 8, 15]","{u'mouseover': {u'state': {u'target': [], u'time': []}, u'edge': {u'target': [], u'time': []}}, u'click': {u'state': {u'target': [u'5', u'4', u'3', u'2', u'7', u'8', u'14', u'15'], u'time': [5135, 5858, 6443, 6985, 8221, 9931, 11619, 12397]}, u'edge': {u'target': [], u'time': []}}, u'mouseout': {u'state': {u'target': [], u'time': []}, u'edge': {u'target': [], u'time': []}}}",,,"[15830, 550, 1079]",2.0,,457212,5.0,3.0,mouselab-mdp,,0
"[11241, 20834, 23682]","[u'right', u'right', u'up']",,,"[5, 0, 1]","[u'1', 2, 6, 10]","{u'mouseover': {u'state': {u'target': [], u'time': []}, u'edge': {u'target': [], u'time': []}}, u'click': {u'state': {u'target': [u'4', u'3', u'2', u'5', u'8', u'6', u'10', u'11'], u'time': [1706, 3015, 3857, 4506, 5515, 6533, 7631, 8315]}, u'edge': {u'target': [], u'time': []}}, u'mouseout': {u'state': {u'target': [], u'time': []}, u'edge': {u'target': [], u'time': []}}}",,,"[11240, 1959, 2126]",29.0,,512477,6.0,5.0,mouselab-mdp,,0
"[22136, 32087, 33944]","[u'left', u'left', u'down']",,,"[5, 0, 1]","[u'1', 4, 8, 15]","{u'mouseover': {u'state': {u'target': [], u'time': []}, u'edge': {u'target': [], u'time': []}}, u'click': {u'state': {u'target': [u'5', u'4', u'3', u'2', u'9', u'16', u'8', u'14', u'15', u'7', u'12', u'13'], u'time': [3549, 5420, 7037, 8086, 9012, 9759, 11004, 11742, 12467, 15554, 16904, 18732]}, u'edge': {u'target': [], u'time': []}}, u'mouseout': {u'state': {u'target': [], u'time': []}, u'edge': {u'target': [], u'time': []}}}",,,"[22136, 1899, 1219]",29.0,,568700,7.0,9.0,mouselab-mdp,,0
"[20412, 44909, 46660]","[u'up', u'up', u'left']",,,"[5, 0, 1]","[u'1', 3, 7, 12]","{u'mouseover': {u'state': {u'target': [], u'time': []}, u'edge': {u'target': [], u'time': []}}, u'click': {u'state': {u'target': [u'3', u'4', u'5', u'2', u'8', u'7', u'12', u'13', u'14', u'15'], u'time': [3255, 4386, 5345, 5939, 7119, 8473, 9313, 10260, 11196, 11856]}, u'edge': {u'target': [], u'time': []}}, u'mouseout': {u'state': {u'target': [], u'time': []}, u'edge': {u'target': [], u'time': []}}}",,,"[20412, 16629, 1082]",30.0,,624859,8.0,10.0,mouselab-mdp,,0
"[26503, 37438, 39004]","[u'down', u'down', u'right']",,,"[5, 0, 1]","[u'1', 5, 9, 17]","{u'mouseover': {u'state': {u'target': [], u'time': []}, u'edge': {u'target': [], u'time': []}}, u'click': {u'state': {u'target': [u'4', u'5', u'2', u'3', u'8', u'9', u'7', u'16', u'17'], u'time': [1143, 1954, 2646, 3286, 4253, 4975, 5855, 7283, 8003]}, u'edge': {u'target': [], u'time': []}}, u'mouseout': {u'state': {u'target': [], u'time': []}, u'edge': {u'target': [], u'time': []}}}",,,"[26503, 3215, 820]",33.0,,686331,9.0,4.0,mouselab-mdp,,0
"[17665, 26705, 29776]","[u'left', u'left', u'down']",,,"[5, 0, 1]","[u'1', 4, 8, 15]","{u'mouseover': {u'state': {u'target': [], u'time': []}, u'edge': {u'target': [], u'time': []}}, u'click': {u'state': {u'target': [u'5', u'4', u'3', u'2', u'9', u'8', u'7', u'15', u'14', u'16', u'17'], u'time': [2792, 3394, 3916, 4598, 5799, 6500, 7300, 8297, 8940, 12215, 12839]}, u'edge': {u'target': [], u'time': []}}, u'mouseout': {u'state': {u'target': [], u'time': []}, u'edge': {u'target': [], u'time': []}}}",,,"[17665, 782, 2386]",39.0,,771701,10.0,8.0,mouselab-mdp,,0
"[11751, 19975, 21343]","[u'right', u'right', u'up']",,,"[5, 0, 1]","[u'1', 2, 6, 10]","{u'mouseover': {u'state': {u'target': [], u'time': []}, u'edge': {u'target': [], u'time': []}}, u'click': {u'state': {u'target': [u'4', u'3', u'2', u'5', u'9', u'6', u'10', u'11'], u'time': [1235, 1758, 2260, 2854, 3718, 4405, 4961, 5904]}, u'edge': {u'target': [], u'time': []}}, u'mouseout': {u'state': {u'target': [], u'time': []}, u'edge': {u'target': [], u'time': []}}}",,,"[11751, 382, 648]",26.0,,834628,11.0,2.0,mouselab-mdp,,0
"[13689, 43769, 45664]","[u'right', u'right', u'down']",,,"[5, 0, 1]","[u'1', 2, 6, 11]","{u'mouseover': {u'state': {u'target': [], u'time': []}, u'edge': {u'target': [], u'time': []}}, u'click': {u'state': {u'target': [u'2', u'3', u'4', u'5', u'7', u'12', u'13', u'6', u'10', u'11'], u'time': [1621, 2199, 2726, 3199, 4012, 4784, 5309, 6379, 7176, 7838]}, u'edge': {u'target': [], u'time': []}}, u'mouseout': {u'state': {u'target': [], u'time': []}, u'edge': {u'target': [], u'time': []}}}",,,"[13689, 22310, 1228]",46.0,,889667,12.0,6.0,mouselab-mdp,,0
"[15376, 27557, 28483]","[u'down', u'down', u'left']",,,"[7, 0, 0]","[u'1', 5, 9, 16]","{u'mouseover': {u'state': {u'target': [], u'time': []}, u'edge': {u'target': [], u'time': []}}, u'click': {u'state': {u'target': [u'4', u'8', u'14', u'15', u'11', u'10', u'12', u'13', u'16', u'17'], u'time': [2302, 3741, 4613, 5292, 7117, 7789, 9916, 10588, 11740, 12580]}, u'edge': {u'target': [], u'time': []}}, u'mouseout': {u'state': {u'target': [], u'time': []}, u'edge': {u'target': [], u'time': []}}}",,,"[15375, 600, 202]",45.9,,227817,1.0,1.0,mouselab-mdp,,2
"[12429, 20703, 23334]","[u'left', u'left', u'up']",,,"[3, 0, 0]","[u'1', 4, 8, 14]","{u'mouseover': {u'state': {u'target': [], u'time': []}, u'edge': {u'target': [], u'time': []}}, u'click': {u'state': {u'target': [u'14', u'15', u'12', u'11', u'10', u'13', u'17', u'16'], u'time': [1424, 2335, 3791, 5215, 5911, 6663, 7535, 8168]}, u'edge': {u'target': [], u'time': []}}, u'mouseout': {u'state': {u'target': [], u'time': []}, u'edge': {u'target': [], u'time': []}}}",,,"[12429, 525, 1815]",39.92,,289977,2.0,0.0,mouselab-mdp,,2
"[14085, 19527, 22045]","[u'left', u'left', u'up']",,,"[0, 0, 0]","[u'1', 4, 8, 14]","{u'mouseover': {u'state': {u'target': [], u'time': []}, u'edge': {u'target': [], u'time': []}}, u'click': {u'state': {u'target': [u'12', u'13', u'14', u'15', u'16', u'17', u'10', u'11', u'5', u'9', u'4', u'8'], u'time': [1377, 2382, 3733, 4398, 5374, 6222, 7598, 8373, 9773, 10429, 11605, 12262]}, u'edge': {u'target': [], u'time': []}}, u'mouseout': {u'state': {u'target': [], u'time': []}, u'edge': {u'target': [], u'time': []}}}",,,"[14084, 6, 1829]",33.88,,341713,3.0,5.0,mouselab-mdp,,2
"[15515, 21007, 22283]","[u'right', u'right', u'down']",,,"[0, 0, 0]","[u'1', 2, 6, 11]","{u'mouseover': {u'state': {u'target': [], u'time': []}, u'edge': {u'target': [], u'time': []}}, u'click': {u'state': {u'target': [u'14', u'15', u'12', u'13', u'10', u'11', u'17', u'16', u'5', u'9', u'2', u'6', u'4', u'3'], u'time': [2373, 3061, 4076, 4877, 5597, 6381, 7221, 7884, 8629, 9196, 10396, 11125, 12444, 14046]}, u'edge': {u'target': [], u'time': []}}, u'mouseout': {u'state': {u'target': [], u'time': []}, u'edge': {u'target': [], u'time': []}}}",,,"[15515, 7, 585]",37.86,,393729,4.0,11.0,mouselab-mdp,,2
"[15036, 20769, 21677]","[u'down', u'down', u'right']",,,"[0, 0, 0]","[u'1', 5, 9, 17]","{u'mouseover': {u'state': {u'target': [], u'time': []}, u'edge': {u'target': [], u'time': []}}, u'click': {u'state': {u'target': [u'14', u'15', u'12', u'13', u'11', u'10', u'17', u'16', u'9', u'5', u'3', u'7', u'6', u'2'], u'time': [1111, 2189, 2950, 3605, 4590, 5213, 5885, 6549, 7230, 7805, 8885, 10222, 11125, 12069]}, u'edge': {u'target': [], u'time': []}}, u'mouseout': {u'state': {u'target': [], u'time': []}, u'edge': {u'target': [], u'time': []}}}",,,"[15036, 6, 308]",41.86,,445537,5.0,4.0,mouselab-mdp,,2
"[15979, 21701, 22972]","[u'right', u'right', u'up']",,,"[0, 0, 0]","[u'1', 2, 6, 10]","{u'mouseover': {u'state': {u'target': [], u'time': []}, u'edge': {u'target': [], u'time': []}}, u'click': {u'state': {u'target': [u'12', u'13', u'10', u'11', u'17', u'16', u'14', u'15', u'4', u'8', u'6', u'2', u'5', u'3'], u'time': [1540, 2292, 3068, 3869, 4604, 5404, 6172, 6869, 7428, 7892, 8709, 9196, 12900, 13700]}, u'edge': {u'target': [], u'time': []}}, u'mouseout': {u'state': {u'target': [], u'time': []}, u'edge': {u'target': [], u'time': []}}}",,,"[15979, 5, 610]",21.86,,497552,6.0,10.0,mouselab-mdp,,2
"[16507, 22296, 23507]","[u'down', u'down', u'left']",,,"[0, 0, 0]","[u'1', 5, 9, 16]","{u'mouseover': {u'state': {u'target': [], u'time': []}, u'edge': {u'target': [], u'time': []}}, u'click': {u'state': {u'target': [u'14', u'15', u'10', u'11', u'16', u'17', u'12', u'13', u'3', u'5', u'9', u'4', u'8', u'7', u'2'], u'time': [1045, 1692, 2708, 3444, 5252, 5924, 6948, 7525, 8211, 9124, 9731, 10492, 11100, 12148, 15324]}, u'edge': {u'target': [], u'time': []}}, u'mouseout': {u'state': {u'target': [], u'time': []}, u'edge': {u'target': [], u'time': []}}}",,,"[16507, 9, 617]",33.85,,550913,7.0,7.0,mouselab-mdp,,2
"[11640, 20728, 22000]","[u'up', u'up', u'left']",,,"[1, 0, 0]","[u'1', 3, 7, 12]","{u'mouseover': {u'state': {u'target': [], u'time': []}, u'edge': {u'target': [], u'time': []}}, u'click': {u'state': {u'target': [u'10', u'11', u'17', u'16', u'15', u'14', u'12', u'13', u'3', u'7', u'6', u'2'], u'time': [1681, 2321, 3057, 3713, 4432, 5009, 5682, 6273, 6818, 7200, 8041, 9176]}, u'edge': {u'target': [], u'time': []}}, u'mouseout': {u'state': {u'target': [], u'time': []}, u'edge': {u'target': [], u'time': []}}}",,,"[11640, 2625, 557]",40.88,,604872,8.0,8.0,mouselab-mdp,,2
"[15004, 20741, 21916]","[u'right', u'right', u'down']",,,"[0, 0, 0]","[u'1', 2, 6, 11]","{u'mouseover': {u'state': {u'target': [], u'time': []}, u'edge': {u'target': [], u'time': []}}, u'click': {u'state': {u'target': [u'12', u'13', u'11', u'10', u'17', u'16', u'15', u'14', u'4', u'8', u'5', u'2', u'6', u'3', u'7'], u'time': [1141, 1853, 3484, 4108, 5021, 5764, 6509, 7101, 7694, 8468, 9493, 10748, 11485, 12780, 13268]}, u'edge': {u'target': [], u'time': []}}, u'mouseout': {u'state': {u'target': [], u'time': []}, u'edge': {u'target': [], u'time': []}}}",,,"[15004, 7, 561]",37.85,,660528,9.0,6.0,mouselab-mdp,,2
"[15319, 23782, 25127]","[u'right', u'right', u'up']",,,"[2, 0, 0]","[u'1', 2, 6, 10]","{u'mouseover': {u'state': {u'target': [], u'time': []}, u'edge': {u'target': [], u'time': []}}, u'click': {u'state': {u'target': [u'14', u'15', u'12', u'13', u'10', u'11', u'16', u'17', u'7', u'3', u'6', u'2', u'5'], u'time': [1000, 1632, 2487, 3080, 3704, 4304, 5200, 5888, 6512, 7184, 8151, 9016, 10343]}, u'edge': {u'target': [], u'time': []}}, u'mouseout': {u'state': {u'target': [], u'time': []}, u'edge': {u'target': [], u'time': []}}}",,,"[15319, 807, 636]",33.87,,717488,10.0,2.0,mouselab-mdp,,2
"[18993, 24387, 25280]","[u'up', u'up', u'left']",,,"[0, 0, 0]","[u'1', 3, 7, 12]","{u'mouseover': {u'state': {u'target': [], u'time': []}, u'edge': {u'target': [], u'time': []}}, u'click': {u'state': {u'target': [u'12', u'13', u'10', u'11', u'16', u'17', u'15', u'14', u'4', u'5', u'8', u'6', u'2', u'9', u'3', u'7'], u'time': [921, 1705, 2401, 3041, 3905, 4826, 5649, 6233, 6953, 7729, 8889, 10026, 10874, 12897, 13809, 14473]}, u'edge': {u'target': [], u'time': []}}, u'mouseout': {u'state': {u'target': [], u'time': []}, u'edge': {u'target': [], u'time': []}}}",,,"[18993, 6, 365]",36.84,,769888,11.0,9.0,mouselab-mdp,,2
"[18635, 26315, 27931]","[u'right', u'right', u'up']",,,"[1, 0, 0]","[u'1', 2, 6, 10]","{u'mouseover': {u'state': {u'target': [], u'time': []}, u'edge': {u'target': [], u'time': []}}, u'click': {u'state': {u'target': [u'14', u'15', u'4', u'12', u'13', u'3', u'7', u'2', u'11', u'6', u'10', u'5', u'9', u'16', u'17'], u'time': [940, 1556, 2172, 3540, 4220, 4916, 5612, 7268, 7837, 8308, 8812, 11668, 12189, 12700, 13340]}, u'edge': {u'target': [], u'time': []}}, u'mouseout': {u'state': {u'target': [], u'time': []}, u'edge': {u'target': [], u'time': []}}}",,,"[18635, 1388, 984]",33.85,,823984,12.0,3.0,mouselab-mdp,,2
"[15080, 88373, 92405]","[u'right', u'right', u'up']",,,"[64, 0, 11]","[u'1', 2, 6, 10]","{u'mouseover': {u'state': {u'target': [], u'time': []}, u'edge': {u'target': [], u'time': []}}, u'click': {u'state': {u'target': [u'2', u'4', u'5', u'3', u'10'], u'time': [5391, 8283, 9483, 11003, 91009]}, u'edge': {u'target': [], u'time': []}}, u'mouseout': {u'state': {u'target': [], u'time': []}, u'edge': {u'target': [], u'time': []}}}",,,"[15078, 3340, 2645]",0.5,,641180,1.0,1.0,mouselab-mdp,,3
"[12965, 70586, 72178]","[u'up', u'up', u'right']",,,"[48, 0, 0]","[u'1', 3, 7, 13]","{u'mouseover': {u'state': {u'target': [], u'time': []}, u'edge': {u'target': [], u'time': []}}, u'click': {u'state': {u'target': [u'2', u'4', u'5', u'3'], u'time': [3378, 7020, 9796, 11370]}, u'edge': {u'target': [], u'time': []}}, u'mouseout': {u'state': {u'target': [], u'time': []}, u'edge': {u'target': [], u'time': []}}}",,,"[12965, 4066, 160]",22.0,,777015,2.0,4.0,mouselab-mdp,,3
"[6792, 42375, 46351]","[u'right', u'right', u'down']",,,"[24, 0, 0]","[u'1', 2, 6, 11]","{u'mouseover': {u'state': {u'target': [], u'time': []}, u'edge': {u'target': [], u'time': []}}, u'click': {u'state': {u'target': [u'3', u'4'], u'time': [3477, 5215]}, u'edge': {u'target': [], u'time': []}}, u'mouseout': {u'state': {u'target': [], u'time': []}, u'edge': {u'target': [], u'time': []}}}",,,"[6792, 6726, 2584]",-4.0,,888064,3.0,0.0,mouselab-mdp,,3
"[55000, 73302, 79701]","[u'right', u'right', u'down']",,,"[12, 0, 7]","[u'1', 2, 6, 11]","{u'mouseover': {u'state': {u'target': [], u'time': []}, u'edge': {u'target': [], u'time': []}}, u'click': {u'state': {u'target': [u'2', u'11'], u'time': [53760, 76199]}, u'edge': {u'target': [], u'time': []}}, u'mouseout': {u'state': {u'target': [], u'time': []}, u'edge': {u'target': [], u'time': []}}}",,,"[55000, 1745, 4960]",30.0,,983274,4.0,8.0,mouselab-mdp,,3
"[5399, 36853, 52882]","[u'left', u'left', u'down']",,,"[24, 0, 0]","[u'1', 4, 8, 15]","{u'mouseover': {u'state': {u'target': [], u'time': []}, u'edge': {u'target': [], u'time': []}}, u'click': {u'state': {u'target': [u'3', u'4'], u'time': [2307, 4219]}, u'edge': {u'target': [], u'time': []}}, u'mouseout': {u'state': {u'target': [], u'time': []}, u'edge': {u'target': [], u'time': []}}}",,,"[5399, 2567, 14626]",-5.0,,1081542,5.0,3.0,mouselab-mdp,,3
"[2678, 12900, 24549]","[u'up', u'up', u'left']",,,"[0, 0, 0]","[u'1', 3, 7, 12]","{u'mouseover': {u'state': {u'target': [], u'time': []}, u'edge': {u'target': [], u'time': []}}, u'click': {u'state': {u'target': [], u'time': []}, u'edge': {u'target': [], u'time': []}}, u'mouseout': {u'state': {u'target': [], u'time': []}, u'edge': {u'target': [], u'time': []}}}",,,"[2678, 6346, 10233]",25.0,,1139118,6.0,5.0,mouselab-mdp,,3
"[3894, 22072, 27268]","[u'up', u'up', u'right']",,,"[12, 0, 0]","[u'1', 3, 7, 13]","{u'mouseover': {u'state': {u'target': [], u'time': []}, u'edge': {u'target': [], u'time': []}}, u'click': {u'state': {u'target': [u'5'], u'time': [1800]}, u'edge': {u'target': [], u'time': []}}, u'mouseout': {u'state': {u'target': [], u'time': []}, u'edge': {u'target': [], u'time': []}}}",,,"[3894, 1914, 3725]",41.5,,1293152,7.0,9.0,mouselab-mdp,,3
"[491, 5509, 8438]","[u'right', u'right', u'down']",,,"[0, 0, 0]","[u'1', 2, 6, 11]","{u'mouseover': {u'state': {u'target': [], u'time': []}, u'edge': {u'target': [], u'time': []}}, u'click': {u'state': {u'target': [], u'time': []}, u'edge': {u'target': [], u'time': []}}, u'mouseout': {u'state': {u'target': [], u'time': []}, u'edge': {u'target': [], u'time': []}}}",,,"[491, 1248, 1600]",2.0,,1364452,8.0,11.0,mouselab-mdp,,3
"[2756, 62108, 115010]","[u'down', u'down', u'right']",,,"[12, 0, 0]","[u'1', 5, 9, 17]","{u'mouseover': {u'state': {u'target': [], u'time': []}, u'edge': {u'target': [], u'time': []}}, u'click': {u'state': {u'target': [u'5'], u'time': [1625]}, u'edge': {u'target': [], u'time': []}}, u'mouseout': {u'state': {u'target': [], u'time': []}, u'edge': {u'target': [], u'time': []}}}",,,"[2756, 43044, 51481]",26.5,,1485585,9.0,10.0,mouselab-mdp,,3
"[6017, 11693, 16310]","[u'left', u'left', u'up']",,,"[0, 0, 0]","[u'1', 4, 8, 14]","{u'mouseover': {u'state': {u'target': [], u'time': []}, u'edge': {u'target': [], u'time': []}}, u'click': {u'state': {u'target': [], u'time': []}, u'edge': {u'target': [], u'time': []}}, u'mouseout': {u'state': {u'target': [], u'time': []}, u'edge': {u'target': [], u'time': []}}}",,,"[6017, 1738, 3277]",9.0,,1578109,10.0,7.0,mouselab-mdp,,3
"[6153, 18957, 30986]","[u'down', u'down', u'right']",,,"[0, 0, 0]","[u'1', 5, 9, 17]","{u'mouseover': {u'state': {u'target': [], u'time': []}, u'edge': {u'target': [], u'time': []}}, u'click': {u'state': {u'target': [], u'time': []}, u'edge': {u'target': [], u'time': []}}, u'mouseout': {u'state': {u'target': [], u'time': []}, u'edge': {u'target': [], u'time': []}}}",,,"[6153, 8873, 10592]",5.0,,1634579,11.0,2.0,mouselab-mdp,,3
"[743, 5857, 12245]","[u'up', u'up', u'left']",,,"[0, 0, 0]","[u'1', 3, 7, 12]","{u'mouseover': {u'state': {u'target': [], u'time': []}, u'edge': {u'target': [], u'time': []}}, u'click': {u'state': {u'target': [], u'time': []}, u'edge': {u'target': [], u'time': []}}, u'mouseout': {u'state': {u'target': [], u'time': []}, u'edge': {u'target': [], u'time': []}}}",,,"[743, 1252, 5015]",17.0,,1694093,12.0,6.0,mouselab-mdp,,3
"[3385, 35481, 40639]","[u'right', u'right', u'up']",,,"[14, 1, 0]","[u'1', 2, 6, 10]","{u'mouseover': {u'state': {u'target': [], u'time': []}, u'edge': {u'target': [], u'time': []}}, u'click': {u'state': {u'target': [u'6', u'10', u'11'], u'time': [24877, 27518, 29051]}, u'edge': {u'target': [], u'time': []}}, u'mouseout': {u'state': {u'target': [], u'time': []}, u'edge': {u'target': [], u'time': []}}}",,,"[3384, 14554, 1863]",10.0,,409336,1.0,10.0,mouselab-mdp,,4
"[9673, 30727, 35853]","[u'right', u'right', u'down']",,,"[3, 1, 0]","[u'1', 2, 6, 11]","{u'mouseover': {u'state': {u'target': [], u'time': []}, u'edge': {u'target': [], u'time': []}}, u'click': {u'state': {u'target': [u'3', u'4', u'5', u'2', u'6', u'10', u'11'], u'time': [3736, 5037, 6244, 7482, 22499, 25138, 27677]}, u'edge': {u'target': [], u'time': []}}, u'mouseout': {u'state': {u'target': [], u'time': []}, u'edge': {u'target': [], u'time': []}}}",,,"[9672, 12844, 1386]",49.0,,467712,2.0,11.0,mouselab-mdp,,4
"[29919, 37377, 42975]","[u'left', u'left', u'up']",,,"[0, 0, 0]","[u'1', 4, 8, 14]","{u'mouseover': {u'state': {u'target': [], u'time': []}, u'edge': {u'target': [], u'time': []}}, u'click': {u'state': {u'target': [u'3', u'4', u'5', u'2', u'7', u'9', u'6', u'8', u'14', u'15'], u'time': [3198, 4577, 5757, 7075, 10253, 11569, 17615, 19340, 41009, 42112]}, u'edge': {u'target': [], u'time': []}}, u'mouseout': {u'state': {u'target': [], u'time': []}, u'edge': {u'target': [], u'time': []}}}",,,"[29919, 6, 4179]",47.0,,533168,3.0,7.0,mouselab-mdp,,4
"[31465, 39922, 42936]","[u'left', u'left', u'up']",,,"[0, 0, 0]","[u'1', 4, 8, 14]","{u'mouseover': {u'state': {u'target': [], u'time': []}, u'edge': {u'target': [], u'time': []}}, u'click': {u'state': {u'target': [u'3', u'4', u'5', u'2', u'8', u'6', u'9', u'7', u'14', u'15', u'11', u'10'], u'time': [2440, 3334, 4244, 5336, 7432, 9424, 12143, 14069, 24343, 25101, 26529, 27819]}, u'edge': {u'target': [], u'time': []}}, u'mouseout': {u'state': {u'target': [], u'time': []}, u'edge': {u'target': [], u'time': []}}}",,,"[31465, 6, 2041]",42.0,,594571,4.0,0.0,mouselab-mdp,,4
"[27597, 35487, 38126]","[u'left', u'left', u'down']",,,"[0, 0, 0]","[u'1', 4, 8, 15]","{u'mouseover': {u'state': {u'target': [], u'time': []}, u'edge': {u'target': [], u'time': []}}, u'click': {u'state': {u'target': [u'3', u'4', u'5', u'2', u'8', u'6', u'14', u'15', u'11', u'10', u'7', u'9'], u'time': [3471, 4155, 5019, 6140, 8448, 9576, 12567, 13928, 15777, 17184, 19371, 26114]}, u'edge': {u'target': [], u'time': []}}, u'mouseout': {u'state': {u'target': [], u'time': []}, u'edge': {u'target': [], u'time': []}}}",,,"[27597, 6, 1677]",29.0,,648161,5.0,9.0,mouselab-mdp,,4
"[26519, 34840, 37152]","[u'left', u'left', u'down']",,,"[0, 0, 0]","[u'1', 4, 8, 15]","{u'mouseover': {u'state': {u'target': [], u'time': []}, u'edge': {u'target': [], u'time': []}}, u'click': {u'state': {u'target': [u'3', u'4', u'5', u'2', u'8', u'6', u'9', u'7', u'14', u'15', u'11', u'10'], u'time': [2097, 2839, 3675, 4965, 6605, 8151, 9453, 11639, 15649, 17025, 18498, 19655]}, u'edge': {u'target': [], u'time': []}}, u'mouseout': {u'state': {u'target': [], u'time': []}, u'edge': {u'target': [], u'time': []}}}",,,"[26519, 8, 1374]",38.0,,702396,6.0,8.0,mouselab-mdp,,4
"[20115, 30653, 33180]","[u'up', u'up', u'left']",,,"[1, 0, 0]","[u'1', 3, 7, 12]","{u'mouseover': {u'state': {u'target': [], u'time': []}, u'edge': {u'target': [], u'time': []}}, u'click': {u'state': {u'target': [u'3', u'4', u'5', u'2', u'7', u'12', u'13', u'8', u'15', u'14', u'6', u'10', u'11'], u'time': [2271, 2974, 3914, 4951, 8118, 9706, 10575, 12446, 13333, 14191, 17246, 18068, 18863]}, u'edge': {u'target': [], u'time': []}}, u'mouseout': {u'state': {u'target': [], u'time': []}, u'edge': {u'target': [], u'time': []}}}",,,"[20115, 1553, 1751]",31.0,,807840,7.0,1.0,mouselab-mdp,,4
"[20855, 28950, 31373]","[u'right', u'right', u'down']",,,"[0, 0, 0]","[u'1', 2, 6, 11]","{u'mouseover': {u'state': {u'target': [], u'time': []}, u'edge': {u'target': [], u'time': []}}, u'click': {u'state': {u'target': [u'3', u'4', u'5', u'2', u'7', u'9', u'8', u'6', u'10', u'11'], u'time': [2119, 2902, 3899, 4637, 10057, 11248, 13880, 15322, 17860, 19363]}, u'edge': {u'target': [], u'time': []}}, u'mouseout': {u'state': {u'target': [], u'time': []}, u'edge': {u'target': [], u'time': []}}}",,,"[20855, 5, 1189]",46.0,,862345,8.0,6.0,mouselab-mdp,,4
"[19634, 27302, 29144]","[u'right', u'right', u'up']",,,"[0, 0, 0]","[u'1', 2, 6, 10]","{u'mouseover': {u'state': {u'target': [], u'time': []}, u'edge': {u'target': [], u'time': []}}, u'click': {u'state': {u'target': [u'3', u'4', u'5', u'2', u'9', u'16', u'17', u'6', u'10', u'11', u'7'], u'time': [2768, 3866, 4791, 5867, 8390, 9554, 10753, 13042, 15020, 15883, 17401]}, u'edge': {u'target': [], u'time': []}}, u'mouseout': {u'state': {u'target': [], u'time': []}, u'edge': {u'target': [], u'time': []}}}",,,"[19634, 6, 851]",23.0,,916507,9.0,2.0,mouselab-mdp,,4
"[35512, 49013, 50801]","[u'up', u'up', u'left']",,,"[5, 0, 0]","[u'1', 3, 7, 12]","{u'mouseover': {u'state': {u'target': [], u'time': []}, u'edge': {u'target': [], u'time': []}}, u'click': {u'state': {u'target': [u'3', u'4', u'5', u'2', u'8', u'7', u'6', u'14', u'15', u'11', u'10', u'12', u'13'], u'time': [2264, 3266, 4144, 5230, 7721, 11252, 13491, 16477, 17479, 19035, 20026, 29209, 30198]}, u'edge': {u'target': [], u'time': []}}, u'mouseout': {u'state': {u'target': [], u'time': []}, u'edge': {u'target': [], u'time': []}}}",,,"[35512, 878, 1028]",13.0,,976735,10.0,4.0,mouselab-mdp,,4
"[18467, 27724, 33220]","[u'right', u'right', u'up']",,,"[1, 0, 0]","[u'1', 2, 6, 10]","{u'mouseover': {u'state': {u'target': [], u'time': []}, u'edge': {u'target': [], u'time': []}}, u'click': {u'state': {u'target': [u'3', u'4', u'5', u'2', u'7', u'12', u'13', u'6', u'8', u'9', u'10', u'11'], u'time': [2448, 3125, 3819, 4833, 6395, 7416, 8376, 9987, 13299, 14440, 30536, 32440]}, u'edge': {u'target': [], u'time': []}}, u'mouseout': {u'state': {u'target': [], u'time': []}, u'edge': {u'target': [], u'time': []}}}",,,"[18467, 830, 4303]",24.0,,1034661,11.0,3.0,mouselab-mdp,,4
"[33465, 42797, 44760]","[u'right', u'right', u'up']",,,"[0, 0, 0]","[u'1', 2, 6, 10]","{u'mouseover': {u'state': {u'target': [], u'time': []}, u'edge': {u'target': [], u'time': []}}, u'click': {u'state': {u'target': [u'3', u'4', u'5', u'2', u'6', u'8', u'9', u'7', u'10', u'11', u'12', u'13', u'16', u'17', u'14', u'15'], u'time': [2105, 2892, 3768, 5630, 8379, 9521, 12021, 13498, 18634, 19457, 22777, 23614, 26367, 27405, 30501, 31323]}, u'edge': {u'target': [], u'time': []}}, u'mouseout': {u'state': {u'target': [], u'time': []}, u'edge': {u'target': [], u'time': []}}}",,,"[33465, 6, 1443]",21.0,,1093061,12.0,5.0,mouselab-mdp,,4
"[8725, 35101, 40073]","[u'down', u'down', u'right']",,,"[9, 0, 0]","[u'1', 5, 9, 17]","{u'mouseover': {u'state': {u'target': [], u'time': []}, u'edge': {u'target': [], u'time': []}}, u'click': {u'state': {u'target': [u'4', u'3', u'2', u'5', u'17', u'16'], u'time': [3616, 4662, 5748, 6572, 38045, 38611]}, u'edge': {u'target': [], u'time': []}}, u'mouseout': {u'state': {u'target': [], u'time': []}, u'edge': {u'target': [], u'time': []}}}",,,"[8722, 2844, 2048]",10.94,,325126,1.0,0.0,mouselab-mdp,,5
"[7725, 34543, 39579]","[u'down', u'down', u'left']",,,"[9, 0, 0]","[u'1', 5, 9, 16]","{u'mouseover': {u'state': {u'target': [], u'time': []}, u'edge': {u'target': [], u'time': []}}, u'click': {u'state': {u'target': [u'4', u'3', u'2', u'5', u'16', u'17'], u'time': [3040, 4229, 4928, 5800, 32321, 33266]}, u'edge': {u'target': [], u'time': []}}, u'mouseout': {u'state': {u'target': [], u'time': []}, u'edge': {u'target': [], u'time': []}}}",,,"[7725, 4906, 4]",6.94,,406187,2.0,3.0,mouselab-mdp,,5
"[16749, 40747, 45573]","[u'left', u'left', u'down']",,,"[4, 0, 0]","[u'1', 4, 8, 15]","{u'mouseover': {u'state': {u'target': [], u'time': []}, u'edge': {u'target': [], u'time': []}}, u'click': {u'state': {u'target': [u'3', u'4', u'5', u'2', u'7', u'8', u'14', u'15'], u'time': [3513, 4373, 5198, 6070, 8112, 9461, 38524, 39404]}, u'edge': {u'target': [], u'time': []}}, u'mouseout': {u'state': {u'target': [], u'time': []}, u'edge': {u'target': [], u'time': []}}}",,,"[16749, 5622, 4]",28.92,,484184,3.0,9.0,mouselab-mdp,,5
"[39606, 60453, 61121]","[u'left', u'left', u'up']",,,"[0, 0, 0]","[u'1', 4, 8, 14]","{u'mouseover': {u'state': {u'target': [], u'time': []}, u'edge': {u'target': [], u'time': []}}, u'click': {u'state': {u'target': [u'3', u'4', u'5', u'2', u'7', u'8', u'9', u'6', u'14', u'15', u'16', u'17', u'11', u'10', u'13', u'12'], u'time': [3075, 3758, 4561, 5277, 8417, 9368, 10188, 11028, 14136, 14814, 15978, 16624, 17206, 17804, 18434, 19379]}, u'edge': {u'target': [], u'time': []}}, u'mouseout': {u'state': {u'target': [], u'time': []}, u'edge': {u'target': [], u'time': []}}}",,,"[39606, 1945, 142]",33.84,,551126,4.0,5.0,mouselab-mdp,,5
"[16366, 32300, 33246]","[u'up', u'up', u'left']",,,"[0, 0, 0]","[u'1', 3, 7, 12]","{u'mouseover': {u'state': {u'target': [], u'time': []}, u'edge': {u'target': [], u'time': []}}, u'click': {u'state': {u'target': [u'12', u'7', u'13', u'3', u'14', u'8', u'15', u'4', u'16', u'9', u'17', u'5', u'2', u'10', u'6', u'11'], u'time': [1390, 1954, 2483, 3048, 3607, 4054, 4630, 5086, 5636, 6188, 6662, 7124, 7666, 8248, 8752, 9334]}, u'edge': {u'target': [], u'time': []}}, u'mouseout': {u'state': {u'target': [], u'time': []}, u'edge': {u'target': [], u'time': []}}}",,,"[16365, 30, 428]",40.84,,620691,5.0,8.0,mouselab-mdp,,5
"[22386, 39545, 40361]","[u'right', u'right', u'down']",,,"[0, 0, 0]","[u'1', 2, 6, 11]","{u'mouseover': {u'state': {u'target': [], u'time': []}, u'edge': {u'target': [], u'time': []}}, u'click': {u'state': {u'target': [u'12', u'7', u'13', u'3', u'10', u'6', u'11', u'2', u'5', u'9', u'17', u'16', u'4', u'8', u'14', u'15'], u'time': [3141, 3691, 4149, 4757, 5675, 6176, 6671, 7279, 7828, 8265, 8819, 9394, 10044, 10591, 10980, 11660]}, u'edge': {u'target': [], u'time': []}}, u'mouseout': {u'state': {u'target': [], u'time': []}, u'edge': {u'target': [], u'time': []}}}",,,"[22386, 752, 282]",37.84,,686724,6.0,11.0,mouselab-mdp,,5
"[20791, 37548, 38172]","[u'right', u'right', u'up']",,,"[0, 0, 0]","[u'1', 2, 6, 10]","{u'mouseover': {u'state': {u'target': [], u'time': []}, u'edge': {u'target': [], u'time': []}}, u'click': {u'state': {u'target': [u'12', u'7', u'13', u'3', u'2', u'6', u'10', u'11', u'5', u'9', u'16', u'17', u'4', u'14', u'8', u'15'], u'time': [4832, 6175, 6694, 7440, 8567, 9192, 9717, 10310, 11031, 11752, 12125, 12821, 13611, 14108, 14612, 15074]}, u'edge': {u'target': [], u'time': []}}, u'mouseout': {u'state': {u'target': [], u'time': []}, u'edge': {u'target': [], u'time': []}}}",,,"[20791, 563, 34]",33.84,,760009,7.0,2.0,mouselab-mdp,,5
"[14934, 32365, 32998]","[u'right', u'right', u'down']",,,"[0, 0, 0]","[u'1', 2, 6, 11]","{u'mouseover': {u'state': {u'target': [], u'time': []}, u'edge': {u'target': [], u'time': []}}, u'click': {u'state': {u'target': [u'12', u'7', u'13', u'3', u'14', u'8', u'15', u'4', u'16', u'9', u'17', u'5', u'2', u'6', u'10', u'11'], u'time': [1930, 3610, 4174, 4789, 5632, 6080, 6543, 7029, 7682, 8075, 8542, 8953, 9620, 10068, 10442, 11021]}, u'edge': {u'target': [], u'time': []}}, u'mouseout': {u'state': {u'target': [], u'time': []}, u'edge': {u'target': [], u'time': []}}}",,,"[14933, 2776, 108]",37.84,,822590,8.0,6.0,mouselab-mdp,,5
"[16033, 31440, 32042]","[u'down', u'down', u'right']",,,"[0, 0, 0]","[u'1', 5, 9, 17]","{u'mouseover': {u'state': {u'target': [], u'time': []}, u'edge': {u'target': [], u'time': []}}, u'click': {u'state': {u'target': [u'12', u'7', u'13', u'3', u'14', u'8', u'15', u'4', u'5', u'16', u'9', u'17', u'2', u'6', u'10', u'11'], u'time': [3475, 4297, 4940, 5475, 6138, 6609, 7035, 7575, 8481, 9043, 9563, 10032, 10615, 11079, 11518, 12119]}, u'edge': {u'target': [], u'time': []}}, u'mouseout': {u'state': {u'target': [], u'time': []}, u'edge': {u'target': [], u'time': []}}}",,,"[16032, 702, 47]",33.84,,886447,9.0,7.0,mouselab-mdp,,5
"[13434, 29393, 30136]","[u'down', u'down', u'left']",,,"[0, 0, 0]","[u'1', 5, 9, 16]","{u'mouseover': {u'state': {u'target': [], u'time': []}, u'edge': {u'target': [], u'time': []}}, u'click': {u'state': {u'target': [u'12', u'7', u'3', u'13', u'10', u'6', u'11', u'2', u'5', u'16', u'9', u'17', u'14', u'8', u'4', u'15'], u'time': [1336, 2593, 3160, 3764, 4811, 5243, 5735, 6270, 7322, 7976, 8354, 8808, 9796, 10214, 11071, 11543]}, u'edge': {u'target': [], u'time': []}}, u'mouseout': {u'state': {u'target': [], u'time': []}, u'edge': {u'target': [], u'time': []}}}",,,"[13433, 769, 203]",45.84,,950707,10.0,1.0,mouselab-mdp,,5
"[12439, 39420, 40023]","[u'down', u'down', u'right']",,,"[0, 0, 0]","[u'1', 5, 9, 17]","{u'mouseover': {u'state': {u'target': [], u'time': []}, u'edge': {u'target': [], u'time': []}}, u'click': {u'state': {u'target': [u'12', u'7', u'13', u'3', u'14', u'8', u'15', u'4', u'5', u'16', u'9', u'17', u'2', u'6', u'10', u'11'], u'time': [1829, 2216, 2585, 3177, 4137, 4571, 4994, 5489, 6350, 6809, 7226, 7615, 8213, 8623, 9120, 9644]}, u'edge': {u'target': [], u'time': []}}, u'mouseout': {u'state': {u'target': [], u'time': []}, u'edge': {u'target': [], u'time': []}}}",,,"[12439, 1500, 41]",41.84,,1035703,11.0,4.0,mouselab-mdp,,5
"[16921, 33389, 33995]","[u'right', u'right', u'up']",,,"[0, 0, 0]","[u'1', 2, 6, 10]","{u'mouseover': {u'state': {u'target': [], u'time': []}, u'edge': {u'target': [], u'time': []}}, u'click': {u'state': {u'target': [u'12', u'7', u'13', u'3', u'2', u'6', u'10', u'11', u'5', u'9', u'16', u'17', u'4', u'14', u'8', u'15'], u'time': [1333, 1798, 2649, 3213, 4462, 5274, 5748, 6320, 6966, 7325, 7736, 8390, 9158, 9772, 10297, 10796]}, u'edge': {u'target': [], u'time': []}}, u'mouseout': {u'state': {u'target': [], u'time': []}, u'edge': {u'target': [], u'time': []}}}",,,"[16921, 1242, 21]",21.84,,1099104,12.0,10.0,mouselab-mdp,,5
"[19902, 79911, 94672]","[u'up', u'up', u'right']",,,"[46, 7, 0]","[u'1', 3, 7, 13]","{u'mouseover': {u'state': {u'target': [], u'time': []}, u'edge': {u'target': [], u'time': []}}, u'click': {u'state': {u'target': [u'2', u'10', u'3', u'7', u'13'], u'time': [5763, 8993, 15319, 16840, 76944]}, u'edge': {u'target': [], u'time': []}}, u'mouseout': {u'state': {u'target': [], u'time': []}, u'edge': {u'target': [], u'time': []}}}",,,"[19902, 10146, 6182]",16.5,,354050,1.0,5.0,mouselab-mdp,,6
"[8653, 35077, 44581]","[u'right', u'right', u'down']",,,"[21, 0, 0]","[u'1', 2, 6, 11]","{u'mouseover': {u'state': {u'target': [], u'time': []}, u'edge': {u'target': [], u'time': []}}, u'click': {u'state': {u'target': [u'2', u'6', u'10', u'11'], u'time': [4125, 6813, 40565, 42653]}, u'edge': {u'target': [], u'time': []}}, u'mouseout': {u'state': {u'target': [], u'time': []}, u'edge': {u'target': [], u'time': []}}}",,,"[8653, 2157, 8433]",25.0,,425507,2.0,8.0,mouselab-mdp,,6
"[6478, 29059, 44316]","[u'left', u'left', u'down']",,,"[12, 7, 0]","[u'1', 4, 8, 15]","{u'mouseover': {u'state': {u'target': [], u'time': []}, u'edge': {u'target': [], u'time': []}}, u'click': {u'state': {u'target': [u'4', u'8'], u'time': [3556, 25083]}, u'edge': {u'target': [], u'time': []}}, u'mouseout': {u'state': {u'target': [], u'time': []}, u'edge': {u'target': [], u'time': []}}}",,,"[6478, 7656, 6803]",-5.0,,495642,3.0,3.0,mouselab-mdp,,6
"[2808, 6288, 10537]","[u'down', u'down', u'right']",,,"[0, 0, 0]","[u'1', 5, 9, 17]","{u'mouseover': {u'state': {u'target': [], u'time': []}, u'edge': {u'target': [], u'time': []}}, u'click': {u'state': {u'target': [], u'time': []}, u'edge': {u'target': [], u'time': []}}, u'mouseout': {u'state': {u'target': [], u'time': []}, u'edge': {u'target': [], u'time': []}}}",,,"[2808, 977, 3193]",5.0,,544747,4.0,2.0,mouselab-mdp,,6
"[1443, 5507, 10739]","[u'down', u'down', u'right']",,,"[0, 0, 0]","[u'1', 5, 9, 17]","{u'mouseover': {u'state': {u'target': [], u'time': []}, u'edge': {u'target': [], u'time': []}}, u'click': {u'state': {u'target': [], u'time': []}, u'edge': {u'target': [], u'time': []}}, u'mouseout': {u'state': {u'target': [], u'time': []}, u'edge': {u'target': [], u'time': []}}}",,,"[1443, 1565, 4170]",32.0,,593754,5.0,4.0,mouselab-mdp,,6
"[2960, 6159, 9065]","[u'left', u'left', u'down']",,,"[0, 0, 0]","[u'1', 4, 8, 15]","{u'mouseover': {u'state': {u'target': [], u'time': []}, u'edge': {u'target': [], u'time': []}}, u'click': {u'state': {u'target': [], u'time': []}, u'edge': {u'target': [], u'time': []}}, u'mouseout': {u'state': {u'target': [], u'time': []}, u'edge': {u'target': [], u'time': []}}}",,,"[2960, 728, 1863]",21.0,,642026,6.0,7.0,mouselab-mdp,,6
"[1246, 4886, 7350]","[u'up', u'up', u'right']",,,"[0, 0, 0]","[u'1', 3, 7, 13]","{u'mouseover': {u'state': {u'target': [], u'time': []}, u'edge': {u'target': [], u'time': []}}, u'click': {u'state': {u'target': [], u'time': []}, u'edge': {u'target': [], u'time': []}}, u'mouseout': {u'state': {u'target': [], u'time': []}, u'edge': {u'target': [], u'time': []}}}",,,"[1246, 1172, 1425]",18.0,,690923,7.0,6.0,mouselab-mdp,,6
"[1855, 4663, 7583]","[u'left', u'left', u'up']",,,"[0, 0, 0]","[u'1', 4, 8, 14]","{u'mouseover': {u'state': {u'target': [], u'time': []}, u'edge': {u'target': [], u'time': []}}, u'click': {u'state': {u'target': [], u'time': []}, u'edge': {u'target': [], u'time': []}}, u'mouseout': {u'state': {u'target': [], u'time': []}, u'edge': {u'target': [], u'time': []}}}",,,"[1855, 318, 1872]",-4.0,,739611,8.0,10.0,mouselab-mdp,,6
"[7786, 40506, 43993]","[u'right', u'right', u'up']",,,"[27, 0, 0]","[u'1', 2, 6, 10]","{u'mouseover': {u'state': {u'target': [], u'time': []}, u'edge': {u'target': [], u'time': []}}, u'click': {u'state': {u'target': [u'3', u'2'], u'time': [1500, 5298]}, u'edge': {u'target': [], u'time': []}}, u'mouseout': {u'state': {u'target': [], u'time': []}, u'edge': {u'target': [], u'time': []}}}",,,"[7786, 2565, 2419]",8.0,,816370,9.0,1.0,mouselab-mdp,,6
"[6762, 22347, 28306]","[u'up', u'up', u'left']",,,"[12, 0, 11]","[u'1', 3, 7, 12]","{u'mouseover': {u'state': {u'target': [], u'time': []}, u'edge': {u'target': [], u'time': []}}, u'click': {u'state': {u'target': [u'3', u'13'], u'time': [4450, 26658]}, u'edge': {u'target': [], u'time': []}}, u'mouseout': {u'state': {u'target': [], u'time': []}, u'edge': {u'target': [], u'time': []}}}",,,"[6762, 639, 4871]",36.0,,891139,10.0,9.0,mouselab-mdp,,6
"[1051, 3570, 9491]","[u'up', u'up', u'left']",,,"[0, 0, 8]","[u'1', 3, 7, 12]","{u'mouseover': {u'state': {u'target': [], u'time': []}, u'edge': {u'target': [], u'time': []}}, u'click': {u'state': {u'target': [u'12'], u'time': [7826]}, u'edge': {u'target': [], u'time': []}}, u'mouseout': {u'state': {u'target': [], u'time': []}, u'edge': {u'target': [], u'time': []}}}",,,"[1050, 27, 4864]",17.5,,949114,11.0,11.0,mouselab-mdp,,6
"[2291, 5482, 10475]","[u'down', u'down', u'right']",,,"[0, 0, 11]","[u'1', 5, 9, 17]","{u'mouseover': {u'state': {u'target': [], u'time': []}, u'edge': {u'target': [], u'time': []}}, u'click': {u'state': {u'target': [u'17'], u'time': [9194]}, u'edge': {u'target': [], u'time': []}}, u'mouseout': {u'state': {u'target': [], u'time': []}, u'edge': {u'target': [], u'time': []}}}",,,"[2291, 613, 3898]",7.5,,1009651,12.0,0.0,mouselab-mdp,,6
"[4632, 45642, 49816]","[u'right', u'right', u'up']",,,"[14, 0, 8]","[u'1', 2, 6, 10]","{u'mouseover': {u'state': {u'target': [], u'time': []}, u'edge': {u'target': [], u'time': []}}, u'click': {u'state': {u'target': [], u'time': []}, u'edge': {u'target': [], u'time': []}}, u'mouseout': {u'state': {u'target': [], u'time': []}, u'edge': {u'target': [], u'time': []}}}",,,"[4630, 24268, 3039]",13.0,,378608,1.0,10.0,mouselab-mdp,,7
"[61528, 70991, 74398]","[u'right', u'right', u'down']",,,"[5, 0, 4]","[u'1', 2, 6, 11]","{u'mouseover': {u'state': {u'target': [], u'time': []}, u'edge': {u'target': [], u'time': []}}, u'click': {u'state': {u'target': [u'6', u'11', u'4', u'8', u'15', u'14', u'2', u'5'], u'time': [7248, 14965, 27901, 30464, 35362, 37280, 39172, 42216]}, u'edge': {u'target': [], u'time': []}}, u'mouseout': {u'state': {u'target': [], u'time': []}, u'edge': {u'target': [], u'time': []}}}",,,"[61527, 1338, 2642]",31.92,,306545,1.0,2.0,mouselab-mdp,,8
"[7294, 36455, 38858]","[u'right', u'right', u'down']",,,"[16, 0, 0]","[u'1', 2, 6, 11]","{u'mouseover': {u'state': {u'target': [], u'time': []}, u'edge': {u'target': [], u'time': []}}, u'click': {u'state': {u'target': [u'2', u'6', u'10', u'11'], u'time': [5064, 27228, 29916, 34179]}, u'edge': {u'target': [], u'time': []}}, u'mouseout': {u'state': {u'target': [], u'time': []}, u'edge': {u'target': [], u'time': []}}}",,,"[7294, 11186, 882]",37.96,,374432,2.0,6.0,mouselab-mdp,,8
"[17812, 23433, 29092]","[u'up', u'up', u'left']",,,"[2, 0, 3]","[u'1', 3, 7, 12]","{u'mouseover': {u'state': {u'target': [], u'time': []}, u'edge': {u'target': [], u'time': []}}, u'click': {u'state': {u'target': [u'3', u'7', u'12'], u'time': [2134, 4578, 6118]}, u'edge': {u'target': [], u'time': []}}, u'mouseout': {u'state': {u'target': [], u'time': []}, u'edge': {u'target': [], u'time': []}}}",,,"[17812, 1170, 4787]",40.97,,435819,3.0,8.0,mouselab-mdp,,8
"[30411, 35720, 38469]","[u'down', u'down', u'left']",,,"[1, 0, 2]","[u'1', 5, 9, 16]","{u'mouseover': {u'state': {u'target': [], u'time': []}, u'edge': {u'target': [], u'time': []}}, u'click': {u'state': {u'target': [u'3', u'7', u'13', u'12', u'4', u'8', u'15', u'2', u'6', u'11', u'5', u'9', u'16'], u'time': [1287, 3425, 5360, 7525, 10284, 12065, 13521, 16168, 17315, 18401, 21204, 23548, 25299]}, u'edge': {u'target': [], u'time': []}}, u'mouseout': {u'state': {u'target': [], u'time': []}, u'edge': {u'target': [], u'time': []}}}",,,"[30411, 655, 2011]",33.87,,492279,4.0,7.0,mouselab-mdp,,8
"[13945, 19662, 22583]","[u'right', u'right', u'down']",,,"[3, 0, 0]","[u'1', 2, 6, 11]","{u'mouseover': {u'state': {u'target': [], u'time': []}, u'edge': {u'target': [], u'time': []}}, u'click': {u'state': {u'target': [u'2', u'6', u'10', u'11'], u'time': [2658, 4273, 5589, 7854]}, u'edge': {u'target': [], u'time': []}}, u'mouseout': {u'state': {u'target': [], u'time': []}, u'edge': {u'target': [], u'time': []}}}",,,"[13945, 410, 2143]",37.96,,545714,5.0,11.0,mouselab-mdp,,8
"[8546, 17351, 20125]","[u'left', u'left', u'down']",,,"[5, 0, 18]","[u'1', 4, 8, 15]","{u'mouseover': {u'state': {u'target': [], u'time': []}, u'edge': {u'target': [], u'time': []}}, u'click': {u'state': {u'target': [u'4'], u'time': [3663]}, u'edge': {u'target': [], u'time': []}}, u'mouseout': {u'state': {u'target': [], u'time': []}, u'edge': {u'target': [], u'time': []}}}",,,"[8545, 1868, 1929]",8.99,,619970,6.0,4.0,mouselab-mdp,,8
"[18200, 40851, 42331]","[u'right', u'right', u'up']",,,"[4, 0, 0]","[u'1', 2, 6, 10]","{u'mouseover': {u'state': {u'target': [], u'time': []}, u'edge': {u'target': [], u'time': []}}, u'click': {u'state': {u'target': [u'3', u'7', u'13', u'12', u'2', u'6', u'11', u'10'], u'time': [3731, 5075, 6687, 8707, 11900, 13028, 14120, 15785]}, u'edge': {u'target': [], u'time': []}}, u'mouseout': {u'state': {u'target': [], u'time': []}, u'edge': {u'target': [], u'time': []}}}",,,"[18200, 15961, 779]",33.92,,676079,7.0,3.0,mouselab-mdp,,8
"[25351, 44607, 46482]","[u'left', u'left', u'up']",,,"[15, 0, 0]","[u'1', 4, 8, 14]","{u'mouseover': {u'state': {u'target': [], u'time': []}, u'edge': {u'target': [], u'time': []}}, u'click': {u'state': {u'target': [u'2', u'10', u'6', u'11', u'5', u'9', u'17', u'16', u'4', u'8', u'15', u'14'], u'time': [1505, 3087, 7139, 8276, 11740, 13252, 14389, 15853, 17548, 20127, 21194, 22719]}, u'edge': {u'target': [], u'time': []}}, u'mouseout': {u'state': {u'target': [], u'time': []}, u'edge': {u'target': [], u'time': []}}}",,,"[25349, 1427, 1277]",18.88,,747421,8.0,10.0,mouselab-mdp,,8
"[7563, 24324, 30386]","[u'right', u'right', u'down']",,,"[14, 0, 18]","[u'1', 2, 6, 11]","{u'mouseover': {u'state': {u'target': [], u'time': []}, u'edge': {u'target': [], u'time': []}}, u'click': {u'state': {u'target': [u'2', u'6'], u'time': [2614, 3981]}, u'edge': {u'target': [], u'time': []}}, u'mouseout': {u'state': {u'target': [], u'time': []}, u'edge': {u'target': [], u'time': []}}}",,,"[7563, 679, 5212]",16.98,,830478,9.0,9.0,mouselab-mdp,,8
"[8256, 22088, 50207]","[u'down', u'down', u'right']",,,"[7, 0, 0]","[u'1', 5, 9, 17]","{u'mouseover': {u'state': {u'target': [], u'time': []}, u'edge': {u'target': [], u'time': []}}, u'click': {u'state': {u'target': [u'5', u'9', u'17', u'16', u'2', u'6'], u'time': [4067, 20285, 34681, 36762, 40314, 42400]}, u'edge': {u'target': [], u'time': []}}, u'mouseout': {u'state': {u'target': [], u'time': []}, u'edge': {u'target': [], u'time': []}}}",,,"[8256, 4866, 26996]",10.94,,886361,10.0,0.0,mouselab-mdp,,8
"[7680, 17833, 70930]","[u'right', u'right', u'up']",,,"[7, 0, 17]","[u'1', 2, 6, 10]","{u'mouseover': {u'state': {u'target': [], u'time': []}, u'edge': {u'target': [], u'time': []}}, u'click': {u'state': {u'target': [u'6', u'10'], u'time': [3588, 68891]}, u'edge': {u'target': [], u'time': []}}, u'mouseout': {u'state': {u'target': [], u'time': []}, u'edge': {u'target': [], u'time': []}}}",,,"[7680, 1182, 52232]",6.98,,982369,11.0,5.0,mouselab-mdp,,8
"[11304, 29404, 30885]","[u'left', u'left', u'down']",,,"[14, 0, 0]","[u'1', 4, 8, 15]","{u'mouseover': {u'state': {u'target': [], u'time': []}, u'edge': {u'target': [], u'time': []}}, u'click': {u'state': {u'target': [u'4', u'8', u'14', u'15'], u'time': [4557, 6151, 7585, 9008]}, u'edge': {u'target': [], u'time': []}}, u'mouseout': {u'state': {u'target': [], u'time': []}, u'edge': {u'target': [], u'time': []}}}",,,"[11303, 1814, 707]",14.96,,1050041,12.0,1.0,mouselab-mdp,,8
"[10016, 20739, 22706]","[u'down', u'down', u'left']",,,"[5, 0, 1]","[u'1', 5, 9, 16]","{u'mouseover': {u'state': {u'target': [], u'time': []}, u'edge': {u'target': [], u'time': []}}, u'click': {u'state': {u'target': [u'12', u'8', u'4', u'9', u'16'], u'time': [1418, 4050, 5521, 6598, 8177]}, u'edge': {u'target': [], u'time': []}}, u'mouseout': {u'state': {u'target': [], u'time': []}, u'edge': {u'target': [], u'time': []}}}",,,"[10016, 750, 840]",33.95,,177633,1.0,7.0,mouselab-mdp,,9
"[7720, 21061, 22884]","[u'left', u'left', u'down']",,,"[5, 0, 1]","[u'1', 4, 8, 15]","{u'mouseover': {u'state': {u'target': [], u'time': []}, u'edge': {u'target': [], u'time': []}}, u'click': {u'state': {u'target': [u'13', u'11', u'16', u'8', u'4', u'15'], u'time': [1233, 2597, 3927, 5089, 6895, 18661]}, u'edge': {u'target': [], u'time': []}}, u'mouseout': {u'state': {u'target': [], u'time': []}, u'edge': {u'target': [], u'time': []}}}",,,"[7719, 3187, 9]",39.94,,247857,2.0,0.0,mouselab-mdp,,9
"[12685, 27795, 28832]","[u'left', u'left', u'up']",,,"[5, 0, 1]","[u'1', 4, 8, 14]","{u'mouseover': {u'state': {u'target': [], u'time': []}, u'edge': {u'target': [], u'time': []}}, u'click': {u'state': {u'target': [u'12', u'16', u'9', u'11', u'6', u'2', u'10', u'14', u'8', u'4'], u'time': [1278, 2485, 3299, 4569, 5507, 6731, 7550, 9928, 10920, 11633]}, u'edge': {u'target': [], u'time': []}}, u'mouseout': {u'state': {u'target': [], u'time': []}, u'edge': {u'target': [], u'time': []}}}",,,"[12685, 3792, 32]",33.9,,320000,3.0,5.0,mouselab-mdp,,9
"[8539, 20503, 21632]","[u'down', u'down', u'left']",,,"[5, 0, 1]","[u'1', 5, 9, 16]","{u'mouseover': {u'state': {u'target': [], u'time': []}, u'edge': {u'target': [], u'time': []}}, u'click': {u'state': {u'target': [u'7', u'13', u'12', u'9', u'16', u'5'], u'time': [2371, 3253, 4508, 6306, 7017, 7604]}, u'edge': {u'target': [], u'time': []}}, u'mouseout': {u'state': {u'target': [], u'time': []}, u'edge': {u'target': [], u'time': []}}}",,,"[8539, 1840, 5]",45.94,,387944,4.0,1.0,mouselab-mdp,,9
"[15219, 27079, 28675]","[u'up', u'up', u'left']",,,"[5, 0, 1]","[u'1', 3, 7, 12]","{u'mouseover': {u'state': {u'target': [], u'time': []}, u'edge': {u'target': [], u'time': []}}, u'click': {u'state': {u'target': [u'2', u'10', u'11', u'5', u'9', u'16', u'17', u'4', u'8', u'14', u'15', u'7', u'12', u'3', u'13'], u'time': [2623, 3589, 4494, 5395, 6098, 6677, 7429, 8228, 8924, 9575, 10334, 11645, 12388, 13304, 14121]}, u'edge': {u'target': [], u'time': []}}, u'mouseout': {u'state': {u'target': [], u'time': []}, u'edge': {u'target': [], u'time': []}}}",,,"[15219, 574, 935]",40.85,,454573,5.0,8.0,mouselab-mdp,,9
"[4511, 14315, 24027]","[u'up', u'up', u'left']",,,"[5, 0, 1]","[u'1', 3, 7, 12]","{u'mouseover': {u'state': {u'target': [], u'time': []}, u'edge': {u'target': [], u'time': []}}, u'click': {u'state': {u'target': [u'12', u'7', u'3'], u'time': [956, 2389, 3047]}, u'edge': {u'target': [], u'time': []}}, u'mouseout': {u'state': {u'target': [], u'time': []}, u'edge': {u'target': [], u'time': []}}}",,,"[4511, 728, 8562]",36.97,,588848,6.0,9.0,mouselab-mdp,,9
"[18873, 35823, 45626]","[u'right', u'right', u'up']",,,"[5, 0, 1]","[u'1', 2, 6, 10]","{u'mouseover': {u'state': {u'target': [], u'time': []}, u'edge': {u'target': [], u'time': []}}, u'click': {u'state': {u'target': [u'7', u'3', u'4', u'8', u'15', u'14', u'2', u'10', u'6'], u'time': [11761, 12424, 13842, 14453, 14971, 15748, 16616, 17429, 17947]}, u'edge': {u'target': [], u'time': []}}, u'mouseout': {u'state': {u'target': [], u'time': []}, u'edge': {u'target': [], u'time': []}}}",,,"[18873, 6430, 8815]",33.91,,654585,7.0,2.0,mouselab-mdp,,9
"[9832, 20474, 25015]","[u'down', u'down', u'right']",,,"[5, 0, 1]","[u'1', 5, 9, 17]","{u'mouseover': {u'state': {u'target': [], u'time': []}, u'edge': {u'target': [], u'time': []}}, u'click': {u'state': {u'target': [u'7', u'3', u'4', u'8', u'14', u'15', u'9', u'16', u'17'], u'time': [1060, 2500, 3470, 4212, 4950, 5747, 6972, 7521, 8305]}, u'edge': {u'target': [], u'time': []}}, u'mouseout': {u'state': {u'target': [], u'time': []}, u'edge': {u'target': [], u'time': []}}}",,,"[9832, 473, 3674]",41.91,,712041,8.0,4.0,mouselab-mdp,,9
"[3220, 14867, 22352]","[u'right', u'right', u'down']",,,"[5, 0, 1]","[u'1', 2, 6, 11]","{u'mouseover': {u'state': {u'target': [], u'time': []}, u'edge': {u'target': [], u'time': []}}, u'click': {u'state': {u'target': [u'6', u'10', u'11'], u'time': [12646, 13264, 14050]}, u'edge': {u'target': [], u'time': []}}, u'mouseout': {u'state': {u'target': [], u'time': []}, u'edge': {u'target': [], u'time': []}}}",,,"[3220, 3516, 5578]",37.97,,770385,9.0,11.0,mouselab-mdp,,9
"[43, 11469, 16598]","[u'right', u'right', u'up']",,,"[5, 0, 1]","[u'1', 2, 6, 10]","{u'mouseover': {u'state': {u'target': [], u'time': []}, u'edge': {u'target': [], u'time': []}}, u'click': {u'state': {u'target': [u'6', u'11', u'10'], u'time': [8373, 9124, 10394]}, u'edge': {u'target': [], u'time': []}}, u'mouseout': {u'state': {u'target': [], u'time': []}, u'edge': {u'target': [], u'time': []}}}",,,"[43, 3417, 3273]",21.97,,845083,10.0,10.0,mouselab-mdp,,9
"[10463, 22610, 27695]","[u'right', u'right', u'down']",,,"[5, 0, 1]","[u'1', 2, 6, 11]","{u'mouseover': {u'state': {u'target': [], u'time': []}, u'edge': {u'target': [], u'time': []}}, u'click': {u'state': {u'target': [u'7', u'3', u'4', u'15', u'14', u'8', u'16', u'9', u'17', u'11', u'6', u'2'], u'time': [1236, 1810, 2658, 4084, 4711, 5812, 6572, 7082, 7495, 8408, 9090, 9676]}, u'edge': {u'target': [], u'time': []}}, u'mouseout': {u'state': {u'target': [], u'time': []}, u'edge': {u'target': [], u'time': []}}}",,,"[10463, 992, 4146]",37.88,,908443,11.0,6.0,mouselab-mdp,,9
"[4795, 14873, 16435]","[u'right', u'right', u'up']",,,"[5, 0, 1]","[u'1', 2, 6, 10]","{u'mouseover': {u'state': {u'target': [], u'time': []}, u'edge': {u'target': [], u'time': []}}, u'click': {u'state': {u'target': [u'10'], u'time': [2750]}, u'edge': {u'target': [], u'time': []}}, u'mouseout': {u'state': {u'target': [], u'time': []}, u'edge': {u'target': [], u'time': []}}}",,,"[4795, 1494, 467]",33.99,,976594,12.0,3.0,mouselab-mdp,,9
"[8973, 20867, 29066]","[u'up', u'up', u'right']",,,"[5, 0, 1]","[u'1', 3, 7, 13]","{u'mouseover': {u'state': {u'target': [], u'time': []}, u'edge': {u'target': [], u'time': []}}, u'click': {u'state': {u'target': [u'3', u'13'], u'time': [6674, 26071]}, u'edge': {u'target': [], u'time': []}}, u'mouseout': {u'state': {u'target': [], u'time': []}, u'edge': {u'target': [], u'time': []}}}",,,"[8973, 2524, 6882]",19.0,,207744,1.0,5.0,mouselab-mdp,,10
"[6750, 23287, 91162]","[u'up', u'up', u'right']",,,"[5, 0, 1]","[u'1', 3, 7, 13]","{u'mouseover': {u'state': {u'target': [], u'time': []}, u'edge': {u'target': [], u'time': []}}, u'click': {u'state': {u'target': [u'5', u'3', u'7', u'12', u'13'], u'time': [2875, 5362, 20998, 27780, 29988]}, u'edge': {u'target': [], u'time': []}}, u'mouseout': {u'state': {u'target': [], u'time': []}, u'edge': {u'target': [], u'time': []}}}",,,"[6750, 6718, 65956]",12.0,,308816,2.0,6.0,mouselab-mdp,,10
"[9770, 23016, 34288]","[u'down', u'down', u'right']",,,"[5, 0, 1]","[u'1', 5, 9, 17]","{u'mouseover': {u'state': {u'target': [], u'time': []}, u'edge': {u'target': [], u'time': []}}, u'click': {u'state': {u'target': [u'2', u'4', u'3', u'5', u'17', u'16'], u'time': [3672, 5415, 7271, 8038, 27602, 28569]}, u'edge': {u'target': [], u'time': []}}, u'mouseout': {u'state': {u'target': [], u'time': []}, u'edge': {u'target': [], u'time': []}}}",,,"[9770, 2323, 9796]",-5.0,,369603,3.0,2.0,mouselab-mdp,,10
"[13168, 27588, 30820]","[u'left', u'left', u'down']",,,"[5, 0, 1]","[u'1', 4, 8, 15]","{u'mouseover': {u'state': {u'target': [], u'time': []}, u'edge': {u'target': [], u'time': []}}, u'click': {u'state': {u'target': [u'5', u'3', u'2', u'4', u'8', u'7', u'14', u'15'], u'time': [2507, 3824, 4806, 5586, 6956, 8596, 9663, 10389]}, u'edge': {u'target': [], u'time': []}}, u'mouseout': {u'state': {u'target': [], u'time': []}, u'edge': {u'target': [], u'time': []}}}",,,"[13167, 1998, 1976]",33.0,,432962,4.0,9.0,mouselab-mdp,,10
"[15564, 29711, 32593]","[u'left', u'left', u'down']",,,"[5, 0, 1]","[u'1', 4, 8, 15]","{u'mouseover': {u'state': {u'target': [], u'time': []}, u'edge': {u'target': [], u'time': []}}, u'click': {u'state': {u'target': [u'4', u'2', u'5', u'3', u'9', u'16', u'17', u'8', u'15', u'14'], u'time': [2033, 3120, 3836, 4804, 6139, 7741, 8450, 10168, 11685, 12481]}, u'edge': {u'target': [], u'time': []}}, u'mouseout': {u'state': {u'target': [], u'time': []}, u'edge': {u'target': [], u'time': []}}}",,,"[15562, 835, 1820]",40.0,,498629,5.0,8.0,mouselab-mdp,,10
"[16184, 32200, 88272]","[u'up', u'up', u'left']",,,"[5, 0, 1]","[u'1', 3, 7, 12]","{u'mouseover': {u'state': {u'target': [], u'time': []}, u'edge': {u'target': [], u'time': []}}, u'click': {u'state': {u'target': [u'4', u'8', u'3', u'2', u'5', u'7', u'13', u'12', u'14', u'15', u'9', u'16', u'17'], u'time': [1167, 2181, 3126, 3761, 4423, 5264, 5905, 6773, 9790, 10390, 11690, 12693, 13344]}, u'edge': {u'target': [], u'time': []}}, u'mouseout': {u'state': {u'target': [], u'time': []}, u'edge': {u'target': [], u'time': []}}}",,,"[16184, 1893, 55233]",27.0,,591452,6.0,10.0,mouselab-mdp,,10
"[45433, 61261, 63371]","[u'up', u'up', u'left']",,,"[5, 0, 1]","[u'1', 3, 7, 12]","{u'mouseover': {u'state': {u'target': [], u'time': []}, u'edge': {u'target': [], u'time': []}}, u'click': {u'state': {u'target': [u'2', u'5', u'3', u'4', u'9', u'17', u'16', u'7', u'13', u'12', u'6', u'8'], u'time': [2217, 2951, 3868, 4603, 5412, 5956, 6657, 9814, 10418, 11057, 16292, 19922]}, u'edge': {u'target': [], u'time': []}}, u'mouseout': {u'state': {u'target': [], u'time': []}, u'edge': {u'target': [], u'time': []}}}",,,"[45433, 1202, 971]",32.0,,659639,7.0,1.0,mouselab-mdp,,10
"[14808, 30403, 34137]","[u'right', u'right', u'up']",,,"[5, 0, 1]","[u'1', 2, 6, 10]","{u'mouseover': {u'state': {u'target': [], u'time': []}, u'edge': {u'target': [], u'time': []}}, u'click': {u'state': {u'target': [u'3', u'4', u'5', u'2', u'7', u'13', u'12', u'9', u'17', u'16', u'8', u'14', u'15', u'6', u'10', u'11'], u'time': [939, 1557, 2182, 2746, 3664, 4165, 4756, 6233, 6762, 7297, 8337, 9233, 9870, 11002, 11519, 12244]}, u'edge': {u'target': [], u'time': []}}, u'mouseout': {u'state': {u'target': [], u'time': []}, u'edge': {u'target': [], u'time': []}}}",,,"[14808, 1466, 3209]",20.0,,738718,8.0,3.0,mouselab-mdp,,10
"[11228, 26699, 31116]","[u'right', u'right', u'down']",,,"[5, 0, 1]","[u'1', 2, 6, 11]","{u'mouseover': {u'state': {u'target': [], u'time': []}, u'edge': {u'target': [], u'time': []}}, u'click': {u'state': {u'target': [u'3', u'4', u'2', u'5', u'6', u'10', u'11', u'9', u'7'], u'time': [1082, 1716, 2525, 3239, 4288, 4856, 5483, 6810, 7585]}, u'edge': {u'target': [], u'time': []}}, u'mouseout': {u'state': {u'target': [], u'time': []}, u'edge': {u'target': [], u'time': []}}}",,,"[11227, 2234, 3100]",47.0,,847477,9.0,11.0,mouselab-mdp,,10
"[15367, 30449, 33284]","[u'down', u'down', u'right']",,,"[5, 0, 1]","[u'1', 5, 9, 17]","{u'mouseover': {u'state': {u'target': [], u'time': []}, u'edge': {u'target': [], u'time': []}}, u'click': {u'state': {u'target': [u'5', u'2', u'3', u'4', u'8', u'14', u'15', u'9', u'17', u'16', u'6', u'7'], u'time': [1823, 2492, 3175, 4568, 5611, 6311, 6890, 7819, 8430, 9133, 11245, 12671]}, u'edge': {u'target': [], u'time': []}}, u'mouseout': {u'state': {u'target': [], u'time': []}, u'edge': {u'target': [], u'time': []}}}",,,"[15367, 1259, 1696]",30.0,,924007,10.0,4.0,mouselab-mdp,,10
"[18089, 35460, 38529]","[u'left', u'left', u'up']",,,"[5, 0, 1]","[u'1', 4, 8, 14]","{u'mouseover': {u'state': {u'target': [], u'time': []}, u'edge': {u'target': [], u'time': []}}, u'click': {u'state': {u'target': [u'3', u'2', u'5', u'4', u'7', u'13', u'12', u'6', u'11', u'10', u'9', u'17', u'16', u'8', u'14', u'15'], u'time': [1279, 2078, 2628, 3224, 4136, 4743, 5297, 7252, 7976, 8778, 10025, 10512, 11106, 12134, 13429, 14256]}, u'edge': {u'target': [], u'time': []}}, u'mouseout': {u'state': {u'target': [], u'time': []}, u'edge': {u'target': [], u'time': []}}}",,,"[18089, 2543, 2546]",41.0,,993594,11.0,7.0,mouselab-mdp,,10
"[18421, 32788, 34508]","[u'left', u'left', u'up']",,,"[5, 0, 1]","[u'1', 4, 8, 14]","{u'mouseover': {u'state': {u'target': [], u'time': []}, u'edge': {u'target': [], u'time': []}}, u'click': {u'state': {u'target': [u'5', u'9', u'17', u'16', u'3', u'4', u'8', u'14', u'15', u'2', u'6', u'10', u'11', u'7', u'13', u'12'], u'time': [1285, 1899, 2424, 3247, 4296, 4992, 5492, 6048, 6735, 7447, 7964, 8928, 9567, 10355, 10878, 11744]}, u'edge': {u'target': [], u'time': []}}, u'mouseout': {u'state': {u'target': [], u'time': []}, u'edge': {u'target': [], u'time': []}}}",,,"[18420, 906, 1204]",38.0,,1096210,12.0,0.0,mouselab-mdp,,10
"[4695, 22159, 29400]","[u'up', u'up', u'right']",,,"[5, 0, 1]","[u'1', 3, 7, 13]","{u'mouseover': {u'state': {u'target': [], u'time': []}, u'edge': {u'target': [], u'time': []}}, u'click': {u'state': {u'target': [], u'time': []}, u'edge': {u'target': [], u'time': []}}, u'mouseout': {u'state': {u'target': [], u'time': []}, u'edge': {u'target': [], u'time': []}}}",,,"[4692, 686, 3801]",28.0,,266953,1.0,11.0,mouselab-mdp,,11
"[3716, 25053, 31890]","[u'right', u'right', u'up']",,,"[5, 0, 1]","[u'1', 2, 6, 10]","{u'mouseover': {u'state': {u'target': [], u'time': []}, u'edge': {u'target': [], u'time': []}}, u'click': {u'state': {u'target': [], u'time': []}, u'edge': {u'target': [], u'time': []}}, u'mouseout': {u'state': {u'target': [], u'time': []}, u'edge': {u'target': [], u'time': []}}}",,,"[3716, 4766, 3496]",16.0,,349399,2.0,2.0,mouselab-mdp,,11
"[4999, 23343, 32490]","[u'left', u'left', u'down']",,,"[5, 0, 1]","[u'1', 4, 8, 15]","{u'mouseover': {u'state': {u'target': [], u'time': []}, u'edge': {u'target': [], u'time': []}}, u'click': {u'state': {u'target': [], u'time': []}, u'edge': {u'target': [], u'time': []}}, u'mouseout': {u'state': {u'target': [], u'time': []}, u'edge': {u'target': [], u'time': []}}}",,,"[4998, 1798, 5764]",35.0,,465920,3.0,9.0,mouselab-mdp,,11
"[3591, 23451, 28908]","[u'down', u'down', u'left']",,,"[5, 0, 1]","[u'1', 5, 9, 16]","{u'mouseover': {u'state': {u'target': [], u'time': []}, u'edge': {u'target': [], u'time': []}}, u'click': {u'state': {u'target': [], u'time': []}, u'edge': {u'target': [], u'time': []}}, u'mouseout': {u'state': {u'target': [], u'time': []}, u'edge': {u'target': [], u'time': []}}}",,,"[3591, 3761, 1998]",5.0,,541946,4.0,1.0,mouselab-mdp,,11
"[1663, 18450, 22559]","[u'left', u'left', u'up']",,,"[5, 0, 1]","[u'1', 4, 8, 14]","{u'mouseover': {u'state': {u'target': [], u'time': []}, u'edge': {u'target': [], u'time': []}}, u'click': {u'state': {u'target': [], u'time': []}, u'edge': {u'target': [], u'time': []}}, u'mouseout': {u'state': {u'target': [], u'time': []}, u'edge': {u'target': [], u'time': []}}}",,,"[1663, 722, 776]",-4.0,,614134,5.0,10.0,mouselab-mdp,,11
"[2489, 23601, 29041]","[u'left', u'left', u'down']",,,"[5, 0, 1]","[u'1', 4, 8, 15]","{u'mouseover': {u'state': {u'target': [], u'time': []}, u'edge': {u'target': [], u'time': []}}, u'click': {u'state': {u'target': [], u'time': []}, u'edge': {u'target': [], u'time': []}}, u'mouseout': {u'state': {u'target': [], u'time': []}, u'edge': {u'target': [], u'time': []}}}",,,"[2487, 3895, 2078]",8.0,,687965,6.0,5.0,mouselab-mdp,,11
"[815, 18091, 29075]","[u'up', u'up', u'right']",,,"[5, 0, 1]","[u'1', 3, 7, 13]","{u'mouseover': {u'state': {u'target': [], u'time': []}, u'edge': {u'target': [], u'time': []}}, u'click': {u'state': {u'target': [], u'time': []}, u'edge': {u'target': [], u'time': []}}, u'mouseout': {u'state': {u'target': [], u'time': []}, u'edge': {u'target': [], u'time': []}}}",,,"[815, 1060, 7588]",-4.0,,771406,7.0,3.0,mouselab-mdp,,11
"[1368, 19100, 29665]","[u'down', u'down', u'right']",,,"[5, 0, 1]","[u'1', 5, 9, 17]","{u'mouseover': {u'state': {u'target': [], u'time': []}, u'edge': {u'target': [], u'time': []}}, u'click': {u'state': {u'target': [], u'time': []}, u'edge': {u'target': [], u'time': []}}, u'mouseout': {u'state': {u'target': [], u'time': []}, u'edge': {u'target': [], u'time': []}}}",,,"[1367, 1605, 7172]",17.0,,845092,8.0,7.0,mouselab-mdp,,11
"[9767, 28265, 38407]","[u'right', u'right', u'down']",,,"[5, 0, 1]","[u'1', 2, 6, 11]","{u'mouseover': {u'state': {u'target': [], u'time': []}, u'edge': {u'target': [], u'time': []}}, u'click': {u'state': {u'target': [], u'time': []}, u'edge': {u'target': [], u'time': []}}, u'mouseout': {u'state': {u'target': [], u'time': []}, u'edge': {u'target': [], u'time': []}}}",,,"[9767, 2104, 6498]",35.0,,923581,9.0,8.0,mouselab-mdp,,11
"[6755, 25340, 31347]","[u'up', u'up', u'left']",,,"[5, 0, 1]","[u'1', 3, 7, 12]","{u'mouseover': {u'state': {u'target': [], u'time': []}, u'edge': {u'target': [], u'time': []}}, u'click': {u'state': {u'target': [], u'time': []}, u'edge': {u'target': [], u'time': []}}, u'mouseout': {u'state': {u'target': [], u'time': []}, u'edge': {u'target': [], u'time': []}}}",,,"[6754, 1631, 2535]",5.0,,1018262,10.0,0.0,mouselab-mdp,,11
"[4093, 27032, 34750]","[u'right', u'right', u'down']",,,"[5, 0, 1]","[u'1', 2, 6, 11]","{u'mouseover': {u'state': {u'target': [], u'time': []}, u'edge': {u'target': [], u'time': []}}, u'click': {u'state': {u'target': [], u'time': []}, u'edge': {u'target': [], u'time': []}}, u'mouseout': {u'state': {u'target': [], u'time': []}, u'edge': {u'target': [], u'time': []}}}",,,"[4091, 6398, 4225]",12.0,,1113192,11.0,6.0,mouselab-mdp,,11
"[1741, 21079, 28105]","[u'up', u'up', u'right']",,,"[5, 0, 1]","[u'1', 3, 7, 13]","{u'mouseover': {u'state': {u'target': [], u'time': []}, u'edge': {u'target': [], u'time': []}}, u'click': {u'state': {u'target': [], u'time': []}, u'edge': {u'target': [], u'time': []}}, u'mouseout': {u'state': {u'target': [], u'time': []}, u'edge': {u'target': [], u'time': []}}}",,,"[1741, 2504, 3533]",32.0,,1188887,12.0,4.0,mouselab-mdp,,11
"[4057, 24366, 42390]","[u'right', u'right', u'up']",,,"[15, 0, 0]","[u'1', 2, 6, 10]","{u'mouseover': {u'state': {u'target': [], u'time': []}, u'edge': {u'target': [], u'time': []}}, u'click': {u'state': {u'target': [u'2'], u'time': [3274]}, u'edge': {u'target': [], u'time': []}}, u'mouseout': {u'state': {u'target': [], u'time': []}, u'edge': {u'target': [], u'time': []}}}",,,"[4057, 180, 16502]",1.5,,190476,1.0,6.0,mouselab-mdp,,13
"[1632, 39818, 128986]","[u'right', u'right', u'up']",,,"[0, 72, 7]","[u'1', 2, 6, 10]","{u'mouseover': {u'state': {u'target': [], u'time': []}, u'edge': {u'target': [], u'time': []}}, u'click': {u'state': {u'target': [u'6', u'11', u'10', u'4', u'3', u'5', u'9', u'17', u'16', u'7'], u'time': [6258, 9208, 12135, 15659, 18690, 20122, 21164, 23127, 24276, 26110]}, u'edge': {u'target': [], u'time': []}}, u'mouseout': {u'state': {u'target': [], u'time': []}, u'edge': {u'target': [], u'time': []}}}",,,"[1632, 33854, 12119]",-9.0,,332194,2.0,2.0,mouselab-mdp,,13
"[1656, 40069, 75630]","[u'right', u'right', u'up']",,,"[0, 0, 0]","[u'1', 2, 6, 10]","{u'mouseover': {u'state': {u'target': [], u'time': []}, u'edge': {u'target': [], u'time': []}}, u'click': {u'state': {u'target': [], u'time': []}, u'edge': {u'target': [], u'time': []}}, u'mouseout': {u'state': {u'target': [], u'time': []}, u'edge': {u'target': [], u'time': []}}}",,,"[1656, 33987, 34020]",-20.0,,414501,3.0,3.0,mouselab-mdp,,13
"[2310, 6619, 13320]","[u'up', u'up', u'right']",,,"[0, 0, 0]","[u'1', 3, 7, 13]","{u'mouseover': {u'state': {u'target': [], u'time': []}, u'edge': {u'target': [], u'time': []}}, u'click': {u'state': {u'target': [], u'time': []}, u'edge': {u'target': [], u'time': []}}, u'mouseout': {u'state': {u'target': [], u'time': []}, u'edge': {u'target': [], u'time': []}}}",,,"[2310, 9, 5203]",32.0,,469837,4.0,4.0,mouselab-mdp,,13
"[5354, 10021, 13030]","[u'up', u'up', u'right']",,,"[0, 0, 0]","[u'1', 3, 7, 13]","{u'mouseover': {u'state': {u'target': [], u'time': []}, u'edge': {u'target': [], u'time': []}}, u'click': {u'state': {u'target': [], u'time': []}, u'edge': {u'target': [], u'time': []}}, u'mouseout': {u'state': {u'target': [], u'time': []}, u'edge': {u'target': [], u'time': []}}}",,,"[5353, 349, 1442]",29.0,,521697,5.0,5.0,mouselab-mdp,,13
"[1177, 6520, 9476]","[u'up', u'up', u'right']",,,"[0, 0, 0]","[u'1', 3, 7, 13]","{u'mouseover': {u'state': {u'target': [], u'time': []}, u'edge': {u'target': [], u'time': []}}, u'click': {u'state': {u'target': [], u'time': []}, u'edge': {u'target': [], u'time': []}}, u'mouseout': {u'state': {u'target': [], u'time': []}, u'edge': {u'target': [], u'time': []}}}",,,"[1176, 1067, 1466]",27.0,,572303,6.0,7.0,mouselab-mdp,,13
"[805, 5166, 20004]","[u'up', u'up', u'left']",,,"[0, 0, 7]","[u'1', 3, 7, 12]","{u'mouseover': {u'state': {u'target': [], u'time': []}, u'edge': {u'target': [], u'time': []}}, u'click': {u'state': {u'target': [u'12'], u'time': [17234]}, u'edge': {u'target': [], u'time': []}}, u'mouseout': {u'state': {u'target': [], u'time': []}, u'edge': {u'target': [], u'time': []}}}",,,"[805, 98, 13366]",5.5,,632712,7.0,1.0,mouselab-mdp,,13
"[1022, 10870, 16476]","[u'up', u'up', u'left']",,,"[0, 0, 7]","[u'1', 3, 7, 12]","{u'mouseover': {u'state': {u'target': [], u'time': []}, u'edge': {u'target': [], u'time': []}}, u'click': {u'state': {u'target': [u'12'], u'time': [14148]}, u'edge': {u'target': [], u'time': []}}, u'mouseout': {u'state': {u'target': [], u'time': []}, u'edge': {u'target': [], u'time': []}}}",,,"[1022, 5455, 4103]",9.5,,693021,8.0,10.0,mouselab-mdp,,13
"[1084, 5402, 12773]","[u'up', u'up', u'left']",,,"[0, 0, 8]","[u'1', 3, 7, 12]","{u'mouseover': {u'state': {u'target': [], u'time': []}, u'edge': {u'target': [], u'time': []}}, u'click': {u'state': {u'target': [u'12'], u'time': [10807]}, u'edge': {u'target': [], u'time': []}}, u'mouseout': {u'state': {u'target': [], u'time': []}, u'edge': {u'target': [], u'time': []}}}",,,"[1084, 12, 5866]",17.5,,753162,9.0,11.0,mouselab-mdp,,13
"[565, 4895, 21994]","[u'up', u'up', u'left']",,,"[0, 0, 11]","[u'1', 3, 7, 12]","{u'mouseover': {u'state': {u'target': [], u'time': []}, u'edge': {u'target': [], u'time': []}}, u'click': {u'state': {u'target': [u'12'], u'time': [11375]}, u'edge': {u'target': [], u'time': []}}, u'mouseout': {u'state': {u'target': [], u'time': []}, u'edge': {u'target': [], u'time': []}}}",,,"[564, 11, 15606]",18.5,,830999,10.0,8.0,mouselab-mdp,,13
"[1763, 6914, 11962]","[u'up', u'up', u'right']",,,"[0, 0, 7]","[u'1', 3, 7, 13]","{u'mouseover': {u'state': {u'target': [], u'time': []}, u'edge': {u'target': [], u'time': []}}, u'click': {u'state': {u'target': [u'12'], u'time': [10442]}, u'edge': {u'target': [], u'time': []}}, u'mouseout': {u'state': {u'target': [], u'time': []}, u'edge': {u'target': [], u'time': []}}}",,,"[1763, 873, 3544]",10.5,,895183,11.0,0.0,mouselab-mdp,,13
"[633, 7591, 24840]","[u'up', u'up', u'left']",,,"[0, 0, 13]","[u'1', 3, 7, 12]","{u'mouseover': {u'state': {u'target': [], u'time': []}, u'edge': {u'target': [], u'time': []}}, u'click': {u'state': {u'target': [u'12'], u'time': [11949]}, u'edge': {u'target': [], u'time': []}}, u'mouseout': {u'state': {u'target': [], u'time': []}, u'edge': {u'target': [], u'time': []}}}",,,"[633, 2688, 15709]",38.5,,961932,12.0,9.0,mouselab-mdp,,13
"[9799, 20669, 28074]","[u'down', u'down', u'right']",,,"[5, 0, 1]","[u'1', 5, 9, 17]","{u'mouseover': {u'state': {u'target': [], u'time': []}, u'edge': {u'target': [], u'time': []}}, u'click': {u'state': {u'target': [u'2', u'5', u'9', u'17', u'16'], u'time': [6278, 8242, 19377, 23145, 24449]}, u'edge': {u'target': [], u'time': []}}, u'mouseout': {u'state': {u'target': [], u'time': []}, u'edge': {u'target': [], u'time': []}}}",,,"[9798, 3204, 6113]",10.95,,207491,1.0,0.0,mouselab-mdp,,15
"[19854, 30358, 38585]","[u'left', u'left', u'up']",,,"[5, 0, 1]","[u'1', 4, 8, 14]","{u'mouseover': {u'state': {u'target': [], u'time': []}, u'edge': {u'target': [], u'time': []}}, u'click': {u'state': {u'target': [u'3', u'4', u'5', u'2', u'10', u'6', u'11', u'17', u'9', u'16', u'15', u'8', u'14', u'12', u'7', u'13'], u'time': [1461, 2195, 2891, 3500, 4316, 5140, 5652, 6301, 7372, 7884, 8532, 9116, 9692, 10252, 10684, 11148]}, u'edge': {u'target': [], u'time': []}}, u'mouseout': {u'state': {u'target': [], u'time': []}, u'edge': {u'target': [], u'time': []}}}",,,"[19854, 1323, 7727]",33.84,,265723,2.0,5.0,mouselab-mdp,,15
"[17136, 26676, 34776]","[u'down', u'down', u'right']",,,"[5, 0, 1]","[u'1', 5, 9, 17]","{u'mouseover': {u'state': {u'target': [], u'time': []}, u'edge': {u'target': [], u'time': []}}, u'click': {u'state': {u'target': [u'3', u'2', u'5', u'4', u'14', u'8', u'15', u'16', u'9', u'17', u'11', u'6', u'10', u'13', u'7', u'12'], u'time': [775, 1463, 2094, 2823, 3582, 4047, 4679, 5415, 5990, 6726, 7239, 7696, 8302, 9063, 9558, 9990]}, u'edge': {u'target': [], u'time': []}}, u'mouseout': {u'state': {u'target': [], u'time': []}, u'edge': {u'target': [], u'time': []}}}",,,"[17136, 404, 7588]",41.84,,325638,3.0,4.0,mouselab-mdp,,15
"[18307, 28630, 35889]","[u'down', u'down', u'left']",,,"[5, 0, 1]","[u'1', 5, 9, 16]","{u'mouseover': {u'state': {u'target': [], u'time': []}, u'edge': {u'target': [], u'time': []}}, u'click': {u'state': {u'target': [u'4', u'3', u'2', u'5', u'17', u'9', u'16', u'8', u'14', u'15', u'12', u'7', u'13'], u'time': [4120, 4751, 5351, 5952, 6575, 7175, 8801, 9672, 10248, 11128, 11976, 13352, 13888]}, u'edge': {u'target': [], u'time': []}}, u'mouseout': {u'state': {u'target': [], u'time': []}, u'edge': {u'target': [], u'time': []}}}",,,"[18307, 677, 6617]",45.87,,387316,4.0,1.0,mouselab-mdp,,15
"[18301, 28336, 36347]","[u'down', u'down', u'right']",,,"[5, 0, 1]","[u'1', 5, 9, 17]","{u'mouseover': {u'state': {u'target': [], u'time': []}, u'edge': {u'target': [], u'time': []}}, u'click': {u'state': {u'target': [u'3', u'2', u'5', u'4', u'6', u'10', u'11', u'9', u'17', u'16', u'7', u'13', u'12', u'14', u'8', u'15'], u'time': [1600, 2256, 2888, 3543, 5040, 5760, 6607, 7767, 8231, 9055, 9975, 10503, 11255, 12736, 13567, 14047]}, u'edge': {u'target': [], u'time': []}}, u'mouseout': {u'state': {u'target': [], u'time': []}, u'edge': {u'target': [], u'time': []}}}",,,"[18301, 644, 7515]",33.84,,447042,5.0,7.0,mouselab-mdp,,15
"[19981, 31472, 41402]","[u'right', u'right', u'down']",,,"[5, 0, 1]","[u'1', 2, 6, 11]","{u'mouseover': {u'state': {u'target': [], u'time': []}, u'edge': {u'target': [], u'time': []}}, u'click': {u'state': {u'target': [u'3', u'2', u'5', u'4', u'6', u'10', u'11', u'9', u'17', u'16', u'15', u'8', u'14', u'12', u'7', u'13'], u'time': [1848, 3079, 3742, 4455, 6806, 7558, 8262, 10183, 10855, 11599, 13432, 13983, 14671, 15639, 16335, 16966]}, u'edge': {u'target': [], u'time': []}}, u'mouseout': {u'state': {u'target': [], u'time': []}, u'edge': {u'target': [], u'time': []}}}",,,"[19981, 2139, 9439]",37.84,,505490,6.0,11.0,mouselab-mdp,,15
"[16220, 26358, 35269]","[u'up', u'up', u'left']",,,"[5, 0, 1]","[u'1', 3, 7, 12]","{u'mouseover': {u'state': {u'target': [], u'time': []}, u'edge': {u'target': [], u'time': []}}, u'click': {u'state': {u'target': [u'3', u'4', u'5', u'2', u'7', u'12', u'13', u'14', u'8', u'15', u'16', u'9', u'17', u'11', u'6', u'10'], u'time': [2305, 2945, 3522, 4115, 5578, 6097, 6778, 8922, 9402, 10050, 11322, 11801, 12329, 13089, 13841, 14393]}, u'edge': {u'target': [], u'time': []}}, u'mouseout': {u'state': {u'target': [], u'time': []}, u'edge': {u'target': [], u'time': []}}}",,,"[16220, 640, 8411]",36.84,,564788,7.0,9.0,mouselab-mdp,,15
"[15690, 25574, 33593]","[u'right', u'right', u'down']",,,"[5, 0, 1]","[u'1', 2, 6, 11]","{u'mouseover': {u'state': {u'target': [], u'time': []}, u'edge': {u'target': [], u'time': []}}, u'click': {u'state': {u'target': [u'3', u'4', u'5', u'2', u'9', u'16', u'17', u'8', u'14', u'15', u'7', u'12', u'13', u'6', u'10', u'11'], u'time': [1615, 2367, 3447, 3991, 4871, 5599, 6303, 7646, 8431, 9119, 10063, 10751, 11398, 12263, 12935, 13678]}, u'edge': {u'target': [], u'time': []}}, u'mouseout': {u'state': {u'target': [], u'time': []}, u'edge': {u'target': [], u'time': []}}}",,,"[15690, 718, 7522]",37.84,,622923,8.0,6.0,mouselab-mdp,,15
"[17911, 27872, 37543]","[u'up', u'up', u'left']",,,"[5, 0, 1]","[u'1', 3, 7, 12]","{u'mouseover': {u'state': {u'target': [], u'time': []}, u'edge': {u'target': [], u'time': []}}, u'click': {u'state': {u'target': [u'4', u'3', u'2', u'5', u'9', u'16', u'17', u'8', u'15', u'14', u'12', u'7', u'13', u'10', u'6', u'11'], u'time': [2434, 3257, 3905, 4537, 6425, 7161, 7929, 9091, 9794, 10474, 12042, 13050, 13698, 14994, 15578, 16153]}, u'edge': {u'target': [], u'time': []}}, u'mouseout': {u'state': {u'target': [], u'time': []}, u'edge': {u'target': [], u'time': []}}}",,,"[17911, 685, 9153]",40.84,,681301,9.0,8.0,mouselab-mdp,,15
"[22352, 32008, 40938]","[u'right', u'right', u'up']",,,"[5, 0, 1]","[u'1', 2, 6, 10]","{u'mouseover': {u'state': {u'target': [], u'time': []}, u'edge': {u'target': [], u'time': []}}, u'click': {u'state': {u'target': [u'3', u'2', u'5', u'4', u'6', u'10', u'11', u'7', u'13', u'12', u'8', u'14', u'15', u'9', u'17', u'16'], u'time': [3712, 4327, 4959, 5710, 6871, 7606, 8414, 9607, 10286, 10998, 12214, 12861, 13590, 14485, 14990, 15662]}, u'edge': {u'target': [], u'time': []}}, u'mouseout': {u'state': {u'target': [], u'time': []}, u'edge': {u'target': [], u'time': []}}}",,,"[22352, 390, 8436]",21.84,,739849,10.0,10.0,mouselab-mdp,,15
"[19215, 32507, 44269]","[u'right', u'right', u'up']",,,"[5, 0, 1]","[u'1', 2, 6, 10]","{u'mouseover': {u'state': {u'target': [], u'time': []}, u'edge': {u'target': [], u'time': []}}, u'click': {u'state': {u'target': [u'3', u'4', u'5', u'2', u'9', u'16', u'17', u'6', u'11', u'10', u'7', u'13', u'12', u'8', u'14', u'15'], u'time': [1407, 1999, 2623, 3247, 6303, 7046, 7718, 9230, 10118, 11071, 12255, 12734, 13318, 14143, 14599, 15279]}, u'edge': {u'target': [], u'time': []}}, u'mouseout': {u'state': {u'target': [], u'time': []}, u'edge': {u'target': [], u'time': []}}}",,,"[19214, 3893, 11263]",33.84,,798124,11.0,3.0,mouselab-mdp,,15
"[16424, 27143, 37357]","[u'right', u'right', u'up']",,,"[5, 0, 1]","[u'1', 2, 6, 10]","{u'mouseover': {u'state': {u'target': [], u'time': []}, u'edge': {u'target': [], u'time': []}}, u'click': {u'state': {u'target': [u'4', u'3', u'2', u'5', u'16', u'9', u'17', u'6', u'11', u'10', u'8', u'14', u'15'], u'time': [1101, 1925, 2429, 3077, 7597, 8310, 8750, 9910, 10453, 11181, 12950, 13597, 14165]}, u'edge': {u'target': [], u'time': []}}, u'mouseout': {u'state': {u'target': [], u'time': []}, u'edge': {u'target': [], u'time': []}}}",,,"[16423, 1307, 9589]",33.87,,857228,12.0,2.0,mouselab-mdp,,15
"[8868, 27694, 29119]","[u'right', u'right', u'up']",,,"[12, 0, 0]","[u'1', 2, 6, 10]","{u'mouseover': {u'state': {u'target': [], u'time': []}, u'edge': {u'target': [], u'time': []}}, u'click': {u'state': {u'target': [u'2'], u'time': [2545]}, u'edge': {u'target': [], u'time': []}}, u'mouseout': {u'state': {u'target': [], u'time': []}, u'edge': {u'target': [], u'time': []}}}",,,"[8866, 3477, 201]",-5.5,,184385,1.0,7.0,mouselab-mdp,,17
"[4599, 7475, 9091]","[u'up', u'up', u'right']",,,"[0, 0, 0]","[u'1', 3, 7, 13]","{u'mouseover': {u'state': {u'target': [], u'time': []}, u'edge': {u'target': [], u'time': []}}, u'click': {u'state': {u'target': [], u'time': []}, u'edge': {u'target': [], u'time': []}}, u'mouseout': {u'state': {u'target': [], u'time': []}, u'edge': {u'target': [], u'time': []}}}",,,"[4597, 4, 373]",9.0,,239071,2.0,10.0,mouselab-mdp,,17
"[2477, 5343, 52627]","[u'left', u'left', u'down']",,,"[0, 0, 0]","[u'1', 4, 8, 15]","{u'mouseover': {u'state': {u'target': [], u'time': []}, u'edge': {u'target': [], u'time': []}}, u'click': {u'state': {u'target': [], u'time': []}, u'edge': {u'target': [], u'time': []}}, u'mouseout': {u'state': {u'target': [], u'time': []}, u'edge': {u'target': [], u'time': []}}}",,,"[2477, 3, 45815]",11.0,,296744,3.0,2.0,mouselab-mdp,,17
"[5757, 12150, 15924]","[u'down', u'down', u'left']",,,"[0, 0, 0]","[u'1', 5, 9, 16]","{u'mouseover': {u'state': {u'target': [], u'time': []}, u'edge': {u'target': [], u'time': []}}, u'click': {u'state': {u'target': [], u'time': []}, u'edge': {u'target': [], u'time': []}}, u'mouseout': {u'state': {u'target': [], u'time': []}, u'edge': {u'target': [], u'time': []}}}",,,"[5757, 3531, 2629]",29.0,,398278,4.0,11.0,mouselab-mdp,,17
"[4611, 7585, 11333]","[u'up', u'up', u'left']",,,"[0, 0, 0]","[u'1', 3, 7, 12]","{u'mouseover': {u'state': {u'target': [], u'time': []}, u'edge': {u'target': [], u'time': []}}, u'click': {u'state': {u'target': [], u'time': []}, u'edge': {u'target': [], u'time': []}}, u'mouseout': {u'state': {u'target': [], u'time': []}, u'edge': {u'target': [], u'time': []}}}",,,"[4611, 5, 2520]",25.0,,460120,5.0,5.0,mouselab-mdp,,17
"[2750, 6014, 8517]","[u'down', u'down', u'right']",,,"[0, 0, 0]","[u'1', 5, 9, 17]","{u'mouseover': {u'state': {u'target': [], u'time': []}, u'edge': {u'target': [], u'time': []}}, u'click': {u'state': {u'target': [], u'time': []}, u'edge': {u'target': [], u'time': []}}, u'mouseout': {u'state': {u'target': [], u'time': []}, u'edge': {u'target': [], u'time': []}}}",,,"[2750, 3, 1241]",32.0,,524927,6.0,4.0,mouselab-mdp,,17
"[5732, 9197, 12415]","[u'up', u'up', u'left']",,,"[0, 0, 0]","[u'1', 3, 7, 12]","{u'mouseover': {u'state': {u'target': [], u'time': []}, u'edge': {u'target': [], u'time': []}}, u'click': {u'state': {u'target': [], u'time': []}, u'edge': {u'target': [], u'time': []}}, u'mouseout': {u'state': {u'target': [], u'time': []}, u'edge': {u'target': [], u'time': []}}}",,,"[5730, 3, 2079]",17.0,,683131,7.0,6.0,mouselab-mdp,,17
"[2326, 5286, 7569]","[u'left', u'left', u'up']",,,"[0, 0, 0]","[u'1', 4, 8, 14]","{u'mouseover': {u'state': {u'target': [], u'time': []}, u'edge': {u'target': [], u'time': []}}, u'click': {u'state': {u'target': [], u'time': []}, u'edge': {u'target': [], u'time': []}}, u'mouseout': {u'state': {u'target': [], u'time': []}, u'edge': {u'target': [], u'time': []}}}",,,"[2326, 2, 1004]",-9.0,,786592,8.0,3.0,mouselab-mdp,,17
"[3012, 6108, 8874]","[u'right', u'right', u'up']",,,"[0, 0, 0]","[u'1', 2, 6, 10]","{u'mouseover': {u'state': {u'target': [], u'time': []}, u'edge': {u'target': [], u'time': []}}, u'click': {u'state': {u'target': [], u'time': []}, u'edge': {u'target': [], u'time': []}}, u'mouseout': {u'state': {u'target': [], u'time': []}, u'edge': {u'target': [], u'time': []}}}",,,"[3012, 4, 1247]",22.0,,848241,9.0,8.0,mouselab-mdp,,17
"[1353, 5500, 9353]","[u'right', u'right', u'down']",,,"[0, 0, 0]","[u'1', 2, 6, 11]","{u'mouseover': {u'state': {u'target': [], u'time': []}, u'edge': {u'target': [], u'time': []}}, u'click': {u'state': {u'target': [], u'time': []}, u'edge': {u'target': [], u'time': []}}, u'mouseout': {u'state': {u'target': [], u'time': []}, u'edge': {u'target': [], u'time': []}}}",,,"[1353, 929, 2516]",9.0,,899016,10.0,1.0,mouselab-mdp,,17
"[1345, 5195, 7659]","[u'left', u'left', u'down']",,,"[0, 0, 0]","[u'1', 4, 8, 15]","{u'mouseover': {u'state': {u'target': [], u'time': []}, u'edge': {u'target': [], u'time': []}}, u'click': {u'state': {u'target': [], u'time': []}, u'edge': {u'target': [], u'time': []}}, u'mouseout': {u'state': {u'target': [], u'time': []}, u'edge': {u'target': [], u'time': []}}}",,,"[1345, 615, 1155]",-2.0,,949293,11.0,0.0,mouselab-mdp,,17
"[1479, 4734, 16136]","[u'up', u'up', u'right']",,,"[0, 0, 16]","[u'1', 3, 7, 13]","{u'mouseover': {u'state': {u'target': [], u'time': []}, u'edge': {u'target': [], u'time': []}}, u'click': {u'state': {u'target': [u'12', u'13'], u'time': [10469, 13719]}, u'edge': {u'target': [], u'time': []}}, u'mouseout': {u'state': {u'target': [], u'time': []}, u'edge': {u'target': [], u'time': []}}}",,,"[1479, 5, 10057]",39.0,,1023210,12.0,9.0,mouselab-mdp,,17
"[33127, 45132, 48729]","[u'right', u'right', u'up']",,,"[5, 0, 1]","[u'1', 2, 6, 10]","{u'mouseover': {u'state': {u'target': [], u'time': []}, u'edge': {u'target': [], u'time': []}}, u'click': {u'state': {u'target': [u'2', u'6', u'4', u'5', u'3', u'9'], u'time': [5303, 16293, 26041, 27755, 29145, 30990]}, u'edge': {u'target': [], u'time': []}}, u'mouseout': {u'state': {u'target': [], u'time': []}, u'edge': {u'target': [], u'time': []}}}",,,"[33126, 4464, 2719]",28.0,,193315,1.0,2.0,mouselab-mdp,,18
"[21075, 29278, 32730]","[u'left', u'left', u'down']",,,"[5, 0, 1]","[u'1', 4, 8, 15]","{u'mouseover': {u'state': {u'target': [], u'time': []}, u'edge': {u'target': [], u'time': []}}, u'click': {u'state': {u'target': [u'4', u'8', u'2', u'5', u'9', u'3', u'7'], u'time': [2377, 4752, 13820, 15912, 17192, 18711, 19752]}, u'edge': {u'target': [], u'time': []}}, u'mouseout': {u'state': {u'target': [], u'time': []}, u'edge': {u'target': [], u'time': []}}}",,,"[21075, 584, 2633]",29.0,,249198,2.0,0.0,mouselab-mdp,,18
"[11017, 20030, 31256]","[u'left', u'left', u'down']",,,"[5, 0, 1]","[u'1', 4, 8, 15]","{u'mouseover': {u'state': {u'target': [], u'time': []}, u'edge': {u'target': [], u'time': []}}, u'click': {u'state': {u'target': [u'5', u'3', u'4', u'2', u'8', u'7'], u'time': [1645, 2780, 4045, 5941, 7244, 9253]}, u'edge': {u'target': [], u'time': []}}, u'mouseout': {u'state': {u'target': [], u'time': []}, u'edge': {u'target': [], u'time': []}}}",,,"[11017, 1552, 10412]",35.0,,305529,3.0,9.0,mouselab-mdp,,18
"[10676, 19020, 28807]","[u'right', u'right', u'up']",,,"[5, 0, 1]","[u'1', 2, 6, 10]","{u'mouseover': {u'state': {u'target': [], u'time': []}, u'edge': {u'target': [], u'time': []}}, u'click': {u'state': {u'target': [u'4', u'8', u'2', u'6', u'3', u'5', u'7'], u'time': [1131, 2314, 3402, 4282, 5610, 7185, 9274]}, u'edge': {u'target': [], u'time': []}}, u'mouseout': {u'state': {u'target': [], u'time': []}, u'edge': {u'target': [], u'time': []}}}",,,"[10676, 742, 8958]",30.0,,361203,4.0,5.0,mouselab-mdp,,18
"[15679, 24076, 31520]","[u'left', u'left', u'down']",,,"[5, 0, 1]","[u'1', 4, 8, 15]","{u'mouseover': {u'state': {u'target': [], u'time': []}, u'edge': {u'target': [], u'time': []}}, u'click': {u'state': {u'target': [u'5', u'9', u'3', u'4', u'2', u'8', u'7', u'15', u'14'], u'time': [828, 2058, 3274, 4282, 4955, 6472, 9699, 10962, 13251]}, u'edge': {u'target': [], u'time': []}}, u'mouseout': {u'state': {u'target': [], u'time': []}, u'edge': {u'target': [], u'time': []}}}",,,"[15679, 614, 6657]",41.0,,417197,5.0,8.0,mouselab-mdp,,18
"[16444, 24939, 30760]","[u'up', u'up', u'left']",,,"[5, 0, 1]","[u'1', 3, 7, 12]","{u'mouseover': {u'state': {u'target': [], u'time': []}, u'edge': {u'target': [], u'time': []}}, u'click': {u'state': {u'target': [u'5', u'9', u'3', u'4', u'2', u'7', u'12', u'13', u'16', u'17'], u'time': [911, 1959, 3679, 4390, 5246, 6150, 11430, 12678, 13758, 14469]}, u'edge': {u'target': [], u'time': []}}, u'mouseout': {u'state': {u'target': [], u'time': []}, u'edge': {u'target': [], u'time': []}}}",,,"[16444, 666, 5123]",34.0,,473426,6.0,1.0,mouselab-mdp,,18
"[26986, 35774, 41317]","[u'left', u'left', u'up']",,,"[5, 0, 1]","[u'1', 4, 8, 14]","{u'mouseover': {u'state': {u'target': [], u'time': []}, u'edge': {u'target': [], u'time': []}}, u'click': {u'state': {u'target': [u'5', u'3', u'7', u'4', u'2', u'6', u'12', u'10', u'11', u'15', u'8', u'14'], u'time': [857, 1727, 3321, 4160, 5080, 5959, 7536, 14729, 15585, 16936, 19240, 24849]}, u'edge': {u'target': [], u'time': []}}, u'mouseout': {u'state': {u'target': [], u'time': []}, u'edge': {u'target': [], u'time': []}}}",,,"[26986, 592, 4822]",45.0,,531249,7.0,7.0,mouselab-mdp,,18
"[15406, 23932, 28893]","[u'right', u'right', u'down']",,,"[5, 0, 1]","[u'1', 2, 6, 11]","{u'mouseover': {u'state': {u'target': [], u'time': []}, u'edge': {u'target': [], u'time': []}}, u'click': {u'state': {u'target': [u'5', u'3', u'7', u'4', u'2', u'13', u'12', u'6', u'10', u'11'], u'time': [712, 1511, 2663, 3638, 4206, 5214, 6005, 7391, 9111, 9703]}, u'edge': {u'target': [], u'time': []}}, u'mouseout': {u'state': {u'target': [], u'time': []}, u'edge': {u'target': [], u'time': []}}}",,,"[15406, 841, 4266]",46.0,,587820,8.0,6.0,mouselab-mdp,,18
"[15555, 23915, 28443]","[u'right', u'right', u'up']",,,"[5, 0, 1]","[u'1', 2, 6, 10]","{u'mouseover': {u'state': {u'target': [], u'time': []}, u'edge': {u'target': [], u'time': []}}, u'click': {u'state': {u'target': [u'5', u'4', u'3', u'2', u'7', u'8', u'14', u'15', u'13', u'12', u'9', u'6', u'11', u'10'], u'time': [998, 1733, 2478, 3037, 4381, 5389, 6636, 7308, 8005, 8949, 10365, 11085, 12021, 12838]}, u'edge': {u'target': [], u'time': []}}, u'mouseout': {u'state': {u'target': [], u'time': []}, u'edge': {u'target': [], u'time': []}}}",,,"[15555, 528, 3897]",22.0,,644532,9.0,3.0,mouselab-mdp,,18
"[18029, 26377, 31396]","[u'down', u'down', u'right']",,,"[5, 0, 1]","[u'1', 5, 9, 17]","{u'mouseover': {u'state': {u'target': [], u'time': []}, u'edge': {u'target': [], u'time': []}}, u'click': {u'state': {u'target': [u'5', u'3', u'2', u'4', u'8', u'15', u'14', u'9', u'17', u'16', u'7', u'13', u'12', u'6'], u'time': [941, 1780, 2357, 3003, 3925, 4485, 5708, 7020, 7788, 8413, 13013, 13908, 14516, 16797]}, u'edge': {u'target': [], u'time': []}}, u'mouseout': {u'state': {u'target': [], u'time': []}, u'edge': {u'target': [], u'time': []}}}",,,"[18029, 425, 4361]",28.0,,701285,10.0,4.0,mouselab-mdp,,18
"[15734, 24191, 29603]","[u'up', u'up', u'left']",,,"[5, 0, 1]","[u'1', 3, 7, 12]","{u'mouseover': {u'state': {u'target': [], u'time': []}, u'edge': {u'target': [], u'time': []}}, u'click': {u'state': {u'target': [u'5', u'3', u'7', u'12', u'13', u'4', u'2', u'8', u'15'], u'time': [1564, 2371, 3500, 5267, 5956, 7195, 8067, 8875, 9556]}, u'edge': {u'target': [], u'time': []}}, u'mouseout': {u'state': {u'target': [], u'time': []}, u'edge': {u'target': [], u'time': []}}}",,,"[15734, 612, 4656]",31.0,,757957,11.0,10.0,mouselab-mdp,,18
"[9049, 16969, 22186]","[u'down', u'down', u'left']",,,"[5, 0, 1]","[u'1', 5, 9, 16]","{u'mouseover': {u'state': {u'target': [], u'time': []}, u'edge': {u'target': [], u'time': []}}, u'click': {u'state': {u'target': [u'5', u'9', u'16', u'17'], u'time': [1260, 2227, 3459, 6212]}, u'edge': {u'target': [], u'time': []}}, u'mouseout': {u'state': {u'target': [], u'time': []}, u'edge': {u'target': [], u'time': []}}}",,,"[9049, 756, 4427]",49.0,,814198,12.0,11.0,mouselab-mdp,,18
"[40438, 52412, 54238]","[u'down', u'down', u'right']",,,"[5, 0, 1]","[u'1', 5, 9, 17]","{u'mouseover': {u'state': {u'target': [], u'time': []}, u'edge': {u'target': [], u'time': []}}, u'click': {u'state': {u'target': [u'17', u'9', u'16', u'5', u'11', u'6', u'10', u'2', u'4', u'8', u'15', u'14', u'3', u'12', u'7', u'13'], u'time': [5125, 6145, 7171, 8144, 9209, 10261, 11319, 12238, 13613, 14350, 15033, 16081, 16881, 17777, 18562, 19431]}, u'edge': {u'target': [], u'time': []}}, u'mouseout': {u'state': {u'target': [], u'time': []}, u'edge': {u'target': [], u'time': []}}}",,,"[40438, 2810, 1293]",33.84,,227883,1.0,7.0,mouselab-mdp,,19
"[28931, 38476, 42726]","[u'right', u'right', u'up']",,,"[5, 0, 1]","[u'1', 2, 6, 10]","{u'mouseover': {u'state': {u'target': [], u'time': []}, u'edge': {u'target': [], u'time': []}}, u'click': {u'state': {u'target': [u'9', u'16', u'5', u'17', u'11', u'6', u'10', u'2', u'4', u'8', u'15', u'14', u'3', u'12', u'7', u'13'], u'time': [1226, 2238, 3485, 4220, 5289, 6041, 6819, 7493, 8505, 9173, 9712, 10569, 11580, 12281, 14130, 14930]}, u'edge': {u'target': [], u'time': []}}, u'mouseout': {u'state': {u'target': [], u'time': []}, u'edge': {u'target': [], u'time': []}}}",,,"[28931, 470, 3725]",21.84,,288057,2.0,10.0,mouselab-mdp,,19
"[22078, 31883, 36121]","[u'left', u'left', u'up']",,,"[5, 0, 1]","[u'1', 4, 8, 14]","{u'mouseover': {u'state': {u'target': [], u'time': []}, u'edge': {u'target': [], u'time': []}}, u'click': {u'state': {u'target': [u'16', u'9', u'17', u'5', u'2', u'11', u'6', u'10', u'4', u'15', u'8', u'14', u'3', u'12', u'7', u'13'], u'time': [2633, 3291, 3934, 4687, 5535, 6272, 6844, 7599, 8712, 9378, 9944, 10768, 11780, 12495, 13090, 13695]}, u'edge': {u'target': [], u'time': []}}, u'mouseout': {u'state': {u'target': [], u'time': []}, u'edge': {u'target': [], u'time': []}}}",,,"[22078, 757, 3706]",39.84,,347890,3.0,0.0,mouselab-mdp,,19
"[30770, 40377, 42969]","[u'down', u'down', u'right']",,,"[5, 0, 1]","[u'1', 5, 9, 17]","{u'mouseover': {u'state': {u'target': [], u'time': []}, u'edge': {u'target': [], u'time': []}}, u'click': {u'state': {u'target': [u'9', u'17', u'16', u'5', u'15', u'8', u'14', u'4', u'2', u'6', u'11', u'10', u'3', u'7', u'13', u'12'], u'time': [1706, 2325, 3092, 4606, 5463, 6067, 6780, 7597, 8442, 9140, 9825, 10552, 11666, 12632, 13472, 14295]}, u'edge': {u'target': [], u'time': []}}, u'mouseout': {u'state': {u'target': [], u'time': []}, u'edge': {u'target': [], u'time': []}}}",,,"[30770, 493, 2052]",41.84,,406152,4.0,4.0,mouselab-mdp,,19
"[25269, 34839, 37158]","[u'right', u'right', u'down']",,,"[5, 0, 1]","[u'1', 2, 6, 11]","{u'mouseover': {u'state': {u'target': [], u'time': []}, u'edge': {u'target': [], u'time': []}}, u'click': {u'state': {u'target': [u'16', u'9', u'17', u'5', u'11', u'6', u'10', u'2', u'4', u'15', u'8', u'14', u'3', u'12', u'7', u'13'], u'time': [1773, 2503, 3172, 4027, 4887, 5469, 6017, 7180, 8073, 8731, 9219, 9807, 10922, 11579, 12129, 12804]}, u'edge': {u'target': [], u'time': []}}, u'mouseout': {u'state': {u'target': [], u'time': []}, u'edge': {u'target': [], u'time': []}}}",,,"[25269, 542, 1790]",37.84,,464393,5.0,6.0,mouselab-mdp,,19
"[23197, 32516, 35716]","[u'right', u'right', u'down']",,,"[5, 0, 1]","[u'1', 2, 6, 11]","{u'mouseover': {u'state': {u'target': [], u'time': []}, u'edge': {u'target': [], u'time': []}}, u'click': {u'state': {u'target': [u'9', u'17', u'16', u'5', u'15', u'8', u'4', u'14', u'3', u'12', u'7', u'13', u'10', u'6', u'11', u'2'], u'time': [1292, 1941, 2836, 3504, 4185, 4687, 5299, 6091, 6868, 7480, 7973, 8523, 9213, 9809, 10491, 11247]}, u'edge': {u'target': [], u'time': []}}, u'mouseout': {u'state': {u'target': [], u'time': []}, u'edge': {u'target': [], u'time': []}}}",,,"[23197, 499, 2660]",37.84,,520596,6.0,11.0,mouselab-mdp,,19
"[36355, 46005, 48505]","[u'right', u'right', u'up']",,,"[5, 0, 1]","[u'1', 2, 6, 10]","{u'mouseover': {u'state': {u'target': [], u'time': []}, u'edge': {u'target': [], u'time': []}}, u'click': {u'state': {u'target': [u'17', u'9', u'16', u'5', u'11', u'6', u'10', u'2', u'4', u'15', u'8', u'14', u'3', u'7', u'13', u'12'], u'time': [1842, 2471, 3209, 3914, 4865, 5412, 6228, 7288, 8268, 8872, 9500, 10136, 11329, 12002, 12638, 13650]}, u'edge': {u'target': [], u'time': []}}, u'mouseout': {u'state': {u'target': [], u'time': []}, u'edge': {u'target': [], u'time': []}}}",,,"[36355, 591, 1969]",33.84,,579079,7.0,3.0,mouselab-mdp,,19
"[31349, 40835, 43343]","[u'up', u'up', u'left']",,,"[5, 0, 1]","[u'1', 3, 7, 12]","{u'mouseover': {u'state': {u'target': [], u'time': []}, u'edge': {u'target': [], u'time': []}}, u'click': {u'state': {u'target': [u'16', u'9', u'17', u'5', u'11', u'6', u'2', u'10', u'15', u'8', u'14', u'4', u'3', u'12', u'7', u'13'], u'time': [1347, 1982, 2768, 3482, 4336, 4895, 5474, 6250, 7311, 7869, 8534, 9170, 9946, 10818, 11619, 12325]}, u'edge': {u'target': [], u'time': []}}, u'mouseout': {u'state': {u'target': [], u'time': []}, u'edge': {u'target': [], u'time': []}}}",,,"[31349, 524, 1973]",40.84,,637133,8.0,8.0,mouselab-mdp,,19
"[31649, 41102, 43175]","[u'left', u'left', u'up']",,,"[5, 0, 1]","[u'1', 4, 8, 14]","{u'mouseover': {u'state': {u'target': [], u'time': []}, u'edge': {u'target': [], u'time': []}}, u'click': {u'state': {u'target': [u'17', u'9', u'16', u'5', u'11', u'6', u'2', u'10', u'4', u'15', u'8', u'14', u'3', u'12', u'7', u'13'], u'time': [6670, 7649, 8419, 9305, 10405, 11369, 11997, 12814, 13707, 14233, 14658, 15215, 16085, 16665, 18071, 18729]}, u'edge': {u'target': [], u'time': []}}, u'mouseout': {u'state': {u'target': [], u'time': []}, u'edge': {u'target': [], u'time': []}}}",,,"[31649, 509, 1539]",33.84,,694805,9.0,5.0,mouselab-mdp,,19
"[31434, 41166, 43357]","[u'right', u'right', u'up']",,,"[5, 0, 1]","[u'1', 2, 6, 10]","{u'mouseover': {u'state': {u'target': [], u'time': []}, u'edge': {u'target': [], u'time': []}}, u'click': {u'state': {u'target': [u'16', u'9', u'17', u'11', u'5', u'15', u'8', u'4', u'2', u'6', u'10', u'3', u'14', u'12', u'7', u'13'], u'time': [1785, 2429, 3095, 3865, 4549, 5331, 5951, 6815, 7435, 8055, 8697, 9427, 10141, 11099, 11663, 12237]}, u'edge': {u'target': [], u'time': []}}, u'mouseout': {u'state': {u'target': [], u'time': []}, u'edge': {u'target': [], u'time': []}}}",,,"[31434, 447, 1649]",33.84,,751964,10.0,2.0,mouselab-mdp,,19
"[20724, 30247, 33630]","[u'down', u'down', u'left']",,,"[5, 0, 1]","[u'1', 5, 9, 16]","{u'mouseover': {u'state': {u'target': [], u'time': []}, u'edge': {u'target': [], u'time': []}}, u'click': {u'state': {u'target': [u'16', u'9', u'17', u'5', u'11', u'6', u'10', u'2', u'4', u'15', u'8', u'14', u'3', u'7', u'13', u'12'], u'time': [1507, 2033, 2591, 3297, 3963, 4897, 5643, 6435, 7329, 8129, 8672, 9251, 10067, 10845, 11457, 12241]}, u'edge': {u'target': [], u'time': []}}, u'mouseout': {u'state': {u'target': [], u'time': []}, u'edge': {u'target': [], u'time': []}}}",,,"[20724, 384, 2842]",45.84,,811607,11.0,1.0,mouselab-mdp,,19
"[40097, 49621, 51239]","[u'up', u'up', u'left']",,,"[5, 0, 1]","[u'1', 3, 7, 12]","{u'mouseover': {u'state': {u'target': [], u'time': []}, u'edge': {u'target': [], u'time': []}}, u'click': {u'state': {u'target': [u'16', u'9', u'17', u'5', u'11', u'6', u'10', u'2', u'4', u'8', u'15', u'14', u'3', u'12', u'7', u'13'], u'time': [1157, 1611, 2151, 2811, 3580, 4294, 5139, 5979, 6717, 7297, 7856, 8608, 9417, 10288, 10985, 11668]}, u'edge': {u'target': [], u'time': []}}, u'mouseout': {u'state': {u'target': [], u'time': []}, u'edge': {u'target': [], u'time': []}}}",,,"[40096, 416, 1074]",36.84,,873236,12.0,9.0,mouselab-mdp,,19
"[57030, 263710, 442293]","[u'up', u'up', u'right']",,,"[141, 108, 0]","[u'1', 3, 7, 13]","{u'mouseover': {u'state': {u'target': [], u'time': []}, u'edge': {u'target': [], u'time': []}}, u'click': {u'state': {u'target': [u'3', u'7', u'13', u'2', u'5', u'9', u'16', u'17', u'6', u'10', u'11', u'4', u'8', u'14', u'15', u'12'], u'time': [2272, 4679, 7070, 9375, 11284, 12723, 14140, 15886, 17806, 19338, 21070, 25773, 27549, 28855, 29960, 31488]}, u'edge': {u'target': [], u'time': []}}, u'mouseout': {u'state': {u'target': [], u'time': []}, u'edge': {u'target': [], u'time': []}}}",,,"[57030, 60653, 70014]",-3.0,,710571,1.0,8.0,mouselab-mdp,,20
"[8541, 19740, 24503]","[u'up', u'up', u'left']",,,"[2, 0, 2]","[u'1', 3, 7, 12]","{u'mouseover': {u'state': {u'target': [], u'time': []}, u'edge': {u'target': [], u'time': []}}, u'click': {u'state': {u'target': [u'2', u'3', u'7', u'12', u'13'], u'time': [4225, 5955, 15551, 22443, 23425]}, u'edge': {u'target': [], u'time': []}}, u'mouseout': {u'state': {u'target': [], u'time': []}, u'edge': {u'target': [], u'time': []}}}",,,"[8541, 6659, 3614]",35.0,,286323,1.0,10.0,mouselab-mdp,,21
"[6147, 17519, 21918]","[u'down', u'down', u'right']",,,"[4, 1, 0]","[u'1', 5, 9, 17]","{u'mouseover': {u'state': {u'target': [], u'time': []}, u'edge': {u'target': [], u'time': []}}, u'click': {u'state': {u'target': [u'4', u'3', u'2', u'5', u'9', u'16', u'17'], u'time': [2054, 3587, 4316, 4967, 13925, 14925, 15895]}, u'edge': {u'target': [], u'time': []}}, u'mouseout': {u'state': {u'target': [], u'time': []}, u'edge': {u'target': [], u'time': []}}}",,,"[6147, 4355, 1724]",-6.0,,342827,2.0,2.0,mouselab-mdp,,21
"[17315, 20994, 24725]","[u'left', u'left', u'down']",,,"[0, 0, 0]","[u'1', 4, 8, 15]","{u'mouseover': {u'state': {u'target': [], u'time': []}, u'edge': {u'target': [], u'time': []}}, u'click': {u'state': {u'target': [u'4', u'3', u'2', u'5', u'9', u'8', u'7', u'14', u'15'], u'time': [1820, 2453, 3151, 3789, 6082, 9524, 11765, 23259, 23917]}, u'edge': {u'target': [], u'time': []}}, u'mouseout': {u'state': {u'target': [], u'time': []}, u'edge': {u'target': [], u'time': []}}}",,,"[17315, 4, 2752]",41.0,,394000,3.0,8.0,mouselab-mdp,,21
"[14814, 18300, 32959]","[u'down', u'down', u'right']",,,"[0, 0, 0]","[u'1', 5, 9, 17]","{u'mouseover': {u'state': {u'target': [], u'time': []}, u'edge': {u'target': [], u'time': []}}, u'click': {u'state': {u'target': [u'3', u'2', u'5', u'4', u'8', u'9', u'16', u'17'], u'time': [1803, 2410, 3028, 3767, 6290, 6997, 9763, 12276]}, u'edge': {u'target': [], u'time': []}}, u'mouseout': {u'state': {u'target': [], u'time': []}, u'edge': {u'target': [], u'time': []}}}",,,"[14814, 4, 13899]",34.0,,443729,4.0,4.0,mouselab-mdp,,21
"[21066, 24718, 27987]","[u'left', u'left', u'down']",,,"[0, 0, 0]","[u'1', 4, 8, 15]","{u'mouseover': {u'state': {u'target': [], u'time': []}, u'edge': {u'target': [], u'time': []}}, u'click': {u'state': {u'target': [u'4', u'3', u'2', u'5', u'7', u'8', u'14', u'15', u'12', u'13'], u'time': [1633, 2322, 3003, 3734, 5462, 6239, 8044, 8733, 19214, 19975]}, u'edge': {u'target': [], u'time': []}}, u'mouseout': {u'state': {u'target': [], u'time': []}, u'edge': {u'target': [], u'time': []}}}",,,"[21066, 4, 2554]",31.0,,493299,5.0,9.0,mouselab-mdp,,21
"[12122, 15322, 18695]","[u'right', u'right', u'up']",,,"[0, 0, 0]","[u'1', 2, 6, 10]","{u'mouseover': {u'state': {u'target': [], u'time': []}, u'edge': {u'target': [], u'time': []}}, u'click': {u'state': {u'target': [u'3', u'4', u'5', u'2', u'8', u'6', u'10', u'11'], u'time': [1320, 1930, 2636, 3235, 4936, 5854, 16912, 17680]}, u'edge': {u'target': [], u'time': []}}, u'mouseout': {u'state': {u'target': [], u'time': []}, u'edge': {u'target': [], u'time': []}}}",,,"[12122, 4, 2501]",29.0,,542442,6.0,5.0,mouselab-mdp,,21
"[9737, 13247, 15130]","[u'left', u'left', u'up']",,,"[0, 0, 0]","[u'1', 4, 8, 14]","{u'mouseover': {u'state': {u'target': [], u'time': []}, u'edge': {u'target': [], u'time': []}}, u'click': {u'state': {u'target': [u'4', u'3', u'2', u'5', u'9', u'8', u'14'], u'time': [1351, 1953, 2689, 3282, 4938, 5660, 8399]}, u'edge': {u'target': [], u'time': []}}, u'mouseout': {u'state': {u'target': [], u'time': []}, u'edge': {u'target': [], u'time': []}}}",,,"[9737, 3, 927]",47.0,,591935,7.0,0.0,mouselab-mdp,,21
"[15001, 18761, 21271]","[u'right', u'right', u'down']",,,"[0, 0, 0]","[u'1', 2, 6, 11]","{u'mouseover': {u'state': {u'target': [], u'time': []}, u'edge': {u'target': [], u'time': []}}, u'click': {u'state': {u'target': [u'3', u'4', u'5', u'2', u'7', u'13', u'12', u'6', u'10', u'11'], u'time': [3055, 3601, 4209, 4832, 5850, 6758, 7396, 12471, 13360, 13964]}, u'edge': {u'target': [], u'time': []}}, u'mouseout': {u'state': {u'target': [], u'time': []}, u'edge': {u'target': [], u'time': []}}}",,,"[15001, 5, 1814]",46.0,,644333,8.0,6.0,mouselab-mdp,,21
