action_times,actions,button_pressed,correct,delays,path,queries,questions,responses,rt,score,stimulus,time_elapsed,trial_index,trial_i,trial_type,view_history,pid
"[15080, 88373, 92405]","[u'right', u'right', u'up']",,,"[64, 0, 11]","[u'1', 2, 6, 10]","{u'mouseover': {u'state': {u'target': [], u'time': []}, u'edge': {u'target': [], u'time': []}}, u'click': {u'state': {u'target': [u'2', u'4', u'5', u'3', u'10'], u'time': [5391, 8283, 9483, 11003, 91009]}, u'edge': {u'target': [], u'time': []}}, u'mouseout': {u'state': {u'target': [], u'time': []}, u'edge': {u'target': [], u'time': []}}}",,,"[15078, 3340, 2645]",0.5,,641180,1.0,1.0,mouselab-mdp,,1
"[12965, 70586, 72178]","[u'up', u'up', u'right']",,,"[48, 0, 0]","[u'1', 3, 7, 13]","{u'mouseover': {u'state': {u'target': [], u'time': []}, u'edge': {u'target': [], u'time': []}}, u'click': {u'state': {u'target': [u'2', u'4', u'5', u'3'], u'time': [3378, 7020, 9796, 11370]}, u'edge': {u'target': [], u'time': []}}, u'mouseout': {u'state': {u'target': [], u'time': []}, u'edge': {u'target': [], u'time': []}}}",,,"[12965, 4066, 160]",22.0,,777015,2.0,4.0,mouselab-mdp,,1
"[6792, 42375, 46351]","[u'right', u'right', u'down']",,,"[24, 0, 0]","[u'1', 2, 6, 11]","{u'mouseover': {u'state': {u'target': [], u'time': []}, u'edge': {u'target': [], u'time': []}}, u'click': {u'state': {u'target': [u'3', u'4'], u'time': [3477, 5215]}, u'edge': {u'target': [], u'time': []}}, u'mouseout': {u'state': {u'target': [], u'time': []}, u'edge': {u'target': [], u'time': []}}}",,,"[6792, 6726, 2584]",-4.0,,888064,3.0,0.0,mouselab-mdp,,1
"[55000, 73302, 79701]","[u'right', u'right', u'down']",,,"[12, 0, 7]","[u'1', 2, 6, 11]","{u'mouseover': {u'state': {u'target': [], u'time': []}, u'edge': {u'target': [], u'time': []}}, u'click': {u'state': {u'target': [u'2', u'11'], u'time': [53760, 76199]}, u'edge': {u'target': [], u'time': []}}, u'mouseout': {u'state': {u'target': [], u'time': []}, u'edge': {u'target': [], u'time': []}}}",,,"[55000, 1745, 4960]",30.0,,983274,4.0,8.0,mouselab-mdp,,1
"[5399, 36853, 52882]","[u'left', u'left', u'down']",,,"[24, 0, 0]","[u'1', 4, 8, 15]","{u'mouseover': {u'state': {u'target': [], u'time': []}, u'edge': {u'target': [], u'time': []}}, u'click': {u'state': {u'target': [u'3', u'4'], u'time': [2307, 4219]}, u'edge': {u'target': [], u'time': []}}, u'mouseout': {u'state': {u'target': [], u'time': []}, u'edge': {u'target': [], u'time': []}}}",,,"[5399, 2567, 14626]",-5.0,,1081542,5.0,3.0,mouselab-mdp,,1
"[2678, 12900, 24549]","[u'up', u'up', u'left']",,,"[0, 0, 0]","[u'1', 3, 7, 12]","{u'mouseover': {u'state': {u'target': [], u'time': []}, u'edge': {u'target': [], u'time': []}}, u'click': {u'state': {u'target': [], u'time': []}, u'edge': {u'target': [], u'time': []}}, u'mouseout': {u'state': {u'target': [], u'time': []}, u'edge': {u'target': [], u'time': []}}}",,,"[2678, 6346, 10233]",25.0,,1139118,6.0,5.0,mouselab-mdp,,1
"[3894, 22072, 27268]","[u'up', u'up', u'right']",,,"[12, 0, 0]","[u'1', 3, 7, 13]","{u'mouseover': {u'state': {u'target': [], u'time': []}, u'edge': {u'target': [], u'time': []}}, u'click': {u'state': {u'target': [u'5'], u'time': [1800]}, u'edge': {u'target': [], u'time': []}}, u'mouseout': {u'state': {u'target': [], u'time': []}, u'edge': {u'target': [], u'time': []}}}",,,"[3894, 1914, 3725]",41.5,,1293152,7.0,9.0,mouselab-mdp,,1
"[491, 5509, 8438]","[u'right', u'right', u'down']",,,"[0, 0, 0]","[u'1', 2, 6, 11]","{u'mouseover': {u'state': {u'target': [], u'time': []}, u'edge': {u'target': [], u'time': []}}, u'click': {u'state': {u'target': [], u'time': []}, u'edge': {u'target': [], u'time': []}}, u'mouseout': {u'state': {u'target': [], u'time': []}, u'edge': {u'target': [], u'time': []}}}",,,"[491, 1248, 1600]",2.0,,1364452,8.0,11.0,mouselab-mdp,,1
"[2756, 62108, 115010]","[u'down', u'down', u'right']",,,"[12, 0, 0]","[u'1', 5, 9, 17]","{u'mouseover': {u'state': {u'target': [], u'time': []}, u'edge': {u'target': [], u'time': []}}, u'click': {u'state': {u'target': [u'5'], u'time': [1625]}, u'edge': {u'target': [], u'time': []}}, u'mouseout': {u'state': {u'target': [], u'time': []}, u'edge': {u'target': [], u'time': []}}}",,,"[2756, 43044, 51481]",26.5,,1485585,9.0,10.0,mouselab-mdp,,1
"[6017, 11693, 16310]","[u'left', u'left', u'up']",,,"[0, 0, 0]","[u'1', 4, 8, 14]","{u'mouseover': {u'state': {u'target': [], u'time': []}, u'edge': {u'target': [], u'time': []}}, u'click': {u'state': {u'target': [], u'time': []}, u'edge': {u'target': [], u'time': []}}, u'mouseout': {u'state': {u'target': [], u'time': []}, u'edge': {u'target': [], u'time': []}}}",,,"[6017, 1738, 3277]",9.0,,1578109,10.0,7.0,mouselab-mdp,,1
"[6153, 18957, 30986]","[u'down', u'down', u'right']",,,"[0, 0, 0]","[u'1', 5, 9, 17]","{u'mouseover': {u'state': {u'target': [], u'time': []}, u'edge': {u'target': [], u'time': []}}, u'click': {u'state': {u'target': [], u'time': []}, u'edge': {u'target': [], u'time': []}}, u'mouseout': {u'state': {u'target': [], u'time': []}, u'edge': {u'target': [], u'time': []}}}",,,"[6153, 8873, 10592]",5.0,,1634579,11.0,2.0,mouselab-mdp,,1
"[743, 5857, 12245]","[u'up', u'up', u'left']",,,"[0, 0, 0]","[u'1', 3, 7, 12]","{u'mouseover': {u'state': {u'target': [], u'time': []}, u'edge': {u'target': [], u'time': []}}, u'click': {u'state': {u'target': [], u'time': []}, u'edge': {u'target': [], u'time': []}}, u'mouseout': {u'state': {u'target': [], u'time': []}, u'edge': {u'target': [], u'time': []}}}",,,"[743, 1252, 5015]",17.0,,1694093,12.0,6.0,mouselab-mdp,,1
"[3385, 35481, 40639]","[u'right', u'right', u'up']",,,"[14, 1, 0]","[u'1', 2, 6, 10]","{u'mouseover': {u'state': {u'target': [], u'time': []}, u'edge': {u'target': [], u'time': []}}, u'click': {u'state': {u'target': [u'6', u'10', u'11'], u'time': [24877, 27518, 29051]}, u'edge': {u'target': [], u'time': []}}, u'mouseout': {u'state': {u'target': [], u'time': []}, u'edge': {u'target': [], u'time': []}}}",,,"[3384, 14554, 1863]",10.0,,409336,1.0,10.0,mouselab-mdp,,2
"[9673, 30727, 35853]","[u'right', u'right', u'down']",,,"[3, 1, 0]","[u'1', 2, 6, 11]","{u'mouseover': {u'state': {u'target': [], u'time': []}, u'edge': {u'target': [], u'time': []}}, u'click': {u'state': {u'target': [u'3', u'4', u'5', u'2', u'6', u'10', u'11'], u'time': [3736, 5037, 6244, 7482, 22499, 25138, 27677]}, u'edge': {u'target': [], u'time': []}}, u'mouseout': {u'state': {u'target': [], u'time': []}, u'edge': {u'target': [], u'time': []}}}",,,"[9672, 12844, 1386]",49.0,,467712,2.0,11.0,mouselab-mdp,,2
"[29919, 37377, 42975]","[u'left', u'left', u'up']",,,"[0, 0, 0]","[u'1', 4, 8, 14]","{u'mouseover': {u'state': {u'target': [], u'time': []}, u'edge': {u'target': [], u'time': []}}, u'click': {u'state': {u'target': [u'3', u'4', u'5', u'2', u'7', u'9', u'6', u'8', u'14', u'15'], u'time': [3198, 4577, 5757, 7075, 10253, 11569, 17615, 19340, 41009, 42112]}, u'edge': {u'target': [], u'time': []}}, u'mouseout': {u'state': {u'target': [], u'time': []}, u'edge': {u'target': [], u'time': []}}}",,,"[29919, 6, 4179]",47.0,,533168,3.0,7.0,mouselab-mdp,,2
"[31465, 39922, 42936]","[u'left', u'left', u'up']",,,"[0, 0, 0]","[u'1', 4, 8, 14]","{u'mouseover': {u'state': {u'target': [], u'time': []}, u'edge': {u'target': [], u'time': []}}, u'click': {u'state': {u'target': [u'3', u'4', u'5', u'2', u'8', u'6', u'9', u'7', u'14', u'15', u'11', u'10'], u'time': [2440, 3334, 4244, 5336, 7432, 9424, 12143, 14069, 24343, 25101, 26529, 27819]}, u'edge': {u'target': [], u'time': []}}, u'mouseout': {u'state': {u'target': [], u'time': []}, u'edge': {u'target': [], u'time': []}}}",,,"[31465, 6, 2041]",42.0,,594571,4.0,0.0,mouselab-mdp,,2
"[27597, 35487, 38126]","[u'left', u'left', u'down']",,,"[0, 0, 0]","[u'1', 4, 8, 15]","{u'mouseover': {u'state': {u'target': [], u'time': []}, u'edge': {u'target': [], u'time': []}}, u'click': {u'state': {u'target': [u'3', u'4', u'5', u'2', u'8', u'6', u'14', u'15', u'11', u'10', u'7', u'9'], u'time': [3471, 4155, 5019, 6140, 8448, 9576, 12567, 13928, 15777, 17184, 19371, 26114]}, u'edge': {u'target': [], u'time': []}}, u'mouseout': {u'state': {u'target': [], u'time': []}, u'edge': {u'target': [], u'time': []}}}",,,"[27597, 6, 1677]",29.0,,648161,5.0,9.0,mouselab-mdp,,2
"[26519, 34840, 37152]","[u'left', u'left', u'down']",,,"[0, 0, 0]","[u'1', 4, 8, 15]","{u'mouseover': {u'state': {u'target': [], u'time': []}, u'edge': {u'target': [], u'time': []}}, u'click': {u'state': {u'target': [u'3', u'4', u'5', u'2', u'8', u'6', u'9', u'7', u'14', u'15', u'11', u'10'], u'time': [2097, 2839, 3675, 4965, 6605, 8151, 9453, 11639, 15649, 17025, 18498, 19655]}, u'edge': {u'target': [], u'time': []}}, u'mouseout': {u'state': {u'target': [], u'time': []}, u'edge': {u'target': [], u'time': []}}}",,,"[26519, 8, 1374]",38.0,,702396,6.0,8.0,mouselab-mdp,,2
"[20115, 30653, 33180]","[u'up', u'up', u'left']",,,"[1, 0, 0]","[u'1', 3, 7, 12]","{u'mouseover': {u'state': {u'target': [], u'time': []}, u'edge': {u'target': [], u'time': []}}, u'click': {u'state': {u'target': [u'3', u'4', u'5', u'2', u'7', u'12', u'13', u'8', u'15', u'14', u'6', u'10', u'11'], u'time': [2271, 2974, 3914, 4951, 8118, 9706, 10575, 12446, 13333, 14191, 17246, 18068, 18863]}, u'edge': {u'target': [], u'time': []}}, u'mouseout': {u'state': {u'target': [], u'time': []}, u'edge': {u'target': [], u'time': []}}}",,,"[20115, 1553, 1751]",31.0,,807840,7.0,1.0,mouselab-mdp,,2
"[20855, 28950, 31373]","[u'right', u'right', u'down']",,,"[0, 0, 0]","[u'1', 2, 6, 11]","{u'mouseover': {u'state': {u'target': [], u'time': []}, u'edge': {u'target': [], u'time': []}}, u'click': {u'state': {u'target': [u'3', u'4', u'5', u'2', u'7', u'9', u'8', u'6', u'10', u'11'], u'time': [2119, 2902, 3899, 4637, 10057, 11248, 13880, 15322, 17860, 19363]}, u'edge': {u'target': [], u'time': []}}, u'mouseout': {u'state': {u'target': [], u'time': []}, u'edge': {u'target': [], u'time': []}}}",,,"[20855, 5, 1189]",46.0,,862345,8.0,6.0,mouselab-mdp,,2
"[19634, 27302, 29144]","[u'right', u'right', u'up']",,,"[0, 0, 0]","[u'1', 2, 6, 10]","{u'mouseover': {u'state': {u'target': [], u'time': []}, u'edge': {u'target': [], u'time': []}}, u'click': {u'state': {u'target': [u'3', u'4', u'5', u'2', u'9', u'16', u'17', u'6', u'10', u'11', u'7'], u'time': [2768, 3866, 4791, 5867, 8390, 9554, 10753, 13042, 15020, 15883, 17401]}, u'edge': {u'target': [], u'time': []}}, u'mouseout': {u'state': {u'target': [], u'time': []}, u'edge': {u'target': [], u'time': []}}}",,,"[19634, 6, 851]",23.0,,916507,9.0,2.0,mouselab-mdp,,2
"[35512, 49013, 50801]","[u'up', u'up', u'left']",,,"[5, 0, 0]","[u'1', 3, 7, 12]","{u'mouseover': {u'state': {u'target': [], u'time': []}, u'edge': {u'target': [], u'time': []}}, u'click': {u'state': {u'target': [u'3', u'4', u'5', u'2', u'8', u'7', u'6', u'14', u'15', u'11', u'10', u'12', u'13'], u'time': [2264, 3266, 4144, 5230, 7721, 11252, 13491, 16477, 17479, 19035, 20026, 29209, 30198]}, u'edge': {u'target': [], u'time': []}}, u'mouseout': {u'state': {u'target': [], u'time': []}, u'edge': {u'target': [], u'time': []}}}",,,"[35512, 878, 1028]",13.0,,976735,10.0,4.0,mouselab-mdp,,2
"[18467, 27724, 33220]","[u'right', u'right', u'up']",,,"[1, 0, 0]","[u'1', 2, 6, 10]","{u'mouseover': {u'state': {u'target': [], u'time': []}, u'edge': {u'target': [], u'time': []}}, u'click': {u'state': {u'target': [u'3', u'4', u'5', u'2', u'7', u'12', u'13', u'6', u'8', u'9', u'10', u'11'], u'time': [2448, 3125, 3819, 4833, 6395, 7416, 8376, 9987, 13299, 14440, 30536, 32440]}, u'edge': {u'target': [], u'time': []}}, u'mouseout': {u'state': {u'target': [], u'time': []}, u'edge': {u'target': [], u'time': []}}}",,,"[18467, 830, 4303]",24.0,,1034661,11.0,3.0,mouselab-mdp,,2
"[33465, 42797, 44760]","[u'right', u'right', u'up']",,,"[0, 0, 0]","[u'1', 2, 6, 10]","{u'mouseover': {u'state': {u'target': [], u'time': []}, u'edge': {u'target': [], u'time': []}}, u'click': {u'state': {u'target': [u'3', u'4', u'5', u'2', u'6', u'8', u'9', u'7', u'10', u'11', u'12', u'13', u'16', u'17', u'14', u'15'], u'time': [2105, 2892, 3768, 5630, 8379, 9521, 12021, 13498, 18634, 19457, 22777, 23614, 26367, 27405, 30501, 31323]}, u'edge': {u'target': [], u'time': []}}, u'mouseout': {u'state': {u'target': [], u'time': []}, u'edge': {u'target': [], u'time': []}}}",,,"[33465, 6, 1443]",21.0,,1093061,12.0,5.0,mouselab-mdp,,2
"[19902, 79911, 94672]","[u'up', u'up', u'right']",,,"[46, 7, 0]","[u'1', 3, 7, 13]","{u'mouseover': {u'state': {u'target': [], u'time': []}, u'edge': {u'target': [], u'time': []}}, u'click': {u'state': {u'target': [u'2', u'10', u'3', u'7', u'13'], u'time': [5763, 8993, 15319, 16840, 76944]}, u'edge': {u'target': [], u'time': []}}, u'mouseout': {u'state': {u'target': [], u'time': []}, u'edge': {u'target': [], u'time': []}}}",,,"[19902, 10146, 6182]",16.5,,354050,1.0,5.0,mouselab-mdp,,3
"[8653, 35077, 44581]","[u'right', u'right', u'down']",,,"[21, 0, 0]","[u'1', 2, 6, 11]","{u'mouseover': {u'state': {u'target': [], u'time': []}, u'edge': {u'target': [], u'time': []}}, u'click': {u'state': {u'target': [u'2', u'6', u'10', u'11'], u'time': [4125, 6813, 40565, 42653]}, u'edge': {u'target': [], u'time': []}}, u'mouseout': {u'state': {u'target': [], u'time': []}, u'edge': {u'target': [], u'time': []}}}",,,"[8653, 2157, 8433]",25.0,,425507,2.0,8.0,mouselab-mdp,,3
"[6478, 29059, 44316]","[u'left', u'left', u'down']",,,"[12, 7, 0]","[u'1', 4, 8, 15]","{u'mouseover': {u'state': {u'target': [], u'time': []}, u'edge': {u'target': [], u'time': []}}, u'click': {u'state': {u'target': [u'4', u'8'], u'time': [3556, 25083]}, u'edge': {u'target': [], u'time': []}}, u'mouseout': {u'state': {u'target': [], u'time': []}, u'edge': {u'target': [], u'time': []}}}",,,"[6478, 7656, 6803]",-5.0,,495642,3.0,3.0,mouselab-mdp,,3
"[2808, 6288, 10537]","[u'down', u'down', u'right']",,,"[0, 0, 0]","[u'1', 5, 9, 17]","{u'mouseover': {u'state': {u'target': [], u'time': []}, u'edge': {u'target': [], u'time': []}}, u'click': {u'state': {u'target': [], u'time': []}, u'edge': {u'target': [], u'time': []}}, u'mouseout': {u'state': {u'target': [], u'time': []}, u'edge': {u'target': [], u'time': []}}}",,,"[2808, 977, 3193]",5.0,,544747,4.0,2.0,mouselab-mdp,,3
"[1443, 5507, 10739]","[u'down', u'down', u'right']",,,"[0, 0, 0]","[u'1', 5, 9, 17]","{u'mouseover': {u'state': {u'target': [], u'time': []}, u'edge': {u'target': [], u'time': []}}, u'click': {u'state': {u'target': [], u'time': []}, u'edge': {u'target': [], u'time': []}}, u'mouseout': {u'state': {u'target': [], u'time': []}, u'edge': {u'target': [], u'time': []}}}",,,"[1443, 1565, 4170]",32.0,,593754,5.0,4.0,mouselab-mdp,,3
"[2960, 6159, 9065]","[u'left', u'left', u'down']",,,"[0, 0, 0]","[u'1', 4, 8, 15]","{u'mouseover': {u'state': {u'target': [], u'time': []}, u'edge': {u'target': [], u'time': []}}, u'click': {u'state': {u'target': [], u'time': []}, u'edge': {u'target': [], u'time': []}}, u'mouseout': {u'state': {u'target': [], u'time': []}, u'edge': {u'target': [], u'time': []}}}",,,"[2960, 728, 1863]",21.0,,642026,6.0,7.0,mouselab-mdp,,3
"[1246, 4886, 7350]","[u'up', u'up', u'right']",,,"[0, 0, 0]","[u'1', 3, 7, 13]","{u'mouseover': {u'state': {u'target': [], u'time': []}, u'edge': {u'target': [], u'time': []}}, u'click': {u'state': {u'target': [], u'time': []}, u'edge': {u'target': [], u'time': []}}, u'mouseout': {u'state': {u'target': [], u'time': []}, u'edge': {u'target': [], u'time': []}}}",,,"[1246, 1172, 1425]",18.0,,690923,7.0,6.0,mouselab-mdp,,3
"[1855, 4663, 7583]","[u'left', u'left', u'up']",,,"[0, 0, 0]","[u'1', 4, 8, 14]","{u'mouseover': {u'state': {u'target': [], u'time': []}, u'edge': {u'target': [], u'time': []}}, u'click': {u'state': {u'target': [], u'time': []}, u'edge': {u'target': [], u'time': []}}, u'mouseout': {u'state': {u'target': [], u'time': []}, u'edge': {u'target': [], u'time': []}}}",,,"[1855, 318, 1872]",-4.0,,739611,8.0,10.0,mouselab-mdp,,3
"[7786, 40506, 43993]","[u'right', u'right', u'up']",,,"[27, 0, 0]","[u'1', 2, 6, 10]","{u'mouseover': {u'state': {u'target': [], u'time': []}, u'edge': {u'target': [], u'time': []}}, u'click': {u'state': {u'target': [u'3', u'2'], u'time': [1500, 5298]}, u'edge': {u'target': [], u'time': []}}, u'mouseout': {u'state': {u'target': [], u'time': []}, u'edge': {u'target': [], u'time': []}}}",,,"[7786, 2565, 2419]",8.0,,816370,9.0,1.0,mouselab-mdp,,3
"[6762, 22347, 28306]","[u'up', u'up', u'left']",,,"[12, 0, 11]","[u'1', 3, 7, 12]","{u'mouseover': {u'state': {u'target': [], u'time': []}, u'edge': {u'target': [], u'time': []}}, u'click': {u'state': {u'target': [u'3', u'13'], u'time': [4450, 26658]}, u'edge': {u'target': [], u'time': []}}, u'mouseout': {u'state': {u'target': [], u'time': []}, u'edge': {u'target': [], u'time': []}}}",,,"[6762, 639, 4871]",36.0,,891139,10.0,9.0,mouselab-mdp,,3
"[1051, 3570, 9491]","[u'up', u'up', u'left']",,,"[0, 0, 8]","[u'1', 3, 7, 12]","{u'mouseover': {u'state': {u'target': [], u'time': []}, u'edge': {u'target': [], u'time': []}}, u'click': {u'state': {u'target': [u'12'], u'time': [7826]}, u'edge': {u'target': [], u'time': []}}, u'mouseout': {u'state': {u'target': [], u'time': []}, u'edge': {u'target': [], u'time': []}}}",,,"[1050, 27, 4864]",17.5,,949114,11.0,11.0,mouselab-mdp,,3
"[2291, 5482, 10475]","[u'down', u'down', u'right']",,,"[0, 0, 11]","[u'1', 5, 9, 17]","{u'mouseover': {u'state': {u'target': [], u'time': []}, u'edge': {u'target': [], u'time': []}}, u'click': {u'state': {u'target': [u'17'], u'time': [9194]}, u'edge': {u'target': [], u'time': []}}, u'mouseout': {u'state': {u'target': [], u'time': []}, u'edge': {u'target': [], u'time': []}}}",,,"[2291, 613, 3898]",7.5,,1009651,12.0,0.0,mouselab-mdp,,3
"[4632, 45642, 49816]","[u'right', u'right', u'up']",,,"[14, 0, 8]","[u'1', 2, 6, 10]","{u'mouseover': {u'state': {u'target': [], u'time': []}, u'edge': {u'target': [], u'time': []}}, u'click': {u'state': {u'target': [], u'time': []}, u'edge': {u'target': [], u'time': []}}, u'mouseout': {u'state': {u'target': [], u'time': []}, u'edge': {u'target': [], u'time': []}}}",,,"[4630, 24268, 3039]",13.0,,378608,1.0,10.0,mouselab-mdp,,4
"[61528, 70991, 74398]","[u'right', u'right', u'down']",,,"[5, 0, 4]","[u'1', 2, 6, 11]","{u'mouseover': {u'state': {u'target': [], u'time': []}, u'edge': {u'target': [], u'time': []}}, u'click': {u'state': {u'target': [u'6', u'11', u'4', u'8', u'15', u'14', u'2', u'5'], u'time': [7248, 14965, 27901, 30464, 35362, 37280, 39172, 42216]}, u'edge': {u'target': [], u'time': []}}, u'mouseout': {u'state': {u'target': [], u'time': []}, u'edge': {u'target': [], u'time': []}}}",,,"[61527, 1338, 2642]",31.92,,306545,1.0,2.0,mouselab-mdp,,5
"[7294, 36455, 38858]","[u'right', u'right', u'down']",,,"[16, 0, 0]","[u'1', 2, 6, 11]","{u'mouseover': {u'state': {u'target': [], u'time': []}, u'edge': {u'target': [], u'time': []}}, u'click': {u'state': {u'target': [u'2', u'6', u'10', u'11'], u'time': [5064, 27228, 29916, 34179]}, u'edge': {u'target': [], u'time': []}}, u'mouseout': {u'state': {u'target': [], u'time': []}, u'edge': {u'target': [], u'time': []}}}",,,"[7294, 11186, 882]",37.96,,374432,2.0,6.0,mouselab-mdp,,5
"[17812, 23433, 29092]","[u'up', u'up', u'left']",,,"[2, 0, 3]","[u'1', 3, 7, 12]","{u'mouseover': {u'state': {u'target': [], u'time': []}, u'edge': {u'target': [], u'time': []}}, u'click': {u'state': {u'target': [u'3', u'7', u'12'], u'time': [2134, 4578, 6118]}, u'edge': {u'target': [], u'time': []}}, u'mouseout': {u'state': {u'target': [], u'time': []}, u'edge': {u'target': [], u'time': []}}}",,,"[17812, 1170, 4787]",40.97,,435819,3.0,8.0,mouselab-mdp,,5
"[30411, 35720, 38469]","[u'down', u'down', u'left']",,,"[1, 0, 2]","[u'1', 5, 9, 16]","{u'mouseover': {u'state': {u'target': [], u'time': []}, u'edge': {u'target': [], u'time': []}}, u'click': {u'state': {u'target': [u'3', u'7', u'13', u'12', u'4', u'8', u'15', u'2', u'6', u'11', u'5', u'9', u'16'], u'time': [1287, 3425, 5360, 7525, 10284, 12065, 13521, 16168, 17315, 18401, 21204, 23548, 25299]}, u'edge': {u'target': [], u'time': []}}, u'mouseout': {u'state': {u'target': [], u'time': []}, u'edge': {u'target': [], u'time': []}}}",,,"[30411, 655, 2011]",33.87,,492279,4.0,7.0,mouselab-mdp,,5
"[13945, 19662, 22583]","[u'right', u'right', u'down']",,,"[3, 0, 0]","[u'1', 2, 6, 11]","{u'mouseover': {u'state': {u'target': [], u'time': []}, u'edge': {u'target': [], u'time': []}}, u'click': {u'state': {u'target': [u'2', u'6', u'10', u'11'], u'time': [2658, 4273, 5589, 7854]}, u'edge': {u'target': [], u'time': []}}, u'mouseout': {u'state': {u'target': [], u'time': []}, u'edge': {u'target': [], u'time': []}}}",,,"[13945, 410, 2143]",37.96,,545714,5.0,11.0,mouselab-mdp,,5
"[8546, 17351, 20125]","[u'left', u'left', u'down']",,,"[5, 0, 18]","[u'1', 4, 8, 15]","{u'mouseover': {u'state': {u'target': [], u'time': []}, u'edge': {u'target': [], u'time': []}}, u'click': {u'state': {u'target': [u'4'], u'time': [3663]}, u'edge': {u'target': [], u'time': []}}, u'mouseout': {u'state': {u'target': [], u'time': []}, u'edge': {u'target': [], u'time': []}}}",,,"[8545, 1868, 1929]",8.99,,619970,6.0,4.0,mouselab-mdp,,5
"[18200, 40851, 42331]","[u'right', u'right', u'up']",,,"[4, 0, 0]","[u'1', 2, 6, 10]","{u'mouseover': {u'state': {u'target': [], u'time': []}, u'edge': {u'target': [], u'time': []}}, u'click': {u'state': {u'target': [u'3', u'7', u'13', u'12', u'2', u'6', u'11', u'10'], u'time': [3731, 5075, 6687, 8707, 11900, 13028, 14120, 15785]}, u'edge': {u'target': [], u'time': []}}, u'mouseout': {u'state': {u'target': [], u'time': []}, u'edge': {u'target': [], u'time': []}}}",,,"[18200, 15961, 779]",33.92,,676079,7.0,3.0,mouselab-mdp,,5
"[25351, 44607, 46482]","[u'left', u'left', u'up']",,,"[15, 0, 0]","[u'1', 4, 8, 14]","{u'mouseover': {u'state': {u'target': [], u'time': []}, u'edge': {u'target': [], u'time': []}}, u'click': {u'state': {u'target': [u'2', u'10', u'6', u'11', u'5', u'9', u'17', u'16', u'4', u'8', u'15', u'14'], u'time': [1505, 3087, 7139, 8276, 11740, 13252, 14389, 15853, 17548, 20127, 21194, 22719]}, u'edge': {u'target': [], u'time': []}}, u'mouseout': {u'state': {u'target': [], u'time': []}, u'edge': {u'target': [], u'time': []}}}",,,"[25349, 1427, 1277]",18.88,,747421,8.0,10.0,mouselab-mdp,,5
"[7563, 24324, 30386]","[u'right', u'right', u'down']",,,"[14, 0, 18]","[u'1', 2, 6, 11]","{u'mouseover': {u'state': {u'target': [], u'time': []}, u'edge': {u'target': [], u'time': []}}, u'click': {u'state': {u'target': [u'2', u'6'], u'time': [2614, 3981]}, u'edge': {u'target': [], u'time': []}}, u'mouseout': {u'state': {u'target': [], u'time': []}, u'edge': {u'target': [], u'time': []}}}",,,"[7563, 679, 5212]",16.98,,830478,9.0,9.0,mouselab-mdp,,5
"[8256, 22088, 50207]","[u'down', u'down', u'right']",,,"[7, 0, 0]","[u'1', 5, 9, 17]","{u'mouseover': {u'state': {u'target': [], u'time': []}, u'edge': {u'target': [], u'time': []}}, u'click': {u'state': {u'target': [u'5', u'9', u'17', u'16', u'2', u'6'], u'time': [4067, 20285, 34681, 36762, 40314, 42400]}, u'edge': {u'target': [], u'time': []}}, u'mouseout': {u'state': {u'target': [], u'time': []}, u'edge': {u'target': [], u'time': []}}}",,,"[8256, 4866, 26996]",10.94,,886361,10.0,0.0,mouselab-mdp,,5
"[7680, 17833, 70930]","[u'right', u'right', u'up']",,,"[7, 0, 17]","[u'1', 2, 6, 10]","{u'mouseover': {u'state': {u'target': [], u'time': []}, u'edge': {u'target': [], u'time': []}}, u'click': {u'state': {u'target': [u'6', u'10'], u'time': [3588, 68891]}, u'edge': {u'target': [], u'time': []}}, u'mouseout': {u'state': {u'target': [], u'time': []}, u'edge': {u'target': [], u'time': []}}}",,,"[7680, 1182, 52232]",6.98,,982369,11.0,5.0,mouselab-mdp,,5
"[11304, 29404, 30885]","[u'left', u'left', u'down']",,,"[14, 0, 0]","[u'1', 4, 8, 15]","{u'mouseover': {u'state': {u'target': [], u'time': []}, u'edge': {u'target': [], u'time': []}}, u'click': {u'state': {u'target': [u'4', u'8', u'14', u'15'], u'time': [4557, 6151, 7585, 9008]}, u'edge': {u'target': [], u'time': []}}, u'mouseout': {u'state': {u'target': [], u'time': []}, u'edge': {u'target': [], u'time': []}}}",,,"[11303, 1814, 707]",14.96,,1050041,12.0,1.0,mouselab-mdp,,5
"[10016, 20739, 22706]","[u'down', u'down', u'left']",,,"[5, 0, 1]","[u'1', 5, 9, 16]","{u'mouseover': {u'state': {u'target': [], u'time': []}, u'edge': {u'target': [], u'time': []}}, u'click': {u'state': {u'target': [u'12', u'8', u'4', u'9', u'16'], u'time': [1418, 4050, 5521, 6598, 8177]}, u'edge': {u'target': [], u'time': []}}, u'mouseout': {u'state': {u'target': [], u'time': []}, u'edge': {u'target': [], u'time': []}}}",,,"[10016, 750, 840]",33.95,,177633,1.0,7.0,mouselab-mdp,,6
"[7720, 21061, 22884]","[u'left', u'left', u'down']",,,"[5, 0, 1]","[u'1', 4, 8, 15]","{u'mouseover': {u'state': {u'target': [], u'time': []}, u'edge': {u'target': [], u'time': []}}, u'click': {u'state': {u'target': [u'13', u'11', u'16', u'8', u'4', u'15'], u'time': [1233, 2597, 3927, 5089, 6895, 18661]}, u'edge': {u'target': [], u'time': []}}, u'mouseout': {u'state': {u'target': [], u'time': []}, u'edge': {u'target': [], u'time': []}}}",,,"[7719, 3187, 9]",39.94,,247857,2.0,0.0,mouselab-mdp,,6
"[12685, 27795, 28832]","[u'left', u'left', u'up']",,,"[5, 0, 1]","[u'1', 4, 8, 14]","{u'mouseover': {u'state': {u'target': [], u'time': []}, u'edge': {u'target': [], u'time': []}}, u'click': {u'state': {u'target': [u'12', u'16', u'9', u'11', u'6', u'2', u'10', u'14', u'8', u'4'], u'time': [1278, 2485, 3299, 4569, 5507, 6731, 7550, 9928, 10920, 11633]}, u'edge': {u'target': [], u'time': []}}, u'mouseout': {u'state': {u'target': [], u'time': []}, u'edge': {u'target': [], u'time': []}}}",,,"[12685, 3792, 32]",33.9,,320000,3.0,5.0,mouselab-mdp,,6
"[8539, 20503, 21632]","[u'down', u'down', u'left']",,,"[5, 0, 1]","[u'1', 5, 9, 16]","{u'mouseover': {u'state': {u'target': [], u'time': []}, u'edge': {u'target': [], u'time': []}}, u'click': {u'state': {u'target': [u'7', u'13', u'12', u'9', u'16', u'5'], u'time': [2371, 3253, 4508, 6306, 7017, 7604]}, u'edge': {u'target': [], u'time': []}}, u'mouseout': {u'state': {u'target': [], u'time': []}, u'edge': {u'target': [], u'time': []}}}",,,"[8539, 1840, 5]",45.94,,387944,4.0,1.0,mouselab-mdp,,6
"[15219, 27079, 28675]","[u'up', u'up', u'left']",,,"[5, 0, 1]","[u'1', 3, 7, 12]","{u'mouseover': {u'state': {u'target': [], u'time': []}, u'edge': {u'target': [], u'time': []}}, u'click': {u'state': {u'target': [u'2', u'10', u'11', u'5', u'9', u'16', u'17', u'4', u'8', u'14', u'15', u'7', u'12', u'3', u'13'], u'time': [2623, 3589, 4494, 5395, 6098, 6677, 7429, 8228, 8924, 9575, 10334, 11645, 12388, 13304, 14121]}, u'edge': {u'target': [], u'time': []}}, u'mouseout': {u'state': {u'target': [], u'time': []}, u'edge': {u'target': [], u'time': []}}}",,,"[15219, 574, 935]",40.85,,454573,5.0,8.0,mouselab-mdp,,6
"[4511, 14315, 24027]","[u'up', u'up', u'left']",,,"[5, 0, 1]","[u'1', 3, 7, 12]","{u'mouseover': {u'state': {u'target': [], u'time': []}, u'edge': {u'target': [], u'time': []}}, u'click': {u'state': {u'target': [u'12', u'7', u'3'], u'time': [956, 2389, 3047]}, u'edge': {u'target': [], u'time': []}}, u'mouseout': {u'state': {u'target': [], u'time': []}, u'edge': {u'target': [], u'time': []}}}",,,"[4511, 728, 8562]",36.97,,588848,6.0,9.0,mouselab-mdp,,6
"[18873, 35823, 45626]","[u'right', u'right', u'up']",,,"[5, 0, 1]","[u'1', 2, 6, 10]","{u'mouseover': {u'state': {u'target': [], u'time': []}, u'edge': {u'target': [], u'time': []}}, u'click': {u'state': {u'target': [u'7', u'3', u'4', u'8', u'15', u'14', u'2', u'10', u'6'], u'time': [11761, 12424, 13842, 14453, 14971, 15748, 16616, 17429, 17947]}, u'edge': {u'target': [], u'time': []}}, u'mouseout': {u'state': {u'target': [], u'time': []}, u'edge': {u'target': [], u'time': []}}}",,,"[18873, 6430, 8815]",33.91,,654585,7.0,2.0,mouselab-mdp,,6
"[9832, 20474, 25015]","[u'down', u'down', u'right']",,,"[5, 0, 1]","[u'1', 5, 9, 17]","{u'mouseover': {u'state': {u'target': [], u'time': []}, u'edge': {u'target': [], u'time': []}}, u'click': {u'state': {u'target': [u'7', u'3', u'4', u'8', u'14', u'15', u'9', u'16', u'17'], u'time': [1060, 2500, 3470, 4212, 4950, 5747, 6972, 7521, 8305]}, u'edge': {u'target': [], u'time': []}}, u'mouseout': {u'state': {u'target': [], u'time': []}, u'edge': {u'target': [], u'time': []}}}",,,"[9832, 473, 3674]",41.91,,712041,8.0,4.0,mouselab-mdp,,6
"[3220, 14867, 22352]","[u'right', u'right', u'down']",,,"[5, 0, 1]","[u'1', 2, 6, 11]","{u'mouseover': {u'state': {u'target': [], u'time': []}, u'edge': {u'target': [], u'time': []}}, u'click': {u'state': {u'target': [u'6', u'10', u'11'], u'time': [12646, 13264, 14050]}, u'edge': {u'target': [], u'time': []}}, u'mouseout': {u'state': {u'target': [], u'time': []}, u'edge': {u'target': [], u'time': []}}}",,,"[3220, 3516, 5578]",37.97,,770385,9.0,11.0,mouselab-mdp,,6
"[43, 11469, 16598]","[u'right', u'right', u'up']",,,"[5, 0, 1]","[u'1', 2, 6, 10]","{u'mouseover': {u'state': {u'target': [], u'time': []}, u'edge': {u'target': [], u'time': []}}, u'click': {u'state': {u'target': [u'6', u'11', u'10'], u'time': [8373, 9124, 10394]}, u'edge': {u'target': [], u'time': []}}, u'mouseout': {u'state': {u'target': [], u'time': []}, u'edge': {u'target': [], u'time': []}}}",,,"[43, 3417, 3273]",21.97,,845083,10.0,10.0,mouselab-mdp,,6
"[10463, 22610, 27695]","[u'right', u'right', u'down']",,,"[5, 0, 1]","[u'1', 2, 6, 11]","{u'mouseover': {u'state': {u'target': [], u'time': []}, u'edge': {u'target': [], u'time': []}}, u'click': {u'state': {u'target': [u'7', u'3', u'4', u'15', u'14', u'8', u'16', u'9', u'17', u'11', u'6', u'2'], u'time': [1236, 1810, 2658, 4084, 4711, 5812, 6572, 7082, 7495, 8408, 9090, 9676]}, u'edge': {u'target': [], u'time': []}}, u'mouseout': {u'state': {u'target': [], u'time': []}, u'edge': {u'target': [], u'time': []}}}",,,"[10463, 992, 4146]",37.88,,908443,11.0,6.0,mouselab-mdp,,6
"[4795, 14873, 16435]","[u'right', u'right', u'up']",,,"[5, 0, 1]","[u'1', 2, 6, 10]","{u'mouseover': {u'state': {u'target': [], u'time': []}, u'edge': {u'target': [], u'time': []}}, u'click': {u'state': {u'target': [u'10'], u'time': [2750]}, u'edge': {u'target': [], u'time': []}}, u'mouseout': {u'state': {u'target': [], u'time': []}, u'edge': {u'target': [], u'time': []}}}",,,"[4795, 1494, 467]",33.99,,976594,12.0,3.0,mouselab-mdp,,6
"[8973, 20867, 29066]","[u'up', u'up', u'right']",,,"[5, 0, 1]","[u'1', 3, 7, 13]","{u'mouseover': {u'state': {u'target': [], u'time': []}, u'edge': {u'target': [], u'time': []}}, u'click': {u'state': {u'target': [u'3', u'13'], u'time': [6674, 26071]}, u'edge': {u'target': [], u'time': []}}, u'mouseout': {u'state': {u'target': [], u'time': []}, u'edge': {u'target': [], u'time': []}}}",,,"[8973, 2524, 6882]",19.0,,207744,1.0,5.0,mouselab-mdp,,7
"[6750, 23287, 91162]","[u'up', u'up', u'right']",,,"[5, 0, 1]","[u'1', 3, 7, 13]","{u'mouseover': {u'state': {u'target': [], u'time': []}, u'edge': {u'target': [], u'time': []}}, u'click': {u'state': {u'target': [u'5', u'3', u'7', u'12', u'13'], u'time': [2875, 5362, 20998, 27780, 29988]}, u'edge': {u'target': [], u'time': []}}, u'mouseout': {u'state': {u'target': [], u'time': []}, u'edge': {u'target': [], u'time': []}}}",,,"[6750, 6718, 65956]",12.0,,308816,2.0,6.0,mouselab-mdp,,7
"[9770, 23016, 34288]","[u'down', u'down', u'right']",,,"[5, 0, 1]","[u'1', 5, 9, 17]","{u'mouseover': {u'state': {u'target': [], u'time': []}, u'edge': {u'target': [], u'time': []}}, u'click': {u'state': {u'target': [u'2', u'4', u'3', u'5', u'17', u'16'], u'time': [3672, 5415, 7271, 8038, 27602, 28569]}, u'edge': {u'target': [], u'time': []}}, u'mouseout': {u'state': {u'target': [], u'time': []}, u'edge': {u'target': [], u'time': []}}}",,,"[9770, 2323, 9796]",-5.0,,369603,3.0,2.0,mouselab-mdp,,7
"[13168, 27588, 30820]","[u'left', u'left', u'down']",,,"[5, 0, 1]","[u'1', 4, 8, 15]","{u'mouseover': {u'state': {u'target': [], u'time': []}, u'edge': {u'target': [], u'time': []}}, u'click': {u'state': {u'target': [u'5', u'3', u'2', u'4', u'8', u'7', u'14', u'15'], u'time': [2507, 3824, 4806, 5586, 6956, 8596, 9663, 10389]}, u'edge': {u'target': [], u'time': []}}, u'mouseout': {u'state': {u'target': [], u'time': []}, u'edge': {u'target': [], u'time': []}}}",,,"[13167, 1998, 1976]",33.0,,432962,4.0,9.0,mouselab-mdp,,7
"[15564, 29711, 32593]","[u'left', u'left', u'down']",,,"[5, 0, 1]","[u'1', 4, 8, 15]","{u'mouseover': {u'state': {u'target': [], u'time': []}, u'edge': {u'target': [], u'time': []}}, u'click': {u'state': {u'target': [u'4', u'2', u'5', u'3', u'9', u'16', u'17', u'8', u'15', u'14'], u'time': [2033, 3120, 3836, 4804, 6139, 7741, 8450, 10168, 11685, 12481]}, u'edge': {u'target': [], u'time': []}}, u'mouseout': {u'state': {u'target': [], u'time': []}, u'edge': {u'target': [], u'time': []}}}",,,"[15562, 835, 1820]",40.0,,498629,5.0,8.0,mouselab-mdp,,7
"[16184, 32200, 88272]","[u'up', u'up', u'left']",,,"[5, 0, 1]","[u'1', 3, 7, 12]","{u'mouseover': {u'state': {u'target': [], u'time': []}, u'edge': {u'target': [], u'time': []}}, u'click': {u'state': {u'target': [u'4', u'8', u'3', u'2', u'5', u'7', u'13', u'12', u'14', u'15', u'9', u'16', u'17'], u'time': [1167, 2181, 3126, 3761, 4423, 5264, 5905, 6773, 9790, 10390, 11690, 12693, 13344]}, u'edge': {u'target': [], u'time': []}}, u'mouseout': {u'state': {u'target': [], u'time': []}, u'edge': {u'target': [], u'time': []}}}",,,"[16184, 1893, 55233]",27.0,,591452,6.0,10.0,mouselab-mdp,,7
"[45433, 61261, 63371]","[u'up', u'up', u'left']",,,"[5, 0, 1]","[u'1', 3, 7, 12]","{u'mouseover': {u'state': {u'target': [], u'time': []}, u'edge': {u'target': [], u'time': []}}, u'click': {u'state': {u'target': [u'2', u'5', u'3', u'4', u'9', u'17', u'16', u'7', u'13', u'12', u'6', u'8'], u'time': [2217, 2951, 3868, 4603, 5412, 5956, 6657, 9814, 10418, 11057, 16292, 19922]}, u'edge': {u'target': [], u'time': []}}, u'mouseout': {u'state': {u'target': [], u'time': []}, u'edge': {u'target': [], u'time': []}}}",,,"[45433, 1202, 971]",32.0,,659639,7.0,1.0,mouselab-mdp,,7
"[14808, 30403, 34137]","[u'right', u'right', u'up']",,,"[5, 0, 1]","[u'1', 2, 6, 10]","{u'mouseover': {u'state': {u'target': [], u'time': []}, u'edge': {u'target': [], u'time': []}}, u'click': {u'state': {u'target': [u'3', u'4', u'5', u'2', u'7', u'13', u'12', u'9', u'17', u'16', u'8', u'14', u'15', u'6', u'10', u'11'], u'time': [939, 1557, 2182, 2746, 3664, 4165, 4756, 6233, 6762, 7297, 8337, 9233, 9870, 11002, 11519, 12244]}, u'edge': {u'target': [], u'time': []}}, u'mouseout': {u'state': {u'target': [], u'time': []}, u'edge': {u'target': [], u'time': []}}}",,,"[14808, 1466, 3209]",20.0,,738718,8.0,3.0,mouselab-mdp,,7
"[11228, 26699, 31116]","[u'right', u'right', u'down']",,,"[5, 0, 1]","[u'1', 2, 6, 11]","{u'mouseover': {u'state': {u'target': [], u'time': []}, u'edge': {u'target': [], u'time': []}}, u'click': {u'state': {u'target': [u'3', u'4', u'2', u'5', u'6', u'10', u'11', u'9', u'7'], u'time': [1082, 1716, 2525, 3239, 4288, 4856, 5483, 6810, 7585]}, u'edge': {u'target': [], u'time': []}}, u'mouseout': {u'state': {u'target': [], u'time': []}, u'edge': {u'target': [], u'time': []}}}",,,"[11227, 2234, 3100]",47.0,,847477,9.0,11.0,mouselab-mdp,,7
"[15367, 30449, 33284]","[u'down', u'down', u'right']",,,"[5, 0, 1]","[u'1', 5, 9, 17]","{u'mouseover': {u'state': {u'target': [], u'time': []}, u'edge': {u'target': [], u'time': []}}, u'click': {u'state': {u'target': [u'5', u'2', u'3', u'4', u'8', u'14', u'15', u'9', u'17', u'16', u'6', u'7'], u'time': [1823, 2492, 3175, 4568, 5611, 6311, 6890, 7819, 8430, 9133, 11245, 12671]}, u'edge': {u'target': [], u'time': []}}, u'mouseout': {u'state': {u'target': [], u'time': []}, u'edge': {u'target': [], u'time': []}}}",,,"[15367, 1259, 1696]",30.0,,924007,10.0,4.0,mouselab-mdp,,7
"[18089, 35460, 38529]","[u'left', u'left', u'up']",,,"[5, 0, 1]","[u'1', 4, 8, 14]","{u'mouseover': {u'state': {u'target': [], u'time': []}, u'edge': {u'target': [], u'time': []}}, u'click': {u'state': {u'target': [u'3', u'2', u'5', u'4', u'7', u'13', u'12', u'6', u'11', u'10', u'9', u'17', u'16', u'8', u'14', u'15'], u'time': [1279, 2078, 2628, 3224, 4136, 4743, 5297, 7252, 7976, 8778, 10025, 10512, 11106, 12134, 13429, 14256]}, u'edge': {u'target': [], u'time': []}}, u'mouseout': {u'state': {u'target': [], u'time': []}, u'edge': {u'target': [], u'time': []}}}",,,"[18089, 2543, 2546]",41.0,,993594,11.0,7.0,mouselab-mdp,,7
"[18421, 32788, 34508]","[u'left', u'left', u'up']",,,"[5, 0, 1]","[u'1', 4, 8, 14]","{u'mouseover': {u'state': {u'target': [], u'time': []}, u'edge': {u'target': [], u'time': []}}, u'click': {u'state': {u'target': [u'5', u'9', u'17', u'16', u'3', u'4', u'8', u'14', u'15', u'2', u'6', u'10', u'11', u'7', u'13', u'12'], u'time': [1285, 1899, 2424, 3247, 4296, 4992, 5492, 6048, 6735, 7447, 7964, 8928, 9567, 10355, 10878, 11744]}, u'edge': {u'target': [], u'time': []}}, u'mouseout': {u'state': {u'target': [], u'time': []}, u'edge': {u'target': [], u'time': []}}}",,,"[18420, 906, 1204]",38.0,,1096210,12.0,0.0,mouselab-mdp,,7
"[4695, 22159, 29400]","[u'up', u'up', u'right']",,,"[5, 0, 1]","[u'1', 3, 7, 13]","{u'mouseover': {u'state': {u'target': [], u'time': []}, u'edge': {u'target': [], u'time': []}}, u'click': {u'state': {u'target': [], u'time': []}, u'edge': {u'target': [], u'time': []}}, u'mouseout': {u'state': {u'target': [], u'time': []}, u'edge': {u'target': [], u'time': []}}}",,,"[4692, 686, 3801]",28.0,,266953,1.0,11.0,mouselab-mdp,,8
"[3716, 25053, 31890]","[u'right', u'right', u'up']",,,"[5, 0, 1]","[u'1', 2, 6, 10]","{u'mouseover': {u'state': {u'target': [], u'time': []}, u'edge': {u'target': [], u'time': []}}, u'click': {u'state': {u'target': [], u'time': []}, u'edge': {u'target': [], u'time': []}}, u'mouseout': {u'state': {u'target': [], u'time': []}, u'edge': {u'target': [], u'time': []}}}",,,"[3716, 4766, 3496]",16.0,,349399,2.0,2.0,mouselab-mdp,,8
"[4999, 23343, 32490]","[u'left', u'left', u'down']",,,"[5, 0, 1]","[u'1', 4, 8, 15]","{u'mouseover': {u'state': {u'target': [], u'time': []}, u'edge': {u'target': [], u'time': []}}, u'click': {u'state': {u'target': [], u'time': []}, u'edge': {u'target': [], u'time': []}}, u'mouseout': {u'state': {u'target': [], u'time': []}, u'edge': {u'target': [], u'time': []}}}",,,"[4998, 1798, 5764]",35.0,,465920,3.0,9.0,mouselab-mdp,,8
"[3591, 23451, 28908]","[u'down', u'down', u'left']",,,"[5, 0, 1]","[u'1', 5, 9, 16]","{u'mouseover': {u'state': {u'target': [], u'time': []}, u'edge': {u'target': [], u'time': []}}, u'click': {u'state': {u'target': [], u'time': []}, u'edge': {u'target': [], u'time': []}}, u'mouseout': {u'state': {u'target': [], u'time': []}, u'edge': {u'target': [], u'time': []}}}",,,"[3591, 3761, 1998]",5.0,,541946,4.0,1.0,mouselab-mdp,,8
"[1663, 18450, 22559]","[u'left', u'left', u'up']",,,"[5, 0, 1]","[u'1', 4, 8, 14]","{u'mouseover': {u'state': {u'target': [], u'time': []}, u'edge': {u'target': [], u'time': []}}, u'click': {u'state': {u'target': [], u'time': []}, u'edge': {u'target': [], u'time': []}}, u'mouseout': {u'state': {u'target': [], u'time': []}, u'edge': {u'target': [], u'time': []}}}",,,"[1663, 722, 776]",-4.0,,614134,5.0,10.0,mouselab-mdp,,8
"[2489, 23601, 29041]","[u'left', u'left', u'down']",,,"[5, 0, 1]","[u'1', 4, 8, 15]","{u'mouseover': {u'state': {u'target': [], u'time': []}, u'edge': {u'target': [], u'time': []}}, u'click': {u'state': {u'target': [], u'time': []}, u'edge': {u'target': [], u'time': []}}, u'mouseout': {u'state': {u'target': [], u'time': []}, u'edge': {u'target': [], u'time': []}}}",,,"[2487, 3895, 2078]",8.0,,687965,6.0,5.0,mouselab-mdp,,8
"[815, 18091, 29075]","[u'up', u'up', u'right']",,,"[5, 0, 1]","[u'1', 3, 7, 13]","{u'mouseover': {u'state': {u'target': [], u'time': []}, u'edge': {u'target': [], u'time': []}}, u'click': {u'state': {u'target': [], u'time': []}, u'edge': {u'target': [], u'time': []}}, u'mouseout': {u'state': {u'target': [], u'time': []}, u'edge': {u'target': [], u'time': []}}}",,,"[815, 1060, 7588]",-4.0,,771406,7.0,3.0,mouselab-mdp,,8
"[1368, 19100, 29665]","[u'down', u'down', u'right']",,,"[5, 0, 1]","[u'1', 5, 9, 17]","{u'mouseover': {u'state': {u'target': [], u'time': []}, u'edge': {u'target': [], u'time': []}}, u'click': {u'state': {u'target': [], u'time': []}, u'edge': {u'target': [], u'time': []}}, u'mouseout': {u'state': {u'target': [], u'time': []}, u'edge': {u'target': [], u'time': []}}}",,,"[1367, 1605, 7172]",17.0,,845092,8.0,7.0,mouselab-mdp,,8
"[9767, 28265, 38407]","[u'right', u'right', u'down']",,,"[5, 0, 1]","[u'1', 2, 6, 11]","{u'mouseover': {u'state': {u'target': [], u'time': []}, u'edge': {u'target': [], u'time': []}}, u'click': {u'state': {u'target': [], u'time': []}, u'edge': {u'target': [], u'time': []}}, u'mouseout': {u'state': {u'target': [], u'time': []}, u'edge': {u'target': [], u'time': []}}}",,,"[9767, 2104, 6498]",35.0,,923581,9.0,8.0,mouselab-mdp,,8
"[6755, 25340, 31347]","[u'up', u'up', u'left']",,,"[5, 0, 1]","[u'1', 3, 7, 12]","{u'mouseover': {u'state': {u'target': [], u'time': []}, u'edge': {u'target': [], u'time': []}}, u'click': {u'state': {u'target': [], u'time': []}, u'edge': {u'target': [], u'time': []}}, u'mouseout': {u'state': {u'target': [], u'time': []}, u'edge': {u'target': [], u'time': []}}}",,,"[6754, 1631, 2535]",5.0,,1018262,10.0,0.0,mouselab-mdp,,8
"[4093, 27032, 34750]","[u'right', u'right', u'down']",,,"[5, 0, 1]","[u'1', 2, 6, 11]","{u'mouseover': {u'state': {u'target': [], u'time': []}, u'edge': {u'target': [], u'time': []}}, u'click': {u'state': {u'target': [], u'time': []}, u'edge': {u'target': [], u'time': []}}, u'mouseout': {u'state': {u'target': [], u'time': []}, u'edge': {u'target': [], u'time': []}}}",,,"[4091, 6398, 4225]",12.0,,1113192,11.0,6.0,mouselab-mdp,,8
"[1741, 21079, 28105]","[u'up', u'up', u'right']",,,"[5, 0, 1]","[u'1', 3, 7, 13]","{u'mouseover': {u'state': {u'target': [], u'time': []}, u'edge': {u'target': [], u'time': []}}, u'click': {u'state': {u'target': [], u'time': []}, u'edge': {u'target': [], u'time': []}}, u'mouseout': {u'state': {u'target': [], u'time': []}, u'edge': {u'target': [], u'time': []}}}",,,"[1741, 2504, 3533]",32.0,,1188887,12.0,4.0,mouselab-mdp,,8
"[4057, 24366, 42390]","[u'right', u'right', u'up']",,,"[15, 0, 0]","[u'1', 2, 6, 10]","{u'mouseover': {u'state': {u'target': [], u'time': []}, u'edge': {u'target': [], u'time': []}}, u'click': {u'state': {u'target': [u'2'], u'time': [3274]}, u'edge': {u'target': [], u'time': []}}, u'mouseout': {u'state': {u'target': [], u'time': []}, u'edge': {u'target': [], u'time': []}}}",,,"[4057, 180, 16502]",1.5,,190476,1.0,6.0,mouselab-mdp,,10
"[1632, 39818, 128986]","[u'right', u'right', u'up']",,,"[0, 72, 7]","[u'1', 2, 6, 10]","{u'mouseover': {u'state': {u'target': [], u'time': []}, u'edge': {u'target': [], u'time': []}}, u'click': {u'state': {u'target': [u'6', u'11', u'10', u'4', u'3', u'5', u'9', u'17', u'16', u'7'], u'time': [6258, 9208, 12135, 15659, 18690, 20122, 21164, 23127, 24276, 26110]}, u'edge': {u'target': [], u'time': []}}, u'mouseout': {u'state': {u'target': [], u'time': []}, u'edge': {u'target': [], u'time': []}}}",,,"[1632, 33854, 12119]",-9.0,,332194,2.0,2.0,mouselab-mdp,,10
"[1656, 40069, 75630]","[u'right', u'right', u'up']",,,"[0, 0, 0]","[u'1', 2, 6, 10]","{u'mouseover': {u'state': {u'target': [], u'time': []}, u'edge': {u'target': [], u'time': []}}, u'click': {u'state': {u'target': [], u'time': []}, u'edge': {u'target': [], u'time': []}}, u'mouseout': {u'state': {u'target': [], u'time': []}, u'edge': {u'target': [], u'time': []}}}",,,"[1656, 33987, 34020]",-20.0,,414501,3.0,3.0,mouselab-mdp,,10
"[2310, 6619, 13320]","[u'up', u'up', u'right']",,,"[0, 0, 0]","[u'1', 3, 7, 13]","{u'mouseover': {u'state': {u'target': [], u'time': []}, u'edge': {u'target': [], u'time': []}}, u'click': {u'state': {u'target': [], u'time': []}, u'edge': {u'target': [], u'time': []}}, u'mouseout': {u'state': {u'target': [], u'time': []}, u'edge': {u'target': [], u'time': []}}}",,,"[2310, 9, 5203]",32.0,,469837,4.0,4.0,mouselab-mdp,,10
"[5354, 10021, 13030]","[u'up', u'up', u'right']",,,"[0, 0, 0]","[u'1', 3, 7, 13]","{u'mouseover': {u'state': {u'target': [], u'time': []}, u'edge': {u'target': [], u'time': []}}, u'click': {u'state': {u'target': [], u'time': []}, u'edge': {u'target': [], u'time': []}}, u'mouseout': {u'state': {u'target': [], u'time': []}, u'edge': {u'target': [], u'time': []}}}",,,"[5353, 349, 1442]",29.0,,521697,5.0,5.0,mouselab-mdp,,10
"[1177, 6520, 9476]","[u'up', u'up', u'right']",,,"[0, 0, 0]","[u'1', 3, 7, 13]","{u'mouseover': {u'state': {u'target': [], u'time': []}, u'edge': {u'target': [], u'time': []}}, u'click': {u'state': {u'target': [], u'time': []}, u'edge': {u'target': [], u'time': []}}, u'mouseout': {u'state': {u'target': [], u'time': []}, u'edge': {u'target': [], u'time': []}}}",,,"[1176, 1067, 1466]",27.0,,572303,6.0,7.0,mouselab-mdp,,10
"[805, 5166, 20004]","[u'up', u'up', u'left']",,,"[0, 0, 7]","[u'1', 3, 7, 12]","{u'mouseover': {u'state': {u'target': [], u'time': []}, u'edge': {u'target': [], u'time': []}}, u'click': {u'state': {u'target': [u'12'], u'time': [17234]}, u'edge': {u'target': [], u'time': []}}, u'mouseout': {u'state': {u'target': [], u'time': []}, u'edge': {u'target': [], u'time': []}}}",,,"[805, 98, 13366]",5.5,,632712,7.0,1.0,mouselab-mdp,,10
"[1022, 10870, 16476]","[u'up', u'up', u'left']",,,"[0, 0, 7]","[u'1', 3, 7, 12]","{u'mouseover': {u'state': {u'target': [], u'time': []}, u'edge': {u'target': [], u'time': []}}, u'click': {u'state': {u'target': [u'12'], u'time': [14148]}, u'edge': {u'target': [], u'time': []}}, u'mouseout': {u'state': {u'target': [], u'time': []}, u'edge': {u'target': [], u'time': []}}}",,,"[1022, 5455, 4103]",9.5,,693021,8.0,10.0,mouselab-mdp,,10
"[1084, 5402, 12773]","[u'up', u'up', u'left']",,,"[0, 0, 8]","[u'1', 3, 7, 12]","{u'mouseover': {u'state': {u'target': [], u'time': []}, u'edge': {u'target': [], u'time': []}}, u'click': {u'state': {u'target': [u'12'], u'time': [10807]}, u'edge': {u'target': [], u'time': []}}, u'mouseout': {u'state': {u'target': [], u'time': []}, u'edge': {u'target': [], u'time': []}}}",,,"[1084, 12, 5866]",17.5,,753162,9.0,11.0,mouselab-mdp,,10
"[565, 4895, 21994]","[u'up', u'up', u'left']",,,"[0, 0, 11]","[u'1', 3, 7, 12]","{u'mouseover': {u'state': {u'target': [], u'time': []}, u'edge': {u'target': [], u'time': []}}, u'click': {u'state': {u'target': [u'12'], u'time': [11375]}, u'edge': {u'target': [], u'time': []}}, u'mouseout': {u'state': {u'target': [], u'time': []}, u'edge': {u'target': [], u'time': []}}}",,,"[564, 11, 15606]",18.5,,830999,10.0,8.0,mouselab-mdp,,10
"[1763, 6914, 11962]","[u'up', u'up', u'right']",,,"[0, 0, 7]","[u'1', 3, 7, 13]","{u'mouseover': {u'state': {u'target': [], u'time': []}, u'edge': {u'target': [], u'time': []}}, u'click': {u'state': {u'target': [u'12'], u'time': [10442]}, u'edge': {u'target': [], u'time': []}}, u'mouseout': {u'state': {u'target': [], u'time': []}, u'edge': {u'target': [], u'time': []}}}",,,"[1763, 873, 3544]",10.5,,895183,11.0,0.0,mouselab-mdp,,10
"[633, 7591, 24840]","[u'up', u'up', u'left']",,,"[0, 0, 13]","[u'1', 3, 7, 12]","{u'mouseover': {u'state': {u'target': [], u'time': []}, u'edge': {u'target': [], u'time': []}}, u'click': {u'state': {u'target': [u'12'], u'time': [11949]}, u'edge': {u'target': [], u'time': []}}, u'mouseout': {u'state': {u'target': [], u'time': []}, u'edge': {u'target': [], u'time': []}}}",,,"[633, 2688, 15709]",38.5,,961932,12.0,9.0,mouselab-mdp,,10
"[9799, 20669, 28074]","[u'down', u'down', u'right']",,,"[5, 0, 1]","[u'1', 5, 9, 17]","{u'mouseover': {u'state': {u'target': [], u'time': []}, u'edge': {u'target': [], u'time': []}}, u'click': {u'state': {u'target': [u'2', u'5', u'9', u'17', u'16'], u'time': [6278, 8242, 19377, 23145, 24449]}, u'edge': {u'target': [], u'time': []}}, u'mouseout': {u'state': {u'target': [], u'time': []}, u'edge': {u'target': [], u'time': []}}}",,,"[9798, 3204, 6113]",10.95,,207491,1.0,0.0,mouselab-mdp,,12
"[19854, 30358, 38585]","[u'left', u'left', u'up']",,,"[5, 0, 1]","[u'1', 4, 8, 14]","{u'mouseover': {u'state': {u'target': [], u'time': []}, u'edge': {u'target': [], u'time': []}}, u'click': {u'state': {u'target': [u'3', u'4', u'5', u'2', u'10', u'6', u'11', u'17', u'9', u'16', u'15', u'8', u'14', u'12', u'7', u'13'], u'time': [1461, 2195, 2891, 3500, 4316, 5140, 5652, 6301, 7372, 7884, 8532, 9116, 9692, 10252, 10684, 11148]}, u'edge': {u'target': [], u'time': []}}, u'mouseout': {u'state': {u'target': [], u'time': []}, u'edge': {u'target': [], u'time': []}}}",,,"[19854, 1323, 7727]",33.84,,265723,2.0,5.0,mouselab-mdp,,12
"[17136, 26676, 34776]","[u'down', u'down', u'right']",,,"[5, 0, 1]","[u'1', 5, 9, 17]","{u'mouseover': {u'state': {u'target': [], u'time': []}, u'edge': {u'target': [], u'time': []}}, u'click': {u'state': {u'target': [u'3', u'2', u'5', u'4', u'14', u'8', u'15', u'16', u'9', u'17', u'11', u'6', u'10', u'13', u'7', u'12'], u'time': [775, 1463, 2094, 2823, 3582, 4047, 4679, 5415, 5990, 6726, 7239, 7696, 8302, 9063, 9558, 9990]}, u'edge': {u'target': [], u'time': []}}, u'mouseout': {u'state': {u'target': [], u'time': []}, u'edge': {u'target': [], u'time': []}}}",,,"[17136, 404, 7588]",41.84,,325638,3.0,4.0,mouselab-mdp,,12
"[18307, 28630, 35889]","[u'down', u'down', u'left']",,,"[5, 0, 1]","[u'1', 5, 9, 16]","{u'mouseover': {u'state': {u'target': [], u'time': []}, u'edge': {u'target': [], u'time': []}}, u'click': {u'state': {u'target': [u'4', u'3', u'2', u'5', u'17', u'9', u'16', u'8', u'14', u'15', u'12', u'7', u'13'], u'time': [4120, 4751, 5351, 5952, 6575, 7175, 8801, 9672, 10248, 11128, 11976, 13352, 13888]}, u'edge': {u'target': [], u'time': []}}, u'mouseout': {u'state': {u'target': [], u'time': []}, u'edge': {u'target': [], u'time': []}}}",,,"[18307, 677, 6617]",45.87,,387316,4.0,1.0,mouselab-mdp,,12
"[18301, 28336, 36347]","[u'down', u'down', u'right']",,,"[5, 0, 1]","[u'1', 5, 9, 17]","{u'mouseover': {u'state': {u'target': [], u'time': []}, u'edge': {u'target': [], u'time': []}}, u'click': {u'state': {u'target': [u'3', u'2', u'5', u'4', u'6', u'10', u'11', u'9', u'17', u'16', u'7', u'13', u'12', u'14', u'8', u'15'], u'time': [1600, 2256, 2888, 3543, 5040, 5760, 6607, 7767, 8231, 9055, 9975, 10503, 11255, 12736, 13567, 14047]}, u'edge': {u'target': [], u'time': []}}, u'mouseout': {u'state': {u'target': [], u'time': []}, u'edge': {u'target': [], u'time': []}}}",,,"[18301, 644, 7515]",33.84,,447042,5.0,7.0,mouselab-mdp,,12
"[19981, 31472, 41402]","[u'right', u'right', u'down']",,,"[5, 0, 1]","[u'1', 2, 6, 11]","{u'mouseover': {u'state': {u'target': [], u'time': []}, u'edge': {u'target': [], u'time': []}}, u'click': {u'state': {u'target': [u'3', u'2', u'5', u'4', u'6', u'10', u'11', u'9', u'17', u'16', u'15', u'8', u'14', u'12', u'7', u'13'], u'time': [1848, 3079, 3742, 4455, 6806, 7558, 8262, 10183, 10855, 11599, 13432, 13983, 14671, 15639, 16335, 16966]}, u'edge': {u'target': [], u'time': []}}, u'mouseout': {u'state': {u'target': [], u'time': []}, u'edge': {u'target': [], u'time': []}}}",,,"[19981, 2139, 9439]",37.84,,505490,6.0,11.0,mouselab-mdp,,12
"[16220, 26358, 35269]","[u'up', u'up', u'left']",,,"[5, 0, 1]","[u'1', 3, 7, 12]","{u'mouseover': {u'state': {u'target': [], u'time': []}, u'edge': {u'target': [], u'time': []}}, u'click': {u'state': {u'target': [u'3', u'4', u'5', u'2', u'7', u'12', u'13', u'14', u'8', u'15', u'16', u'9', u'17', u'11', u'6', u'10'], u'time': [2305, 2945, 3522, 4115, 5578, 6097, 6778, 8922, 9402, 10050, 11322, 11801, 12329, 13089, 13841, 14393]}, u'edge': {u'target': [], u'time': []}}, u'mouseout': {u'state': {u'target': [], u'time': []}, u'edge': {u'target': [], u'time': []}}}",,,"[16220, 640, 8411]",36.84,,564788,7.0,9.0,mouselab-mdp,,12
"[15690, 25574, 33593]","[u'right', u'right', u'down']",,,"[5, 0, 1]","[u'1', 2, 6, 11]","{u'mouseover': {u'state': {u'target': [], u'time': []}, u'edge': {u'target': [], u'time': []}}, u'click': {u'state': {u'target': [u'3', u'4', u'5', u'2', u'9', u'16', u'17', u'8', u'14', u'15', u'7', u'12', u'13', u'6', u'10', u'11'], u'time': [1615, 2367, 3447, 3991, 4871, 5599, 6303, 7646, 8431, 9119, 10063, 10751, 11398, 12263, 12935, 13678]}, u'edge': {u'target': [], u'time': []}}, u'mouseout': {u'state': {u'target': [], u'time': []}, u'edge': {u'target': [], u'time': []}}}",,,"[15690, 718, 7522]",37.84,,622923,8.0,6.0,mouselab-mdp,,12
"[17911, 27872, 37543]","[u'up', u'up', u'left']",,,"[5, 0, 1]","[u'1', 3, 7, 12]","{u'mouseover': {u'state': {u'target': [], u'time': []}, u'edge': {u'target': [], u'time': []}}, u'click': {u'state': {u'target': [u'4', u'3', u'2', u'5', u'9', u'16', u'17', u'8', u'15', u'14', u'12', u'7', u'13', u'10', u'6', u'11'], u'time': [2434, 3257, 3905, 4537, 6425, 7161, 7929, 9091, 9794, 10474, 12042, 13050, 13698, 14994, 15578, 16153]}, u'edge': {u'target': [], u'time': []}}, u'mouseout': {u'state': {u'target': [], u'time': []}, u'edge': {u'target': [], u'time': []}}}",,,"[17911, 685, 9153]",40.84,,681301,9.0,8.0,mouselab-mdp,,12
"[22352, 32008, 40938]","[u'right', u'right', u'up']",,,"[5, 0, 1]","[u'1', 2, 6, 10]","{u'mouseover': {u'state': {u'target': [], u'time': []}, u'edge': {u'target': [], u'time': []}}, u'click': {u'state': {u'target': [u'3', u'2', u'5', u'4', u'6', u'10', u'11', u'7', u'13', u'12', u'8', u'14', u'15', u'9', u'17', u'16'], u'time': [3712, 4327, 4959, 5710, 6871, 7606, 8414, 9607, 10286, 10998, 12214, 12861, 13590, 14485, 14990, 15662]}, u'edge': {u'target': [], u'time': []}}, u'mouseout': {u'state': {u'target': [], u'time': []}, u'edge': {u'target': [], u'time': []}}}",,,"[22352, 390, 8436]",21.84,,739849,10.0,10.0,mouselab-mdp,,12
"[19215, 32507, 44269]","[u'right', u'right', u'up']",,,"[5, 0, 1]","[u'1', 2, 6, 10]","{u'mouseover': {u'state': {u'target': [], u'time': []}, u'edge': {u'target': [], u'time': []}}, u'click': {u'state': {u'target': [u'3', u'4', u'5', u'2', u'9', u'16', u'17', u'6', u'11', u'10', u'7', u'13', u'12', u'8', u'14', u'15'], u'time': [1407, 1999, 2623, 3247, 6303, 7046, 7718, 9230, 10118, 11071, 12255, 12734, 13318, 14143, 14599, 15279]}, u'edge': {u'target': [], u'time': []}}, u'mouseout': {u'state': {u'target': [], u'time': []}, u'edge': {u'target': [], u'time': []}}}",,,"[19214, 3893, 11263]",33.84,,798124,11.0,3.0,mouselab-mdp,,12
"[16424, 27143, 37357]","[u'right', u'right', u'up']",,,"[5, 0, 1]","[u'1', 2, 6, 10]","{u'mouseover': {u'state': {u'target': [], u'time': []}, u'edge': {u'target': [], u'time': []}}, u'click': {u'state': {u'target': [u'4', u'3', u'2', u'5', u'16', u'9', u'17', u'6', u'11', u'10', u'8', u'14', u'15'], u'time': [1101, 1925, 2429, 3077, 7597, 8310, 8750, 9910, 10453, 11181, 12950, 13597, 14165]}, u'edge': {u'target': [], u'time': []}}, u'mouseout': {u'state': {u'target': [], u'time': []}, u'edge': {u'target': [], u'time': []}}}",,,"[16423, 1307, 9589]",33.87,,857228,12.0,2.0,mouselab-mdp,,12
"[8868, 27694, 29119]","[u'right', u'right', u'up']",,,"[12, 0, 0]","[u'1', 2, 6, 10]","{u'mouseover': {u'state': {u'target': [], u'time': []}, u'edge': {u'target': [], u'time': []}}, u'click': {u'state': {u'target': [u'2'], u'time': [2545]}, u'edge': {u'target': [], u'time': []}}, u'mouseout': {u'state': {u'target': [], u'time': []}, u'edge': {u'target': [], u'time': []}}}",,,"[8866, 3477, 201]",-5.5,,184385,1.0,7.0,mouselab-mdp,,14
"[4599, 7475, 9091]","[u'up', u'up', u'right']",,,"[0, 0, 0]","[u'1', 3, 7, 13]","{u'mouseover': {u'state': {u'target': [], u'time': []}, u'edge': {u'target': [], u'time': []}}, u'click': {u'state': {u'target': [], u'time': []}, u'edge': {u'target': [], u'time': []}}, u'mouseout': {u'state': {u'target': [], u'time': []}, u'edge': {u'target': [], u'time': []}}}",,,"[4597, 4, 373]",9.0,,239071,2.0,10.0,mouselab-mdp,,14
"[2477, 5343, 52627]","[u'left', u'left', u'down']",,,"[0, 0, 0]","[u'1', 4, 8, 15]","{u'mouseover': {u'state': {u'target': [], u'time': []}, u'edge': {u'target': [], u'time': []}}, u'click': {u'state': {u'target': [], u'time': []}, u'edge': {u'target': [], u'time': []}}, u'mouseout': {u'state': {u'target': [], u'time': []}, u'edge': {u'target': [], u'time': []}}}",,,"[2477, 3, 45815]",11.0,,296744,3.0,2.0,mouselab-mdp,,14
"[5757, 12150, 15924]","[u'down', u'down', u'left']",,,"[0, 0, 0]","[u'1', 5, 9, 16]","{u'mouseover': {u'state': {u'target': [], u'time': []}, u'edge': {u'target': [], u'time': []}}, u'click': {u'state': {u'target': [], u'time': []}, u'edge': {u'target': [], u'time': []}}, u'mouseout': {u'state': {u'target': [], u'time': []}, u'edge': {u'target': [], u'time': []}}}",,,"[5757, 3531, 2629]",29.0,,398278,4.0,11.0,mouselab-mdp,,14
"[4611, 7585, 11333]","[u'up', u'up', u'left']",,,"[0, 0, 0]","[u'1', 3, 7, 12]","{u'mouseover': {u'state': {u'target': [], u'time': []}, u'edge': {u'target': [], u'time': []}}, u'click': {u'state': {u'target': [], u'time': []}, u'edge': {u'target': [], u'time': []}}, u'mouseout': {u'state': {u'target': [], u'time': []}, u'edge': {u'target': [], u'time': []}}}",,,"[4611, 5, 2520]",25.0,,460120,5.0,5.0,mouselab-mdp,,14
"[2750, 6014, 8517]","[u'down', u'down', u'right']",,,"[0, 0, 0]","[u'1', 5, 9, 17]","{u'mouseover': {u'state': {u'target': [], u'time': []}, u'edge': {u'target': [], u'time': []}}, u'click': {u'state': {u'target': [], u'time': []}, u'edge': {u'target': [], u'time': []}}, u'mouseout': {u'state': {u'target': [], u'time': []}, u'edge': {u'target': [], u'time': []}}}",,,"[2750, 3, 1241]",32.0,,524927,6.0,4.0,mouselab-mdp,,14
"[5732, 9197, 12415]","[u'up', u'up', u'left']",,,"[0, 0, 0]","[u'1', 3, 7, 12]","{u'mouseover': {u'state': {u'target': [], u'time': []}, u'edge': {u'target': [], u'time': []}}, u'click': {u'state': {u'target': [], u'time': []}, u'edge': {u'target': [], u'time': []}}, u'mouseout': {u'state': {u'target': [], u'time': []}, u'edge': {u'target': [], u'time': []}}}",,,"[5730, 3, 2079]",17.0,,683131,7.0,6.0,mouselab-mdp,,14
"[2326, 5286, 7569]","[u'left', u'left', u'up']",,,"[0, 0, 0]","[u'1', 4, 8, 14]","{u'mouseover': {u'state': {u'target': [], u'time': []}, u'edge': {u'target': [], u'time': []}}, u'click': {u'state': {u'target': [], u'time': []}, u'edge': {u'target': [], u'time': []}}, u'mouseout': {u'state': {u'target': [], u'time': []}, u'edge': {u'target': [], u'time': []}}}",,,"[2326, 2, 1004]",-9.0,,786592,8.0,3.0,mouselab-mdp,,14
"[3012, 6108, 8874]","[u'right', u'right', u'up']",,,"[0, 0, 0]","[u'1', 2, 6, 10]","{u'mouseover': {u'state': {u'target': [], u'time': []}, u'edge': {u'target': [], u'time': []}}, u'click': {u'state': {u'target': [], u'time': []}, u'edge': {u'target': [], u'time': []}}, u'mouseout': {u'state': {u'target': [], u'time': []}, u'edge': {u'target': [], u'time': []}}}",,,"[3012, 4, 1247]",22.0,,848241,9.0,8.0,mouselab-mdp,,14
"[1353, 5500, 9353]","[u'right', u'right', u'down']",,,"[0, 0, 0]","[u'1', 2, 6, 11]","{u'mouseover': {u'state': {u'target': [], u'time': []}, u'edge': {u'target': [], u'time': []}}, u'click': {u'state': {u'target': [], u'time': []}, u'edge': {u'target': [], u'time': []}}, u'mouseout': {u'state': {u'target': [], u'time': []}, u'edge': {u'target': [], u'time': []}}}",,,"[1353, 929, 2516]",9.0,,899016,10.0,1.0,mouselab-mdp,,14
"[1345, 5195, 7659]","[u'left', u'left', u'down']",,,"[0, 0, 0]","[u'1', 4, 8, 15]","{u'mouseover': {u'state': {u'target': [], u'time': []}, u'edge': {u'target': [], u'time': []}}, u'click': {u'state': {u'target': [], u'time': []}, u'edge': {u'target': [], u'time': []}}, u'mouseout': {u'state': {u'target': [], u'time': []}, u'edge': {u'target': [], u'time': []}}}",,,"[1345, 615, 1155]",-2.0,,949293,11.0,0.0,mouselab-mdp,,14
"[1479, 4734, 16136]","[u'up', u'up', u'right']",,,"[0, 0, 16]","[u'1', 3, 7, 13]","{u'mouseover': {u'state': {u'target': [], u'time': []}, u'edge': {u'target': [], u'time': []}}, u'click': {u'state': {u'target': [u'12', u'13'], u'time': [10469, 13719]}, u'edge': {u'target': [], u'time': []}}, u'mouseout': {u'state': {u'target': [], u'time': []}, u'edge': {u'target': [], u'time': []}}}",,,"[1479, 5, 10057]",39.0,,1023210,12.0,9.0,mouselab-mdp,,14
"[40438, 52412, 54238]","[u'down', u'down', u'right']",,,"[5, 0, 1]","[u'1', 5, 9, 17]","{u'mouseover': {u'state': {u'target': [], u'time': []}, u'edge': {u'target': [], u'time': []}}, u'click': {u'state': {u'target': [u'17', u'9', u'16', u'5', u'11', u'6', u'10', u'2', u'4', u'8', u'15', u'14', u'3', u'12', u'7', u'13'], u'time': [5125, 6145, 7171, 8144, 9209, 10261, 11319, 12238, 13613, 14350, 15033, 16081, 16881, 17777, 18562, 19431]}, u'edge': {u'target': [], u'time': []}}, u'mouseout': {u'state': {u'target': [], u'time': []}, u'edge': {u'target': [], u'time': []}}}",,,"[40438, 2810, 1293]",33.84,,227883,1.0,7.0,mouselab-mdp,,15
"[28931, 38476, 42726]","[u'right', u'right', u'up']",,,"[5, 0, 1]","[u'1', 2, 6, 10]","{u'mouseover': {u'state': {u'target': [], u'time': []}, u'edge': {u'target': [], u'time': []}}, u'click': {u'state': {u'target': [u'9', u'16', u'5', u'17', u'11', u'6', u'10', u'2', u'4', u'8', u'15', u'14', u'3', u'12', u'7', u'13'], u'time': [1226, 2238, 3485, 4220, 5289, 6041, 6819, 7493, 8505, 9173, 9712, 10569, 11580, 12281, 14130, 14930]}, u'edge': {u'target': [], u'time': []}}, u'mouseout': {u'state': {u'target': [], u'time': []}, u'edge': {u'target': [], u'time': []}}}",,,"[28931, 470, 3725]",21.84,,288057,2.0,10.0,mouselab-mdp,,15
"[22078, 31883, 36121]","[u'left', u'left', u'up']",,,"[5, 0, 1]","[u'1', 4, 8, 14]","{u'mouseover': {u'state': {u'target': [], u'time': []}, u'edge': {u'target': [], u'time': []}}, u'click': {u'state': {u'target': [u'16', u'9', u'17', u'5', u'2', u'11', u'6', u'10', u'4', u'15', u'8', u'14', u'3', u'12', u'7', u'13'], u'time': [2633, 3291, 3934, 4687, 5535, 6272, 6844, 7599, 8712, 9378, 9944, 10768, 11780, 12495, 13090, 13695]}, u'edge': {u'target': [], u'time': []}}, u'mouseout': {u'state': {u'target': [], u'time': []}, u'edge': {u'target': [], u'time': []}}}",,,"[22078, 757, 3706]",39.84,,347890,3.0,0.0,mouselab-mdp,,15
"[30770, 40377, 42969]","[u'down', u'down', u'right']",,,"[5, 0, 1]","[u'1', 5, 9, 17]","{u'mouseover': {u'state': {u'target': [], u'time': []}, u'edge': {u'target': [], u'time': []}}, u'click': {u'state': {u'target': [u'9', u'17', u'16', u'5', u'15', u'8', u'14', u'4', u'2', u'6', u'11', u'10', u'3', u'7', u'13', u'12'], u'time': [1706, 2325, 3092, 4606, 5463, 6067, 6780, 7597, 8442, 9140, 9825, 10552, 11666, 12632, 13472, 14295]}, u'edge': {u'target': [], u'time': []}}, u'mouseout': {u'state': {u'target': [], u'time': []}, u'edge': {u'target': [], u'time': []}}}",,,"[30770, 493, 2052]",41.84,,406152,4.0,4.0,mouselab-mdp,,15
"[25269, 34839, 37158]","[u'right', u'right', u'down']",,,"[5, 0, 1]","[u'1', 2, 6, 11]","{u'mouseover': {u'state': {u'target': [], u'time': []}, u'edge': {u'target': [], u'time': []}}, u'click': {u'state': {u'target': [u'16', u'9', u'17', u'5', u'11', u'6', u'10', u'2', u'4', u'15', u'8', u'14', u'3', u'12', u'7', u'13'], u'time': [1773, 2503, 3172, 4027, 4887, 5469, 6017, 7180, 8073, 8731, 9219, 9807, 10922, 11579, 12129, 12804]}, u'edge': {u'target': [], u'time': []}}, u'mouseout': {u'state': {u'target': [], u'time': []}, u'edge': {u'target': [], u'time': []}}}",,,"[25269, 542, 1790]",37.84,,464393,5.0,6.0,mouselab-mdp,,15
"[23197, 32516, 35716]","[u'right', u'right', u'down']",,,"[5, 0, 1]","[u'1', 2, 6, 11]","{u'mouseover': {u'state': {u'target': [], u'time': []}, u'edge': {u'target': [], u'time': []}}, u'click': {u'state': {u'target': [u'9', u'17', u'16', u'5', u'15', u'8', u'4', u'14', u'3', u'12', u'7', u'13', u'10', u'6', u'11', u'2'], u'time': [1292, 1941, 2836, 3504, 4185, 4687, 5299, 6091, 6868, 7480, 7973, 8523, 9213, 9809, 10491, 11247]}, u'edge': {u'target': [], u'time': []}}, u'mouseout': {u'state': {u'target': [], u'time': []}, u'edge': {u'target': [], u'time': []}}}",,,"[23197, 499, 2660]",37.84,,520596,6.0,11.0,mouselab-mdp,,15
"[36355, 46005, 48505]","[u'right', u'right', u'up']",,,"[5, 0, 1]","[u'1', 2, 6, 10]","{u'mouseover': {u'state': {u'target': [], u'time': []}, u'edge': {u'target': [], u'time': []}}, u'click': {u'state': {u'target': [u'17', u'9', u'16', u'5', u'11', u'6', u'10', u'2', u'4', u'15', u'8', u'14', u'3', u'7', u'13', u'12'], u'time': [1842, 2471, 3209, 3914, 4865, 5412, 6228, 7288, 8268, 8872, 9500, 10136, 11329, 12002, 12638, 13650]}, u'edge': {u'target': [], u'time': []}}, u'mouseout': {u'state': {u'target': [], u'time': []}, u'edge': {u'target': [], u'time': []}}}",,,"[36355, 591, 1969]",33.84,,579079,7.0,3.0,mouselab-mdp,,15
"[31349, 40835, 43343]","[u'up', u'up', u'left']",,,"[5, 0, 1]","[u'1', 3, 7, 12]","{u'mouseover': {u'state': {u'target': [], u'time': []}, u'edge': {u'target': [], u'time': []}}, u'click': {u'state': {u'target': [u'16', u'9', u'17', u'5', u'11', u'6', u'2', u'10', u'15', u'8', u'14', u'4', u'3', u'12', u'7', u'13'], u'time': [1347, 1982, 2768, 3482, 4336, 4895, 5474, 6250, 7311, 7869, 8534, 9170, 9946, 10818, 11619, 12325]}, u'edge': {u'target': [], u'time': []}}, u'mouseout': {u'state': {u'target': [], u'time': []}, u'edge': {u'target': [], u'time': []}}}",,,"[31349, 524, 1973]",40.84,,637133,8.0,8.0,mouselab-mdp,,15
"[31649, 41102, 43175]","[u'left', u'left', u'up']",,,"[5, 0, 1]","[u'1', 4, 8, 14]","{u'mouseover': {u'state': {u'target': [], u'time': []}, u'edge': {u'target': [], u'time': []}}, u'click': {u'state': {u'target': [u'17', u'9', u'16', u'5', u'11', u'6', u'2', u'10', u'4', u'15', u'8', u'14', u'3', u'12', u'7', u'13'], u'time': [6670, 7649, 8419, 9305, 10405, 11369, 11997, 12814, 13707, 14233, 14658, 15215, 16085, 16665, 18071, 18729]}, u'edge': {u'target': [], u'time': []}}, u'mouseout': {u'state': {u'target': [], u'time': []}, u'edge': {u'target': [], u'time': []}}}",,,"[31649, 509, 1539]",33.84,,694805,9.0,5.0,mouselab-mdp,,15
"[31434, 41166, 43357]","[u'right', u'right', u'up']",,,"[5, 0, 1]","[u'1', 2, 6, 10]","{u'mouseover': {u'state': {u'target': [], u'time': []}, u'edge': {u'target': [], u'time': []}}, u'click': {u'state': {u'target': [u'16', u'9', u'17', u'11', u'5', u'15', u'8', u'4', u'2', u'6', u'10', u'3', u'14', u'12', u'7', u'13'], u'time': [1785, 2429, 3095, 3865, 4549, 5331, 5951, 6815, 7435, 8055, 8697, 9427, 10141, 11099, 11663, 12237]}, u'edge': {u'target': [], u'time': []}}, u'mouseout': {u'state': {u'target': [], u'time': []}, u'edge': {u'target': [], u'time': []}}}",,,"[31434, 447, 1649]",33.84,,751964,10.0,2.0,mouselab-mdp,,15
"[20724, 30247, 33630]","[u'down', u'down', u'left']",,,"[5, 0, 1]","[u'1', 5, 9, 16]","{u'mouseover': {u'state': {u'target': [], u'time': []}, u'edge': {u'target': [], u'time': []}}, u'click': {u'state': {u'target': [u'16', u'9', u'17', u'5', u'11', u'6', u'10', u'2', u'4', u'15', u'8', u'14', u'3', u'7', u'13', u'12'], u'time': [1507, 2033, 2591, 3297, 3963, 4897, 5643, 6435, 7329, 8129, 8672, 9251, 10067, 10845, 11457, 12241]}, u'edge': {u'target': [], u'time': []}}, u'mouseout': {u'state': {u'target': [], u'time': []}, u'edge': {u'target': [], u'time': []}}}",,,"[20724, 384, 2842]",45.84,,811607,11.0,1.0,mouselab-mdp,,15
"[40097, 49621, 51239]","[u'up', u'up', u'left']",,,"[5, 0, 1]","[u'1', 3, 7, 12]","{u'mouseover': {u'state': {u'target': [], u'time': []}, u'edge': {u'target': [], u'time': []}}, u'click': {u'state': {u'target': [u'16', u'9', u'17', u'5', u'11', u'6', u'10', u'2', u'4', u'8', u'15', u'14', u'3', u'12', u'7', u'13'], u'time': [1157, 1611, 2151, 2811, 3580, 4294, 5139, 5979, 6717, 7297, 7856, 8608, 9417, 10288, 10985, 11668]}, u'edge': {u'target': [], u'time': []}}, u'mouseout': {u'state': {u'target': [], u'time': []}, u'edge': {u'target': [], u'time': []}}}",,,"[40096, 416, 1074]",36.84,,873236,12.0,9.0,mouselab-mdp,,15
"[57030, 263710, 442293]","[u'up', u'up', u'right']",,,"[141, 108, 0]","[u'1', 3, 7, 13]","{u'mouseover': {u'state': {u'target': [], u'time': []}, u'edge': {u'target': [], u'time': []}}, u'click': {u'state': {u'target': [u'3', u'7', u'13', u'2', u'5', u'9', u'16', u'17', u'6', u'10', u'11', u'4', u'8', u'14', u'15', u'12'], u'time': [2272, 4679, 7070, 9375, 11284, 12723, 14140, 15886, 17806, 19338, 21070, 25773, 27549, 28855, 29960, 31488]}, u'edge': {u'target': [], u'time': []}}, u'mouseout': {u'state': {u'target': [], u'time': []}, u'edge': {u'target': [], u'time': []}}}",,,"[57030, 60653, 70014]",-3.0,,710571,1.0,8.0,mouselab-mdp,,16
"[8541, 19740, 24503]","[u'up', u'up', u'left']",,,"[2, 0, 2]","[u'1', 3, 7, 12]","{u'mouseover': {u'state': {u'target': [], u'time': []}, u'edge': {u'target': [], u'time': []}}, u'click': {u'state': {u'target': [u'2', u'3', u'7', u'12', u'13'], u'time': [4225, 5955, 15551, 22443, 23425]}, u'edge': {u'target': [], u'time': []}}, u'mouseout': {u'state': {u'target': [], u'time': []}, u'edge': {u'target': [], u'time': []}}}",,,"[8541, 6659, 3614]",35.0,,286323,1.0,10.0,mouselab-mdp,,17
"[6147, 17519, 21918]","[u'down', u'down', u'right']",,,"[4, 1, 0]","[u'1', 5, 9, 17]","{u'mouseover': {u'state': {u'target': [], u'time': []}, u'edge': {u'target': [], u'time': []}}, u'click': {u'state': {u'target': [u'4', u'3', u'2', u'5', u'9', u'16', u'17'], u'time': [2054, 3587, 4316, 4967, 13925, 14925, 15895]}, u'edge': {u'target': [], u'time': []}}, u'mouseout': {u'state': {u'target': [], u'time': []}, u'edge': {u'target': [], u'time': []}}}",,,"[6147, 4355, 1724]",-6.0,,342827,2.0,2.0,mouselab-mdp,,17
"[17315, 20994, 24725]","[u'left', u'left', u'down']",,,"[0, 0, 0]","[u'1', 4, 8, 15]","{u'mouseover': {u'state': {u'target': [], u'time': []}, u'edge': {u'target': [], u'time': []}}, u'click': {u'state': {u'target': [u'4', u'3', u'2', u'5', u'9', u'8', u'7', u'14', u'15'], u'time': [1820, 2453, 3151, 3789, 6082, 9524, 11765, 23259, 23917]}, u'edge': {u'target': [], u'time': []}}, u'mouseout': {u'state': {u'target': [], u'time': []}, u'edge': {u'target': [], u'time': []}}}",,,"[17315, 4, 2752]",41.0,,394000,3.0,8.0,mouselab-mdp,,17
"[14814, 18300, 32959]","[u'down', u'down', u'right']",,,"[0, 0, 0]","[u'1', 5, 9, 17]","{u'mouseover': {u'state': {u'target': [], u'time': []}, u'edge': {u'target': [], u'time': []}}, u'click': {u'state': {u'target': [u'3', u'2', u'5', u'4', u'8', u'9', u'16', u'17'], u'time': [1803, 2410, 3028, 3767, 6290, 6997, 9763, 12276]}, u'edge': {u'target': [], u'time': []}}, u'mouseout': {u'state': {u'target': [], u'time': []}, u'edge': {u'target': [], u'time': []}}}",,,"[14814, 4, 13899]",34.0,,443729,4.0,4.0,mouselab-mdp,,17
"[21066, 24718, 27987]","[u'left', u'left', u'down']",,,"[0, 0, 0]","[u'1', 4, 8, 15]","{u'mouseover': {u'state': {u'target': [], u'time': []}, u'edge': {u'target': [], u'time': []}}, u'click': {u'state': {u'target': [u'4', u'3', u'2', u'5', u'7', u'8', u'14', u'15', u'12', u'13'], u'time': [1633, 2322, 3003, 3734, 5462, 6239, 8044, 8733, 19214, 19975]}, u'edge': {u'target': [], u'time': []}}, u'mouseout': {u'state': {u'target': [], u'time': []}, u'edge': {u'target': [], u'time': []}}}",,,"[21066, 4, 2554]",31.0,,493299,5.0,9.0,mouselab-mdp,,17
"[12122, 15322, 18695]","[u'right', u'right', u'up']",,,"[0, 0, 0]","[u'1', 2, 6, 10]","{u'mouseover': {u'state': {u'target': [], u'time': []}, u'edge': {u'target': [], u'time': []}}, u'click': {u'state': {u'target': [u'3', u'4', u'5', u'2', u'8', u'6', u'10', u'11'], u'time': [1320, 1930, 2636, 3235, 4936, 5854, 16912, 17680]}, u'edge': {u'target': [], u'time': []}}, u'mouseout': {u'state': {u'target': [], u'time': []}, u'edge': {u'target': [], u'time': []}}}",,,"[12122, 4, 2501]",29.0,,542442,6.0,5.0,mouselab-mdp,,17
"[9737, 13247, 15130]","[u'left', u'left', u'up']",,,"[0, 0, 0]","[u'1', 4, 8, 14]","{u'mouseover': {u'state': {u'target': [], u'time': []}, u'edge': {u'target': [], u'time': []}}, u'click': {u'state': {u'target': [u'4', u'3', u'2', u'5', u'9', u'8', u'14'], u'time': [1351, 1953, 2689, 3282, 4938, 5660, 8399]}, u'edge': {u'target': [], u'time': []}}, u'mouseout': {u'state': {u'target': [], u'time': []}, u'edge': {u'target': [], u'time': []}}}",,,"[9737, 3, 927]",47.0,,591935,7.0,0.0,mouselab-mdp,,17
"[15001, 18761, 21271]","[u'right', u'right', u'down']",,,"[0, 0, 0]","[u'1', 2, 6, 11]","{u'mouseover': {u'state': {u'target': [], u'time': []}, u'edge': {u'target': [], u'time': []}}, u'click': {u'state': {u'target': [u'3', u'4', u'5', u'2', u'7', u'13', u'12', u'6', u'10', u'11'], u'time': [3055, 3601, 4209, 4832, 5850, 6758, 7396, 12471, 13360, 13964]}, u'edge': {u'target': [], u'time': []}}, u'mouseout': {u'state': {u'target': [], u'time': []}, u'edge': {u'target': [], u'time': []}}}",,,"[15001, 5, 1814]",46.0,,644333,8.0,6.0,mouselab-mdp,,17
"[22664, 55719, 61406]","[u'right', u'right', u'up']",,,"[0, 0, 0]","[u'1', 2, 6, 10]","{u'mouseover': {u'state': {u'target': [], u'time': []}, u'edge': {u'target': [], u'time': []}}, u'click': {u'state': {u'target': [u'2', u'3', u'4', u'5', u'7', u'8', u'9', u'6', u'10', u'11'], u'time': [2730, 3557, 4288, 5209, 7627, 8991, 10953, 11968, 18980, 21776]}, u'edge': {u'target': [], u'time': []}}, u'mouseout': {u'state': {u'target': [], u'time': []}, u'edge': {u'target': [], u'time': []}}}",,,"[22664, 9, 25]",26.0,,735841,9.0,3.0,mouselab-mdp,,17
"[18022, 47300, 55547]","[u'right', u'right', u'down']",,,"[0, 0, 0]","[u'1', 2, 6, 11]","{u'mouseover': {u'state': {u'target': [], u'time': []}, u'edge': {u'target': [], u'time': []}}, u'click': {u'state': {u'target': [u'2', u'3', u'4', u'5', u'6', u'9', u'10', u'11'], u'time': [2053, 4603, 5946, 9164, 10040, 11194, 15594, 17207]}, u'edge': {u'target': [], u'time': []}}, u'mouseout': {u'state': {u'target': [], u'time': []}, u'edge': {u'target': [], u'time': []}}}",,,"[18020, 18, 4863]",48.0,,818810,10.0,11.0,mouselab-mdp,,17
"[27830, 59813, 63759]","[u'left', u'left', u'up']",,,"[0, 0, 0]","[u'1', 4, 8, 14]","{u'mouseover': {u'state': {u'target': [], u'time': []}, u'edge': {u'target': [], u'time': []}}, u'click': {u'state': {u'target': [u'4', u'3', u'2', u'5', u'7', u'6', u'10', u'11', u'13', u'12', u'8', u'14'], u'time': [1863, 2489, 3129, 3964, 7996, 8751, 11004, 12168, 13100, 13696, 22043, 23140]}, u'edge': {u'target': [], u'time': []}}, u'mouseout': {u'state': {u'target': [], u'time': []}, u'edge': {u'target': [], u'time': []}}}",,,"[27830, 13, 1925]",45.0,,904581,11.0,7.0,mouselab-mdp,,17
"[12960, 44096, 50694]","[u'up', u'up', u'left']",,,"[0, 0, 0]","[u'1', 3, 7, 12]","{u'mouseover': {u'state': {u'target': [], u'time': []}, u'edge': {u'target': [], u'time': []}}, u'click': {u'state': {u'target': [u'4', u'3', u'2', u'5', u'7', u'9', u'17', u'16', u'12', u'13'], u'time': [1417, 2078, 2728, 3442, 4501, 5270, 6669, 7503, 8539, 9325]}, u'edge': {u'target': [], u'time': []}}, u'mouseout': {u'state': {u'target': [], u'time': []}, u'edge': {u'target': [], u'time': []}}}",,,"[12960, 18, 4334]",34.0,,988009,12.0,1.0,mouselab-mdp,,17
"[1699, 11490, 28564]","[u'right', u'right', u'down']",,,"[5, 0, 1]","[u'1', 2, 6, 11]","{u'mouseover': {u'state': {u'target': [], u'time': []}, u'edge': {u'target': [], u'time': []}}, u'click': {u'state': {u'target': [], u'time': []}, u'edge': {u'target': [], u'time': []}}, u'mouseout': {u'state': {u'target': [], u'time': []}, u'edge': {u'target': [], u'time': []}}}",,,"[1698, 1080, 15782]",35.0,,192928,1.0,8.0,mouselab-mdp,,18
"[14247, 44335, 51344]","[u'up', u'up', u'right']",,,"[24, 0, 11]","[u'1', 3, 7, 13]","{u'mouseover': {u'state': {u'target': [], u'time': []}, u'edge': {u'target': [], u'time': []}}, u'click': {u'state': {u'target': [u'4', u'3', u'13'], u'time': [6996, 12349, 50127]}, u'edge': {u'target': [], u'time': []}}, u'mouseout': {u'state': {u'target': [], u'time': []}, u'edge': {u'target': [], u'time': []}}}",,,"[14247, 3674, 6101]",29.5,,246747,1.0,8.0,mouselab-mdp,,19
"[3833, 20249, 31146]","[u'right', u'right', u'down']",,,"[12, 0, 11]","[u'1', 2, 6, 11]","{u'mouseover': {u'state': {u'target': [], u'time': []}, u'edge': {u'target': [], u'time': []}}, u'click': {u'state': {u'target': [u'2', u'10'], u'time': [2536, 25032]}, u'edge': {u'target': [], u'time': []}}, u'mouseout': {u'state': {u'target': [], u'time': []}, u'edge': {u'target': [], u'time': []}}}",,,"[3833, 2228, 10010]",-3.0,,320085,2.0,11.0,mouselab-mdp,,19
"[4325, 20134, 24165]","[u'down', u'down', u'left']",,,"[12, 0, 0]","[u'1', 5, 9, 16]","{u'mouseover': {u'state': {u'target': [], u'time': []}, u'edge': {u'target': [], u'time': []}}, u'click': {u'state': {u'target': [u'5'], u'time': [1800]}, u'edge': {u'target': [], u'time': []}}, u'mouseout': {u'state': {u'target': [], u'time': []}, u'edge': {u'target': [], u'time': []}}}",,,"[4325, 1611, 3131]",27.5,,381768,3.0,4.0,mouselab-mdp,,19
"[4668, 20917, 23629]","[u'up', u'up', u'left']",,,"[13, 0, 0]","[u'1', 3, 7, 12]","{u'mouseover': {u'state': {u'target': [], u'time': []}, u'edge': {u'target': [], u'time': []}}, u'click': {u'state': {u'target': [u'3'], u'time': [2177]}, u'edge': {u'target': [], u'time': []}}, u'mouseout': {u'state': {u'target': [], u'time': []}, u'edge': {u'target': [], u'time': []}}}",,,"[4668, 995, 1821]",16.5,,443554,4.0,7.0,mouselab-mdp,,19
"[5043, 20288, 24756]","[u'down', u'down', u'left']",,,"[12, 0, 0]","[u'1', 5, 9, 16]","{u'mouseover': {u'state': {u'target': [], u'time': []}, u'edge': {u'target': [], u'time': []}}, u'click': {u'state': {u'target': [u'2'], u'time': [2975]}, u'edge': {u'target': [], u'time': []}}, u'mouseout': {u'state': {u'target': [], u'time': []}, u'edge': {u'target': [], u'time': []}}}",,,"[5043, 1050, 3549]",2.5,,505174,5.0,1.0,mouselab-mdp,,19
"[3310, 18495, 23887]","[u'left', u'left', u'up']",,,"[12, 0, 11]","[u'1', 4, 8, 14]","{u'mouseover': {u'state': {u'target': [], u'time': []}, u'edge': {u'target': [], u'time': []}}, u'click': {u'state': {u'target': [u'4', u'14'], u'time': [2103, 22713]}, u'edge': {u'target': [], u'time': []}}, u'mouseout': {u'state': {u'target': [], u'time': []}, u'edge': {u'target': [], u'time': []}}}",,,"[3310, 981, 4485]",20.0,,579728,6.0,9.0,mouselab-mdp,,19
"[2542, 5615, 9135]","[u'right', u'right', u'up']",,,"[0, 0, 0]","[u'1', 2, 6, 10]","{u'mouseover': {u'state': {u'target': [], u'time': []}, u'edge': {u'target': [], u'time': []}}, u'click': {u'state': {u'target': [], u'time': []}, u'edge': {u'target': [], u'time': []}}, u'mouseout': {u'state': {u'target': [], u'time': []}, u'edge': {u'target': [], u'time': []}}}",,,"[2542, 1133, 2608]",16.0,,627147,7.0,2.0,mouselab-mdp,,19
"[3281, 18186, 19914]","[u'down', u'down', u'right']",,,"[12, 0, 0]","[u'1', 5, 9, 17]","{u'mouseover': {u'state': {u'target': [], u'time': []}, u'edge': {u'target': [], u'time': []}}, u'click': {u'state': {u'target': [u'3'], u'time': [1128]}, u'edge': {u'target': [], u'time': []}}, u'mouseout': {u'state': {u'target': [], u'time': []}, u'edge': {u'target': [], u'time': []}}}",,,"[3280, 617, 807]",7.5,,688406,8.0,0.0,mouselab-mdp,,19
"[2050, 17027, 20091]","[u'up', u'up', u'left']",,,"[12, 0, 0]","[u'1', 3, 7, 12]","{u'mouseover': {u'state': {u'target': [], u'time': []}, u'edge': {u'target': [], u'time': []}}, u'click': {u'state': {u'target': [u'4'], u'time': [491]}, u'edge': {u'target': [], u'time': []}}, u'mouseout': {u'state': {u'target': [], u'time': []}, u'edge': {u'target': [], u'time': []}}}",,,"[2050, 624, 2133]",22.5,,749281,9.0,5.0,mouselab-mdp,,19
"[3327, 18023, 20910]","[u'down', u'down', u'right']",,,"[12, 0, 0]","[u'1', 5, 9, 17]","{u'mouseover': {u'state': {u'target': [], u'time': []}, u'edge': {u'target': [], u'time': []}}, u'click': {u'state': {u'target': [u'2'], u'time': [1128]}, u'edge': {u'target': [], u'time': []}}, u'mouseout': {u'state': {u'target': [], u'time': []}, u'edge': {u'target': [], u'time': []}}}",,,"[3327, 420, 1977]",1.5,,810779,10.0,6.0,mouselab-mdp,,19
"[1871, 16689, 18465]","[u'left', u'left', u'down']",,,"[12, 0, 0]","[u'1', 4, 8, 15]","{u'mouseover': {u'state': {u'target': [], u'time': []}, u'edge': {u'target': [], u'time': []}}, u'click': {u'state': {u'target': [u'4'], u'time': [884]}, u'edge': {u'target': [], u'time': []}}, u'mouseout': {u'state': {u'target': [], u'time': []}, u'edge': {u'target': [], u'time': []}}}",,,"[1870, 553, 851]",-2.5,,871687,11.0,3.0,mouselab-mdp,,19
"[3323, 17956, 21060]","[u'down', u'down', u'left']",,,"[12, 0, 0]","[u'1', 5, 9, 16]","{u'mouseover': {u'state': {u'target': [], u'time': []}, u'edge': {u'target': [], u'time': []}}, u'click': {u'state': {u'target': [u'3'], u'time': [1977]}, u'edge': {u'target': [], u'time': []}}, u'mouseout': {u'state': {u'target': [], u'time': []}, u'edge': {u'target': [], u'time': []}}}",,,"[3323, 325, 2171]",16.5,,932610,12.0,10.0,mouselab-mdp,,19
"[66844, 98223, 111152]","[u'left', u'left', u'down']",,,"[15, 0, 1]","[u'1', 4, 8, 15]","{u'mouseover': {u'state': {u'target': [], u'time': []}, u'edge': {u'target': [], u'time': []}}, u'click': {u'state': {u'target': [u'2', u'14'], u'time': [10247, 105321]}, u'edge': {u'target': [], u'time': []}}, u'mouseout': {u'state': {u'target': [], u'time': []}, u'edge': {u'target': [], u'time': []}}}",,,"[66843, 13098, 11752]",8.98,,860387,1.0,4.0,mouselab-mdp,,20
"[31441, 53209, 65864]","[u'down', u'down', u'right']",,,"[11, 0, 9]","[u'1', 5, 9, 17]","{u'mouseover': {u'state': {u'target': [], u'time': []}, u'edge': {u'target': [], u'time': []}}, u'click': {u'state': {u'target': [u'3', u'5', u'4', u'2', u'16', u'17'], u'time': [14500, 22555, 26234, 27751, 59189, 60394]}, u'edge': {u'target': [], u'time': []}}, u'mouseout': {u'state': {u'target': [], u'time': []}, u'edge': {u'target': [], u'time': []}}}",,,"[31441, 6691, 11516]",16.94,,940248,2.0,8.0,mouselab-mdp,,20
"[105558, 112261, 116453]","[u'up', u'up', u'left']",,,"[0, 0, 0]","[u'1', 3, 7, 12]","{u'mouseover': {u'state': {u'target': [], u'time': []}, u'edge': {u'target': [], u'time': []}}, u'click': {u'state': {u'target': [u'5', u'4', u'3', u'2', u'7', u'8', u'6', u'9', u'13', u'12', u'14', u'15'], u'time': [24478, 25824, 27458, 28781, 35492, 38048, 39603, 44529, 79535, 81061, 82266, 97875]}, u'edge': {u'target': [], u'time': []}}, u'mouseout': {u'state': {u'target': [], u'time': []}, u'edge': {u'target': [], u'time': []}}}",,,"[105558, 530, 3398]",36.88,,1069184,3.0,9.0,mouselab-mdp,,20
"[62090, 72019, 75154]","[u'right', u'right', u'up']",,,"[0, 0, 0]","[u'1', 2, 6, 10]","{u'mouseover': {u'state': {u'target': [], u'time': []}, u'edge': {u'target': [], u'time': []}}, u'click': {u'state': {u'target': [u'2', u'3', u'4', u'5', u'6', u'8', u'7', u'9', u'13', u'12', u'10', u'11', u'16', u'17', u'15', u'14'], u'time': [5420, 6577, 7536, 8573, 16839, 18376, 20538, 25457, 31744, 32778, 34972, 36476, 48863, 49874, 52605, 53635]}, u'edge': {u'target': [], u'time': []}}, u'mouseout': {u'state': {u'target': [], u'time': []}, u'edge': {u'target': [], u'time': []}}}",,,"[62090, 3202, 2620]",21.84,,1160380,4.0,10.0,mouselab-mdp,,20
"[46379, 52705, 55036]","[u'down', u'down', u'left']",,,"[0, 0, 0]","[u'1', 5, 9, 16]","{u'mouseover': {u'state': {u'target': [], u'time': []}, u'edge': {u'target': [], u'time': []}}, u'click': {u'state': {u'target': [u'2', u'3', u'4', u'5', u'9', u'17', u'16', u'7', u'13', u'12', u'8', u'15', u'14'], u'time': [15811, 16672, 17566, 18379, 24074, 25113, 26088, 28721, 29784, 30736, 37281, 38372, 40572]}, u'edge': {u'target': [], u'time': []}}, u'mouseout': {u'state': {u'target': [], u'time': []}, u'edge': {u'target': [], u'time': []}}}",,,"[46379, 14, 1647]",45.87,,1219523,5.0,1.0,mouselab-mdp,,20
"[47950, 54252, 56636]","[u'right', u'right', u'up']",,,"[0, 0, 0]","[u'1', 2, 6, 10]","{u'mouseover': {u'state': {u'target': [], u'time': []}, u'edge': {u'target': [], u'time': []}}, u'click': {u'state': {u'target': [u'2', u'5', u'4', u'3', u'9', u'8', u'6', u'10', u'11', u'15', u'14', u'7', u'13', u'12'], u'time': [9022, 9772, 10693, 11465, 14877, 19208, 20689, 21880, 23227, 27189, 28353, 38495, 40016, 41279]}, u'edge': {u'target': [], u'time': []}}, u'mouseout': {u'state': {u'target': [], u'time': []}, u'edge': {u'target': [], u'time': []}}}",,,"[47950, 2, 1681]",33.86,,1280842,6.0,2.0,mouselab-mdp,,20
"[58573, 64414, 66117]","[u'down', u'down', u'right']",,,"[0, 0, 0]","[u'1', 5, 9, 17]","{u'mouseover': {u'state': {u'target': [], u'time': []}, u'edge': {u'target': [], u'time': []}}, u'click': {u'state': {u'target': [u'2', u'5', u'4', u'3', u'6', u'7', u'13', u'12', u'11', u'10', u'9', u'16', u'17', u'8', u'15', u'14'], u'time': [4654, 5772, 6738, 7670, 12022, 13754, 17874, 19424, 22488, 23339, 27170, 29475, 30706, 34333, 35293, 36253]}, u'edge': {u'target': [], u'time': []}}, u'mouseout': {u'state': {u'target': [], u'time': []}, u'edge': {u'target': [], u'time': []}}}",,,"[58573, 3, 1175]",33.84,,1351011,7.0,7.0,mouselab-mdp,,20
"[46543, 52589, 54358]","[u'left', u'left', u'down']",,,"[0, 0, 0]","[u'1', 4, 8, 15]","{u'mouseover': {u'state': {u'target': [], u'time': []}, u'edge': {u'target': [], u'time': []}}, u'click': {u'state': {u'target': [u'2', u'5', u'4', u'3', u'7', u'9', u'17', u'16', u'13', u'12', u'8', u'15', u'14', u'6', u'11', u'10'], u'time': [5083, 5853, 6688, 7482, 8719, 9782, 10967, 11783, 13201, 14421, 28951, 30045, 30916, 35436, 36248, 37414]}, u'edge': {u'target': [], u'time': []}}, u'mouseout': {u'state': {u'target': [], u'time': []}, u'edge': {u'target': [], u'time': []}}}",,,"[46543, 14, 1264]",39.84,,1408598,8.0,0.0,mouselab-mdp,,20
"[35797, 42234, 43558]","[u'right', u'right', u'down']",,,"[0, 0, 0]","[u'1', 2, 6, 11]","{u'mouseover': {u'state': {u'target': [], u'time': []}, u'edge': {u'target': [], u'time': []}}, u'click': {u'state': {u'target': [u'2', u'3', u'4', u'5', u'7', u'8', u'9', u'6', u'17', u'16', u'10', u'11', u'13', u'12', u'14', u'15'], u'time': [2410, 3147, 3845, 4533, 6797, 8044, 9152, 10229, 17175, 18109, 20402, 21247, 26314, 27146, 28775, 30826]}, u'edge': {u'target': [], u'time': []}}, u'mouseout': {u'state': {u'target': [], u'time': []}, u'edge': {u'target': [], u'time': []}}}",,,"[35797, 14, 802]",37.84,,1463991,9.0,6.0,mouselab-mdp,,20
"[38928, 45295, 47287]","[u'left', u'left', u'up']",,,"[0, 0, 0]","[u'1', 4, 8, 14]","{u'mouseover': {u'state': {u'target': [], u'time': []}, u'edge': {u'target': [], u'time': []}}, u'click': {u'state': {u'target': [u'2', u'5', u'4', u'3', u'9', u'7', u'6', u'8', u'15', u'14', u'10', u'11', u'13', u'12'], u'time': [5123, 5816, 6540, 7301, 9930, 12787, 14370, 16811, 18631, 19509, 21860, 22912, 31602, 32377]}, u'edge': {u'target': [], u'time': []}}, u'mouseout': {u'state': {u'target': [], u'time': []}, u'edge': {u'target': [], u'time': []}}}",,,"[38928, 2, 1287]",33.86,,1516925,10.0,5.0,mouselab-mdp,,20
"[49514, 55811, 57416]","[u'right', u'right', u'up']",,,"[0, 0, 0]","[u'1', 2, 6, 10]","{u'mouseover': {u'state': {u'target': [], u'time': []}, u'edge': {u'target': [], u'time': []}}, u'click': {u'state': {u'target': [u'2', u'5', u'4', u'3', u'7', u'9', u'17', u'16', u'6', u'10', u'11', u'8', u'15', u'14', u'12', u'13'], u'time': [3299, 4010, 4777, 5567, 10408, 11967, 13543, 14353, 17365, 18378, 19335, 25140, 25898, 26951, 45641, 46739]}, u'edge': {u'target': [], u'time': []}}, u'mouseout': {u'state': {u'target': [], u'time': []}, u'edge': {u'target': [], u'time': []}}}",,,"[49513, 15, 1090]",33.84,,1578410,11.0,3.0,mouselab-mdp,,20
"[33173, 39215, 40549]","[u'right', u'right', u'down']",,,"[0, 0, 0]","[u'1', 2, 6, 11]","{u'mouseover': {u'state': {u'target': [], u'time': []}, u'edge': {u'target': [], u'time': []}}, u'click': {u'state': {u'target': [u'2', u'5', u'4', u'3', u'6', u'9', u'17', u'16', u'10', u'11', u'8', u'15', u'14', u'7', u'12', u'13'], u'time': [2385, 3029, 3700, 4359, 6596, 9486, 10431, 11198, 16731, 17677, 21437, 22299, 23183, 24891, 26297, 27089]}, u'edge': {u'target': [], u'time': []}}, u'mouseout': {u'state': {u'target': [], u'time': []}, u'edge': {u'target': [], u'time': []}}}",,,"[33173, 14, 820]",37.84,,1630994,12.0,11.0,mouselab-mdp,,20
"[32860, 44895, 48813]","[u'right', u'right', u'down']",,,"[5, 0, 1]","[u'1', 2, 6, 11]","{u'mouseover': {u'state': {u'target': [], u'time': []}, u'edge': {u'target': [], u'time': []}}, u'click': {u'state': {u'target': [u'4', u'8', u'14', u'5', u'9', u'17', u'3', u'7', u'12', u'2', u'6', u'11'], u'time': [3011, 3866, 4656, 9196, 11017, 12777, 18289, 19069, 20464, 22598, 23120, 23645]}, u'edge': {u'target': [], u'time': []}}, u'mouseout': {u'state': {u'target': [], u'time': []}, u'edge': {u'target': [], u'time': []}}}",,,"[32860, 570, 2881]",2.0,,296878,1.0,3.0,mouselab-mdp,,21
"[11839, 22092, 24664]","[u'up', u'up', u'left']",,,"[5, 0, 1]","[u'1', 3, 7, 12]","{u'mouseover': {u'state': {u'target': [], u'time': []}, u'edge': {u'target': [], u'time': []}}, u'click': {u'state': {u'target': [u'5', u'3', u'7', u'13', u'12'], u'time': [4153, 5570, 7615, 8669, 9169]}, u'edge': {u'target': [], u'time': []}}, u'mouseout': {u'state': {u'target': [], u'time': []}, u'edge': {u'target': [], u'time': []}}}",,,"[11839, 1553, 1637]",29.0,,357225,2.0,7.0,mouselab-mdp,,21
"[6577, 16363, 17508]","[u'left', u'left', u'down']",,,"[5, 0, 1]","[u'1', 4, 8, 15]","{u'mouseover': {u'state': {u'target': [], u'time': []}, u'edge': {u'target': [], u'time': []}}, u'click': {u'state': {u'target': [u'4', u'8', u'14', u'15'], u'time': [1985, 3145, 3812, 4425]}, u'edge': {u'target': [], u'time': []}}, u'mouseout': {u'state': {u'target': [], u'time': []}, u'edge': {u'target': [], u'time': []}}}",,,"[6577, 1400, 185]",46.0,,417879,3.0,8.0,mouselab-mdp,,21
"[26066, 36367, 39052]","[u'up', u'up', u'left']",,,"[5, 0, 1]","[u'1', 3, 7, 12]","{u'mouseover': {u'state': {u'target': [], u'time': []}, u'edge': {u'target': [], u'time': []}}, u'click': {u'state': {u'target': [u'5', u'9', u'16', u'17', u'3', u'7', u'12', u'13'], u'time': [3109, 4229, 5077, 5839, 18844, 21687, 22339, 23372]}, u'edge': {u'target': [], u'time': []}}, u'mouseout': {u'state': {u'target': [], u'time': []}, u'edge': {u'target': [], u'time': []}}}",,,"[26066, 1280, 1875]",36.0,,487432,4.0,1.0,mouselab-mdp,,21
"[19112, 30523, 31451]","[u'down', u'down', u'right']",,,"[5, 0, 1]","[u'1', 5, 9, 17]","{u'mouseover': {u'state': {u'target': [], u'time': []}, u'edge': {u'target': [], u'time': []}}, u'click': {u'state': {u'target': [u'2', u'4', u'3', u'5', u'8', u'14', u'15', u'9', u'16', u'17'], u'time': [10387, 11117, 11937, 12619, 13544, 14277, 15007, 16404, 16884, 17507]}, u'edge': {u'target': [], u'time': []}}, u'mouseout': {u'state': {u'target': [], u'time': []}, u'edge': {u'target': [], u'time': []}}}",,,"[19112, 1790, 0]",32.0,,588854,5.0,4.0,mouselab-mdp,,21
"[15168, 32366, 33914]","[u'left', u'left', u'up']",,,"[5, 0, 1]","[u'1', 4, 8, 14]","{u'mouseover': {u'state': {u'target': [], u'time': []}, u'edge': {u'target': [], u'time': []}}, u'click': {u'state': {u'target': [u'3', u'5', u'4', u'9', u'16', u'17', u'7', u'12', u'13', u'8', u'14', u'15'], u'time': [3688, 4321, 5984, 7814, 8686, 9263, 10063, 10538, 11063, 11938, 12351, 13071]}, u'edge': {u'target': [], u'time': []}}, u'mouseout': {u'state': {u'target': [], u'time': []}, u'edge': {u'target': [], u'time': []}}}",,,"[15168, 7530, 878]",42.0,,665499,6.0,0.0,mouselab-mdp,,21
"[26376, 37383, 38556]","[u'right', u'right', u'up']",,,"[5, 0, 1]","[u'1', 2, 6, 10]","{u'mouseover': {u'state': {u'target': [], u'time': []}, u'edge': {u'target': [], u'time': []}}, u'click': {u'state': {u'target': [u'5', u'4', u'3', u'2', u'7', u'8', u'14', u'15', u'12', u'13', u'6', u'10', u'11', u'9'], u'time': [12143, 13073, 13693, 14478, 15348, 16296, 16906, 17496, 18393, 18906, 19836, 20298, 21140, 24316]}, u'edge': {u'target': [], u'time': []}}, u'mouseout': {u'state': {u'target': [], u'time': []}, u'edge': {u'target': [], u'time': []}}}",,,"[26376, 762, 408]",23.0,,735438,7.0,5.0,mouselab-mdp,,21
"[12086, 22203, 23718]","[u'up', u'up', u'left']",,,"[5, 0, 1]","[u'1', 3, 7, 12]","{u'mouseover': {u'state': {u'target': [], u'time': []}, u'edge': {u'target': [], u'time': []}}, u'click': {u'state': {u'target': [u'3', u'4', u'5', u'2', u'7', u'12', u'13', u'8'], u'time': [2213, 3065, 3656, 4411, 5261, 5821, 6301, 10239]}, u'edge': {u'target': [], u'time': []}}, u'mouseout': {u'state': {u'target': [], u'time': []}, u'edge': {u'target': [], u'time': []}}}",,,"[12086, 495, 412]",32.0,,793924,8.0,10.0,mouselab-mdp,,21
"[8613, 71341, 72342]","[u'left', u'left', u'down']",,,"[5, 0, 1]","[u'1', 4, 8, 15]","{u'mouseover': {u'state': {u'target': [], u'time': []}, u'edge': {u'target': [], u'time': []}}, u'click': {u'state': {u'target': [u'3', u'5', u'4', u'2', u'8', u'14', u'15'], u'time': [2236, 2881, 3396, 4028, 4713, 5288, 6228]}, u'edge': {u'target': [], u'time': []}}, u'mouseout': {u'state': {u'target': [], u'time': []}, u'edge': {u'target': [], u'time': []}}}",,,"[8613, 53168, 1]",34.0,,874080,9.0,9.0,mouselab-mdp,,21
"[11101, 24737, 25854]","[u'right', u'right', u'down']",,,"[5, 0, 1]","[u'1', 2, 6, 11]","{u'mouseover': {u'state': {u'target': [], u'time': []}, u'edge': {u'target': [], u'time': []}}, u'click': {u'state': {u'target': [u'4', u'5', u'2', u'3', u'7', u'12', u'13', u'6', u'10', u'11'], u'time': [1571, 2097, 2752, 3328, 4137, 4657, 5145, 6409, 6994, 7554]}, u'edge': {u'target': [], u'time': []}}, u'mouseout': {u'state': {u'target': [], u'time': []}, u'edge': {u'target': [], u'time': []}}}",,,"[11101, 3668, 98]",46.0,,936020,10.0,6.0,mouselab-mdp,,21
"[31407, 42006, 43534]","[u'right', u'right', u'down']",,,"[5, 0, 1]","[u'1', 2, 6, 11]","{u'mouseover': {u'state': {u'target': [], u'time': []}, u'edge': {u'target': [], u'time': []}}, u'click': {u'state': {u'target': [u'4', u'5', u'2', u'3', u'6', u'10', u'11', u'9', u'16', u'17'], u'time': [1225, 1639, 2225, 2647, 3263, 3904, 4519, 5719, 6247, 6935]}, u'edge': {u'target': [], u'time': []}}, u'mouseout': {u'state': {u'target': [], u'time': []}, u'edge': {u'target': [], u'time': []}}}",,,"[31407, 425, 581]",46.0,,994406,11.0,11.0,mouselab-mdp,,21
"[11517, 22945, 25277]","[u'right', u'right', u'up']",,,"[5, 0, 1]","[u'1', 2, 6, 10]","{u'mouseover': {u'state': {u'target': [], u'time': []}, u'edge': {u'target': [], u'time': []}}, u'click': {u'state': {u'target': [u'4', u'5', u'2', u'3', u'9', u'6', u'10', u'11'], u'time': [1635, 2202, 3043, 3563, 4674, 5643, 6227, 6715]}, u'edge': {u'target': [], u'time': []}}, u'mouseout': {u'state': {u'target': [], u'time': []}, u'edge': {u'target': [], u'time': []}}}",,,"[11517, 1501, 981]",26.0,,1055926,12.0,2.0,mouselab-mdp,,21
"[33764, 38964, 41075]","[u'down', u'down', u'right']",,,"[0, 0, 0]","[u'1', 5, 9, 17]","{u'mouseover': {u'state': {u'target': [], u'time': []}, u'edge': {u'target': [], u'time': []}}, u'click': {u'state': {u'target': [u'3', u'4', u'5', u'2', u'8', u'15', u'14', u'7', u'13', u'12', u'9', u'16', u'17'], u'time': [2861, 6026, 7650, 8186, 9857, 11593, 13377, 16249, 18369, 19961, 25169, 29025, 30361]}, u'edge': {u'target': [], u'time': []}}, u'mouseout': {u'state': {u'target': [], u'time': []}, u'edge': {u'target': [], u'time': []}}}",,,"[33764, 6, 1447]",29.0,,536573,1.0,4.0,mouselab-mdp,,22
"[35751, 41221, 42519]","[u'left', u'left', u'down']",,,"[0, 0, 0]","[u'1', 4, 8, 15]","{u'mouseover': {u'state': {u'target': [], u'time': []}, u'edge': {u'target': [], u'time': []}}, u'click': {u'state': {u'target': [u'2', u'6', u'9', u'17', u'16', u'15', u'8', u'14', u'12', u'7', u'13', u'10', u'11', u'4', u'3', u'5'], u'time': [958, 2413, 3350, 4229, 5014, 5573, 5957, 6285, 7141, 7445, 7883, 8397, 9013, 9989, 13703, 20245]}, u'edge': {u'target': [], u'time': []}}, u'mouseout': {u'state': {u'target': [], u'time': []}, u'edge': {u'target': [], u'time': []}}}",,,"[35751, 3, 781]",25.0,,591869,2.0,9.0,mouselab-mdp,,22
"[6308, 9774, 12413]","[u'left', u'left', u'up']",,,"[0, 0, 0]","[u'1', 4, 8, 14]","{u'mouseover': {u'state': {u'target': [], u'time': []}, u'edge': {u'target': [], u'time': []}}, u'click': {u'state': {u'target': [u'4', u'8', u'15', u'14'], u'time': [994, 1691, 2235, 3309]}, u'edge': {u'target': [], u'time': []}}, u'mouseout': {u'state': {u'target': [], u'time': []}, u'edge': {u'target': [], u'time': []}}}",,,"[6308, 3, 1725]",50.0,,647556,3.0,0.0,mouselab-mdp,,22
"[16369, 21073, 22776]","[u'right', u'right', u'up']",,,"[0, 0, 0]","[u'1', 2, 6, 10]","{u'mouseover': {u'state': {u'target': [], u'time': []}, u'edge': {u'target': [], u'time': []}}, u'click': {u'state': {u'target': [u'4', u'8', u'15', u'14', u'3', u'7', u'13', u'12', u'2', u'6', u'10', u'11', u'5', u'9', u'17', u'16'], u'time': [1719, 2436, 2862, 3565, 7261, 8055, 8601, 9133, 9959, 10342, 10679, 11941, 13189, 13620, 14104, 15015]}, u'edge': {u'target': [], u'time': []}}, u'mouseout': {u'state': {u'target': [], u'time': []}, u'edge': {u'target': [], u'time': []}}}",,,"[16369, 4, 1177]",20.0,,700396,4.0,3.0,mouselab-mdp,,22
"[4002, 9746, 11761]","[u'right', u'right', u'down']",,,"[0, 0, 0]","[u'1', 2, 6, 11]","{u'mouseover': {u'state': {u'target': [], u'time': []}, u'edge': {u'target': [], u'time': []}}, u'click': {u'state': {u'target': [u'6', u'10', u'11'], u'time': [1001, 1648, 2264]}, u'edge': {u'target': [], u'time': []}}, u'mouseout': {u'state': {u'target': [], u'time': []}, u'edge': {u'target': [], u'time': []}}}",,,"[4002, 1058, 838]",53.0,,751660,5.0,6.0,mouselab-mdp,,22
"[11856, 18305, 20072]","[u'right', u'right', u'up']",,,"[0, 0, 0]","[u'1', 2, 6, 10]","{u'mouseover': {u'state': {u'target': [], u'time': []}, u'edge': {u'target': [], u'time': []}}, u'click': {u'state': {u'target': [u'9', u'17', u'5', u'16', u'4', u'8', u'15', u'14', u'12', u'13', u'3', u'7', u'10', u'11', u'6'], u'time': [1143, 1678, 2270, 2727, 3822, 4468, 4877, 5774, 6272, 6693, 7438, 7758, 8926, 9526, 10551]}, u'edge': {u'target': [], u'time': []}}, u'mouseout': {u'state': {u'target': [], u'time': []}, u'edge': {u'target': [], u'time': []}}}",,,"[11856, 938, 1247]",19.0,,804041,6.0,2.0,mouselab-mdp,,22
"[44159, 51275, 52671]","[u'right', u'right', u'down']",,,"[0, 0, 0]","[u'1', 2, 6, 11]","{u'mouseover': {u'state': {u'target': [], u'time': []}, u'edge': {u'target': [], u'time': []}}, u'click': {u'state': {u'target': [u'13', u'12', u'10', u'11', u'17', u'16', u'9', u'5', u'2', u'6', u'4', u'8'], u'time': [2908, 3523, 4182, 4684, 6972, 7692, 8589, 9500, 11164, 11555, 15036, 15629]}, u'edge': {u'target': [], u'time': []}}, u'mouseout': {u'state': {u'target': [], u'time': []}, u'edge': {u'target': [], u'time': []}}}",,,"[44159, 3, 579]",44.0,,864585,7.0,11.0,mouselab-mdp,,22
"[11320, 18673, 20024]","[u'up', u'up', u'left']",,,"[0, 0, 0]","[u'1', 3, 7, 12]","{u'mouseover': {u'state': {u'target': [], u'time': []}, u'edge': {u'target': [], u'time': []}}, u'click': {u'state': {u'target': [u'7', u'13', u'10', u'11', u'17', u'16', u'15', u'14', u'12', u'3', u'4', u'8'], u'time': [2805, 3324, 3724, 4468, 5013, 5652, 6244, 6732, 8068, 9417, 10084, 10517]}, u'edge': {u'target': [], u'time': []}}, u'mouseout': {u'state': {u'target': [], u'time': []}, u'edge': {u'target': [], u'time': []}}}",,,"[11320, 9, 632]",32.0,,917715,8.0,1.0,mouselab-mdp,,22
"[32037, 39231, 40569]","[u'up', u'up', u'left']",,,"[0, 0, 0]","[u'1', 3, 7, 12]","{u'mouseover': {u'state': {u'target': [], u'time': []}, u'edge': {u'target': [], u'time': []}}, u'click': {u'state': {u'target': [u'14', u'12', u'13', u'15', u'16', u'8', u'4', u'17', u'9', u'11', u'10', u'7', u'6', u'3'], u'time': [6334, 6807, 7254, 8470, 9286, 10519, 10879, 11534, 14246, 15248, 15918, 19504, 20422, 23062]}, u'edge': {u'target': [], u'time': []}}, u'mouseout': {u'state': {u'target': [], u'time': []}, u'edge': {u'target': [], u'time': []}}}",,,"[32037, 11, 606]",26.0,,975336,9.0,10.0,mouselab-mdp,,22
"[18369, 26858, 28200]","[u'left', u'left', u'up']",,,"[0, 0, 0]","[u'1', 4, 8, 14]","{u'mouseover': {u'state': {u'target': [], u'time': []}, u'edge': {u'target': [], u'time': []}}, u'click': {u'state': {u'target': [u'12', u'13', u'7', u'14', u'8', u'15', u'4', u'6', u'11', u'10', u'17', u'16', u'9'], u'time': [8701, 9132, 10012, 10924, 11472, 11852, 13782, 14781, 15221, 15775, 16420, 16982, 17340]}, u'edge': {u'target': [], u'time': []}}, u'mouseout': {u'state': {u'target': [], u'time': []}, u'edge': {u'target': [], u'time': []}}}",,,"[18369, 623, 426]",44.0,,1032342,10.0,7.0,mouselab-mdp,,22
