action_times,actions,button_pressed,correct,delays,path,queries,questions,responses,rt,score,stimulus,time_elapsed,trial_index,trial_i,trial_type,view_history,pid
,,,"[True, True, True, True]",,,,"[""True or false: The hidden values will change each time I start a new round."",""How much does it cost to observe each hidden value?"",""How many hidden values am I allowed to observe in each round?"",""How is your bonus determined?""]","[""True"",""$1.00"",""As many or as few as I wish"",""5% of my score on a random round""]",25609,,,173582,,,survey-multi-choice,,0
,,,"[True, False, True, True, True]",,,,"[""True or false: The hidden values will change each time I start a new round."",""How much does it cost to observe each hidden value?"",""How many hidden values am I allowed to observe in each round?"",""How is your bonus determined?"",""What does the feedback teach you?""]","[""True"",""$0.05"",""As many or as few as I wish"",""5% of my score on a random round"",""All of the above.""]",38760,,,174504,,,survey-multi-choice,,1
,,,"[True, True, True, True, True]",,,,"[""True or false: The hidden values will change each time I start a new round."",""How much does it cost to observe each hidden value?"",""How many hidden values am I allowed to observe in each round?"",""How is your bonus determined?"",""What does the feedback teach you?""]","[""True"",""$0.01"",""As many or as few as I wish"",""5% of my score on a random round"",""All of the above.""]",16076,,,214938,,,survey-multi-choice,,1
,,,"[False, True, False, False]",,,,"[""True or false: The hidden values will change each time I start a new round."",""How much does it cost to observe each hidden value?"",""How many hidden values am I allowed to observe in each round?"",""How is your bonus determined?""]","[""False"",""$2.50"",""At most 1"",""10% of my best score on any round""]",19884,,,127083,,,survey-multi-choice,,2
,,,"[True, True, True, True]",,,,"[""True or false: The hidden values will change each time I start a new round."",""How much does it cost to observe each hidden value?"",""How many hidden values am I allowed to observe in each round?"",""How is your bonus determined?""]","[""True"",""$2.50"",""As many or as few as I wish"",""5% of my score on a random round""]",10508,,,171910,,,survey-multi-choice,,2
,,,"[True, True, True, True, False]",,,,"[""True or false: The hidden values will change each time I start a new round."",""How much does it cost to observe each hidden value?"",""How many hidden values am I allowed to observe in each round?"",""How is your bonus determined?"",""What does the feedback teach you?""]","[""True"",""$0.01"",""As many or as few as I wish"",""5% of my score on a random round"",""Whether I chose the move that was best according to the information I had.""]",41262,,,130828,,,survey-multi-choice,,3
,,,"[True, True, True, True, True]",,,,"[""True or false: The hidden values will change each time I start a new round."",""How much does it cost to observe each hidden value?"",""How many hidden values am I allowed to observe in each round?"",""How is your bonus determined?"",""What does the feedback teach you?""]","[""True"",""$0.01"",""As many or as few as I wish"",""5% of my score on a random round"",""All of the above.""]",14064,,,163562,,,survey-multi-choice,,3
,,,"[True, True, True, True, True]",,,,"[""True or false: The hidden values will change each time I start a new round."",""How much does it cost to observe each hidden value?"",""How many hidden values am I allowed to observe in each round?"",""How is your bonus determined?"",""What does the feedback teach you?""]","[""True"",""$2.50"",""As many or as few as I wish"",""5% of my score on a random round"",""All of the above.""]",19126,,,472246,,,survey-multi-choice,,4
,,,"[True, True, True, True, False]",,,,"[""True or false: The hidden values will change each time I start a new round."",""How much does it cost to observe each hidden value?"",""How many hidden values am I allowed to observe in each round?"",""How is your bonus determined?"",""What does the feedback teach you?""]","[""True"",""$1.00"",""As many or as few as I wish"",""5% of my score on a random round"",""The length of the delay is based on how much more money I could have earned by planning and deciding better.""]",39108,,,224808,,,survey-multi-choice,,5
,,,"[True, True, True, True, True]",,,,"[""True or false: The hidden values will change each time I start a new round."",""How much does it cost to observe each hidden value?"",""How many hidden values am I allowed to observe in each round?"",""How is your bonus determined?"",""What does the feedback teach you?""]","[""True"",""$1.00"",""As many or as few as I wish"",""5% of my score on a random round"",""All of the above.""]",28876,,,334748,,,survey-multi-choice,,5
,,,"[True, True, True, False, True]",,,,"[""True or false: The hidden values will change each time I start a new round."",""How much does it cost to observe each hidden value?"",""How many hidden values am I allowed to observe in each round?"",""How is your bonus determined?"",""What does the feedback teach you?""]","[""True"",""$2.50"",""As many or as few as I wish"",""5% of my best score on any round"",""All of the above.""]",24768,,,101050,,,survey-multi-choice,,6
,,,"[True, True, True, True, True]",,,,"[""True or false: The hidden values will change each time I start a new round."",""How much does it cost to observe each hidden value?"",""How many hidden values am I allowed to observe in each round?"",""How is your bonus determined?"",""What does the feedback teach you?""]","[""True"",""$2.50"",""As many or as few as I wish"",""5% of my score on a random round"",""All of the above.""]",10212,,,148106,,,survey-multi-choice,,6
,,,"[True, True, True, True, True]",,,,"[""True or false: The hidden values will change each time I start a new round."",""How much does it cost to observe each hidden value?"",""How many hidden values am I allowed to observe in each round?"",""How is your bonus determined?"",""What does the feedback teach you?""]","[""True"",""$0.01"",""As many or as few as I wish"",""5% of my score on a random round"",""All of the above.""]",16042,,,243461,,,survey-multi-choice,,7
,,,"[True, True, True, False, True]",,,,"[""True or false: The hidden values will change each time I start a new round."",""How much does it cost to observe each hidden value?"",""How many hidden values am I allowed to observe in each round?"",""How is your bonus determined?"",""What does the feedback teach you?""]","[""True"",""$2.50"",""As many or as few as I wish"",""10% of my best score on any round"",""All of the above.""]",43141,,,197763,,,survey-multi-choice,,8
,,,"[True, True, True, True, True]",,,,"[""True or false: The hidden values will change each time I start a new round."",""How much does it cost to observe each hidden value?"",""How many hidden values am I allowed to observe in each round?"",""How is your bonus determined?"",""What does the feedback teach you?""]","[""True"",""$2.50"",""As many or as few as I wish"",""5% of my score on a random round"",""All of the above.""]",18249,,,246591,,,survey-multi-choice,,8
,,,"[True, True, False, False, True]",,,,"[""True or false: The hidden values will change each time I start a new round."",""How much does it cost to observe each hidden value?"",""How many hidden values am I allowed to observe in each round?"",""How is your bonus determined?"",""What does the feedback teach you?""]","[""True"",""$1.00"",""At most 1"",""5% of my best score on any round"",""All of the above.""]",25165,,,255294,,,survey-multi-choice,,9
,,,"[True, True, True, True, True]",,,,"[""True or false: The hidden values will change each time I start a new round."",""How much does it cost to observe each hidden value?"",""How many hidden values am I allowed to observe in each round?"",""How is your bonus determined?"",""What does the feedback teach you?""]","[""True"",""$1.00"",""As many or as few as I wish"",""5% of my score on a random round"",""All of the above.""]",12778,,,304329,,,survey-multi-choice,,9
,,,"[True, True, True, True, True]",,,,"[""True or false: The hidden values will change each time I start a new round."",""How much does it cost to observe each hidden value?"",""How many hidden values am I allowed to observe in each round?"",""How is your bonus determined?"",""What does the feedback teach you?""]","[""True"",""$0.01"",""As many or as few as I wish"",""5% of my score on a random round"",""All of the above.""]",134354,,,224766,,,survey-multi-choice,,10
,,,"[True, True, True, True]",,,,"[""True or false: The hidden values will change each time I start a new round."",""How much does it cost to observe each hidden value?"",""How many hidden values am I allowed to observe in each round?"",""How is your bonus determined?""]","[""True"",""$0.01"",""As many or as few as I wish"",""5% of my score on a random round""]",17008,,,132693,,,survey-multi-choice,,11
,,,"[True, True, True, False]",,,,"[""True or false: The hidden values will change each time I start a new round."",""How much does it cost to observe each hidden value?"",""How many hidden values am I allowed to observe in each round?"",""How is your bonus determined?""]","[""True"",""$0.01"",""As many or as few as I wish"",""10% of my total score on all rounds""]",12874,,,59156,,,survey-multi-choice,,12
,,,"[True, True, True, True]",,,,"[""True or false: The hidden values will change each time I start a new round."",""How much does it cost to observe each hidden value?"",""How many hidden values am I allowed to observe in each round?"",""How is your bonus determined?""]","[""True"",""$0.01"",""As many or as few as I wish"",""5% of my score on a random round""]",7906,,,98700,,,survey-multi-choice,,12
,,,"[True, True, True, True]",,,,"[""True or false: The hidden values will change each time I start a new round."",""How much does it cost to observe each hidden value?"",""How many hidden values am I allowed to observe in each round?"",""How is your bonus determined?""]","[""True"",""$1.00"",""As many or as few as I wish"",""5% of my score on a random round""]",20046,,,149512,,,survey-multi-choice,,13
,,,"[True, True, True, True]",,,,"[""True or false: The hidden values will change each time I start a new round."",""How much does it cost to observe each hidden value?"",""How many hidden values am I allowed to observe in each round?"",""How is your bonus determined?""]","[""True"",""$2.50"",""As many or as few as I wish"",""5% of my score on a random round""]",42248,,,189214,,,survey-multi-choice,,14
,,,"[True, True, True, True, True]",,,,"[""True or false: The hidden values will change each time I start a new round."",""How much does it cost to observe each hidden value?"",""How many hidden values am I allowed to observe in each round?"",""How is your bonus determined?"",""What does the feedback teach you?""]","[""True"",""$2.50"",""As many or as few as I wish"",""5% of my score on a random round"",""All of the above.""]",45816,,,198148,,,survey-multi-choice,,15
,,,"[True, False, False, False, False]",,,,"[""True or false: The hidden values will change each time I start a new round."",""How much does it cost to observe each hidden value?"",""How many hidden values am I allowed to observe in each round?"",""How is your bonus determined?"",""What does the feedback teach you?""]","[""True"",""$0.05"",""At most 10"",""10% of my best score on any round"",""Whether I observed the rewards of relevant locations.""]",7607,,,21615,,,survey-multi-choice,,16
,,,"[True, True, True, True, True]",,,,"[""True or false: The hidden values will change each time I start a new round."",""How much does it cost to observe each hidden value?"",""How many hidden values am I allowed to observe in each round?"",""How is your bonus determined?"",""What does the feedback teach you?""]","[""True"",""$2.50"",""As many or as few as I wish"",""5% of my score on a random round"",""All of the above.""]",29919,,,117050,,,survey-multi-choice,,16
,,,"[True, False, True, True]",,,,"[""True or false: The hidden values will change each time I start a new round."",""How much does it cost to observe each hidden value?"",""How many hidden values am I allowed to observe in each round?"",""How is your bonus determined?""]","[""True"",""$0.05"",""As many or as few as I wish"",""5% of my score on a random round""]",28627,,,196037,,,survey-multi-choice,,17
,,,"[True, True, True, True]",,,,"[""True or false: The hidden values will change each time I start a new round."",""How much does it cost to observe each hidden value?"",""How many hidden values am I allowed to observe in each round?"",""How is your bonus determined?""]","[""True"",""$0.01"",""As many or as few as I wish"",""5% of my score on a random round""]",10132,,,233274,,,survey-multi-choice,,17
,,,"[True, True, True, True]",,,,"[""True or false: The hidden values will change each time I start a new round."",""How much does it cost to observe each hidden value?"",""How many hidden values am I allowed to observe in each round?"",""How is your bonus determined?""]","[""True"",""$0.01"",""As many or as few as I wish"",""5% of my score on a random round""]",43884,,,149185,,,survey-multi-choice,,18
,,,"[True, True, True, True]",,,,"[""True or false: The hidden values will change each time I start a new round."",""How much does it cost to observe each hidden value?"",""How many hidden values am I allowed to observe in each round?"",""How is your bonus determined?""]","[""True"",""$1.00"",""As many or as few as I wish"",""5% of my score on a random round""]",28681,,,143825,,,survey-multi-choice,,19
,,,"[True, True, True, True, True]",,,,"[""True or false: The hidden values will change each time I start a new round."",""How much does it cost to observe each hidden value?"",""How many hidden values am I allowed to observe in each round?"",""How is your bonus determined?"",""What does the feedback teach you?""]","[""True"",""$2.50"",""As many or as few as I wish"",""5% of my score on a random round"",""All of the above.""]",34214,,,120587,,,survey-multi-choice,,20
,,,"[True, True, True, True]",,,,"[""True or false: The hidden values will change each time I start a new round."",""How much does it cost to observe each hidden value?"",""How many hidden values am I allowed to observe in each round?"",""How is your bonus determined?""]","[""True"",""$1.00"",""As many or as few as I wish"",""5% of my score on a random round""]",12559,,,135027,,,survey-multi-choice,,21
,,,"[True, True, True, True]",,,,"[""True or false: The hidden values will change each time I start a new round."",""How much does it cost to observe each hidden value?"",""How many hidden values am I allowed to observe in each round?"",""How is your bonus determined?""]","[""True"",""$0.01"",""As many or as few as I wish"",""5% of my score on a random round""]",21250,,,156642,,,survey-multi-choice,,22
,,,"[True, True, True, False, False]",,,,"[""True or false: The hidden values will change each time I start a new round."",""How much does it cost to observe each hidden value?"",""How many hidden values am I allowed to observe in each round?"",""How is your bonus determined?"",""What does the feedback teach you?""]","[""True"",""$2.50"",""As many or as few as I wish"",""5% of my best score on any round"",""The length of the delay is based on how much more money I could have earned by planning and deciding better.""]",18275,,,73844,,,survey-multi-choice,,23
,,,"[True, True, True, True, True]",,,,"[""True or false: The hidden values will change each time I start a new round."",""How much does it cost to observe each hidden value?"",""How many hidden values am I allowed to observe in each round?"",""How is your bonus determined?"",""What does the feedback teach you?""]","[""True"",""$2.50"",""As many or as few as I wish"",""5% of my score on a random round"",""All of the above.""]",67648,,,209187,,,survey-multi-choice,,23
,,,"[True, True, True, False, False]",,,,"[""True or false: The hidden values will change each time I start a new round."",""How much does it cost to observe each hidden value?"",""How many hidden values am I allowed to observe in each round?"",""How is your bonus determined?"",""What does the feedback teach you?""]","[""True"",""$1.00"",""As many or as few as I wish"",""5% of my best score on any round"",""Whether I observed the rewards of relevant locations.""]",52064,,,178122,,,survey-multi-choice,,24
,,,"[True, True, True, True, False]",,,,"[""True or false: The hidden values will change each time I start a new round."",""How much does it cost to observe each hidden value?"",""How many hidden values am I allowed to observe in each round?"",""How is your bonus determined?"",""What does the feedback teach you?""]","[""True"",""$1.00"",""As many or as few as I wish"",""5% of my score on a random round"",""Whether I observed the rewards of relevant locations.""]",50885,,,367089,,,survey-multi-choice,,24
,,,"[True, True, True, True, True]",,,,"[""True or false: The hidden values will change each time I start a new round."",""How much does it cost to observe each hidden value?"",""How many hidden values am I allowed to observe in each round?"",""How is your bonus determined?"",""What does the feedback teach you?""]","[""True"",""$1.00"",""As many or as few as I wish"",""5% of my score on a random round"",""All of the above.""]",159700,,,532907,,,survey-multi-choice,,24
,,,"[True, True, False, True, False]",,,,"[""True or false: The hidden values will change each time I start a new round."",""How much does it cost to observe each hidden value?"",""How many hidden values am I allowed to observe in each round?"",""How is your bonus determined?"",""What does the feedback teach you?""]","[""True"",""$2.50"",""At most 5"",""5% of my score on a random round"",""Whether I chose the move that was best according to the information I had.""]",25416,,,129006,,,survey-multi-choice,,25
,,,"[True, True, True, True, True]",,,,"[""True or false: The hidden values will change each time I start a new round."",""How much does it cost to observe each hidden value?"",""How many hidden values am I allowed to observe in each round?"",""How is your bonus determined?"",""What does the feedback teach you?""]","[""True"",""$2.50"",""As many or as few as I wish"",""5% of my score on a random round"",""All of the above.""]",30859,,,253887,,,survey-multi-choice,,25
,,,"[True, True, True, True, False]",,,,"[""True or false: The hidden values will change each time I start a new round."",""How much does it cost to observe each hidden value?"",""How many hidden values am I allowed to observe in each round?"",""How is your bonus determined?"",""What does the feedback teach you?""]","[""True"",""$1.00"",""As many or as few as I wish"",""5% of my score on a random round"",""Whether I chose the move that was best according to the information I had.""]",29539,,,157979,,,survey-multi-choice,,26
,,,"[True, True, True, True, True]",,,,"[""True or false: The hidden values will change each time I start a new round."",""How much does it cost to observe each hidden value?"",""How many hidden values am I allowed to observe in each round?"",""How is your bonus determined?"",""What does the feedback teach you?""]","[""True"",""$1.00"",""As many or as few as I wish"",""5% of my score on a random round"",""All of the above.""]",15054,,,222991,,,survey-multi-choice,,26
,,,"[True, True, True, False, True]",,,,"[""True or false: The hidden values will change each time I start a new round."",""How much does it cost to observe each hidden value?"",""How many hidden values am I allowed to observe in each round?"",""How is your bonus determined?"",""What does the feedback teach you?""]","[""True"",""$1.00"",""As many or as few as I wish"",""5% of my best score on any round"",""All of the above.""]",32530,,,99701,,,survey-multi-choice,,27
,,,"[True, True, True, True, False]",,,,"[""True or false: The hidden values will change each time I start a new round."",""How much does it cost to observe each hidden value?"",""How many hidden values am I allowed to observe in each round?"",""How is your bonus determined?"",""What does the feedback teach you?""]","[""True"",""$1.00"",""As many or as few as I wish"",""5% of my score on a random round"",""Whether I chose the move that was best according to the information I had.""]",27101,,,260770,,,survey-multi-choice,,27
,,,"[True, True, True, True, False]",,,,"[""True or false: The hidden values will change each time I start a new round."",""How much does it cost to observe each hidden value?"",""How many hidden values am I allowed to observe in each round?"",""How is your bonus determined?"",""What does the feedback teach you?""]","[""True"",""$1.00"",""As many or as few as I wish"",""5% of my score on a random round"",""Whether I chose the move that was best according to the information I had.""]",16448,,,308570,,,survey-multi-choice,,27
,,,"[True, True, True, True, False]",,,,"[""True or false: The hidden values will change each time I start a new round."",""How much does it cost to observe each hidden value?"",""How many hidden values am I allowed to observe in each round?"",""How is your bonus determined?"",""What does the feedback teach you?""]","[""True"",""$1.00"",""As many or as few as I wish"",""5% of my score on a random round"",""Whether I chose the move that was best according to the information I had.""]",18621,,,359481,,,survey-multi-choice,,27
,,,"[True, True, True, True, False]",,,,"[""True or false: The hidden values will change each time I start a new round."",""How much does it cost to observe each hidden value?"",""How many hidden values am I allowed to observe in each round?"",""How is your bonus determined?"",""What does the feedback teach you?""]","[""True"",""$1.00"",""As many or as few as I wish"",""5% of my score on a random round"",""The length of the delay is based on how much more money I could have earned by planning and deciding better.""]",23108,,,440205,,,survey-multi-choice,,27
,,,"[True, True, True, True, True]",,,,"[""True or false: The hidden values will change each time I start a new round."",""How much does it cost to observe each hidden value?"",""How many hidden values am I allowed to observe in each round?"",""How is your bonus determined?"",""What does the feedback teach you?""]","[""True"",""$1.00"",""As many or as few as I wish"",""5% of my score on a random round"",""All of the above.""]",18041,,,492955,,,survey-multi-choice,,27
,,,"[True, True, True, True]",,,,"[""True or false: The hidden values will change each time I start a new round."",""How much does it cost to observe each hidden value?"",""How many hidden values am I allowed to observe in each round?"",""How is your bonus determined?""]","[""True"",""$2.50"",""As many or as few as I wish"",""5% of my score on a random round""]",21099,,,131290,,,survey-multi-choice,,28
,,,"[True, True, True, True, True]",,,,"[""True or false: The hidden values will change each time I start a new round."",""How much does it cost to observe each hidden value?"",""How many hidden values am I allowed to observe in each round?"",""How is your bonus determined?"",""What does the feedback teach you?""]","[""True"",""$2.50"",""As many or as few as I wish"",""5% of my score on a random round"",""All of the above.""]",35067,,,161085,,,survey-multi-choice,,29
,,,"[True, True, True, False, True]",,,,"[""True or false: The hidden values will change each time I start a new round."",""How much does it cost to observe each hidden value?"",""How many hidden values am I allowed to observe in each round?"",""How is your bonus determined?"",""What does the feedback teach you?""]","[""True"",""$0.01"",""As many or as few as I wish"",""5% of my best score on any round"",""All of the above.""]",82259,,,252287,,,survey-multi-choice,,30
,,,"[True, True, True, True, True]",,,,"[""True or false: The hidden values will change each time I start a new round."",""How much does it cost to observe each hidden value?"",""How many hidden values am I allowed to observe in each round?"",""How is your bonus determined?"",""What does the feedback teach you?""]","[""True"",""$0.01"",""As many or as few as I wish"",""5% of my score on a random round"",""All of the above.""]",342672,,,736442,,,survey-multi-choice,,30
,,,"[True, True, True, False]",,,,"[""True or false: The hidden values will change each time I start a new round."",""How much does it cost to observe each hidden value?"",""How many hidden values am I allowed to observe in each round?"",""How is your bonus determined?""]","[""True"",""$1.00"",""As many or as few as I wish"",""10% of my total score on all rounds""]",25749,,,168999,,,survey-multi-choice,,31
,,,"[True, True, True, True]",,,,"[""True or false: The hidden values will change each time I start a new round."",""How much does it cost to observe each hidden value?"",""How many hidden values am I allowed to observe in each round?"",""How is your bonus determined?""]","[""True"",""$1.00"",""As many or as few as I wish"",""5% of my score on a random round""]",8321,,,232037,,,survey-multi-choice,,31
,,,"[True, True, False, True, True]",,,,"[""True or false: The hidden values will change each time I start a new round."",""How much does it cost to observe each hidden value?"",""How many hidden values am I allowed to observe in each round?"",""How is your bonus determined?"",""What does the feedback teach you?""]","[""True"",""$1.00"",""At most 5"",""5% of my score on a random round"",""All of the above.""]",29153,,,115734,,,survey-multi-choice,,32
,,,"[True, True, True, True, False]",,,,"[""True or false: The hidden values will change each time I start a new round."",""How much does it cost to observe each hidden value?"",""How many hidden values am I allowed to observe in each round?"",""How is your bonus determined?"",""What does the feedback teach you?""]","[""True"",""$1.00"",""As many or as few as I wish"",""5% of my score on a random round"",""Whether I observed the rewards of relevant locations.""]",18953,,,176028,,,survey-multi-choice,,32
,,,"[True, True, True, True, True]",,,,"[""True or false: The hidden values will change each time I start a new round."",""How much does it cost to observe each hidden value?"",""How many hidden values am I allowed to observe in each round?"",""How is your bonus determined?"",""What does the feedback teach you?""]","[""True"",""$1.00"",""As many or as few as I wish"",""5% of my score on a random round"",""All of the above.""]",11406,,,229680,,,survey-multi-choice,,32
,,,"[True, True, False, False, True]",,,,"[""True or false: The hidden values will change each time I start a new round."",""How much does it cost to observe each hidden value?"",""How many hidden values am I allowed to observe in each round?"",""How is your bonus determined?"",""What does the feedback teach you?""]","[""True"",""$1.00"",""At most 5"",""5% of my best score on any round"",""All of the above.""]",46226,,,166724,,,survey-multi-choice,,33
,,,"[True, True, True, False, True]",,,,"[""True or false: The hidden values will change each time I start a new round."",""How much does it cost to observe each hidden value?"",""How many hidden values am I allowed to observe in each round?"",""How is your bonus determined?"",""What does the feedback teach you?""]","[""True"",""$1.00"",""As many or as few as I wish"",""5% of my best score on any round"",""All of the above.""]",16571,,,257234,,,survey-multi-choice,,33
,,,"[True, True, False, False, False]",,,,"[""True or false: The hidden values will change each time I start a new round."",""How much does it cost to observe each hidden value?"",""How many hidden values am I allowed to observe in each round?"",""How is your bonus determined?"",""What does the feedback teach you?""]","[""True"",""$1.00"",""At most 1"",""5% of my best score on any round"",""Whether I observed the rewards of relevant locations.""]",19114,,,359042,,,survey-multi-choice,,33
,,,"[True, True, False, False, True]",,,,"[""True or false: The hidden values will change each time I start a new round."",""How much does it cost to observe each hidden value?"",""How many hidden values am I allowed to observe in each round?"",""How is your bonus determined?"",""What does the feedback teach you?""]","[""True"",""$1.00"",""At most 1"",""5% of my best score on any round"",""All of the above.""]",10398,,,377577,,,survey-multi-choice,,33
,,,"[True, True, False, True, True]",,,,"[""True or false: The hidden values will change each time I start a new round."",""How much does it cost to observe each hidden value?"",""How many hidden values am I allowed to observe in each round?"",""How is your bonus determined?"",""What does the feedback teach you?""]","[""True"",""$1.00"",""At most 1"",""5% of my score on a random round"",""All of the above.""]",21987,,,460272,,,survey-multi-choice,,33
,,,"[True, True, True, True, True]",,,,"[""True or false: The hidden values will change each time I start a new round."",""How much does it cost to observe each hidden value?"",""How many hidden values am I allowed to observe in each round?"",""How is your bonus determined?"",""What does the feedback teach you?""]","[""True"",""$1.00"",""As many or as few as I wish"",""5% of my score on a random round"",""All of the above.""]",12790,,,483129,,,survey-multi-choice,,33
,,,"[True, True, True, False, True]",,,,"[""True or false: The hidden values will change each time I start a new round."",""How much does it cost to observe each hidden value?"",""How many hidden values am I allowed to observe in each round?"",""How is your bonus determined?"",""What does the feedback teach you?""]","[""True"",""$2.50"",""As many or as few as I wish"",""5% of my best score on any round"",""All of the above.""]",52505,,,216406,,,survey-multi-choice,,34
,,,"[True, True, True, False, True]",,,,"[""True or false: The hidden values will change each time I start a new round."",""How much does it cost to observe each hidden value?"",""How many hidden values am I allowed to observe in each round?"",""How is your bonus determined?"",""What does the feedback teach you?""]","[""True"",""$2.50"",""As many or as few as I wish"",""5% of my best score on any round"",""All of the above.""]",23428,,,309397,,,survey-multi-choice,,34
,,,"[True, True, True, True, True]",,,,"[""True or false: The hidden values will change each time I start a new round."",""How much does it cost to observe each hidden value?"",""How many hidden values am I allowed to observe in each round?"",""How is your bonus determined?"",""What does the feedback teach you?""]","[""True"",""$2.50"",""As many or as few as I wish"",""5% of my score on a random round"",""All of the above.""]",10576,,,328653,,,survey-multi-choice,,34
,,,"[True, True, True, False, False]",,,,"[""True or false: The hidden values will change each time I start a new round."",""How much does it cost to observe each hidden value?"",""How many hidden values am I allowed to observe in each round?"",""How is your bonus determined?"",""What does the feedback teach you?""]","[""True"",""$2.50"",""As many or as few as I wish"",""10% of my total score on all rounds"",""Whether I observed the rewards of relevant locations.""]",26779,,,131131,,,survey-multi-choice,,35
,,,"[True, True, True, True, True]",,,,"[""True or false: The hidden values will change each time I start a new round."",""How much does it cost to observe each hidden value?"",""How many hidden values am I allowed to observe in each round?"",""How is your bonus determined?"",""What does the feedback teach you?""]","[""True"",""$2.50"",""As many or as few as I wish"",""5% of my score on a random round"",""All of the above.""]",27397,,,201445,,,survey-multi-choice,,35
,,,"[True, True, True, True, True]",,,,"[""True or false: The hidden values will change each time I start a new round."",""How much does it cost to observe each hidden value?"",""How many hidden values am I allowed to observe in each round?"",""How is your bonus determined?"",""What does the feedback teach you?""]","[""True"",""$0.01"",""As many or as few as I wish"",""5% of my score on a random round"",""All of the above.""]",28058,,,153248,,,survey-multi-choice,,36
,,,"[True, True, True, True]",,,,"[""True or false: The hidden values will change each time I start a new round."",""How much does it cost to observe each hidden value?"",""How many hidden values am I allowed to observe in each round?"",""How is your bonus determined?""]","[""True"",""$1.00"",""As many or as few as I wish"",""5% of my score on a random round""]",12137,,,70847,,,survey-multi-choice,,37
,,,"[True, True, True, True, True]",,,,"[""True or false: The hidden values will change each time I start a new round."",""How much does it cost to observe each hidden value?"",""How many hidden values am I allowed to observe in each round?"",""How is your bonus determined?"",""What does the feedback teach you?""]","[""True"",""$1.00"",""As many or as few as I wish"",""5% of my score on a random round"",""All of the above.""]",14997,,,64396,,,survey-multi-choice,,38
,,,"[True, True, True, True, True]",,,,"[""True or false: The hidden values will change each time I start a new round."",""How much does it cost to observe each hidden value?"",""How many hidden values am I allowed to observe in each round?"",""How is your bonus determined?"",""What does the feedback teach you?""]","[""True"",""$0.01"",""As many or as few as I wish"",""5% of my score on a random round"",""All of the above.""]",45705,,,120402,,,survey-multi-choice,,39
,,,"[True, True, True, False]",,,,"[""True or false: The hidden values will change each time I start a new round."",""How much does it cost to observe each hidden value?"",""How many hidden values am I allowed to observe in each round?"",""How is your bonus determined?""]","[""True"",""$2.50"",""As many or as few as I wish"",""10% of my total score on all rounds""]",12904,,,87287,,,survey-multi-choice,,40
,,,"[True, True, True, False]",,,,"[""True or false: The hidden values will change each time I start a new round."",""How much does it cost to observe each hidden value?"",""How many hidden values am I allowed to observe in each round?"",""How is your bonus determined?""]","[""True"",""$2.50"",""As many or as few as I wish"",""5% of my best score on any round""]",9883,,,131396,,,survey-multi-choice,,40
,,,"[True, True, False, False]",,,,"[""True or false: The hidden values will change each time I start a new round."",""How much does it cost to observe each hidden value?"",""How many hidden values am I allowed to observe in each round?"",""How is your bonus determined?""]","[""True"",""$2.50"",""At most 1"",""5% of my best score on any round""]",10225,,,187278,,,survey-multi-choice,,40
,,,"[True, True, False, True]",,,,"[""True or false: The hidden values will change each time I start a new round."",""How much does it cost to observe each hidden value?"",""How many hidden values am I allowed to observe in each round?"",""How is your bonus determined?""]","[""True"",""$2.50"",""At most 10"",""5% of my score on a random round""]",16415,,,226829,,,survey-multi-choice,,40
,,,"[True, True, True, True]",,,,"[""True or false: The hidden values will change each time I start a new round."",""How much does it cost to observe each hidden value?"",""How many hidden values am I allowed to observe in each round?"",""How is your bonus determined?""]","[""True"",""$2.50"",""As many or as few as I wish"",""5% of my score on a random round""]",4871,,,238339,,,survey-multi-choice,,40
,,,"[True, True, True, False]",,,,"[""True or false: The hidden values will change each time I start a new round."",""How much does it cost to observe each hidden value?"",""How many hidden values am I allowed to observe in each round?"",""How is your bonus determined?""]","[""True"",""$1.00"",""As many or as few as I wish"",""10% of my total score on all rounds""]",21450,,,87247,,,survey-multi-choice,,41
,,,"[True, True, True, True]",,,,"[""True or false: The hidden values will change each time I start a new round."",""How much does it cost to observe each hidden value?"",""How many hidden values am I allowed to observe in each round?"",""How is your bonus determined?""]","[""True"",""$1.00"",""As many or as few as I wish"",""5% of my score on a random round""]",14734,,,182889,,,survey-multi-choice,,41
,,,"[True, True, True, True, True]",,,,"[""True or false: The hidden values will change each time I start a new round."",""How much does it cost to observe each hidden value?"",""How many hidden values am I allowed to observe in each round?"",""How is your bonus determined?"",""What does the feedback teach you?""]","[""True"",""$2.50"",""As many or as few as I wish"",""5% of my score on a random round"",""All of the above.""]",18507,,,93650,,,survey-multi-choice,,42
,,,"[True, True, True, True, False]",,,,"[""True or false: The hidden values will change each time I start a new round."",""How much does it cost to observe each hidden value?"",""How many hidden values am I allowed to observe in each round?"",""How is your bonus determined?"",""What does the feedback teach you?""]","[""True"",""$1.00"",""As many or as few as I wish"",""5% of my score on a random round"",""Whether I chose the move that was best according to the information I had.""]",25887,,,118848,,,survey-multi-choice,,43
,,,"[True, True, True, True, False]",,,,"[""True or false: The hidden values will change each time I start a new round."",""How much does it cost to observe each hidden value?"",""How many hidden values am I allowed to observe in each round?"",""How is your bonus determined?"",""What does the feedback teach you?""]","[""True"",""$1.00"",""As many or as few as I wish"",""5% of my score on a random round"",""Whether I chose the move that was best according to the information I had.""]",14596,,,178080,,,survey-multi-choice,,43
,,,"[True, True, True, True, True]",,,,"[""True or false: The hidden values will change each time I start a new round."",""How much does it cost to observe each hidden value?"",""How many hidden values am I allowed to observe in each round?"",""How is your bonus determined?"",""What does the feedback teach you?""]","[""True"",""$1.00"",""As many or as few as I wish"",""5% of my score on a random round"",""All of the above.""]",6588,,,191114,,,survey-multi-choice,,43
,,,"[True, True, True, True, False]",,,,"[""True or false: The hidden values will change each time I start a new round."",""How much does it cost to observe each hidden value?"",""How many hidden values am I allowed to observe in each round?"",""How is your bonus determined?"",""What does the feedback teach you?""]","[""True"",""$1.00"",""As many or as few as I wish"",""5% of my score on a random round"",""The length of the delay is based on how much more money I could have earned by planning and deciding better.""]",43547,,,268278,,,survey-multi-choice,,44
,,,"[True, True, True, True, True]",,,,"[""True or false: The hidden values will change each time I start a new round."",""How much does it cost to observe each hidden value?"",""How many hidden values am I allowed to observe in each round?"",""How is your bonus determined?"",""What does the feedback teach you?""]","[""True"",""$1.00"",""As many or as few as I wish"",""5% of my score on a random round"",""All of the above.""]",11270,,,311031,,,survey-multi-choice,,44
,,,"[True, True, True, True]",,,,"[""True or false: The hidden values will change each time I start a new round."",""How much does it cost to observe each hidden value?"",""How many hidden values am I allowed to observe in each round?"",""How is your bonus determined?""]","[""True"",""$2.50"",""As many or as few as I wish"",""5% of my score on a random round""]",21364,,,143472,,,survey-multi-choice,,45
,,,"[True, False, True, True, False]",,,,"[""True or false: The hidden values will change each time I start a new round."",""How much does it cost to observe each hidden value?"",""How many hidden values am I allowed to observe in each round?"",""How is your bonus determined?"",""What does the feedback teach you?""]","[""True"",""$0.05"",""As many or as few as I wish"",""5% of my score on a random round"",""Whether I chose the move that was best according to the information I had.""]",42141,,,181906,,,survey-multi-choice,,46
,,,"[True, True, True, True, True]",,,,"[""True or false: The hidden values will change each time I start a new round."",""How much does it cost to observe each hidden value?"",""How many hidden values am I allowed to observe in each round?"",""How is your bonus determined?"",""What does the feedback teach you?""]","[""True"",""$0.01"",""As many or as few as I wish"",""5% of my score on a random round"",""All of the above.""]",21155,,,259927,,,survey-multi-choice,,46
,,,"[True, True, True, True, True]",,,,"[""True or false: The hidden values will change each time I start a new round."",""How much does it cost to observe each hidden value?"",""How many hidden values am I allowed to observe in each round?"",""How is your bonus determined?"",""What does the feedback teach you?""]","[""True"",""$2.50"",""As many or as few as I wish"",""5% of my score on a random round"",""All of the above.""]",32535,,,204064,,,survey-multi-choice,,47
,,,"[True, True, True, True, True]",,,,"[""True or false: The hidden values will change each time I start a new round."",""How much does it cost to observe each hidden value?"",""How many hidden values am I allowed to observe in each round?"",""How is your bonus determined?"",""What does the feedback teach you?""]","[""True"",""$0.01"",""As many or as few as I wish"",""5% of my score on a random round"",""All of the above.""]",25468,,,89780,,,survey-multi-choice,,48
,,,"[True, True, False, True, True]",,,,"[""True or false: The hidden values will change each time I start a new round."",""How much does it cost to observe each hidden value?"",""How many hidden values am I allowed to observe in each round?"",""How is your bonus determined?"",""What does the feedback teach you?""]","[""True"",""$2.50"",""At most 5"",""5% of my score on a random round"",""All of the above.""]",25537,,,79965,,,survey-multi-choice,,49
,,,"[True, True, False, True, True]",,,,"[""True or false: The hidden values will change each time I start a new round."",""How much does it cost to observe each hidden value?"",""How many hidden values am I allowed to observe in each round?"",""How is your bonus determined?"",""What does the feedback teach you?""]","[""True"",""$2.50"",""At most 1"",""5% of my score on a random round"",""All of the above.""]",21847,,,179080,,,survey-multi-choice,,49
,,,"[True, True, False, False, True]",,,,"[""True or false: The hidden values will change each time I start a new round."",""How much does it cost to observe each hidden value?"",""How many hidden values am I allowed to observe in each round?"",""How is your bonus determined?"",""What does the feedback teach you?""]","[""True"",""$2.50"",""At most 1"",""5% of my best score on any round"",""All of the above.""]",25766,,,320826,,,survey-multi-choice,,49
,,,"[True, True, True, False, True]",,,,"[""True or false: The hidden values will change each time I start a new round."",""How much does it cost to observe each hidden value?"",""How many hidden values am I allowed to observe in each round?"",""How is your bonus determined?"",""What does the feedback teach you?""]","[""True"",""$2.50"",""As many or as few as I wish"",""5% of my best score on any round"",""All of the above.""]",24931,,,360949,,,survey-multi-choice,,49
,,,"[True, True, False, False, True]",,,,"[""True or false: The hidden values will change each time I start a new round."",""How much does it cost to observe each hidden value?"",""How many hidden values am I allowed to observe in each round?"",""How is your bonus determined?"",""What does the feedback teach you?""]","[""True"",""$2.50"",""At most 1"",""5% of my best score on any round"",""All of the above.""]",17795,,,421922,,,survey-multi-choice,,49
,,,"[False, True, True, True, True]",,,,"[""True or false: The hidden values will change each time I start a new round."",""How much does it cost to observe each hidden value?"",""How many hidden values am I allowed to observe in each round?"",""How is your bonus determined?"",""What does the feedback teach you?""]","[""False"",""$2.50"",""As many or as few as I wish"",""5% of my score on a random round"",""All of the above.""]",19248,,,504476,,,survey-multi-choice,,49
,,,"[True, True, True, True, True]",,,,"[""True or false: The hidden values will change each time I start a new round."",""How much does it cost to observe each hidden value?"",""How many hidden values am I allowed to observe in each round?"",""How is your bonus determined?"",""What does the feedback teach you?""]","[""True"",""$2.50"",""As many or as few as I wish"",""5% of my score on a random round"",""All of the above.""]",18929,,,543470,,,survey-multi-choice,,49
,,,"[True, True, True, True, True]",,,,"[""True or false: The hidden values will change each time I start a new round."",""How much does it cost to observe each hidden value?"",""How many hidden values am I allowed to observe in each round?"",""How is your bonus determined?"",""What does the feedback teach you?""]","[""True"",""$1.00"",""As many or as few as I wish"",""5% of my score on a random round"",""All of the above.""]",162093,,,357648,,,survey-multi-choice,,50
,,,"[False, False, False, False]",,,,"[""True or false: The hidden values will change each time I start a new round."",""How much does it cost to observe each hidden value?"",""How many hidden values am I allowed to observe in each round?"",""How is your bonus determined?""]","[""False"",""$0.05"",""At most 10"",""5% of my best score on any round""]",22102,,,97180,,,survey-multi-choice,,51
,,,"[True, True, False, False]",,,,"[""True or false: The hidden values will change each time I start a new round."",""How much does it cost to observe each hidden value?"",""How many hidden values am I allowed to observe in each round?"",""How is your bonus determined?""]","[""True"",""$2.50"",""At most 15"",""5% of my best score on any round""]",104886,,,251276,,,survey-multi-choice,,51
,,,"[True, True, True, False]",,,,"[""True or false: The hidden values will change each time I start a new round."",""How much does it cost to observe each hidden value?"",""How many hidden values am I allowed to observe in each round?"",""How is your bonus determined?""]","[""True"",""$2.50"",""As many or as few as I wish"",""5% of my best score on any round""]",24240,,,293539,,,survey-multi-choice,,51
,,,"[True, True, False, False]",,,,"[""True or false: The hidden values will change each time I start a new round."",""How much does it cost to observe each hidden value?"",""How many hidden values am I allowed to observe in each round?"",""How is your bonus determined?""]","[""True"",""$2.50"",""At most 5"",""5% of my best score on any round""]",9714,,,352479,,,survey-multi-choice,,51
,,,"[True, True, False, False]",,,,"[""True or false: The hidden values will change each time I start a new round."",""How much does it cost to observe each hidden value?"",""How many hidden values am I allowed to observe in each round?"",""How is your bonus determined?""]","[""True"",""$2.50"",""At most 1"",""5% of my best score on any round""]",21923,,,390914,,,survey-multi-choice,,51
,,,"[True, True, True, True]",,,,"[""True or false: The hidden values will change each time I start a new round."",""How much does it cost to observe each hidden value?"",""How many hidden values am I allowed to observe in each round?"",""How is your bonus determined?""]","[""True"",""$2.50"",""As many or as few as I wish"",""5% of my score on a random round""]",8659,,,411432,,,survey-multi-choice,,51
,,,"[True, False, False, False]",,,,"[""True or false: The hidden values will change each time I start a new round."",""How much does it cost to observe each hidden value?"",""How many hidden values am I allowed to observe in each round?"",""How is your bonus determined?""]","[""True"",""$0.05"",""At most 5"",""10% of my best score on any round""]",30146,,,155598,,,survey-multi-choice,,52
,,,"[True, False, False, True]",,,,"[""True or false: The hidden values will change each time I start a new round."",""How much does it cost to observe each hidden value?"",""How many hidden values am I allowed to observe in each round?"",""How is your bonus determined?""]","[""True"",""$0.01"",""At most 5"",""5% of my score on a random round""]",27640,,,248746,,,survey-multi-choice,,52
,,,"[True, True, True, True]",,,,"[""True or false: The hidden values will change each time I start a new round."",""How much does it cost to observe each hidden value?"",""How many hidden values am I allowed to observe in each round?"",""How is your bonus determined?""]","[""True"",""$2.50"",""As many or as few as I wish"",""5% of my score on a random round""]",14674,,,283107,,,survey-multi-choice,,52
,,,"[True, True, True, False, True]",,,,"[""True or false: The hidden values will change each time I start a new round."",""How much does it cost to observe each hidden value?"",""How many hidden values am I allowed to observe in each round?"",""How is your bonus determined?"",""What does the feedback teach you?""]","[""True"",""$0.01"",""As many or as few as I wish"",""10% of my total score on all rounds"",""All of the above.""]",26695,,,78247,,,survey-multi-choice,,53
,,,"[True, True, True, False, True]",,,,"[""True or false: The hidden values will change each time I start a new round."",""How much does it cost to observe each hidden value?"",""How many hidden values am I allowed to observe in each round?"",""How is your bonus determined?"",""What does the feedback teach you?""]","[""True"",""$0.01"",""As many or as few as I wish"",""5% of my best score on any round"",""All of the above.""]",15429,,,140844,,,survey-multi-choice,,53
,,,"[True, True, True, True, True]",,,,"[""True or false: The hidden values will change each time I start a new round."",""How much does it cost to observe each hidden value?"",""How many hidden values am I allowed to observe in each round?"",""How is your bonus determined?"",""What does the feedback teach you?""]","[""True"",""$0.01"",""As many or as few as I wish"",""5% of my score on a random round"",""All of the above.""]",9925,,,174356,,,survey-multi-choice,,53
,,,"[True, True, True, False]",,,,"[""True or false: The hidden values will change each time I start a new round."",""How much does it cost to observe each hidden value?"",""How many hidden values am I allowed to observe in each round?"",""How is your bonus determined?""]","[""True"",""$2.50"",""As many or as few as I wish"",""5% of my best score on any round""]",15983,,,94113,,,survey-multi-choice,,54
,,,"[True, True, True, False]",,,,"[""True or false: The hidden values will change each time I start a new round."",""How much does it cost to observe each hidden value?"",""How many hidden values am I allowed to observe in each round?"",""How is your bonus determined?""]","[""True"",""$2.50"",""As many or as few as I wish"",""10% of my best score on any round""]",10684,,,134737,,,survey-multi-choice,,54
,,,"[True, True, True, True]",,,,"[""True or false: The hidden values will change each time I start a new round."",""How much does it cost to observe each hidden value?"",""How many hidden values am I allowed to observe in each round?"",""How is your bonus determined?""]","[""True"",""$2.50"",""As many or as few as I wish"",""5% of my score on a random round""]",8927,,,173666,,,survey-multi-choice,,54
,,,"[True, True, True, True]",,,,"[""True or false: The hidden values will change each time I start a new round."",""How much does it cost to observe each hidden value?"",""How many hidden values am I allowed to observe in each round?"",""How is your bonus determined?""]","[""True"",""$0.01"",""As many or as few as I wish"",""5% of my score on a random round""]",9740,,,33189,,,survey-multi-choice,,55
,,,"[True, True, True, True]",,,,"[""True or false: The hidden values will change each time I start a new round."",""How much does it cost to observe each hidden value?"",""How many hidden values am I allowed to observe in each round?"",""How is your bonus determined?""]","[""True"",""$2.50"",""As many or as few as I wish"",""5% of my score on a random round""]",14418,,,97927,,,survey-multi-choice,,56
,,,"[True, False, True, True, False]",,,,"[""True or false: The hidden values will change each time I start a new round."",""How much does it cost to observe each hidden value?"",""How many hidden values am I allowed to observe in each round?"",""How is your bonus determined?"",""What does the feedback teach you?""]","[""True"",""$0.05"",""As many or as few as I wish"",""5% of my score on a random round"",""Whether I chose the move that was best according to the information I had.""]",34645,,,148284,,,survey-multi-choice,,57
,,,"[True, True, True, True, True]",,,,"[""True or false: The hidden values will change each time I start a new round."",""How much does it cost to observe each hidden value?"",""How many hidden values am I allowed to observe in each round?"",""How is your bonus determined?"",""What does the feedback teach you?""]","[""True"",""$0.01"",""As many or as few as I wish"",""5% of my score on a random round"",""All of the above.""]",19475,,,219622,,,survey-multi-choice,,57
,,,"[True, True, True, True, True]",,,,"[""True or false: The hidden values will change each time I start a new round."",""How much does it cost to observe each hidden value?"",""How many hidden values am I allowed to observe in each round?"",""How is your bonus determined?"",""What does the feedback teach you?""]","[""True"",""$2.50"",""As many or as few as I wish"",""5% of my score on a random round"",""All of the above.""]",32995,,,116422,,,survey-multi-choice,,58
,,,"[True, True, True, True]",,,,"[""True or false: The hidden values will change each time I start a new round."",""How much does it cost to observe each hidden value?"",""How many hidden values am I allowed to observe in each round?"",""How is your bonus determined?""]","[""True"",""$2.50"",""As many or as few as I wish"",""5% of my score on a random round""]",19130,,,141702,,,survey-multi-choice,,59
,,,"[True, True, True, True]",,,,"[""True or false: The hidden values will change each time I start a new round."",""How much does it cost to observe each hidden value?"",""How many hidden values am I allowed to observe in each round?"",""How is your bonus determined?""]","[""True"",""$0.01"",""As many or as few as I wish"",""5% of my score on a random round""]",15188,,,89925,,,survey-multi-choice,,60
,,,"[True, False, True, True]",,,,"[""True or false: The hidden values will change each time I start a new round."",""How much does it cost to observe each hidden value?"",""How many hidden values am I allowed to observe in each round?"",""How is your bonus determined?""]","[""True"",""$0.05"",""As many or as few as I wish"",""5% of my score on a random round""]",20987,,,107679,,,survey-multi-choice,,61
,,,"[True, True, True, True]",,,,"[""True or false: The hidden values will change each time I start a new round."",""How much does it cost to observe each hidden value?"",""How many hidden values am I allowed to observe in each round?"",""How is your bonus determined?""]","[""True"",""$1.00"",""As many or as few as I wish"",""5% of my score on a random round""]",12258,,,169158,,,survey-multi-choice,,61
,,,"[True, False, True, True]",,,,"[""True or false: The hidden values will change each time I start a new round."",""How much does it cost to observe each hidden value?"",""How many hidden values am I allowed to observe in each round?"",""How is your bonus determined?""]","[""True"",""$0.01"",""As many or as few as I wish"",""5% of my score on a random round""]",24469,,,349519,,,survey-multi-choice,,62
,,,"[True, True, True, True]",,,,"[""True or false: The hidden values will change each time I start a new round."",""How much does it cost to observe each hidden value?"",""How many hidden values am I allowed to observe in each round?"",""How is your bonus determined?""]","[""True"",""$1.00"",""As many or as few as I wish"",""5% of my score on a random round""]",16650,,,596614,,,survey-multi-choice,,62
,,,"[True, True, True, True, True]",,,,"[""True or false: The hidden values will change each time I start a new round."",""How much does it cost to observe each hidden value?"",""How many hidden values am I allowed to observe in each round?"",""How is your bonus determined?"",""What does the feedback teach you?""]","[""True"",""$2.50"",""As many or as few as I wish"",""5% of my score on a random round"",""All of the above.""]",29678,,,180699,,,survey-multi-choice,,63
,,,"[True, True, True, True]",,,,"[""True or false: The hidden values will change each time I start a new round."",""How much does it cost to observe each hidden value?"",""How many hidden values am I allowed to observe in each round?"",""How is your bonus determined?""]","[""True"",""$1.00"",""As many or as few as I wish"",""5% of my score on a random round""]",25865,,,101899,,,survey-multi-choice,,64
,,,"[True, True, True, True, False]",,,,"[""True or false: The hidden values will change each time I start a new round."",""How much does it cost to observe each hidden value?"",""How many hidden values am I allowed to observe in each round?"",""How is your bonus determined?"",""What does the feedback teach you?""]","[""True"",""$0.01"",""As many or as few as I wish"",""5% of my score on a random round"",""Whether I observed the rewards of relevant locations.""]",69970,,,372286,,,survey-multi-choice,,65
,,,"[True, True, True, True, True]",,,,"[""True or false: The hidden values will change each time I start a new round."",""How much does it cost to observe each hidden value?"",""How many hidden values am I allowed to observe in each round?"",""How is your bonus determined?"",""What does the feedback teach you?""]","[""True"",""$0.01"",""As many or as few as I wish"",""5% of my score on a random round"",""All of the above.""]",15242,,,404172,,,survey-multi-choice,,65
,,,"[True, True, True, False]",,,,"[""True or false: The hidden values will change each time I start a new round."",""How much does it cost to observe each hidden value?"",""How many hidden values am I allowed to observe in each round?"",""How is your bonus determined?""]","[""True"",""$2.50"",""As many or as few as I wish"",""10% of my best score on any round""]",24618,,,177227,,,survey-multi-choice,,66
,,,"[True, True, True, False]",,,,"[""True or false: The hidden values will change each time I start a new round."",""How much does it cost to observe each hidden value?"",""How many hidden values am I allowed to observe in each round?"",""How is your bonus determined?""]","[""True"",""$2.50"",""As many or as few as I wish"",""5% of my best score on any round""]",27169,,,322585,,,survey-multi-choice,,66
,,,"[False, True, True, True]",,,,"[""True or false: The hidden values will change each time I start a new round."",""How much does it cost to observe each hidden value?"",""How many hidden values am I allowed to observe in each round?"",""How is your bonus determined?""]","[""False"",""$2.50"",""As many or as few as I wish"",""5% of my score on a random round""]",26832,,,425274,,,survey-multi-choice,,66
,,,"[True, True, True, True]",,,,"[""True or false: The hidden values will change each time I start a new round."",""How much does it cost to observe each hidden value?"",""How many hidden values am I allowed to observe in each round?"",""How is your bonus determined?""]","[""True"",""$2.50"",""As many or as few as I wish"",""5% of my score on a random round""]",10329,,,442018,,,survey-multi-choice,,66
,,,"[True, True, True, True]",,,,"[""True or false: The hidden values will change each time I start a new round."",""How much does it cost to observe each hidden value?"",""How many hidden values am I allowed to observe in each round?"",""How is your bonus determined?""]","[""True"",""$1.00"",""As many or as few as I wish"",""5% of my score on a random round""]",23520,,,100874,,,survey-multi-choice,,67
,,,"[True, True, True, True]",,,,"[""True or false: The hidden values will change each time I start a new round."",""How much does it cost to observe each hidden value?"",""How many hidden values am I allowed to observe in each round?"",""How is your bonus determined?""]","[""True"",""$2.50"",""As many or as few as I wish"",""5% of my score on a random round""]",9532,,,425440,,,survey-multi-choice,,68
,,,"[True, True, True, True]",,,,"[""True or false: The hidden values will change each time I start a new round."",""How much does it cost to observe each hidden value?"",""How many hidden values am I allowed to observe in each round?"",""How is your bonus determined?""]","[""True"",""$0.01"",""As many or as few as I wish"",""5% of my score on a random round""]",18597,,,164783,,,survey-multi-choice,,69
,,,"[True, True, True, True, True]",,,,"[""True or false: The hidden values will change each time I start a new round."",""How much does it cost to observe each hidden value?"",""How many hidden values am I allowed to observe in each round?"",""How is your bonus determined?"",""What does the feedback teach you?""]","[""True"",""$1.00"",""As many or as few as I wish"",""5% of my score on a random round"",""All of the above.""]",16239,,,171417,,,survey-multi-choice,,70
,,,"[True, True, True, True, False]",,,,"[""True or false: The hidden values will change each time I start a new round."",""How much does it cost to observe each hidden value?"",""How many hidden values am I allowed to observe in each round?"",""How is your bonus determined?"",""What does the feedback teach you?""]","[""True"",""$1.00"",""As many or as few as I wish"",""5% of my score on a random round"",""Whether I chose the move that was best according to the information I had.""]",30392,,,166368,,,survey-multi-choice,,71
,,,"[True, True, True, True, True]",,,,"[""True or false: The hidden values will change each time I start a new round."",""How much does it cost to observe each hidden value?"",""How many hidden values am I allowed to observe in each round?"",""How is your bonus determined?"",""What does the feedback teach you?""]","[""True"",""$1.00"",""As many or as few as I wish"",""5% of my score on a random round"",""All of the above.""]",15968,,,211256,,,survey-multi-choice,,71
,,,"[True, True, True, False, False]",,,,"[""True or false: The hidden values will change each time I start a new round."",""How much does it cost to observe each hidden value?"",""How many hidden values am I allowed to observe in each round?"",""How is your bonus determined?"",""What does the feedback teach you?""]","[""True"",""$1.00"",""As many or as few as I wish"",""5% of my best score on any round"",""Whether I chose the move that was best according to the information I had.""]",46231,,,90077,,,survey-multi-choice,,72
,,,"[True, True, True, False, False]",,,,"[""True or false: The hidden values will change each time I start a new round."",""How much does it cost to observe each hidden value?"",""How many hidden values am I allowed to observe in each round?"",""How is your bonus determined?"",""What does the feedback teach you?""]","[""True"",""$1.00"",""As many or as few as I wish"",""5% of my best score on any round"",""Whether I observed the rewards of relevant locations.""]",20528,,,127885,,,survey-multi-choice,,72
,,,"[True, True, True, False, False]",,,,"[""True or false: The hidden values will change each time I start a new round."",""How much does it cost to observe each hidden value?"",""How many hidden values am I allowed to observe in each round?"",""How is your bonus determined?"",""What does the feedback teach you?""]","[""True"",""$1.00"",""As many or as few as I wish"",""5% of my best score on any round"",""The length of the delay is based on how much more money I could have earned by planning and deciding better.""]",13606,,,151807,,,survey-multi-choice,,72
,,,"[True, True, True, False, True]",,,,"[""True or false: The hidden values will change each time I start a new round."",""How much does it cost to observe each hidden value?"",""How many hidden values am I allowed to observe in each round?"",""How is your bonus determined?"",""What does the feedback teach you?""]","[""True"",""$1.00"",""As many or as few as I wish"",""5% of my best score on any round"",""All of the above.""]",9866,,,172306,,,survey-multi-choice,,72
,,,"[True, True, False, False, True]",,,,"[""True or false: The hidden values will change each time I start a new round."",""How much does it cost to observe each hidden value?"",""How many hidden values am I allowed to observe in each round?"",""How is your bonus determined?"",""What does the feedback teach you?""]","[""True"",""$1.00"",""At most 15"",""5% of my best score on any round"",""All of the above.""]",13496,,,239331,,,survey-multi-choice,,72
,,,"[True, True, False, False, True]",,,,"[""True or false: The hidden values will change each time I start a new round."",""How much does it cost to observe each hidden value?"",""How many hidden values am I allowed to observe in each round?"",""How is your bonus determined?"",""What does the feedback teach you?""]","[""True"",""$1.00"",""At most 10"",""5% of my best score on any round"",""All of the above.""]",7885,,,257347,,,survey-multi-choice,,72
,,,"[True, True, False, False, True]",,,,"[""True or false: The hidden values will change each time I start a new round."",""How much does it cost to observe each hidden value?"",""How many hidden values am I allowed to observe in each round?"",""How is your bonus determined?"",""What does the feedback teach you?""]","[""True"",""$1.00"",""At most 5"",""5% of my best score on any round"",""All of the above.""]",9431,,,274862,,,survey-multi-choice,,72
,,,"[True, True, False, False, True]",,,,"[""True or false: The hidden values will change each time I start a new round."",""How much does it cost to observe each hidden value?"",""How many hidden values am I allowed to observe in each round?"",""How is your bonus determined?"",""What does the feedback teach you?""]","[""True"",""$1.00"",""At most 1"",""5% of my best score on any round"",""All of the above.""]",7949,,,290936,,,survey-multi-choice,,72
,,,"[True, True, True, True, True]",,,,"[""True or false: The hidden values will change each time I start a new round."",""How much does it cost to observe each hidden value?"",""How many hidden values am I allowed to observe in each round?"",""How is your bonus determined?"",""What does the feedback teach you?""]","[""True"",""$1.00"",""As many or as few as I wish"",""5% of my score on a random round"",""All of the above.""]",12755,,,310656,,,survey-multi-choice,,72
,,,"[True, True, True, True]",,,,"[""True or false: The hidden values will change each time I start a new round."",""How much does it cost to observe each hidden value?"",""How many hidden values am I allowed to observe in each round?"",""How is your bonus determined?""]","[""True"",""$2.50"",""As many or as few as I wish"",""5% of my score on a random round""]",12669,,,68428,,,survey-multi-choice,,73
,,,"[True, True, False, True]",,,,"[""True or false: The hidden values will change each time I start a new round."",""How much does it cost to observe each hidden value?"",""How many hidden values am I allowed to observe in each round?"",""How is your bonus determined?""]","[""True"",""$2.50"",""At most 1"",""5% of my score on a random round""]",33490,,,200754,,,survey-multi-choice,,74
,,,"[True, True, False, True]",,,,"[""True or false: The hidden values will change each time I start a new round."",""How much does it cost to observe each hidden value?"",""How many hidden values am I allowed to observe in each round?"",""How is your bonus determined?""]","[""True"",""$2.50"",""At most 1"",""5% of my score on a random round""]",13575,,,291909,,,survey-multi-choice,,74
,,,"[True, False, False, True]",,,,"[""True or false: The hidden values will change each time I start a new round."",""How much does it cost to observe each hidden value?"",""How many hidden values am I allowed to observe in each round?"",""How is your bonus determined?""]","[""True"",""$0.05"",""At most 1"",""5% of my score on a random round""]",5936,,,306885,,,survey-multi-choice,,74
,,,"[True, False, True, True]",,,,"[""True or false: The hidden values will change each time I start a new round."",""How much does it cost to observe each hidden value?"",""How many hidden values am I allowed to observe in each round?"",""How is your bonus determined?""]","[""True"",""$1.00"",""As many or as few as I wish"",""5% of my score on a random round""]",8870,,,324349,,,survey-multi-choice,,74
,,,"[False, True, False, True]",,,,"[""True or false: The hidden values will change each time I start a new round."",""How much does it cost to observe each hidden value?"",""How many hidden values am I allowed to observe in each round?"",""How is your bonus determined?""]","[""False"",""$2.50"",""At most 1"",""5% of my score on a random round""]",14350,,,345173,,,survey-multi-choice,,74
,,,"[True, False, False, True]",,,,"[""True or false: The hidden values will change each time I start a new round."",""How much does it cost to observe each hidden value?"",""How many hidden values am I allowed to observe in each round?"",""How is your bonus determined?""]","[""True"",""$0.01"",""At most 1"",""5% of my score on a random round""]",49940,,,403749,,,survey-multi-choice,,74
,,,"[True, True, True, True]",,,,"[""True or false: The hidden values will change each time I start a new round."",""How much does it cost to observe each hidden value?"",""How many hidden values am I allowed to observe in each round?"",""How is your bonus determined?""]","[""True"",""$2.50"",""As many or as few as I wish"",""5% of my score on a random round""]",7707,,,463753,,,survey-multi-choice,,74
,,,"[True, True, True, True, True]",,,,"[""True or false: The hidden values will change each time I start a new round."",""How much does it cost to observe each hidden value?"",""How many hidden values am I allowed to observe in each round?"",""How is your bonus determined?"",""What does the feedback teach you?""]","[""True"",""$1.00"",""As many or as few as I wish"",""5% of my score on a random round"",""All of the above.""]",32507,,,427909,,,survey-multi-choice,,75
,,,"[True, True, True, False, True]",,,,"[""True or false: The hidden values will change each time I start a new round."",""How much does it cost to observe each hidden value?"",""How many hidden values am I allowed to observe in each round?"",""How is your bonus determined?"",""What does the feedback teach you?""]","[""True"",""$2.50"",""As many or as few as I wish"",""5% of my best score on any round"",""All of the above.""]",113937,,,294628,,,survey-multi-choice,,76
,,,"[True, True, True, True, True]",,,,"[""True or false: The hidden values will change each time I start a new round."",""How much does it cost to observe each hidden value?"",""How many hidden values am I allowed to observe in each round?"",""How is your bonus determined?"",""What does the feedback teach you?""]","[""True"",""$2.50"",""As many or as few as I wish"",""5% of my score on a random round"",""All of the above.""]",14840,,,350811,,,survey-multi-choice,,76
,,,"[True, True, True, False]",,,,"[""True or false: The hidden values will change each time I start a new round."",""How much does it cost to observe each hidden value?"",""How many hidden values am I allowed to observe in each round?"",""How is your bonus determined?""]","[""True"",""$2.50"",""As many or as few as I wish"",""10% of my total score on all rounds""]",22178,,,62554,,,survey-multi-choice,,77
,,,"[True, True, True, True]",,,,"[""True or false: The hidden values will change each time I start a new round."",""How much does it cost to observe each hidden value?"",""How many hidden values am I allowed to observe in each round?"",""How is your bonus determined?""]","[""True"",""$2.50"",""As many or as few as I wish"",""5% of my score on a random round""]",10913,,,116081,,,survey-multi-choice,,77
,,,"[True, True, False, True, False]",,,,"[""True or false: The hidden values will change each time I start a new round."",""How much does it cost to observe each hidden value?"",""How many hidden values am I allowed to observe in each round?"",""How is your bonus determined?"",""What does the feedback teach you?""]","[""True"",""$2.50"",""At most 1"",""5% of my score on a random round"",""The length of the delay is based on how much more money I could have earned by planning and deciding better.""]",127278,,,476924,,,survey-multi-choice,,78
,,,"[True, True, True, True, False]",,,,"[""True or false: The hidden values will change each time I start a new round."",""How much does it cost to observe each hidden value?"",""How many hidden values am I allowed to observe in each round?"",""How is your bonus determined?"",""What does the feedback teach you?""]","[""True"",""$2.50"",""As many or as few as I wish"",""5% of my score on a random round"",""The length of the delay is based on how much more money I could have earned by planning and deciding better.""]",54779,,,644154,,,survey-multi-choice,,78
,,,"[True, True, True, True, False]",,,,"[""True or false: The hidden values will change each time I start a new round."",""How much does it cost to observe each hidden value?"",""How many hidden values am I allowed to observe in each round?"",""How is your bonus determined?"",""What does the feedback teach you?""]","[""True"",""$2.50"",""As many or as few as I wish"",""5% of my score on a random round"",""Whether I observed the rewards of relevant locations.""]",404159,,,1234700,,,survey-multi-choice,,78
,,,"[True, True, True, True, True]",,,,"[""True or false: The hidden values will change each time I start a new round."",""How much does it cost to observe each hidden value?"",""How many hidden values am I allowed to observe in each round?"",""How is your bonus determined?"",""What does the feedback teach you?""]","[""True"",""$2.50"",""As many or as few as I wish"",""5% of my score on a random round"",""All of the above.""]",20440,,,1263162,,,survey-multi-choice,,78
,,,"[True, True, True, True, True]",,,,"[""True or false: The hidden values will change each time I start a new round."",""How much does it cost to observe each hidden value?"",""How many hidden values am I allowed to observe in each round?"",""How is your bonus determined?"",""What does the feedback teach you?""]","[""True"",""$1.00"",""As many or as few as I wish"",""5% of my score on a random round"",""All of the above.""]",36009,,,213008,,,survey-multi-choice,,79
,,,"[True, True, True, False, True]",,,,"[""True or false: The hidden values will change each time I start a new round."",""How much does it cost to observe each hidden value?"",""How many hidden values am I allowed to observe in each round?"",""How is your bonus determined?"",""What does the feedback teach you?""]","[""True"",""$0.01"",""As many or as few as I wish"",""5% of my best score on any round"",""All of the above.""]",260983,,,522156,,,survey-multi-choice,,80
,,,"[True, True, True, False, False]",,,,"[""True or false: The hidden values will change each time I start a new round."",""How much does it cost to observe each hidden value?"",""How many hidden values am I allowed to observe in each round?"",""How is your bonus determined?"",""What does the feedback teach you?""]","[""True"",""$0.01"",""As many or as few as I wish"",""5% of my best score on any round"",""Whether I chose the move that was best according to the information I had.""]",16500,,,560522,,,survey-multi-choice,,80
,,,"[True, True, True, False, False]",,,,"[""True or false: The hidden values will change each time I start a new round."",""How much does it cost to observe each hidden value?"",""How many hidden values am I allowed to observe in each round?"",""How is your bonus determined?"",""What does the feedback teach you?""]","[""True"",""$0.01"",""As many or as few as I wish"",""5% of my best score on any round"",""The length of the delay is based on how much more money I could have earned by planning and deciding better.""]",30066,,,605681,,,survey-multi-choice,,80
,,,"[True, True, True, True, True]",,,,"[""True or false: The hidden values will change each time I start a new round."",""How much does it cost to observe each hidden value?"",""How many hidden values am I allowed to observe in each round?"",""How is your bonus determined?"",""What does the feedback teach you?""]","[""True"",""$0.01"",""As many or as few as I wish"",""5% of my score on a random round"",""All of the above.""]",10994,,,696753,,,survey-multi-choice,,80
,,,"[True, True, True, False]",,,,"[""True or false: The hidden values will change each time I start a new round."",""How much does it cost to observe each hidden value?"",""How many hidden values am I allowed to observe in each round?"",""How is your bonus determined?""]","[""True"",""$1.00"",""As many or as few as I wish"",""5% of my best score on any round""]",82525,,,396944,,,survey-multi-choice,,81
,,,"[True, True, True, True]",,,,"[""True or false: The hidden values will change each time I start a new round."",""How much does it cost to observe each hidden value?"",""How many hidden values am I allowed to observe in each round?"",""How is your bonus determined?""]","[""True"",""$1.00"",""As many or as few as I wish"",""5% of my score on a random round""]",20585,,,648140,,,survey-multi-choice,,81
,,,"[True, True, True, False]",,,,"[""True or false: The hidden values will change each time I start a new round."",""How much does it cost to observe each hidden value?"",""How many hidden values am I allowed to observe in each round?"",""How is your bonus determined?""]","[""True"",""$0.01"",""As many or as few as I wish"",""5% of my best score on any round""]",11979,,,106718,,,survey-multi-choice,,82
,,,"[True, True, True, True]",,,,"[""True or false: The hidden values will change each time I start a new round."",""How much does it cost to observe each hidden value?"",""How many hidden values am I allowed to observe in each round?"",""How is your bonus determined?""]","[""True"",""$0.01"",""As many or as few as I wish"",""5% of my score on a random round""]",8253,,,142528,,,survey-multi-choice,,82
,,,"[True, True, True, True, True]",,,,"[""True or false: The hidden values will change each time I start a new round."",""How much does it cost to observe each hidden value?"",""How many hidden values am I allowed to observe in each round?"",""How is your bonus determined?"",""What does the feedback teach you?""]","[""True"",""$2.50"",""As many or as few as I wish"",""5% of my score on a random round"",""All of the above.""]",64326,,,136434,,,survey-multi-choice,,83
,,,"[True, True, True, True, True]",,,,"[""True or false: The hidden values will change each time I start a new round."",""How much does it cost to observe each hidden value?"",""How many hidden values am I allowed to observe in each round?"",""How is your bonus determined?"",""What does the feedback teach you?""]","[""True"",""$0.01"",""As many or as few as I wish"",""5% of my score on a random round"",""All of the above.""]",87822,,,1052134,,,survey-multi-choice,,84
,,,"[True, True, True, True]",,,,"[""True or false: The hidden values will change each time I start a new round."",""How much does it cost to observe each hidden value?"",""How many hidden values am I allowed to observe in each round?"",""How is your bonus determined?""]","[""True"",""$2.50"",""As many or as few as I wish"",""5% of my score on a random round""]",11137,,,104359,,,survey-multi-choice,,85
,,,"[True, True, True, False]",,,,"[""True or false: The hidden values will change each time I start a new round."",""How much does it cost to observe each hidden value?"",""How many hidden values am I allowed to observe in each round?"",""How is your bonus determined?""]","[""True"",""$2.50"",""As many or as few as I wish"",""5% of my best score on any round""]",27603,,,153182,,,survey-multi-choice,,86
,,,"[True, True, True, True]",,,,"[""True or false: The hidden values will change each time I start a new round."",""How much does it cost to observe each hidden value?"",""How many hidden values am I allowed to observe in each round?"",""How is your bonus determined?""]","[""True"",""$2.50"",""As many or as few as I wish"",""5% of my score on a random round""]",10541,,,201397,,,survey-multi-choice,,86
,,,"[True, True, True, True]",,,,"[""True or false: The hidden values will change each time I start a new round."",""How much does it cost to observe each hidden value?"",""How many hidden values am I allowed to observe in each round?"",""How is your bonus determined?""]","[""True"",""$0.01"",""As many or as few as I wish"",""5% of my score on a random round""]",22268,,,282736,,,survey-multi-choice,,87
,,,"[True, True, True, True]",,,,"[""True or false: The hidden values will change each time I start a new round."",""How much does it cost to observe each hidden value?"",""How many hidden values am I allowed to observe in each round?"",""How is your bonus determined?""]","[""True"",""$0.01"",""As many or as few as I wish"",""5% of my score on a random round""]",18672,,,185408,,,survey-multi-choice,,88
,,,"[True, True, True, True]",,,,"[""True or false: The hidden values will change each time I start a new round."",""How much does it cost to observe each hidden value?"",""How many hidden values am I allowed to observe in each round?"",""How is your bonus determined?""]","[""True"",""$2.50"",""As many or as few as I wish"",""5% of my score on a random round""]",24147,,,218990,,,survey-multi-choice,,89
,,,"[True, True, True, False, False]",,,,"[""True or false: The hidden values will change each time I start a new round."",""How much does it cost to observe each hidden value?"",""How many hidden values am I allowed to observe in each round?"",""How is your bonus determined?"",""What does the feedback teach you?""]","[""True"",""$0.01"",""As many or as few as I wish"",""10% of my best score on any round"",""Whether I chose the move that was best according to the information I had.""]",21667,,,75245,,,survey-multi-choice,,90
,,,"[False, True, False, True, True]",,,,"[""True or false: The hidden values will change each time I start a new round."",""How much does it cost to observe each hidden value?"",""How many hidden values am I allowed to observe in each round?"",""How is your bonus determined?"",""What does the feedback teach you?""]","[""False"",""$0.01"",""At most 1"",""5% of my score on a random round"",""All of the above.""]",23320,,,130730,,,survey-multi-choice,,90
,,,"[True, True, True, False, False]",,,,"[""True or false: The hidden values will change each time I start a new round."",""How much does it cost to observe each hidden value?"",""How many hidden values am I allowed to observe in each round?"",""How is your bonus determined?"",""What does the feedback teach you?""]","[""True"",""$0.01"",""As many or as few as I wish"",""5% of my best score on any round"",""Whether I chose the move that was best according to the information I had.""]",24411,,,191281,,,survey-multi-choice,,90
,,,"[True, True, False, True, False]",,,,"[""True or false: The hidden values will change each time I start a new round."",""How much does it cost to observe each hidden value?"",""How many hidden values am I allowed to observe in each round?"",""How is your bonus determined?"",""What does the feedback teach you?""]","[""True"",""$0.01"",""At most 5"",""5% of my score on a random round"",""Whether I observed the rewards of relevant locations.""]",19466,,,239314,,,survey-multi-choice,,90
,,,"[True, True, True, True, True]",,,,"[""True or false: The hidden values will change each time I start a new round."",""How much does it cost to observe each hidden value?"",""How many hidden values am I allowed to observe in each round?"",""How is your bonus determined?"",""What does the feedback teach you?""]","[""True"",""$0.01"",""As many or as few as I wish"",""5% of my score on a random round"",""All of the above.""]",28812,,,334684,,,survey-multi-choice,,90
,,,"[True, True, True, True, True]",,,,"[""True or false: The hidden values will change each time I start a new round."",""How much does it cost to observe each hidden value?"",""How many hidden values am I allowed to observe in each round?"",""How is your bonus determined?"",""What does the feedback teach you?""]","[""True"",""$0.01"",""As many or as few as I wish"",""5% of my score on a random round"",""All of the above.""]",23611,,,124587,,,survey-multi-choice,,91
,,,"[True, True, True, True]",,,,"[""True or false: The hidden values will change each time I start a new round."",""How much does it cost to observe each hidden value?"",""How many hidden values am I allowed to observe in each round?"",""How is your bonus determined?""]","[""True"",""$1.00"",""As many or as few as I wish"",""5% of my score on a random round""]",19811,,,183720,,,survey-multi-choice,,92
,,,"[True, True, True, True, True]",,,,"[""True or false: The hidden values will change each time I start a new round."",""How much does it cost to observe each hidden value?"",""How many hidden values am I allowed to observe in each round?"",""How is your bonus determined?"",""What does the feedback teach you?""]","[""True"",""$0.01"",""As many or as few as I wish"",""5% of my score on a random round"",""All of the above.""]",24116,,,136135,,,survey-multi-choice,,93
,,,"[False, True, True, False]",,,,"[""True or false: The hidden values will change each time I start a new round."",""How much does it cost to observe each hidden value?"",""How many hidden values am I allowed to observe in each round?"",""How is your bonus determined?""]","[""False"",""$2.50"",""As many or as few as I wish"",""5% of my best score on any round""]",32273,,,291694,,,survey-multi-choice,,94
,,,"[True, True, True, True]",,,,"[""True or false: The hidden values will change each time I start a new round."",""How much does it cost to observe each hidden value?"",""How many hidden values am I allowed to observe in each round?"",""How is your bonus determined?""]","[""True"",""$2.50"",""As many or as few as I wish"",""5% of my score on a random round""]",22799,,,394291,,,survey-multi-choice,,94
,,,"[True, True, True, True]",,,,"[""True or false: The hidden values will change each time I start a new round."",""How much does it cost to observe each hidden value?"",""How many hidden values am I allowed to observe in each round?"",""How is your bonus determined?""]","[""True"",""$2.50"",""As many or as few as I wish"",""5% of my score on a random round""]",19968,,,157980,,,survey-multi-choice,,95
,,,"[True, True, True, True, True]",,,,"[""True or false: The hidden values will change each time I start a new round."",""How much does it cost to observe each hidden value?"",""How many hidden values am I allowed to observe in each round?"",""How is your bonus determined?"",""What does the feedback teach you?""]","[""True"",""$1.00"",""As many or as few as I wish"",""5% of my score on a random round"",""All of the above.""]",30088,,,141056,,,survey-multi-choice,,96
,,,"[True, True, True, True]",,,,"[""True or false: The hidden values will change each time I start a new round."",""How much does it cost to observe each hidden value?"",""How many hidden values am I allowed to observe in each round?"",""How is your bonus determined?""]","[""True"",""$0.01"",""As many or as few as I wish"",""5% of my score on a random round""]",37742,,,347679,,,survey-multi-choice,,97
,,,"[True, True, True, False]",,,,"[""True or false: The hidden values will change each time I start a new round."",""How much does it cost to observe each hidden value?"",""How many hidden values am I allowed to observe in each round?"",""How is your bonus determined?""]","[""True"",""$1.00"",""As many or as few as I wish"",""5% of my best score on any round""]",34480,,,109123,,,survey-multi-choice,,98
,,,"[True, True, True, True]",,,,"[""True or false: The hidden values will change each time I start a new round."",""How much does it cost to observe each hidden value?"",""How many hidden values am I allowed to observe in each round?"",""How is your bonus determined?""]","[""True"",""$1.00"",""As many or as few as I wish"",""5% of my score on a random round""]",9736,,,136412,,,survey-multi-choice,,98
,,,"[True, True, True, True, True]",,,,"[""True or false: The hidden values will change each time I start a new round."",""How much does it cost to observe each hidden value?"",""How many hidden values am I allowed to observe in each round?"",""How is your bonus determined?"",""What does the feedback teach you?""]","[""True"",""$2.50"",""As many or as few as I wish"",""5% of my score on a random round"",""All of the above.""]",41824,,,233510,,,survey-multi-choice,,99
,,,"[True, True, True, True]",,,,"[""True or false: The hidden values will change each time I start a new round."",""How much does it cost to observe each hidden value?"",""How many hidden values am I allowed to observe in each round?"",""How is your bonus determined?""]","[""True"",""$1.00"",""As many or as few as I wish"",""5% of my score on a random round""]",10381,,,121068,,,survey-multi-choice,,100
,,,"[True, True, True, True]",,,,"[""True or false: The hidden values will change each time I start a new round."",""How much does it cost to observe each hidden value?"",""How many hidden values am I allowed to observe in each round?"",""How is your bonus determined?""]","[""True"",""$0.01"",""As many or as few as I wish"",""5% of my score on a random round""]",14969,,,112762,,,survey-multi-choice,,101
,,,"[True, True, True, True, True]",,,,"[""True or false: The hidden values will change each time I start a new round."",""How much does it cost to observe each hidden value?"",""How many hidden values am I allowed to observe in each round?"",""How is your bonus determined?"",""What does the feedback teach you?""]","[""True"",""$1.00"",""As many or as few as I wish"",""5% of my score on a random round"",""All of the above.""]",35407,,,162235,,,survey-multi-choice,,102
,,,"[True, True, True, False]",,,,"[""True or false: The hidden values will change each time I start a new round."",""How much does it cost to observe each hidden value?"",""How many hidden values am I allowed to observe in each round?"",""How is your bonus determined?""]","[""True"",""$2.50"",""As many or as few as I wish"",""5% of my best score on any round""]",43116,,,160590,,,survey-multi-choice,,103
,,,"[True, True, True, True]",,,,"[""True or false: The hidden values will change each time I start a new round."",""How much does it cost to observe each hidden value?"",""How many hidden values am I allowed to observe in each round?"",""How is your bonus determined?""]","[""True"",""$2.50"",""As many or as few as I wish"",""5% of my score on a random round""]",27969,,,290804,,,survey-multi-choice,,103
,,,"[True, True, True, True]",,,,"[""True or false: The hidden values will change each time I start a new round."",""How much does it cost to observe each hidden value?"",""How many hidden values am I allowed to observe in each round?"",""How is your bonus determined?""]","[""True"",""$0.01"",""As many or as few as I wish"",""5% of my score on a random round""]",12990,,,146243,,,survey-multi-choice,,104
,,,"[True, True, True, False, True]",,,,"[""True or false: The hidden values will change each time I start a new round."",""How much does it cost to observe each hidden value?"",""How many hidden values am I allowed to observe in each round?"",""How is your bonus determined?"",""What does the feedback teach you?""]","[""True"",""$0.01"",""As many or as few as I wish"",""10% of my best score on any round"",""All of the above.""]",30254,,,130565,,,survey-multi-choice,,105
,,,"[True, True, True, True, True]",,,,"[""True or false: The hidden values will change each time I start a new round."",""How much does it cost to observe each hidden value?"",""How many hidden values am I allowed to observe in each round?"",""How is your bonus determined?"",""What does the feedback teach you?""]","[""True"",""$0.01"",""As many or as few as I wish"",""5% of my score on a random round"",""All of the above.""]",22410,,,218967,,,survey-multi-choice,,105
,,,"[True, True, True, True]",,,,"[""True or false: The hidden values will change each time I start a new round."",""How much does it cost to observe each hidden value?"",""How many hidden values am I allowed to observe in each round?"",""How is your bonus determined?""]","[""True"",""$1.00"",""As many or as few as I wish"",""5% of my score on a random round""]",15994,,,110710,,,survey-multi-choice,,106
,,,"[True, True, True, True]",,,,"[""True or false: The hidden values will change each time I start a new round."",""How much does it cost to observe each hidden value?"",""How many hidden values am I allowed to observe in each round?"",""How is your bonus determined?""]","[""True"",""$1.00"",""As many or as few as I wish"",""5% of my score on a random round""]",22557,,,160099,,,survey-multi-choice,,107
,,,"[True, True, True, True]",,,,"[""True or false: The hidden values will change each time I start a new round."",""How much does it cost to observe each hidden value?"",""How many hidden values am I allowed to observe in each round?"",""How is your bonus determined?""]","[""True"",""$1.00"",""As many or as few as I wish"",""5% of my score on a random round""]",16718,,,92327,,,survey-multi-choice,,108
,,,"[True, True, False, True, True]",,,,"[""True or false: The hidden values will change each time I start a new round."",""How much does it cost to observe each hidden value?"",""How many hidden values am I allowed to observe in each round?"",""How is your bonus determined?"",""What does the feedback teach you?""]","[""True"",""$1.00"",""At most 1"",""5% of my score on a random round"",""All of the above.""]",72682,,,305753,,,survey-multi-choice,,109
,,,"[True, True, True, True, False]",,,,"[""True or false: The hidden values will change each time I start a new round."",""How much does it cost to observe each hidden value?"",""How many hidden values am I allowed to observe in each round?"",""How is your bonus determined?"",""What does the feedback teach you?""]","[""True"",""$1.00"",""As many or as few as I wish"",""5% of my score on a random round"",""Whether I chose the move that was best according to the information I had.""]",26090,,,399340,,,survey-multi-choice,,109
,,,"[True, True, True, True, True]",,,,"[""True or false: The hidden values will change each time I start a new round."",""How much does it cost to observe each hidden value?"",""How many hidden values am I allowed to observe in each round?"",""How is your bonus determined?"",""What does the feedback teach you?""]","[""True"",""$1.00"",""As many or as few as I wish"",""5% of my score on a random round"",""All of the above.""]",209772,,,716776,,,survey-multi-choice,,109
,,,"[True, True, True, True]",,,,"[""True or false: The hidden values will change each time I start a new round."",""How much does it cost to observe each hidden value?"",""How many hidden values am I allowed to observe in each round?"",""How is your bonus determined?""]","[""True"",""$1.00"",""As many or as few as I wish"",""5% of my score on a random round""]",21326,,,135360,,,survey-multi-choice,,110
,,,"[True, True, True, True]",,,,"[""True or false: The hidden values will change each time I start a new round."",""How much does it cost to observe each hidden value?"",""How many hidden values am I allowed to observe in each round?"",""How is your bonus determined?""]","[""True"",""$0.01"",""As many or as few as I wish"",""5% of my score on a random round""]",14802,,,101301,,,survey-multi-choice,,111
,,,"[True, True, True, True]",,,,"[""True or false: The hidden values will change each time I start a new round."",""How much does it cost to observe each hidden value?"",""How many hidden values am I allowed to observe in each round?"",""How is your bonus determined?""]","[""True"",""$2.50"",""As many or as few as I wish"",""5% of my score on a random round""]",20517,,,106889,,,survey-multi-choice,,112
,,,"[True, True, True, True, True]",,,,"[""True or false: The hidden values will change each time I start a new round."",""How much does it cost to observe each hidden value?"",""How many hidden values am I allowed to observe in each round?"",""How is your bonus determined?"",""What does the feedback teach you?""]","[""True"",""$2.50"",""As many or as few as I wish"",""5% of my score on a random round"",""All of the above.""]",62287,,,404776,,,survey-multi-choice,,113
,,,"[True, True, True, True]",,,,"[""True or false: The hidden values will change each time I start a new round."",""How much does it cost to observe each hidden value?"",""How many hidden values am I allowed to observe in each round?"",""How is your bonus determined?""]","[""True"",""$2.50"",""As many or as few as I wish"",""5% of my score on a random round""]",20484,,,148614,,,survey-multi-choice,,114
,,,"[True, True, True, True, True]",,,,"[""True or false: The hidden values will change each time I start a new round."",""How much does it cost to observe each hidden value?"",""How many hidden values am I allowed to observe in each round?"",""How is your bonus determined?"",""What does the feedback teach you?""]","[""True"",""$0.01"",""As many or as few as I wish"",""5% of my score on a random round"",""All of the above.""]",29895,,,124690,,,survey-multi-choice,,115
,,,"[True, True, True, True, True]",,,,"[""True or false: The hidden values will change each time I start a new round."",""How much does it cost to observe each hidden value?"",""How many hidden values am I allowed to observe in each round?"",""How is your bonus determined?"",""What does the feedback teach you?""]","[""True"",""$2.50"",""As many or as few as I wish"",""5% of my score on a random round"",""All of the above.""]",95656,,,433922,,,survey-multi-choice,,116
,,,"[True, True, True, False, True]",,,,"[""True or false: The hidden values will change each time I start a new round."",""How much does it cost to observe each hidden value?"",""How many hidden values am I allowed to observe in each round?"",""How is your bonus determined?"",""What does the feedback teach you?""]","[""True"",""$0.01"",""As many or as few as I wish"",""10% of my total score on all rounds"",""All of the above.""]",28609,,,181582,,,survey-multi-choice,,117
,,,"[True, True, True, True, True]",,,,"[""True or false: The hidden values will change each time I start a new round."",""How much does it cost to observe each hidden value?"",""How many hidden values am I allowed to observe in each round?"",""How is your bonus determined?"",""What does the feedback teach you?""]","[""True"",""$0.01"",""As many or as few as I wish"",""5% of my score on a random round"",""All of the above.""]",15507,,,244728,,,survey-multi-choice,,117
,,,"[True, True, True, True]",,,,"[""True or false: The hidden values will change each time I start a new round."",""How much does it cost to observe each hidden value?"",""How many hidden values am I allowed to observe in each round?"",""How is your bonus determined?""]","[""True"",""$1.00"",""As many or as few as I wish"",""5% of my score on a random round""]",17859,,,148854,,,survey-multi-choice,,118
