action_times,actions,block,path,queries,rewards,rt,score,simulation_mode,state_rewards,time_elapsed,trial_index,trial_time,trial_type,pid
[],[],demo,"[u'0', 9, 10, 11]","{u'mouseover': {u'state': {u'target': [], u'time': []}, u'edge': {u'target': [], u'time': []}}, u'click': {u'state': {u'target': [12, 7, 8, 11], u'time': [908, 1914, 2918, 3920]}, u'edge': {u'target': [], u'time': []}}, u'mouseout': {u'state': {u'target': [], u'time': []}, u'edge': {u'target': [], u'time': []}}}","[4, -4, 48]",[],44.0,[],"[u'', 4, -4, -48, -48, -4, 8, -48, -24, 4, -4, 48, -24]",159192,0.0,9382.0,mouselab-mdp,0
[],[],demo,"[u'0', 9, 10, 12]","{u'mouseover': {u'state': {u'target': [], u'time': []}, u'edge': {u'target': [], u'time': []}}, u'click': {u'state': {u'target': [12], u'time': [994]}, u'edge': {u'target': [], u'time': []}}, u'mouseout': {u'state': {u'target': [], u'time': []}, u'edge': {u'target': [], u'time': []}}}","[-4, 8, 48]",[],51.0,[],"[u'', -2, 8, 24, -48, -4, 4, -48, -48, -4, 8, 24, 48]",165030,1.0,4716.0,mouselab-mdp,0
[],[],demo,"[u'0', 9, 10, 11]","{u'mouseover': {u'state': {u'target': [], u'time': []}, u'edge': {u'target': [], u'time': []}}, u'click': {u'state': {u'target': [8, 12, 3, 11], u'time': [998, 2002, 3004, 4008]}, u'edge': {u'target': [], u'time': []}}, u'mouseout': {u'state': {u'target': [], u'time': []}, u'edge': {u'target': [], u'time': []}}}","[4, 4, 48]",[],52.0,[],"[u'', -4, -4, 24, -24, -4, 4, 24, 24, 4, 4, 48, -48]",176370,2.0,10252.0,mouselab-mdp,0
[],[],demo,"[u'0', 9, 10, 12]","{u'mouseover': {u'state': {u'target': [], u'time': []}, u'edge': {u'target': [], u'time': []}}, u'click': {u'state': {u'target': [12], u'time': [990]}, u'edge': {u'target': [], u'time': []}}, u'mouseout': {u'state': {u'target': [], u'time': []}, u'edge': {u'target': [], u'time': []}}}","[2, 8, 48]",[],57.0,[],"[u'', -2, 8, 24, -48, 4, 4, -48, -24, 2, 8, -48, 48]",182044,3.0,4582.0,mouselab-mdp,0
[],[],demo,"[u'0', 5, 6, 7]","{u'mouseover': {u'state': {u'target': [], u'time': []}, u'edge': {u'target': [], u'time': []}}, u'click': {u'state': {u'target': [3, 4, 8, 12, 7], u'time': [996, 2000, 3002, 4006, 5008]}, u'edge': {u'target': [], u'time': []}}, u'mouseout': {u'state': {u'target': [], u'time': []}, u'edge': {u'target': [], u'time': []}}}","[-4, 8, 48]",[],47.0,[],"[u'', -2, 4, 24, 24, -4, 8, 48, 24, -4, 8, -48, -24]",190754,4.0,7644.0,mouselab-mdp,0
[],[],demo,"[u'0', 1, 2, 4]","{u'mouseover': {u'state': {u'target': [], u'time': []}, u'edge': {u'target': [], u'time': []}}, u'click': {u'state': {u'target': [4], u'time': [992]}, u'edge': {u'target': [], u'time': []}}, u'mouseout': {u'state': {u'target': [], u'time': []}, u'edge': {u'target': [], u'time': []}}}","[4, 8, 48]",[],59.0,[],"[u'', 4, 8, 24, 48, -4, 8, -48, -48, -2, -8, 24, -48]",196140,5.0,4290.0,mouselab-mdp,0
[],[],demo,"[u'0', 9, 10, 11]","{u'mouseover': {u'state': {u'target': [], u'time': []}, u'edge': {u'target': [], u'time': []}}, u'click': {u'state': {u'target': [7, 8, 11], u'time': [992, 1996, 3000]}, u'edge': {u'target': [], u'time': []}}, u'mouseout': {u'state': {u'target': [], u'time': []}, u'edge': {u'target': [], u'time': []}}}","[4, -4, 48]",[],45.0,[],"[u'', 4, -8, 48, 24, -2, -4, 24, -24, 4, -4, 48, 48]",203516,6.0,6288.0,mouselab-mdp,0
[],[],demo,"[u'0', 9, 10, 11]","{u'mouseover': {u'state': {u'target': [], u'time': []}, u'edge': {u'target': [], u'time': []}}, u'click': {u'state': {u'target': [7, 11], u'time': [992, 1996]}, u'edge': {u'target': [], u'time': []}}, u'mouseout': {u'state': {u'target': [], u'time': []}, u'edge': {u'target': [], u'time': []}}}","[2, -4, 48]",[],44.0,[],"[u'', 4, 8, 24, 24, -4, -4, -24, -48, 2, -4, 48, 48]",209824,7.0,5212.0,mouselab-mdp,0
[],[],demo,"[u'0', 1, 2, 3]","{u'mouseover': {u'state': {u'target': [], u'time': []}, u'edge': {u'target': [], u'time': []}}, u'click': {u'state': {u'target': [8, 12, 4, 11, 7, 3], u'time': [988, 1992, 2996, 3996, 5000, 6002]}, u'edge': {u'target': [], u'time': []}}, u'mouseout': {u'state': {u'target': [], u'time': []}, u'edge': {u'target': [], u'time': []}}}","[2, -8, 48]",[],36.0,[],"[u'', 2, -8, 48, -48, -2, 8, -48, 24, 2, 8, -24, -48]",220072,8.0,9156.0,mouselab-mdp,0
[],[],demo,"[u'0', 1, 2, 4]","{u'mouseover': {u'state': {u'target': [], u'time': []}, u'edge': {u'target': [], u'time': []}}, u'click': {u'state': {u'target': [11, 12, 3, 4], u'time': [992, 1996, 3000, 4004]}, u'edge': {u'target': [], u'time': []}}, u'mouseout': {u'state': {u'target': [], u'time': []}, u'edge': {u'target': [], u'time': []}}}","[-4, 4, 48]",[],44.0,[],"[u'', -4, 4, -24, 48, -4, -8, -24, 48, -4, 8, -24, -48]",228328,9.0,7164.0,mouselab-mdp,0
[],[],demo,"[u'0', 1, 2, 4]","{u'mouseover': {u'state': {u'target': [], u'time': []}, u'edge': {u'target': [], u'time': []}}, u'click': {u'state': {u'target': [4, 11, 8, 3, 7, 12], u'time': [924, 1926, 2928, 3930, 4930, 5933]}, u'edge': {u'target': [], u'time': []}}, u'mouseout': {u'state': {u'target': [], u'time': []}, u'edge': {u'target': [], u'time': []}}}","[-4, 8, 24]",[],22.0,[],"[u'', -4, 8, -24, 24, 2, -8, -48, -48, -4, -4, -48, -48]",273116,0.0,11931.0,mouselab-mdp,2
[],[],demo,"[u'0', 5, 6, 8]","{u'mouseover': {u'state': {u'target': [], u'time': []}, u'edge': {u'target': [], u'time': []}}, u'click': {u'state': {u'target': [8], u'time': [998]}, u'edge': {u'target': [], u'time': []}}, u'mouseout': {u'state': {u'target': [], u'time': []}, u'edge': {u'target': [], u'time': []}}}","[2, -8, 48]",[],41.0,[],"[u'', -4, -8, -48, 24, 2, -8, -48, 48, 2, -8, -24, 24]",279779,1.0,5635.0,mouselab-mdp,2
[],[],demo,"[u'0', 9, 10, 12]","{u'mouseover': {u'state': {u'target': [], u'time': []}, u'edge': {u'target': [], u'time': []}}, u'click': {u'state': {u'target': [12], u'time': [991]}, u'edge': {u'target': [], u'time': []}}, u'mouseout': {u'state': {u'target': [], u'time': []}, u'edge': {u'target': [], u'time': []}}}","[-2, -8, 48]",[],37.0,[],"[u'', -4, -4, 48, -24, -4, 4, -48, 48, -2, -8, 24, 48]",287228,2.0,6410.0,mouselab-mdp,2
[],[],demo,"[u'0', 5, 6, 7]","{u'mouseover': {u'state': {u'target': [], u'time': []}, u'edge': {u'target': [], u'time': []}}, u'click': {u'state': {u'target': [7], u'time': [999]}, u'edge': {u'target': [], u'time': []}}, u'mouseout': {u'state': {u'target': [], u'time': []}, u'edge': {u'target': [], u'time': []}}}","[4, 8, 48]",[],59.0,[],"[u'', -2, -8, -24, 48, 4, 8, 48, -48, -4, -8, -24, -48]",293321,3.0,5068.0,mouselab-mdp,2
[],[],demo,"[u'0', 9, 10, 12]","{u'mouseover': {u'state': {u'target': [], u'time': []}, u'edge': {u'target': [], u'time': []}}, u'click': {u'state': {u'target': [4, 12], u'time': [999, 2001]}, u'edge': {u'target': [], u'time': []}}, u'mouseout': {u'state': {u'target': [], u'time': []}, u'edge': {u'target': [], u'time': []}}}","[2, -8, 48]",[],40.0,[],"[u'', -4, -4, -24, 24, -2, 4, 24, 24, 2, -8, 48, 48]",300576,4.0,6227.0,mouselab-mdp,2
[],[],demo,"[u'0', 1, 2, 3]","{u'mouseover': {u'state': {u'target': [], u'time': []}, u'edge': {u'target': [], u'time': []}}, u'click': {u'state': {u'target': [11, 7, 3], u'time': [996, 1998, 2998]}, u'edge': {u'target': [], u'time': []}}, u'mouseout': {u'state': {u'target': [], u'time': []}, u'edge': {u'target': [], u'time': []}}}","[4, 4, 48]",[],53.0,[],"[u'', 4, 4, 48, 24, 4, -4, 24, -48, -2, -8, -24, -48]",308295,5.0,6691.0,mouselab-mdp,2
[],[],demo,"[u'0', 9, 10, 12]","{u'mouseover': {u'state': {u'target': [], u'time': []}, u'edge': {u'target': [], u'time': []}}, u'click': {u'state': {u'target': [12], u'time': [999]}, u'edge': {u'target': [], u'time': []}}, u'mouseout': {u'state': {u'target': [], u'time': []}, u'edge': {u'target': [], u'time': []}}}","[-4, 8, 48]",[],51.0,[],"[u'', -2, 8, 24, -48, -4, 4, -48, -48, -4, 8, 24, 48]",315261,6.0,5931.0,mouselab-mdp,2
[],[],demo,"[u'0', 1, 2, 3]","{u'mouseover': {u'state': {u'target': [], u'time': []}, u'edge': {u'target': [], u'time': []}}, u'click': {u'state': {u'target': [4, 3], u'time': [1002, 2001]}, u'edge': {u'target': [], u'time': []}}, u'mouseout': {u'state': {u'target': [], u'time': []}, u'edge': {u'target': [], u'time': []}}}","[-4, -8, 48]",[],34.0,[],"[u'', -4, -8, 48, -48, -2, -8, 48, 24, -2, 8, 24, -24]",321634,7.0,5353.0,mouselab-mdp,2
[],[],demo,"[u'0', 5, 6, 8]","{u'mouseover': {u'state': {u'target': [], u'time': []}, u'edge': {u'target': [], u'time': []}}, u'click': {u'state': {u'target': [3, 7, 12, 4, 11, 8], u'time': [998, 2000, 3002, 4002, 5004, 6006]}, u'edge': {u'target': [], u'time': []}}, u'mouseout': {u'state': {u'target': [], u'time': []}, u'edge': {u'target': [], u'time': []}}}","[-4, -8, 48]",[],30.0,[],"[u'', 2, 4, 24, 24, -4, -8, 24, 48, -4, -4, -24, -24]",332132,8.0,9471.0,mouselab-mdp,2
[],[],demo,"[u'0', 1, 2, 4]","{u'mouseover': {u'state': {u'target': [], u'time': []}, u'edge': {u'target': [], u'time': []}}, u'click': {u'state': {u'target': [7, 12, 11, 3, 8, 4], u'time': [995, 1997, 2998, 3999, 5000, 6002]}, u'edge': {u'target': [], u'time': []}}, u'mouseout': {u'state': {u'target': [], u'time': []}, u'edge': {u'target': [], u'time': []}}}","[2, 4, 48]",[],48.0,[],"[u'', 2, 4, -24, 48, 2, -4, 24, 24, 2, -4, -48, -24]",342839,9.0,9682.0,mouselab-mdp,2
"[8488, 9300, 10230]","[u'left', u'left', u'up']",training,"[u'0', u'9', u'10', u'11']","{u'mouseover': {u'state': {u'target': [], u'time': []}, u'edge': {u'target': [], u'time': []}}, u'click': {u'state': {u'target': [u'11', u'4', u'3', u'7', u'8', u'12'], u'time': [1026, 3426, 4320, 4976, 6148, 7020]}, u'edge': {u'target': [], u'time': []}}, u'mouseout': {u'state': {u'target': [], u'time': []}, u'edge': {u'target': [], u'time': []}}}","[4, -8, 48]","[8470, 289, 404]",38.0,"[None, None, None]","[u'', 4, -4, -24, 24, 2, 4, -24, -48, 4, -8, 48, -48]",152675,0.0,13064.0,mouselab-mdp,3
"[5879, 6484, 7174]","[u'up', u'up', u'right']",training,"[u'0', u'1', u'2', u'3']","{u'mouseover': {u'state': {u'target': [], u'time': []}, u'edge': {u'target': [], u'time': []}}, u'click': {u'state': {u'target': [u'11', u'8', u'7', u'3'], u'time': [1028, 2330, 3202, 3926]}, u'edge': {u'target': [], u'time': []}}, u'mouseout': {u'state': {u'target': [], u'time': []}, u'edge': {u'target': [], u'time': []}}}","[-4, 4, 48]","[5868, 79, 165]",44.0,"[None, None, None]","[u'', -4, 4, 48, -48, -4, 4, -24, 24, -4, -8, 24, 24]",164536,1.0,10677.0,mouselab-mdp,3
"[17231, 18297, 19118]","[u'left', u'left', u'up']",training,"[u'0', u'9', u'10', u'11']","{u'mouseover': {u'state': {u'target': [], u'time': []}, u'edge': {u'target': [], u'time': []}}, u'click': {u'state': {u'target': [u'12', u'8', u'7', u'11', u'4', u'3', u'1', u'2', u'10', u'9'], u'time': [1043, 1617, 2219, 2873, 3359, 4118, 10115, 13654, 15084, 15925]}, u'edge': {u'target': [], u'time': []}}, u'mouseout': {u'state': {u'target': [], u'time': []}, u'edge': {u'target': [], u'time': []}}}","[4, 4, 48]","[17216, 523, 296]",46.0,"[None, None, None]","[u'', -4, 8, 48, -24, -2, -4, 24, -48, 4, 4, 48, -48]",186952,2.0,21311.0,mouselab-mdp,3
"[14412, 15236, 15925]","[u'right', u'right', u'down']",training,"[u'0', u'5', u'6', u'8']","{u'mouseover': {u'state': {u'target': [], u'time': []}, u'edge': {u'target': [], u'time': []}}, u'click': {u'state': {u'target': [u'4', u'3', u'7', u'8', u'12', u'11', u'10', u'6', u'5', u'9'], u'time': [1617, 2747, 3348, 4017, 4786, 8439, 9322, 10332, 11019, 11751]}, u'edge': {u'target': [], u'time': []}}, u'mouseout': {u'state': {u'target': [], u'time': []}, u'edge': {u'target': [], u'time': []}}}","[-2, 4, 48]","[14408, 310, 161]",40.0,"[None, None, None]","[u'', 4, 8, -24, 24, -2, 4, -24, 48, 2, -8, 24, 48]",206137,3.0,18117.0,mouselab-mdp,3
"[7812, 8539, 9162]","[u'up', u'up', u'right']",training,"[u'0', u'1', u'2', u'3']","{u'mouseover': {u'state': {u'target': [], u'time': []}, u'edge': {u'target': [], u'time': []}}, u'click': {u'state': {u'target': [u'8', u'7', u'4', u'12', u'11', u'3'], u'time': [1120, 1799, 2561, 3315, 3964, 4744]}, u'edge': {u'target': [], u'time': []}}, u'mouseout': {u'state': {u'target': [], u'time': []}, u'edge': {u'target': [], u'time': []}}}","[2, 8, 48]","[7799, 215, 94]",52.0,"[None, None, None]","[u'', 2, 8, 48, -24, -4, -4, -48, 24, -4, -8, -48, -24]",217850,4.0,10579.0,mouselab-mdp,3
"[6183, 6798, 7609]","[u'left', u'left', u'down']",training,"[u'0', u'9', u'10', u'12']","{u'mouseover': {u'state': {u'target': [], u'time': []}, u'edge': {u'target': [], u'time': []}}, u'click': {u'state': {u'target': [u'11', u'8', u'7', u'4', u'3', u'12'], u'time': [840, 1828, 2385, 3360, 3994, 4754]}, u'edge': {u'target': [], u'time': []}}, u'mouseout': {u'state': {u'target': [], u'time': []}, u'edge': {u'target': [], u'time': []}}}","[-4, 4, 48]","[6173, 90, 281]",42.0,"[None, None, None]","[u'', -4, 4, 24, 24, 2, 8, -24, 24, -4, 4, -24, 48]",228936,5.0,9967.0,mouselab-mdp,3
"[5939, 7060, 7749]","[u'left', u'left', u'down']",training,"[u'0', u'9', u'10', u'12']","{u'mouseover': {u'state': {u'target': [], u'time': []}, u'edge': {u'target': [], u'time': []}}, u'click': {u'state': {u'target': [u'3', u'12', u'8', u'7', u'11', u'4'], u'time': [1062, 1822, 3289, 3973, 4830, 5407]}, u'edge': {u'target': [], u'time': []}}, u'mouseout': {u'state': {u'target': [], u'time': []}, u'edge': {u'target': [], u'time': []}}}","[4, 4, 48]","[5935, 596, 176]",50.0,"[None, None, None]","[u'', 2, 4, 24, -24, 4, 8, 24, -24, 4, 4, 24, 48]",244512,6.0,14507.0,mouselab-mdp,3
"[5203, 5794, 6394]","[u'up', u'up', u'left']",training,"[u'0', u'1', u'2', u'4']","{u'mouseover': {u'state': {u'target': [], u'time': []}, u'edge': {u'target': [], u'time': []}}, u'click': {u'state': {u'target': [u'8', u'7', u'3', u'4', u'11', u'12'], u'time': [966, 1613, 2034, 2604, 3147, 4114]}, u'edge': {u'target': [], u'time': []}}, u'mouseout': {u'state': {u'target': [], u'time': []}, u'edge': {u'target': [], u'time': []}}}","[-2, -8, 48]","[5192, 64, 82]",32.0,"[None, None, None]","[u'', -2, -8, 24, 48, -2, 8, -24, -24, -2, -4, 24, -24]",254943,7.0,9322.0,mouselab-mdp,3
"[2368, 3215, 4078]","[u'left', u'left', u'down']",training,"[u'0', u'9', u'10', u'12']","{u'mouseover': {u'state': {u'target': [], u'time': []}, u'edge': {u'target': [], u'time': []}}, u'click': {u'state': {u'target': [u'12'], u'time': [854]}, u'edge': {u'target': [], u'time': []}}, u'mouseout': {u'state': {u'target': [], u'time': []}, u'edge': {u'target': [], u'time': []}}}","[-4, 8, 48]","[2362, 343, 338]",51.0,"[None, None, None]","[u'', -4, 4, 24, 24, -2, -4, 48, -24, -4, 8, -48, 48]",264425,8.0,8382.0,mouselab-mdp,3
"[13109, 13738, 14346]","[u'up', u'up', u'right']",training,"[u'0', u'1', u'2', u'3']","{u'mouseover': {u'state': {u'target': [], u'time': []}, u'edge': {u'target': [], u'time': []}}, u'click': {u'state': {u'target': [u'8', u'4', u'3', u'7', u'11', u'12', u'10', u'2', u'1', u'9'], u'time': [1617, 2674, 3206, 4396, 5019, 8749, 9588, 10329, 11114, 11712]}, u'edge': {u'target': [], u'time': []}}, u'mouseout': {u'state': {u'target': [], u'time': []}, u'edge': {u'target': [], u'time': []}}}","[-4, 8, 48]","[13102, 109, 83]",42.0,"[None, None, None]","[u'', -4, 8, 48, 24, 2, -8, -48, -24, -4, -4, 48, -24]",282047,9.0,16496.0,mouselab-mdp,3
[],[],demo,"[u'0', 9, 10, 12]","{u'mouseover': {u'state': {u'target': [], u'time': []}, u'edge': {u'target': [], u'time': []}}, u'click': {u'state': {u'target': [4, 12], u'time': [797, 1800]}, u'edge': {u'target': [], u'time': []}}, u'mouseout': {u'state': {u'target': [], u'time': []}, u'edge': {u'target': [], u'time': []}}}","[2, -8, 48]",[],40.0,[],"[u'', -4, -4, -24, 24, -2, 4, 24, 24, 2, -8, 48, 48]",205556,0.0,7469.0,mouselab-mdp,4
[],[],demo,"[u'0', 9, 10, 11]","{u'mouseover': {u'state': {u'target': [], u'time': []}, u'edge': {u'target': [], u'time': []}}, u'click': {u'state': {u'target': [12, 8, 11], u'time': [989, 1993, 2997]}, u'edge': {u'target': [], u'time': []}}, u'mouseout': {u'state': {u'target': [], u'time': []}, u'edge': {u'target': [], u'time': []}}}","[4, -8, 48]",[],41.0,[],"[u'', 2, 4, -48, 24, -4, 8, 24, -48, 4, -8, 48, 24]",213707,1.0,6932.0,mouselab-mdp,4
[],[],demo,"[u'0', 9, 10, 11]","{u'mouseover': {u'state': {u'target': [], u'time': []}, u'edge': {u'target': [], u'time': []}}, u'click': {u'state': {u'target': [3, 8, 7, 11], u'time': [992, 1997, 3001, 4010]}, u'edge': {u'target': [], u'time': []}}, u'mouseout': {u'state': {u'target': [], u'time': []}, u'edge': {u'target': [], u'time': []}}}","[4, 8, 48]",[],56.0,[],"[u'', 2, -4, -24, -24, -4, 4, 24, -48, 4, 8, 48, 48]",222434,2.0,7547.0,mouselab-mdp,4
[],[],demo,"[u'0', 1, 2, 4]","{u'mouseover': {u'state': {u'target': [], u'time': []}, u'edge': {u'target': [], u'time': []}}, u'click': {u'state': {u'target': [4], u'time': [991]}, u'edge': {u'target': [], u'time': []}}, u'mouseout': {u'state': {u'target': [], u'time': []}, u'edge': {u'target': [], u'time': []}}}","[-2, 8, 48]",[],53.0,[],"[u'', -2, 8, 24, 48, 2, -4, 48, -48, 2, 8, 24, -48]",227732,3.0,4124.0,mouselab-mdp,4
[],[],demo,"[u'0', 5, 6, 7]","{u'mouseover': {u'state': {u'target': [], u'time': []}, u'edge': {u'target': [], u'time': []}}, u'click': {u'state': {u'target': [7], u'time': [991]}, u'edge': {u'target': [], u'time': []}}, u'mouseout': {u'state': {u'target': [], u'time': []}, u'edge': {u'target': [], u'time': []}}}","[4, 8, 48]",[],59.0,[],"[u'', -2, -8, -24, 48, 4, 8, 48, -48, -4, -8, -24, -48]",233132,4.0,4232.0,mouselab-mdp,4
[],[],demo,"[u'0', 9, 10, 11]","{u'mouseover': {u'state': {u'target': [], u'time': []}, u'edge': {u'target': [], u'time': []}}, u'click': {u'state': {u'target': [3, 8, 12, 7, 11], u'time': [988, 1992, 2996, 3999, 5002]}, u'edge': {u'target': [], u'time': []}}, u'mouseout': {u'state': {u'target': [], u'time': []}, u'edge': {u'target': [], u'time': []}}}","[4, -4, 48]",[],43.0,[],"[u'', 4, -8, 24, 24, 2, 4, -24, 24, 4, -4, 48, -48]",242978,5.0,8588.0,mouselab-mdp,4
[],[],demo,"[u'0', 9, 10, 11]","{u'mouseover': {u'state': {u'target': [], u'time': []}, u'edge': {u'target': [], u'time': []}}, u'click': {u'state': {u'target': [4, 7, 3, 8, 11], u'time': [995, 2000, 3003, 4007, 5011]}, u'edge': {u'target': [], u'time': []}}, u'mouseout': {u'state': {u'target': [], u'time': []}, u'edge': {u'target': [], u'time': []}}}","[4, -4, 48]",[],43.0,[],"[u'', -2, 8, -24, 24, 2, -8, -48, -24, 4, -4, 48, -48]",252826,6.0,8694.0,mouselab-mdp,4
[],[],demo,"[u'0', 1, 2, 3]","{u'mouseover': {u'state': {u'target': [], u'time': []}, u'edge': {u'target': [], u'time': []}}, u'click': {u'state': {u'target': [4, 3], u'time': [983, 1986]}, u'edge': {u'target': [], u'time': []}}, u'mouseout': {u'state': {u'target': [], u'time': []}, u'edge': {u'target': [], u'time': []}}}","[-4, -8, 48]",[],34.0,[],"[u'', -4, -8, 48, -48, -2, -8, 48, 24, -2, 8, 24, -24]",259338,7.0,5302.0,mouselab-mdp,4
[],[],demo,"[u'0', 5, 6, 8]","{u'mouseover': {u'state': {u'target': [], u'time': []}, u'edge': {u'target': [], u'time': []}}, u'click': {u'state': {u'target': [3, 7, 12, 4, 11, 8], u'time': [994, 1997, 3001, 4005, 5009, 6015]}, u'edge': {u'target': [], u'time': []}}, u'mouseout': {u'state': {u'target': [], u'time': []}, u'edge': {u'target': [], u'time': []}}}","[-4, -8, 48]",[],30.0,[],"[u'', 2, 4, 24, 24, -4, -8, 24, 48, -4, -4, -24, -24]",271696,8.0,11208.0,mouselab-mdp,4
[],[],demo,"[u'0', 1, 2, 3]","{u'mouseover': {u'state': {u'target': [], u'time': []}, u'edge': {u'target': [], u'time': []}}, u'click': {u'state': {u'target': [11, 7, 3], u'time': [982, 1987, 2993]}, u'edge': {u'target': [], u'time': []}}, u'mouseout': {u'state': {u'target': [], u'time': []}, u'edge': {u'target': [], u'time': []}}}","[4, 4, 48]",[],53.0,[],"[u'', 4, 4, 48, 24, 4, -4, 24, -48, -2, -8, -24, -48]",280050,9.0,7136.0,mouselab-mdp,4
[],[],demo,"[u'0', 9, 10, 11]","{u'mouseover': {u'state': {u'target': [], u'time': []}, u'edge': {u'target': [], u'time': []}}, u'click': {u'state': {u'target': [3, 8, 12, 7, 11], u'time': [827, 1833, 2832, 3842, 4846]}, u'edge': {u'target': [], u'time': []}}, u'mouseout': {u'state': {u'target': [], u'time': []}, u'edge': {u'target': [], u'time': []}}}","[4, -4, 48]",[],43.0,[],"[u'', 4, -8, 24, 24, 2, 4, -24, 24, 4, -4, 48, -48]",284343,0.0,13218.0,mouselab-mdp,8
[],[],demo,"[u'0', 9, 10, 11]","{u'mouseover': {u'state': {u'target': [], u'time': []}, u'edge': {u'target': [], u'time': []}}, u'click': {u'state': {u'target': [7, 8, 11], u'time': [997, 2001, 3004]}, u'edge': {u'target': [], u'time': []}}, u'mouseout': {u'state': {u'target': [], u'time': []}, u'edge': {u'target': [], u'time': []}}}","[4, -4, 48]",[],45.0,[],"[u'', 4, -8, 48, 24, -2, -4, 24, -24, 4, -4, 48, 48]",292455,1.0,7002.0,mouselab-mdp,8
[],[],demo,"[u'0', 9, 10, 11]","{u'mouseover': {u'state': {u'target': [], u'time': []}, u'edge': {u'target': [], u'time': []}}, u'click': {u'state': {u'target': [7, 11], u'time': [1002, 2004]}, u'edge': {u'target': [], u'time': []}}, u'mouseout': {u'state': {u'target': [], u'time': []}, u'edge': {u'target': [], u'time': []}}}","[2, -4, 48]",[],44.0,[],"[u'', 4, 8, 24, 24, -4, -4, -24, -48, 2, -4, 48, 48]",299737,2.0,6213.0,mouselab-mdp,8
[],[],demo,"[u'0', 1, 2, 4]","{u'mouseover': {u'state': {u'target': [], u'time': []}, u'edge': {u'target': [], u'time': []}}, u'click': {u'state': {u'target': [7, 4], u'time': [1003, 2010]}, u'edge': {u'target': [], u'time': []}}, u'mouseout': {u'state': {u'target': [], u'time': []}, u'edge': {u'target': [], u'time': []}}}","[-2, 8, 48]",[],52.0,[],"[u'', -2, 8, -24, 48, 2, 4, -48, 24, 4, -4, 48, 48]",306207,3.0,5391.0,mouselab-mdp,8
[],[],demo,"[u'0', 9, 10, 11]","{u'mouseover': {u'state': {u'target': [], u'time': []}, u'edge': {u'target': [], u'time': []}}, u'click': {u'state': {u'target': [3, 4, 7, 8, 11], u'time': [998, 2002, 3005, 4008, 5007]}, u'edge': {u'target': [], u'time': []}}, u'mouseout': {u'state': {u'target': [], u'time': []}, u'edge': {u'target': [], u'time': []}}}","[4, 8, 48]",[],55.0,[],"[u'', 2, -4, -24, -24, -4, 4, 24, -48, 4, 8, 48, 48]",316943,4.0,9709.0,mouselab-mdp,8
[],[],demo,"[u'0', 9, 10, 12]","{u'mouseover': {u'state': {u'target': [], u'time': []}, u'edge': {u'target': [], u'time': []}}, u'click': {u'state': {u'target': [8, 7, 4, 11, 12], u'time': [994, 1996, 2999, 4038, 5045]}, u'edge': {u'target': [], u'time': []}}, u'mouseout': {u'state': {u'target': [], u'time': []}, u'edge': {u'target': [], u'time': []}}}","[-4, 4, 48]",[],43.0,[],"[u'', 4, 8, -24, 24, 4, -4, -24, 24, -4, 4, -24, 48]",330516,5.0,12471.0,mouselab-mdp,8
[],[],demo,"[u'0', 5, 6, 8]","{u'mouseover': {u'state': {u'target': [], u'time': []}, u'edge': {u'target': [], u'time': []}}, u'click': {u'state': {u'target': [8], u'time': [1003]}, u'edge': {u'target': [], u'time': []}}, u'mouseout': {u'state': {u'target': [], u'time': []}, u'edge': {u'target': [], u'time': []}}}","[-2, 4, 48]",[],49.0,[],"[u'', -2, 4, -24, 48, -2, 4, -24, 48, 4, -8, 24, 48]",338245,6.0,6676.0,mouselab-mdp,8
[],[],demo,"[u'0', 5, 6, 8]","{u'mouseover': {u'state': {u'target': [], u'time': []}, u'edge': {u'target': [], u'time': []}}, u'click': {u'state': {u'target': [11, 3, 7, 12, 4, 8], u'time': [1000, 2003, 3004, 4009, 5012, 6015]}, u'edge': {u'target': [], u'time': []}}, u'mouseout': {u'state': {u'target': [], u'time': []}, u'edge': {u'target': [], u'time': []}}}","[4, 4, 48]",[],50.0,[],"[u'', 2, 8, -48, -48, 4, 4, -48, 48, 4, 8, 24, -48]",349130,7.0,9801.0,mouselab-mdp,8
[],[],demo,"[u'0', 5, 6, 8]","{u'mouseover': {u'state': {u'target': [], u'time': []}, u'edge': {u'target': [], u'time': []}}, u'click': {u'state': {u'target': [3, 4, 12, 11, 7, 8], u'time': [1001, 2002, 3006, 4010, 5013, 6016]}, u'edge': {u'target': [], u'time': []}}, u'mouseout': {u'state': {u'target': [], u'time': []}, u'edge': {u'target': [], u'time': []}}}","[-4, 8, 24]",[],22.0,[],"[u'', 4, -8, -24, -24, -4, 8, -24, 24, -2, -8, -48, -48]",359648,8.0,9450.0,mouselab-mdp,8
[],[],demo,"[u'0', 9, 10, 11]","{u'mouseover': {u'state': {u'target': [], u'time': []}, u'edge': {u'target': [], u'time': []}}, u'click': {u'state': {u'target': [4, 7, 3, 8, 11], u'time': [1002, 2009, 3011, 4015, 5017]}, u'edge': {u'target': [], u'time': []}}, u'mouseout': {u'state': {u'target': [], u'time': []}, u'edge': {u'target': [], u'time': []}}}","[4, -4, 48]",[],43.0,[],"[u'', -2, 8, -24, 24, 2, -8, -48, -24, 4, -4, 48, -48]",369083,9.0,8364.0,mouselab-mdp,8
"[21688, 28487, 29760]","[u'right', u'right', u'up']",training,"[u'0', u'5', u'6', u'7']","{u'mouseover': {u'state': {u'target': [], u'time': []}, u'edge': {u'target': [], u'time': []}}, u'click': {u'state': {u'target': [u'1', u'3', u'5'], u'time': [11059, 14782, 17910]}, u'edge': {u'target': [], u'time': []}}, u'mouseout': {u'state': {u'target': [], u'time': []}, u'edge': {u'target': [], u'time': []}}}","[2, 4, -48]","[21680, 3280, 753]",-45.0,"[None, None, None]","[u'', -2, -4, 48, -48, 2, 4, -48, 24, 4, 8, -48, 48]",175390,0.0,34123.0,mouselab-mdp,10
"[16082, 17067, 17818]","[u'right', u'right', u'down']",training,"[u'0', u'5', u'6', u'8']","{u'mouseover': {u'state': {u'target': [], u'time': []}, u'edge': {u'target': [], u'time': []}}, u'click': {u'state': {u'target': [u'4', u'11', u'7', u'8'], u'time': [6418, 10825, 13534, 14870]}, u'edge': {u'target': [], u'time': []}}, u'mouseout': {u'state': {u'target': [], u'time': []}, u'edge': {u'target': [], u'time': []}}}","[-2, 8, 48]","[16077, 463, 230]",50.0,"[None, None, None]","[u'', -4, -8, 24, -24, -2, 8, 24, 48, 4, -4, 24, -48]",196443,1.0,19976.0,mouselab-mdp,10
"[5619, 6296, 6973]","[u'up', u'up', u'left']",training,"[u'0', u'1', u'2', u'4']","{u'mouseover': {u'state': {u'target': [], u'time': []}, u'edge': {u'target': [], u'time': []}}, u'click': {u'state': {u'target': [u'4'], u'time': [3076]}, u'edge': {u'target': [], u'time': []}}, u'mouseout': {u'state': {u'target': [], u'time': []}, u'edge': {u'target': [], u'time': []}}}","[-2, -8, 48]","[5614, 155, 154]",37.0,"[None, None, None]","[u'', -2, -8, 24, 48, -2, 8, -24, -24, -2, -4, 24, -24]",210424,2.0,12919.0,mouselab-mdp,10
"[8898, 9633, 10273]","[u'right', u'right', u'down']",training,"[u'0', u'5', u'6', u'8']","{u'mouseover': {u'state': {u'target': [], u'time': []}, u'edge': {u'target': [], u'time': []}}, u'click': {u'state': {u'target': [u'12', u'11', u'3', u'7', u'8'], u'time': [1622, 3101, 4894, 6120, 7788]}, u'edge': {u'target': [], u'time': []}}, u'mouseout': {u'state': {u'target': [], u'time': []}, u'edge': {u'target': [], u'time': []}}}","[-4, -8, 48]","[8892, 221, 124]",31.0,"[None, None, None]","[u'', 4, 8, -24, -24, -4, -8, -48, 48, 2, -8, -24, -48]",228257,3.0,16742.0,mouselab-mdp,10
"[10855, 16983, 17864]","[u'up', u'up', u'right']",training,"[u'0', u'1', u'2', u'3']","{u'mouseover': {u'state': {u'target': [], u'time': []}, u'edge': {u'target': [], u'time': []}}, u'click': {u'state': {u'target': [u'3', u'4', u'11', u'12', u'8', u'7'], u'time': [2526, 4278, 5316, 6996, 8297, 9559]}, u'edge': {u'target': [], u'time': []}}, u'mouseout': {u'state': {u'target': [], u'time': []}, u'edge': {u'target': [], u'time': []}}}","[2, 4, 24]","[10851, 595, 354]",24.0,"[None, None, None]","[u'', 2, 4, 24, -24, 4, 8, -48, 24, 4, -8, -24, 24]",251590,4.0,22275.0,mouselab-mdp,10
"[3402, 4017, 4651]","[u'up', u'up', u'left']",training,"[u'0', u'1', u'2', u'4']","{u'mouseover': {u'state': {u'target': [], u'time': []}, u'edge': {u'target': [], u'time': []}}, u'click': {u'state': {u'target': [u'3', u'4'], u'time': [1303, 2355]}, u'edge': {u'target': [], u'time': []}}, u'mouseout': {u'state': {u'target': [], u'time': []}, u'edge': {u'target': [], u'time': []}}}","[4, 4, 48]","[3397, 102, 116]",54.0,"[None, None, None]","[u'', 4, 4, -48, 48, -2, 4, -48, -24, -2, -4, -48, 24]",262094,5.0,9461.0,mouselab-mdp,10
"[2730, 3461, 4134]","[u'left', u'left', u'up']",training,"[u'0', u'9', u'10', u'11']","{u'mouseover': {u'state': {u'target': [], u'time': []}, u'edge': {u'target': [], u'time': []}}, u'click': {u'state': {u'target': [u'11'], u'time': [1700]}, u'edge': {u'target': [], u'time': []}}, u'mouseout': {u'state': {u'target': [], u'time': []}, u'edge': {u'target': [], u'time': []}}}","[4, -4, 48]","[2725, 206, 166]",47.0,"[None, None, None]","[u'', -2, -8, -48, -48, -4, -8, 24, 24, 4, -4, 48, -24]",274284,6.0,11123.0,mouselab-mdp,10
"[4049, 4701, 5359]","[u'left', u'left', u'down']",training,"[u'0', u'9', u'10', u'12']","{u'mouseover': {u'state': {u'target': [], u'time': []}, u'edge': {u'target': [], u'time': []}}, u'click': {u'state': {u'target': [u'11', u'12'], u'time': [1786, 2786]}, u'edge': {u'target': [], u'time': []}}, u'mouseout': {u'state': {u'target': [], u'time': []}, u'edge': {u'target': [], u'time': []}}}","[-4, 8, 48]","[4043, 140, 130]",50.0,"[None, None, None]","[u'', -4, 4, 24, 24, -2, -4, 48, -24, -4, 8, -48, 48]",287318,7.0,11982.0,mouselab-mdp,10
"[1382, 46438, 47110]","[u'right', u'right', u'up']",training,"[u'0', u'5', u'6', u'7']","{u'mouseover': {u'state': {u'target': [], u'time': []}, u'edge': {u'target': [], u'time': []}}, u'click': {u'state': {u'target': [], u'time': []}, u'edge': {u'target': [], u'time': []}}, u'mouseout': {u'state': {u'target': [], u'time': []}, u'edge': {u'target': [], u'time': []}}}","[-4, 8, 48]","[1376, 2532, 153]",52.0,"[None, None, None]","[u'', -2, 8, -24, 24, -4, 8, 48, 24, -2, -4, 24, -48]",341720,8.0,53327.0,mouselab-mdp,10
"[7435, 8115, 8732]","[u'left', u'left', u'down']",training,"[u'0', u'9', u'10', u'12']","{u'mouseover': {u'state': {u'target': [], u'time': []}, u'edge': {u'target': [], u'time': []}}, u'click': {u'state': {u'target': [u'3', u'4', u'11', u'12'], u'time': [1839, 3334, 4429, 6448]}, u'edge': {u'target': [], u'time': []}}, u'mouseout': {u'state': {u'target': [], u'time': []}, u'edge': {u'target': [], u'time': []}}}","[2, -8, 48]","[7431, 162, 96]",38.0,"[None, None, None]","[u'', 4, 8, -24, 24, -2, 4, -24, 48, 2, -8, 24, 48]",359417,9.0,16647.0,mouselab-mdp,10
"[54773, 56110, 56712]","[u'left', u'left', u'up']",training,"[u'0', u'9', u'10', u'11']","{u'mouseover': {u'state': {u'target': [], u'time': []}, u'edge': {u'target': [], u'time': []}}, u'click': {u'state': {u'target': [u'6', u'10', u'8', u'7', u'12', u'11', u'4', u'2', u'3', u'1', u'9', u'5'], u'time': [9482, 14449, 19513, 25247, 26949, 28698, 29844, 33779, 33849, 35727, 37343, 38416]}, u'edge': {u'target': [], u'time': []}}, u'mouseout': {u'state': {u'target': [], u'time': []}, u'edge': {u'target': [], u'time': []}}}","[2, 4, 24]","[54769, 844, 80]",18.0,"[None, None, None]","[u'', 2, -4, 24, -48, -2, -8, 24, -48, 2, 4, 24, -48]",230380,0.0,59811.0,mouselab-mdp,11
"[27947, 28563, 29672]","[u'up', u'up', u'right']",training,"[u'0', u'1', u'2', u'3']","{u'mouseover': {u'state': {u'target': [], u'time': []}, u'edge': {u'target': [], u'time': []}}, u'click': {u'state': {u'target': [u'8', u'5', u'12', u'11', u'4', u'3', u'7', u'9', u'2', u'6', u'10', u'1'], u'time': [3352, 7720, 8485, 9375, 10269, 11216, 12087, 16698, 18348, 19451, 20867, 21968]}, u'edge': {u'target': [], u'time': []}}, u'mouseout': {u'state': {u'target': [], u'time': []}, u'edge': {u'target': [], u'time': []}}}","[4, 4, 48]","[27944, 102, 595]",44.0,"[None, None, None]","[u'', 4, 4, 48, -48, -2, -8, 48, -24, -4, -8, 24, -48]",262696,1.0,31267.0,mouselab-mdp,11
"[17024, 17717, 18252]","[u'left', u'left', u'up']",training,"[u'0', u'9', u'10', u'11']","{u'mouseover': {u'state': {u'target': [], u'time': []}, u'edge': {u'target': [], u'time': []}}, u'click': {u'state': {u'target': [u'12', u'11', u'4', u'3', u'7', u'8', u'6', u'10', u'2', u'1', u'9', u'5'], u'time': [2577, 3564, 4577, 5510, 6412, 7358, 8355, 9457, 10833, 11796, 12700, 13641]}, u'edge': {u'target': [], u'time': []}}, u'mouseout': {u'state': {u'target': [], u'time': []}, u'edge': {u'target': [], u'time': []}}}","[-2, 8, 48]","[17021, 188, 24]",42.0,"[None, None, None]","[u'', 4, -4, -48, -48, 4, 8, 24, -24, -2, 8, 48, -48]",284133,2.0,20396.0,mouselab-mdp,11
"[15410, 16004, 17031]","[u'left', u'left', u'up']",training,"[u'0', u'9', u'10', u'11']","{u'mouseover': {u'state': {u'target': [], u'time': []}, u'edge': {u'target': [], u'time': []}}, u'click': {u'state': {u'target': [u'8', u'7', u'3', u'4', u'11', u'12', u'10', u'2', u'6', u'5', u'1', u'9'], u'time': [2853, 3738, 4617, 5511, 6299, 7189, 7905, 8791, 9802, 10587, 11492, 12265]}, u'edge': {u'target': [], u'time': []}}, u'mouseout': {u'state': {u'target': [], u'time': []}, u'edge': {u'target': [], u'time': []}}}","[-4, -4, 48]","[15407, 83, 512]",28.0,"[None, None, None]","[u'', 2, -4, -24, -24, 4, -8, -48, -48, -4, -4, 48, 48]",304356,3.0,19184.0,mouselab-mdp,11
"[13509, 14671, 15443]","[u'left', u'left', u'up']",training,"[u'0', u'9', u'10', u'11']","{u'mouseover': {u'state': {u'target': [], u'time': []}, u'edge': {u'target': [], u'time': []}}, u'click': {u'state': {u'target': [u'12', u'11', u'4', u'3', u'7', u'8', u'10'], u'time': [1725, 2721, 3533, 4989, 5803, 7842, 12031]}, u'edge': {u'target': [], u'time': []}}, u'mouseout': {u'state': {u'target': [], u'time': []}, u'edge': {u'target': [], u'time': []}}}","[4, -4, 48]","[13506, 649, 254]",41.0,"[None, None, None]","[u'', -2, -8, -48, -48, -4, -8, 24, 24, 4, -4, 48, -24]",322423,4.0,17027.0,mouselab-mdp,11
"[12467, 13343, 14150]","[u'left', u'left', u'up']",training,"[u'0', u'9', u'10', u'11']","{u'mouseover': {u'state': {u'target': [], u'time': []}, u'edge': {u'target': [], u'time': []}}, u'click': {u'state': {u'target': [u'12', u'11', u'7', u'8', u'3', u'4'], u'time': [1402, 2706, 5409, 6584, 8186, 9156]}, u'edge': {u'target': [], u'time': []}}, u'mouseout': {u'state': {u'target': [], u'time': []}, u'edge': {u'target': [], u'time': []}}}","[-2, 8, 48]","[12464, 357, 296]",48.0,"[None, None, None]","[u'', 2, 4, -48, -24, -4, -8, 24, -48, -2, 8, 48, -24]",339169,5.0,15708.0,mouselab-mdp,11
"[15500, 16064, 16585]","[u'left', u'left', u'down']",training,"[u'0', u'9', u'10', u'12']","{u'mouseover': {u'state': {u'target': [], u'time': []}, u'edge': {u'target': [], u'time': []}}, u'click': {u'state': {u'target': [u'8', u'7', u'3', u'4', u'11', u'12', u'9', u'10'], u'time': [1543, 2606, 3422, 4536, 5510, 6680, 11630, 12342]}, u'edge': {u'target': [], u'time': []}}, u'mouseout': {u'state': {u'target': [], u'time': []}, u'edge': {u'target': [], u'time': []}}}","[4, 8, 48]","[15498, 47, 2]",52.0,"[None, None, None]","[u'', 2, -8, -24, 48, -2, -4, -24, -24, 4, 8, 24, 48]",358083,6.0,17876.0,mouselab-mdp,11
"[20209, 20818, 21411]","[u'left', u'left', u'up']",training,"[u'0', u'9', u'10', u'11']","{u'mouseover': {u'state': {u'target': [], u'time': []}, u'edge': {u'target': [], u'time': []}}, u'click': {u'state': {u'target': [u'3', u'7', u'8', u'11', u'4', u'2', u'10'], u'time': [2010, 3074, 3888, 6711, 16479, 17054, 18431]}, u'edge': {u'target': [], u'time': []}}, u'mouseout': {u'state': {u'target': [], u'time': []}, u'edge': {u'target': [], u'time': []}}}","[-2, 4, 48]","[20206, 91, 83]",43.0,"[None, None, None]","[u'', 4, -4, 48, -48, -2, -8, 24, 24, -2, 4, 48, -48]",381767,7.0,22645.0,mouselab-mdp,11
"[7344, 11141, 12184]","[u'right', u'right', u'up']",training,"[u'0', u'5', u'6', u'7']","{u'mouseover': {u'state': {u'target': [], u'time': []}, u'edge': {u'target': [], u'time': []}}, u'click': {u'state': {u'target': [u'7', u'8', u'6', u'5'], u'time': [1540, 2837, 5166, 9227]}, u'edge': {u'target': [], u'time': []}}, u'mouseout': {u'state': {u'target': [], u'time': []}, u'edge': {u'target': [], u'time': []}}}","[2, -4, 48]","[7342, 284, 528]",42.0,"[None, None, None]","[u'', -2, -4, 48, -24, 2, -4, 48, 24, -2, -8, -24, -24]",396691,8.0,13886.0,mouselab-mdp,11
"[13318, 14389, 15082]","[u'right', u'right', u'down']",training,"[u'0', u'5', u'6', u'8']","{u'mouseover': {u'state': {u'target': [], u'time': []}, u'edge': {u'target': [], u'time': []}}, u'click': {u'state': {u'target': [u'8', u'7', u'3', u'4', u'11', u'12', u'10', u'2', u'6'], u'time': [1649, 2766, 3894, 5045, 6267, 7326, 8328, 10352, 11636]}, u'edge': {u'target': [], u'time': []}}, u'mouseout': {u'state': {u'target': [], u'time': []}, u'edge': {u'target': [], u'time': []}}}","[4, 8, 24]","[13316, 560, 186]",27.0,"[None, None, None]","[u'', 2, 4, 24, -24, 4, 8, -48, 24, 4, -8, -24, 24]",414600,9.0,16872.0,mouselab-mdp,11
[],[],demo,"[u'0', 9, 10, 11]","{u'mouseover': {u'state': {u'target': [], u'time': []}, u'edge': {u'target': [], u'time': []}}, u'click': {u'state': {u'target': [4, 7, 3, 8, 11], u'time': [811, 1817, 2822, 3822, 4823]}, u'edge': {u'target': [], u'time': []}}, u'mouseout': {u'state': {u'target': [], u'time': []}, u'edge': {u'target': [], u'time': []}}}","[4, -4, 48]",[],43.0,[],"[u'', -2, 8, -24, 24, 2, -8, -48, -24, 4, -4, 48, -48]",238668,0.0,10400.0,mouselab-mdp,13
[],[],demo,"[u'0', 1, 2, 4]","{u'mouseover': {u'state': {u'target': [], u'time': []}, u'edge': {u'target': [], u'time': []}}, u'click': {u'state': {u'target': [4], u'time': [998]}, u'edge': {u'target': [], u'time': []}}, u'mouseout': {u'state': {u'target': [], u'time': []}, u'edge': {u'target': [], u'time': []}}}","[-2, 8, 48]",[],53.0,[],"[u'', -2, 8, 24, 48, 2, -4, 48, -48, 2, 8, 24, -48]",245123,1.0,5337.0,mouselab-mdp,13
[],[],demo,"[u'0', 9, 10, 12]","{u'mouseover': {u'state': {u'target': [], u'time': []}, u'edge': {u'target': [], u'time': []}}, u'click': {u'state': {u'target': [12], u'time': [1001]}, u'edge': {u'target': [], u'time': []}}, u'mouseout': {u'state': {u'target': [], u'time': []}, u'edge': {u'target': [], u'time': []}}}","[-2, -8, 48]",[],37.0,[],"[u'', -4, -4, 48, -24, -4, 4, -48, 48, -2, -8, 24, 48]",253107,2.0,6903.0,mouselab-mdp,13
[],[],demo,"[u'0', 1, 2, 4]","{u'mouseover': {u'state': {u'target': [], u'time': []}, u'edge': {u'target': [], u'time': []}}, u'click': {u'state': {u'target': [7, 12, 11, 3, 8, 4], u'time': [999, 2004, 3007, 4011, 5014, 6018]}, u'edge': {u'target': [], u'time': []}}, u'mouseout': {u'state': {u'target': [], u'time': []}, u'edge': {u'target': [], u'time': []}}}","[2, 4, 48]",[],48.0,[],"[u'', 2, 4, -24, 48, 2, -4, 24, 24, 2, -4, -48, -24]",300220,3.0,46013.0,mouselab-mdp,13
[],[],demo,"[u'0', 1, 2, 4]","{u'mouseover': {u'state': {u'target': [], u'time': []}, u'edge': {u'target': [], u'time': []}}, u'click': {u'state': {u'target': [7, 4], u'time': [1003, 2007]}, u'edge': {u'target': [], u'time': []}}, u'mouseout': {u'state': {u'target': [], u'time': []}, u'edge': {u'target': [], u'time': []}}}","[-2, 8, 48]",[],52.0,[],"[u'', -2, 8, -24, 48, 2, 4, -48, 24, 4, -4, 48, 48]",394587,4.0,93284.0,mouselab-mdp,13
[],[],demo,"[u'0', 9, 10, 11]","{u'mouseover': {u'state': {u'target': [], u'time': []}, u'edge': {u'target': [], u'time': []}}, u'click': {u'state': {u'target': [3, 4, 7, 8, 11], u'time': [998, 2002, 3006, 4011, 5014]}, u'edge': {u'target': [], u'time': []}}, u'mouseout': {u'state': {u'target': [], u'time': []}, u'edge': {u'target': [], u'time': []}}}","[4, 8, 48]",[],55.0,[],"[u'', 2, -4, -24, -24, -4, 4, 24, -48, 4, 8, 48, 48]",404787,5.0,9111.0,mouselab-mdp,13
[],[],demo,"[u'0', 5, 6, 7]","{u'mouseover': {u'state': {u'target': [], u'time': []}, u'edge': {u'target': [], u'time': []}}, u'click': {u'state': {u'target': [11, 7], u'time': [1003, 2007]}, u'edge': {u'target': [], u'time': []}}, u'mouseout': {u'state': {u'target': [], u'time': []}, u'edge': {u'target': [], u'time': []}}}","[-2, -8, 48]",[],36.0,[],"[u'', -4, -8, 48, -48, -2, -8, 48, 24, -2, 8, 24, -24]",411418,6.0,5537.0,mouselab-mdp,13
[],[],demo,"[u'0', 1, 2, 3]","{u'mouseover': {u'state': {u'target': [], u'time': []}, u'edge': {u'target': [], u'time': []}}, u'click': {u'state': {u'target': [8, 4, 12, 7, 3, 11, 10], u'time': [1003, 2007, 3011, 4014, 5018, 6022, 7026]}, u'edge': {u'target': [], u'time': []}}, u'mouseout': {u'state': {u'target': [], u'time': []}, u'edge': {u'target': [], u'time': []}}}","[-4, 8, 24]",[],21.0,[],"[u'', -4, 8, 24, 24, -2, -8, -48, -24, -4, -8, 24, 24]",476459,7.0,63953.0,mouselab-mdp,13
[],[],demo,"[u'0', 9, 10, 11]","{u'mouseover': {u'state': {u'target': [], u'time': []}, u'edge': {u'target': [], u'time': []}}, u'click': {u'state': {u'target': [7, 11], u'time': [1001, 2004]}, u'edge': {u'target': [], u'time': []}}, u'mouseout': {u'state': {u'target': [], u'time': []}, u'edge': {u'target': [], u'time': []}}}","[2, -4, 48]",[],44.0,[],"[u'', 4, 8, 24, 24, -4, -4, -24, -48, 2, -4, 48, 48]",486649,8.0,9101.0,mouselab-mdp,13
[],[],demo,"[u'0', 1, 2, 4]","{u'mouseover': {u'state': {u'target': [], u'time': []}, u'edge': {u'target': [], u'time': []}}, u'click': {u'state': {u'target': [7, 12, 4, 11, 8, 3, 2], u'time': [1004, 2008, 3011, 4014, 5018, 6025, 7029]}, u'edge': {u'target': [], u'time': []}}, u'mouseout': {u'state': {u'target': [], u'time': []}, u'edge': {u'target': [], u'time': []}}}","[-4, 8, 24]",[],21.0,[],"[u'', -4, 8, -48, 24, -2, 4, -48, -48, 4, 8, -24, 24]",498267,9.0,10526.0,mouselab-mdp,13
[],[],demo,"[u'0', 1, 2, 4]","{u'mouseover': {u'state': {u'target': [], u'time': []}, u'edge': {u'target': [], u'time': []}}, u'click': {u'state': {u'target': [7, 4], u'time': [851, 1856]}, u'edge': {u'target': [], u'time': []}}, u'mouseout': {u'state': {u'target': [], u'time': []}, u'edge': {u'target': [], u'time': []}}}","[-2, 8, 48]",[],52.0,[],"[u'', -2, 8, -24, 48, 2, 4, -48, 24, 4, -4, 48, 48]",301174,0.0,7994.0,mouselab-mdp,14
[],[],demo,"[u'0', 1, 2, 4]","{u'mouseover': {u'state': {u'target': [], u'time': []}, u'edge': {u'target': [], u'time': []}}, u'click': {u'state': {u'target': [7, 12, 4, 11, 8, 3, 2], u'time': [961, 1966, 2973, 3979, 4982, 5989, 6996]}, u'edge': {u'target': [], u'time': []}}, u'mouseout': {u'state': {u'target': [], u'time': []}, u'edge': {u'target': [], u'time': []}}}","[-4, 8, 24]",[],21.0,[],"[u'', -4, 8, -48, 24, -2, 4, -48, -48, 4, 8, -24, 24]",315415,1.0,13048.0,mouselab-mdp,14
[],[],demo,"[u'0', 9, 10, 11]","{u'mouseover': {u'state': {u'target': [], u'time': []}, u'edge': {u'target': [], u'time': []}}, u'click': {u'state': {u'target': [4, 7, 3, 8, 11], u'time': [995, 1999, 3003, 4009, 5014]}, u'edge': {u'target': [], u'time': []}}, u'mouseout': {u'state': {u'target': [], u'time': []}, u'edge': {u'target': [], u'time': []}}}","[4, -4, 48]",[],43.0,[],"[u'', -2, 8, -24, 24, 2, -8, -48, -24, 4, -4, 48, -48]",326143,2.0,9590.0,mouselab-mdp,14
[],[],demo,"[u'0', 1, 2, 4]","{u'mouseover': {u'state': {u'target': [], u'time': []}, u'edge': {u'target': [], u'time': []}}, u'click': {u'state': {u'target': [4], u'time': [995]}, u'edge': {u'target': [], u'time': []}}, u'mouseout': {u'state': {u'target': [], u'time': []}, u'edge': {u'target': [], u'time': []}}}","[-2, 8, 48]",[],53.0,[],"[u'', -2, 8, 24, 48, 2, -4, 48, -48, 2, 8, 24, -48]",333342,3.0,6070.0,mouselab-mdp,14
[],[],demo,"[u'0', 9, 10, 12]","{u'mouseover': {u'state': {u'target': [], u'time': []}, u'edge': {u'target': [], u'time': []}}, u'click': {u'state': {u'target': [12], u'time': [990]}, u'edge': {u'target': [], u'time': []}}, u'mouseout': {u'state': {u'target': [], u'time': []}, u'edge': {u'target': [], u'time': []}}}","[-2, -8, 48]",[],37.0,[],"[u'', -4, -4, 48, -24, -4, 4, -48, 48, -2, -8, 24, 48]",339310,4.0,4830.0,mouselab-mdp,14
[],[],demo,"[u'0', 1, 2, 4]","{u'mouseover': {u'state': {u'target': [], u'time': []}, u'edge': {u'target': [], u'time': []}}, u'click': {u'state': {u'target': [4], u'time': [996]}, u'edge': {u'target': [], u'time': []}}, u'mouseout': {u'state': {u'target': [], u'time': []}, u'edge': {u'target': [], u'time': []}}}","[-2, 8, 48]",[],53.0,[],"[u'', -2, 8, 24, 48, 2, 4, -24, 24, 4, 8, 48, 24]",345149,5.0,4687.0,mouselab-mdp,14
[],[],demo,"[u'0', 1, 2, 3]","{u'mouseover': {u'state': {u'target': [], u'time': []}, u'edge': {u'target': [], u'time': []}}, u'click': {u'state': {u'target': [7, 3], u'time': [991, 1994]}, u'edge': {u'target': [], u'time': []}}, u'mouseout': {u'state': {u'target': [], u'time': []}, u'edge': {u'target': [], u'time': []}}}","[2, 8, 48]",[],56.0,[],"[u'', 2, 8, 48, -24, 2, 8, -24, 24, -4, -4, -48, 24]",352623,6.0,6338.0,mouselab-mdp,14
[],[],demo,"[u'0', 5, 6, 8]","{u'mouseover': {u'state': {u'target': [], u'time': []}, u'edge': {u'target': [], u'time': []}}, u'click': {u'state': {u'target': [4, 7, 8], u'time': [988, 1990, 2994]}, u'edge': {u'target': [], u'time': []}}, u'mouseout': {u'state': {u'target': [], u'time': []}, u'edge': {u'target': [], u'time': []}}}","[4, 4, 48]",[],53.0,[],"[u'', -4, -8, -48, -48, 4, 4, 24, 48, -4, -4, 24, 48]",361798,7.0,8040.0,mouselab-mdp,14
[],[],demo,"[u'0', 1, 2, 4]","{u'mouseover': {u'state': {u'target': [], u'time': []}, u'edge': {u'target': [], u'time': []}}, u'click': {u'state': {u'target': [11, 12, 3, 4], u'time': [995, 1997, 3001, 4006]}, u'edge': {u'target': [], u'time': []}}, u'mouseout': {u'state': {u'target': [], u'time': []}, u'edge': {u'target': [], u'time': []}}}","[-4, 4, 48]",[],44.0,[],"[u'', -4, 4, -24, 48, -4, -8, -24, 48, -4, 8, -24, -48]",370976,8.0,8054.0,mouselab-mdp,14
[],[],demo,"[u'0', 1, 2, 3]","{u'mouseover': {u'state': {u'target': [], u'time': []}, u'edge': {u'target': [], u'time': []}}, u'click': {u'state': {u'target': [8, 4, 12, 7, 3, 11, 10], u'time': [997, 2001, 3004, 4008, 5012, 6016, 7021]}, u'edge': {u'target': [], u'time': []}}, u'mouseout': {u'state': {u'target': [], u'time': []}, u'edge': {u'target': [], u'time': []}}}","[-4, 8, 24]",[],21.0,[],"[u'', -4, 8, 24, 24, -2, -8, -48, -24, -4, -8, 24, 24]",383735,9.0,11624.0,mouselab-mdp,14
"[72626, 73594, 74610]","[u'right', u'right', u'down']",training,"[u'0', u'5', u'6', u'8']","{u'mouseover': {u'state': {u'target': [], u'time': []}, u'edge': {u'target': [], u'time': []}}, u'click': {u'state': {u'target': [u'5', u'1', u'4', u'12', u'7', u'11', u'3', u'8'], u'time': [38853, 46505, 51010, 53535, 59285, 60224, 65755, 66587]}, u'edge': {u'target': [], u'time': []}}, u'mouseout': {u'state': {u'target': [], u'time': []}, u'edge': {u'target': [], u'time': []}}}","[-2, -8, 48]","[72622, 467, 516]",30.0,"[None, None, None]","[u'', -4, -4, -48, -48, -2, -8, 24, 48, 2, 4, -24, -48]",292186,0.0,77137.0,mouselab-mdp,15
"[13478, 14333, 15181]","[u'up', u'up', u'right']",training,"[u'0', u'1', u'2', u'3']","{u'mouseover': {u'state': {u'target': [], u'time': []}, u'edge': {u'target': [], u'time': []}}, u'click': {u'state': {u'target': [u'8', u'3', u'11', u'12', u'7', u'4'], u'time': [3272, 5142, 6754, 8556, 9928, 11428]}, u'edge': {u'target': [], u'time': []}}, u'mouseout': {u'state': {u'target': [], u'time': []}, u'edge': {u'target': [], u'time': []}}}","[-4, 4, 48]","[13470, 367, 348]",42.0,"[None, None, None]","[u'', -4, 4, 48, -48, -4, 4, -24, 24, -4, -8, 24, 24]",311355,1.0,18077.0,mouselab-mdp,15
"[9265, 9993, 10761]","[u'right', u'right', u'up']",training,"[u'0', u'5', u'6', u'7']","{u'mouseover': {u'state': {u'target': [], u'time': []}, u'edge': {u'target': [], u'time': []}}, u'click': {u'state': {u'target': [u'12', u'11', u'4', u'3', u'7', u'8'], u'time': [2120, 3361, 4238, 5465, 6603, 7764]}, u'edge': {u'target': [], u'time': []}}, u'mouseout': {u'state': {u'target': [], u'time': []}, u'edge': {u'target': [], u'time': []}}}","[4, 8, 48]","[9258, 228, 277]",54.0,"[None, None, None]","[u'', -2, -8, -24, -24, 4, 8, 48, 24, -2, 8, -24, -48]",325395,2.0,13001.0,mouselab-mdp,15
"[12863, 13502, 14063]","[u'left', u'left', u'down']",training,"[u'0', u'9', u'10', u'12']","{u'mouseover': {u'state': {u'target': [], u'time': []}, u'edge': {u'target': [], u'time': []}}, u'click': {u'state': {u'target': [u'8', u'7', u'3', u'4', u'11', u'12'], u'time': [4689, 5881, 7426, 8880, 9807, 10864]}, u'edge': {u'target': [], u'time': []}}, u'mouseout': {u'state': {u'target': [], u'time': []}, u'edge': {u'target': [], u'time': []}}}","[4, 4, 48]","[12853, 144, 72]",50.0,"[None, None, None]","[u'', 2, 4, 24, -24, 4, 8, 24, -24, 4, 4, 24, 48]",342859,3.0,16406.0,mouselab-mdp,15
"[15962, 16586, 17210]","[u'right', u'right', u'up']",training,"[u'0', u'5', u'6', u'7']","{u'mouseover': {u'state': {u'target': [], u'time': []}, u'edge': {u'target': [], u'time': []}}, u'click': {u'state': {u'target': [u'12', u'11', u'4', u'3', u'7', u'8', u'2', u'6', u'1', u'5'], u'time': [1148, 2321, 3298, 4051, 4669, 8519, 10457, 12150, 13856, 14578]}, u'edge': {u'target': [], u'time': []}}, u'mouseout': {u'state': {u'target': [], u'time': []}, u'edge': {u'target': [], u'time': []}}}","[2, -4, 48]","[15957, 118, 125]",36.0,"[None, None, None]","[u'', -2, -4, 48, -24, 2, -4, 48, 24, -2, -8, -24, -24]",366403,4.0,22506.0,mouselab-mdp,15
"[29658, 30257, 30817]","[u'up', u'up', u'right']",training,"[u'0', u'1', u'2', u'3']","{u'mouseover': {u'state': {u'target': [], u'time': []}, u'edge': {u'target': [], u'time': []}}, u'click': {u'state': {u'target': [u'11', u'12', u'8', u'7', u'3', u'1', u'2', u'10', u'4'], u'time': [3745, 4899, 5883, 7086, 8032, 17980, 18375, 19337, 24359]}, u'edge': {u'target': [], u'time': []}}, u'mouseout': {u'state': {u'target': [], u'time': []}, u'edge': {u'target': [], u'time': []}}}","[-4, 8, 48]","[29650, 97, 56]",43.0,"[None, None, None]","[u'', -4, 8, 48, 24, 2, -8, -48, -24, -4, -4, 48, -24]",399700,5.0,32242.0,mouselab-mdp,15
"[23709, 24293, 25589]","[u'up', u'up', u'left']",training,"[u'0', u'1', u'2', u'4']","{u'mouseover': {u'state': {u'target': [], u'time': []}, u'edge': {u'target': [], u'time': []}}, u'click': {u'state': {u'target': [u'8', u'7', u'3', u'4', u'2', u'6', u'5', u'11', u'12', u'1'], u'time': [3899, 4959, 5664, 6566, 8498, 9911, 13706, 16432, 18047, 20328]}, u'edge': {u'target': [], u'time': []}}, u'mouseout': {u'state': {u'target': [], u'time': []}, u'edge': {u'target': [], u'time': []}}}","[4, -8, 48]","[23704, 89, 801]",34.0,"[None, None, None]","[u'', 4, -8, 24, 48, 4, -8, -24, 48, -2, -8, 24, -24]",427836,6.0,27093.0,mouselab-mdp,15
"[7294, 7822, 8430]","[u'left', u'left', u'up']",training,"[u'0', u'9', u'10', u'11']","{u'mouseover': {u'state': {u'target': [], u'time': []}, u'edge': {u'target': [], u'time': []}}, u'click': {u'state': {u'target': [u'12', u'11', u'4', u'3', u'7', u'8'], u'time': [1827, 2727, 3556, 4201, 5109, 5847]}, u'edge': {u'target': [], u'time': []}}, u'mouseout': {u'state': {u'target': [], u'time': []}, u'edge': {u'target': [], u'time': []}}}","[4, -8, 48]","[7287, 26, 116]",38.0,"[None, None, None]","[u'', -4, 4, -24, -24, -4, -8, 24, -24, 4, -8, 48, -48]",439283,7.0,10405.0,mouselab-mdp,15
"[16090, 17026, 17666]","[u'left', u'left', u'up']",training,"[u'0', u'9', u'10', u'11']","{u'mouseover': {u'state': {u'target': [], u'time': []}, u'edge': {u'target': [], u'time': []}}, u'click': {u'state': {u'target': [u'3', u'4', u'11', u'10', u'2', u'12', u'8', u'7'], u'time': [4218, 5336, 6049, 8457, 10041, 11592, 13015, 14081]}, u'edge': {u'target': [], u'time': []}}, u'mouseout': {u'state': {u'target': [], u'time': []}, u'edge': {u'target': [], u'time': []}}}","[-2, 4, 48]","[16085, 437, 141]",42.0,"[None, None, None]","[u'', 4, -4, 48, -48, -2, -8, 24, 24, -2, 4, 48, -48]",459411,8.0,19089.0,mouselab-mdp,15
"[12802, 13729, 14282]","[u'up', u'up', u'right']",training,"[u'0', u'1', u'2', u'3']","{u'mouseover': {u'state': {u'target': [], u'time': []}, u'edge': {u'target': [], u'time': []}}, u'click': {u'state': {u'target': [u'8', u'7', u'3', u'4', u'11', u'12', u'10', u'2', u'6', u'5', u'1'], u'time': [2100, 3023, 3751, 4425, 5241, 6102, 7399, 8344, 9330, 10369, 11175]}, u'edge': {u'target': [], u'time': []}}, u'mouseout': {u'state': {u'target': [], u'time': []}, u'edge': {u'target': [], u'time': []}}}","[-2, 4, 24]","[12798, 435, 52]",15.0,"[None, None, None]","[u'', -2, 4, 24, -24, -4, 4, -24, 24, -4, -8, -24, 24]",476220,9.0,15770.0,mouselab-mdp,15
[],[],demo,"[u'0', 1, 2, 3]","{u'mouseover': {u'state': {u'target': [], u'time': []}, u'edge': {u'target': [], u'time': []}}, u'click': {u'state': {u'target': [8, 12, 4, 11, 7, 3], u'time': [864, 1870, 2875, 3878, 4883, 5886]}, u'edge': {u'target': [], u'time': []}}, u'mouseout': {u'state': {u'target': [], u'time': []}, u'edge': {u'target': [], u'time': []}}}","[2, -8, 48]",[],36.0,[],"[u'', 2, -8, 48, -48, -2, 8, -48, 24, 2, 8, -24, -48]",242853,0.0,10998.0,mouselab-mdp,16
[],[],demo,"[u'0', 5, 6, 8]","{u'mouseover': {u'state': {u'target': [], u'time': []}, u'edge': {u'target': [], u'time': []}}, u'click': {u'state': {u'target': [3, 4, 12, 11, 7, 8], u'time': [1009, 2006, 3010, 4011, 5014, 6017]}, u'edge': {u'target': [], u'time': []}}, u'mouseout': {u'state': {u'target': [], u'time': []}, u'edge': {u'target': [], u'time': []}}}","[-4, 8, 24]",[],22.0,[],"[u'', 4, -8, -24, -24, -4, 8, -24, 24, -2, -8, -48, -48]",256245,1.0,12226.0,mouselab-mdp,16
[],[],demo,"[u'0', 9, 10, 12]","{u'mouseover': {u'state': {u'target': [], u'time': []}, u'edge': {u'target': [], u'time': []}}, u'click': {u'state': {u'target': [12], u'time': [1000]}, u'edge': {u'target': [], u'time': []}}, u'mouseout': {u'state': {u'target': [], u'time': []}, u'edge': {u'target': [], u'time': []}}}","[-2, -8, 48]",[],37.0,[],"[u'', -4, -4, 48, -24, -4, 4, -48, 48, -2, -8, 24, 48]",264307,2.0,6864.0,mouselab-mdp,16
[],[],demo,"[u'0', 5, 6, 8]","{u'mouseover': {u'state': {u'target': [], u'time': []}, u'edge': {u'target': [], u'time': []}}, u'click': {u'state': {u'target': [3, 7, 12, 4, 11, 8], u'time': [994, 1999, 3000, 4004, 5013, 6013]}, u'edge': {u'target': [], u'time': []}}, u'mouseout': {u'state': {u'target': [], u'time': []}, u'edge': {u'target': [], u'time': []}}}","[-4, -8, 48]",[],30.0,[],"[u'', 2, 4, 24, 24, -4, -8, 24, 48, -4, -4, -24, -24]",275258,3.0,9787.0,mouselab-mdp,16
[],[],demo,"[u'0', 5, 6, 7]","{u'mouseover': {u'state': {u'target': [], u'time': []}, u'edge': {u'target': [], u'time': []}}, u'click': {u'state': {u'target': [4, 8, 12, 3, 7], u'time': [1000, 2003, 3005, 4008, 5013]}, u'edge': {u'target': [], u'time': []}}, u'mouseout': {u'state': {u'target': [], u'time': []}, u'edge': {u'target': [], u'time': []}}}","[4, -4, 48]",[],43.0,[],"[u'', -4, 8, -24, -48, 4, -4, 48, 24, 4, 4, 48, -24]",285096,4.0,8640.0,mouselab-mdp,16
[],[],demo,"[u'0', 1, 2, 4]","{u'mouseover': {u'state': {u'target': [], u'time': []}, u'edge': {u'target': [], u'time': []}}, u'click': {u'state': {u'target': [11, 12, 3, 4], u'time': [997, 1998, 3000, 4002]}, u'edge': {u'target': [], u'time': []}}, u'mouseout': {u'state': {u'target': [], u'time': []}, u'edge': {u'target': [], u'time': []}}}","[-4, 4, 48]",[],44.0,[],"[u'', -4, 4, -24, 48, -4, -8, -24, 48, -4, 8, -24, -48]",294675,5.0,8487.0,mouselab-mdp,16
[],[],demo,"[u'0', 5, 6, 8]","{u'mouseover': {u'state': {u'target': [], u'time': []}, u'edge': {u'target': [], u'time': []}}, u'click': {u'state': {u'target': [8], u'time': [998]}, u'edge': {u'target': [], u'time': []}}, u'mouseout': {u'state': {u'target': [], u'time': []}, u'edge': {u'target': [], u'time': []}}}","[2, -8, 48]",[],41.0,[],"[u'', -4, -8, -48, 24, 2, -8, -48, 48, 2, -8, -24, 24]",300837,6.0,4809.0,mouselab-mdp,16
[],[],demo,"[u'0', 1, 2, 3]","{u'mouseover': {u'state': {u'target': [], u'time': []}, u'edge': {u'target': [], u'time': []}}, u'click': {u'state': {u'target': [3], u'time': [1000]}, u'edge': {u'target': [], u'time': []}}, u'mouseout': {u'state': {u'target': [], u'time': []}, u'edge': {u'target': [], u'time': []}}}","[2, -8, 48]",[],41.0,[],"[u'', 2, -8, 48, -48, 4, -4, 48, 24, 2, -8, -48, -48]",307427,7.0,5423.0,mouselab-mdp,16
[],[],demo,"[u'0', 1, 2, 3]","{u'mouseover': {u'state': {u'target': [], u'time': []}, u'edge': {u'target': [], u'time': []}}, u'click': {u'state': {u'target': [7, 3], u'time': [997, 2000]}, u'edge': {u'target': [], u'time': []}}, u'mouseout': {u'state': {u'target': [], u'time': []}, u'edge': {u'target': [], u'time': []}}}","[2, 8, 48]",[],56.0,[],"[u'', 2, 8, 48, -24, 2, 8, -24, 24, -4, -4, -48, 24]",318229,8.0,9639.0,mouselab-mdp,16
[],[],demo,"[u'0', 9, 10, 11]","{u'mouseover': {u'state': {u'target': [], u'time': []}, u'edge': {u'target': [], u'time': []}}, u'click': {u'state': {u'target': [12, 7, 8, 11], u'time': [999, 2002, 3003, 4004]}, u'edge': {u'target': [], u'time': []}}, u'mouseout': {u'state': {u'target': [], u'time': []}, u'edge': {u'target': [], u'time': []}}}","[4, -4, 48]",[],44.0,[],"[u'', 4, -4, -48, -48, -4, 8, -48, -24, 4, -4, 48, -24]",327563,9.0,8277.0,mouselab-mdp,16
"[7745, 27884, 29136]","[u'right', u'right', u'down']",training,"[u'0', u'5', u'6', u'8']","{u'mouseover': {u'state': {u'target': [], u'time': []}, u'edge': {u'target': [], u'time': []}}, u'click': {u'state': {u'target': [u'8'], u'time': [3320]}, u'edge': {u'target': [], u'time': []}}, u'mouseout': {u'state': {u'target': [], u'time': []}, u'edge': {u'target': [], u'time': []}}}","[2, 4, 24]","[7729, 1595, 749]",29.0,"[None, None, None]","[u'', -2, 8, 24, -48, 2, 4, -24, 24, -2, -8, 48, -24]",202513,0.0,31645.0,mouselab-mdp,17
"[8050, 8706, 9667]","[u'up', u'up', u'right']",training,"[u'0', u'1', u'2', u'3']","{u'mouseover': {u'state': {u'target': [], u'time': []}, u'edge': {u'target': [], u'time': []}}, u'click': {u'state': {u'target': [u'3'], u'time': [5956]}, u'edge': {u'target': [], u'time': []}}, u'mouseout': {u'state': {u'target': [], u'time': []}, u'edge': {u'target': [], u'time': []}}}","[4, -4, 48]","[8036, 136, 448]",47.0,"[None, None, None]","[u'', 4, -4, 48, -48, -2, -8, 24, 24, -2, 4, 48, -48]",216331,1.0,12589.0,mouselab-mdp,17
"[4952, 24128, 25117]","[u'left', u'left', u'up']",training,"[u'0', u'9', u'10', u'11']","{u'mouseover': {u'state': {u'target': [], u'time': []}, u'edge': {u'target': [], u'time': []}}, u'click': {u'state': {u'target': [u'11'], u'time': [3035]}, u'edge': {u'target': [], u'time': []}}, u'mouseout': {u'state': {u'target': [], u'time': []}, u'edge': {u'target': [], u'time': []}}}","[4, -4, 24]","[4939, 629, 480]",23.0,"[None, None, None]","[u'', 2, 8, -48, -24, 2, 8, -24, -48, 4, -4, 24, -48]",246596,2.0,29131.0,mouselab-mdp,17
"[4615, 24007, 24540]","[u'up', u'up', u'left']",training,"[u'0', u'1', u'2', u'4']","{u'mouseover': {u'state': {u'target': [], u'time': []}, u'edge': {u'target': [], u'time': []}}, u'click': {u'state': {u'target': [u'4'], u'time': [3579]}, u'edge': {u'target': [], u'time': []}}, u'mouseout': {u'state': {u'target': [], u'time': []}, u'edge': {u'target': [], u'time': []}}}","[4, -4, 24]","[4604, 854, 32]",23.0,"[None, None, None]","[u'', 4, -4, -48, 24, -2, -4, 24, 48, 4, -4, 48, -48]",276291,3.0,28519.0,mouselab-mdp,17
"[5109, 25690, 26335]","[u'right', u'right', u'up']",training,"[u'0', u'5', u'6', u'7']","{u'mouseover': {u'state': {u'target': [], u'time': []}, u'edge': {u'target': [], u'time': []}}, u'click': {u'state': {u'target': [u'7'], u'time': [3382]}, u'edge': {u'target': [], u'time': []}}, u'mouseout': {u'state': {u'target': [], u'time': []}, u'edge': {u'target': [], u'time': []}}}","[4, 8, 24]","[5099, 2042, 130]",35.0,"[None, None, None]","[u'', 2, 4, 24, -24, 4, 8, 24, -24, 4, 4, 24, 48]",306076,4.0,28654.0,mouselab-mdp,17
"[7214, 26398, 27105]","[u'up', u'up', u'right']",training,"[u'0', u'1', u'2', u'3']","{u'mouseover': {u'state': {u'target': [], u'time': []}, u'edge': {u'target': [], u'time': []}}, u'click': {u'state': {u'target': [u'3'], u'time': [5370]}, u'edge': {u'target': [], u'time': []}}, u'mouseout': {u'state': {u'target': [], u'time': []}, u'edge': {u'target': [], u'time': []}}}","[-4, -8, 24]","[7204, 640, 194]",11.0,"[None, None, None]","[u'', -4, -8, 24, -24, -2, 8, 24, 48, 4, -4, 24, -48]",337948,5.0,30703.0,mouselab-mdp,17
"[17702, 18435, 19147]","[u'up', u'up', u'right']",training,"[u'0', u'1', u'2', u'3']","{u'mouseover': {u'state': {u'target': [], u'time': []}, u'edge': {u'target': [], u'time': []}}, u'click': {u'state': {u'target': [u'8', u'7', u'3', u'4'], u'time': [4139, 11090, 13912, 16006]}, u'edge': {u'target': [], u'time': []}}, u'mouseout': {u'state': {u'target': [], u'time': []}, u'edge': {u'target': [], u'time': []}}}","[-4, 8, 48]","[17692, 224, 202]",48.0,"[None, None, None]","[u'', -4, 8, 48, -24, -2, -4, 24, -48, 4, 4, 48, -48]",360577,6.0,21485.0,mouselab-mdp,17
"[7787, 8367, 9137]","[u'left', u'left', u'up']",training,"[u'0', u'9', u'10', u'11']","{u'mouseover': {u'state': {u'target': [], u'time': []}, u'edge': {u'target': [], u'time': []}}, u'click': {u'state': {u'target': [u'11', u'12'], u'time': [2758, 4945]}, u'edge': {u'target': [], u'time': []}}, u'mouseout': {u'state': {u'target': [], u'time': []}, u'edge': {u'target': [], u'time': []}}}","[-2, 8, 48]","[7777, 73, 257]",52.0,"[None, None, None]","[u'', 2, 4, -48, -24, -4, -8, 24, -48, -2, 8, 48, -24]",373056,7.0,11317.0,mouselab-mdp,17
"[11777, 27732, 28560]","[u'right', u'right', u'down']",training,"[u'0', u'5', u'6', u'8']","{u'mouseover': {u'state': {u'target': [], u'time': []}, u'edge': {u'target': [], u'time': []}}, u'click': {u'state': {u'target': [u'4', u'2', u'8'], u'time': [1929, 6168, 9659]}, u'edge': {u'target': [], u'time': []}}, u'mouseout': {u'state': {u'target': [], u'time': []}, u'edge': {u'target': [], u'time': []}}}","[4, 8, 24]","[11769, 426, 320]",33.0,"[None, None, None]","[u'', -2, -8, -24, -24, 4, 8, 48, 24, -2, 8, -24, -48]",404713,8.0,30518.0,mouselab-mdp,17
"[14165, 19312, 20151]","[u'left', u'left', u'down']",training,"[u'0', u'9', u'10', u'12']","{u'mouseover': {u'state': {u'target': [], u'time': []}, u'edge': {u'target': [], u'time': []}}, u'click': {u'state': {u'target': [u'12', u'8', u'11', u'7', u'4', u'3'], u'time': [3329, 4894, 6821, 7910, 9501, 10405]}, u'edge': {u'target': [], u'time': []}}, u'mouseout': {u'state': {u'target': [], u'time': []}, u'edge': {u'target': [], u'time': []}}}","[4, -4, 24]","[14155, 628, 331]",18.0,"[None, None, None]","[u'', -2, -4, 24, -48, -4, 8, -24, -24, 4, -4, -48, 24]",428251,9.0,22374.0,mouselab-mdp,17
[],[],demo,"[u'0', 9, 10, 11]","{u'mouseover': {u'state': {u'target': [], u'time': []}, u'edge': {u'target': [], u'time': []}}, u'click': {u'state': {u'target': [11], u'time': [853]}, u'edge': {u'target': [], u'time': []}}, u'mouseout': {u'state': {u'target': [], u'time': []}, u'edge': {u'target': [], u'time': []}}}","[4, -4, 48]",[],47.0,[],"[u'', -2, 8, -24, 48, 2, 4, -48, 24, 4, -4, 48, 48]",184905,0.0,5577.0,mouselab-mdp,19
[],[],demo,"[u'0', 9, 10, 11]","{u'mouseover': {u'state': {u'target': [], u'time': []}, u'edge': {u'target': [], u'time': []}}, u'click': {u'state': {u'target': [3, 7, 8, 11, 4, 12, 6, 10, 2], u'time': [998, 2003, 3006, 4010, 5011, 6019, 7023, 8027, 9035]}, u'edge': {u'target': [], u'time': []}}, u'mouseout': {u'state': {u'target': [], u'time': []}, u'edge': {u'target': [], u'time': []}}}","[4, -4, 24]",[],15.0,[],"[u'', -2, -8, 24, 24, -2, -8, 24, -24, 4, -4, 24, -48]",198712,1.0,12737.0,mouselab-mdp,19
[],[],demo,"[u'0', 1, 2, 3]","{u'mouseover': {u'state': {u'target': [], u'time': []}, u'edge': {u'target': [], u'time': []}}, u'click': {u'state': {u'target': [7, 4, 3], u'time': [1001, 2007, 3009]}, u'edge': {u'target': [], u'time': []}}, u'mouseout': {u'state': {u'target': [], u'time': []}, u'edge': {u'target': [], u'time': []}}}","[4, 4, 48]",[],53.0,[],"[u'', 4, 4, 48, 24, 4, 8, -24, -48, 2, -4, -48, 24]",206434,2.0,6666.0,mouselab-mdp,19
[],[],demo,"[u'0', 1, 2, 3]","{u'mouseover': {u'state': {u'target': [], u'time': []}, u'edge': {u'target': [], u'time': []}}, u'click': {u'state': {u'target': [8, 4, 12, 7, 3, 11, 10], u'time': [1004, 2007, 3012, 4016, 5018, 6026, 7027]}, u'edge': {u'target': [], u'time': []}}, u'mouseout': {u'state': {u'target': [], u'time': []}, u'edge': {u'target': [], u'time': []}}}","[-4, 8, 24]",[],21.0,[],"[u'', -4, 8, 24, 24, -2, -8, -48, -24, -4, -8, 24, 24]",218120,3.0,10622.0,mouselab-mdp,19
[],[],demo,"[u'0', 1, 2, 4]","{u'mouseover': {u'state': {u'target': [], u'time': []}, u'edge': {u'target': [], u'time': []}}, u'click': {u'state': {u'target': [7, 12, 4, 11, 8, 3, 2], u'time': [999, 2001, 3005, 4007, 5009, 6012, 7015]}, u'edge': {u'target': [], u'time': []}}, u'mouseout': {u'state': {u'target': [], u'time': []}, u'edge': {u'target': [], u'time': []}}}","[-4, 8, 24]",[],21.0,[],"[u'', -4, 8, -48, 24, -2, 4, -48, -48, 4, 8, -24, 24]",229805,4.0,10624.0,mouselab-mdp,19
[],[],demo,"[u'0', 9, 10, 11]","{u'mouseover': {u'state': {u'target': [], u'time': []}, u'edge': {u'target': [], u'time': []}}, u'click': {u'state': {u'target': [4, 7, 3, 8, 11], u'time': [997, 2001, 3002, 4007, 5011]}, u'edge': {u'target': [], u'time': []}}, u'mouseout': {u'state': {u'target': [], u'time': []}, u'edge': {u'target': [], u'time': []}}}","[4, -4, 48]",[],43.0,[],"[u'', -2, 8, -24, 24, 2, -8, -48, -24, 4, -4, 48, -48]",239316,5.0,8449.0,mouselab-mdp,19
[],[],demo,"[u'0', 9, 10, 11]","{u'mouseover': {u'state': {u'target': [], u'time': []}, u'edge': {u'target': [], u'time': []}}, u'click': {u'state': {u'target': [3, 8, 12, 7, 11], u'time': [997, 2001, 3009, 4015, 5015]}, u'edge': {u'target': [], u'time': []}}, u'mouseout': {u'state': {u'target': [], u'time': []}, u'edge': {u'target': [], u'time': []}}}","[4, -4, 48]",[],43.0,[],"[u'', 4, -8, 24, 24, 2, 4, -24, 24, 4, -4, 48, -48]",248651,6.0,8278.0,mouselab-mdp,19
[],[],demo,"[u'0', 9, 10, 11]","{u'mouseover': {u'state': {u'target': [], u'time': []}, u'edge': {u'target': [], u'time': []}}, u'click': {u'state': {u'target': [8, 12, 3, 11], u'time': [1002, 2007, 3010, 4012]}, u'edge': {u'target': [], u'time': []}}, u'mouseout': {u'state': {u'target': [], u'time': []}, u'edge': {u'target': [], u'time': []}}}","[4, 4, 48]",[],52.0,[],"[u'', -4, -4, 24, -24, -4, 4, 24, 24, 4, 4, 48, -48]",256938,7.0,7236.0,mouselab-mdp,19
[],[],demo,"[u'0', 1, 2, 4]","{u'mouseover': {u'state': {u'target': [], u'time': []}, u'edge': {u'target': [], u'time': []}}, u'click': {u'state': {u'target': [4, 11, 8, 3, 7, 12], u'time': [1002, 2007, 3010, 4015, 5021, 6026]}, u'edge': {u'target': [], u'time': []}}, u'mouseout': {u'state': {u'target': [], u'time': []}, u'edge': {u'target': [], u'time': []}}}","[-4, 8, 24]",[],22.0,[],"[u'', -4, 8, -24, 24, 2, -8, -48, -48, -4, -4, -48, -48]",267308,8.0,9311.0,mouselab-mdp,19
[],[],demo,"[u'0', 1, 2, 3]","{u'mouseover': {u'state': {u'target': [], u'time': []}, u'edge': {u'target': [], u'time': []}}, u'click': {u'state': {u'target': [8, 12, 7, 4, 11, 3], u'time': [1004, 2008, 3013, 4016, 5020, 6025]}, u'edge': {u'target': [], u'time': []}}, u'mouseout': {u'state': {u'target': [], u'time': []}, u'edge': {u'target': [], u'time': []}}}","[4, 4, 48]",[],50.0,[],"[u'', 4, 4, 48, 24, 4, -4, 24, -48, -2, -8, -24, -48]",277932,9.0,9546.0,mouselab-mdp,19
"[1357, 54673, 56089]","[u'up', u'up', u'left']",training,"[u'0', u'1', u'2', u'4']","{u'mouseover': {u'state': {u'target': [], u'time': []}, u'edge': {u'target': [], u'time': []}}, u'click': {u'state': {u'target': [], u'time': []}, u'edge': {u'target': [], u'time': []}}, u'mouseout': {u'state': {u'target': [], u'time': []}, u'edge': {u'target': [], u'time': []}}}","[-2, -4, 24]","[1340, 10734, 887]",18.0,"[None, None, None]","[u'', -2, -4, 48, 24, 2, 4, -48, 48, -4, 4, 48, 24]",174698,0.0,58879.0,mouselab-mdp,21
"[19395, 58489, 60501]","[u'up', u'up', u'right']",training,"[u'0', u'1', u'2', u'3']","{u'mouseover': {u'state': {u'target': [], u'time': []}, u'edge': {u'target': [], u'time': []}}, u'click': {u'state': {u'target': [u'10', u'11', u'7'], u'time': [3562, 7885, 12745]}, u'edge': {u'target': [], u'time': []}}, u'mouseout': {u'state': {u'target': [], u'time': []}, u'edge': {u'target': [], u'time': []}}}","[2, 4, 24]","[19387, 2546, 1481]",27.0,"[None, None, None]","[u'', 2, 4, 24, -24, 4, 8, -48, 24, 4, -8, -24, 24]",238754,1.0,62920.0,mouselab-mdp,21
"[18849, 20569, 21705]","[u'left', u'left', u'up']",training,"[u'0', u'9', u'10', u'11']","{u'mouseover': {u'state': {u'target': [], u'time': []}, u'edge': {u'target': [], u'time': []}}, u'click': {u'state': {u'target': [u'7', u'11', u'3', u'4', u'12', u'8'], u'time': [5100, 7528, 10339, 12317, 13455, 14499]}, u'edge': {u'target': [], u'time': []}}, u'mouseout': {u'state': {u'target': [], u'time': []}, u'edge': {u'target': [], u'time': []}}}","[-2, -8, 48]","[18841, 1184, 597]",32.0,"[None, None, None]","[u'', -2, 8, 24, -48, 2, 4, -24, 24, -2, -8, 48, -24]",275217,2.0,35284.0,mouselab-mdp,21
"[114807, 115910, 116911]","[u'right', u'right', u'down']",training,"[u'0', u'5', u'6', u'8']","{u'mouseover': {u'state': {u'target': [], u'time': []}, u'edge': {u'target': [], u'time': []}}, u'click': {u'state': {u'target': [u'4', u'3', u'8', u'7', u'12', u'11', u'10', u'6'], u'time': [103547, 104487, 105534, 106151, 106894, 110464, 111125, 112894]}, u'edge': {u'target': [], u'time': []}}, u'mouseout': {u'state': {u'target': [], u'time': []}, u'edge': {u'target': [], u'time': []}}}","[-2, 8, 48]","[114798, 571, 469]",46.0,"[None, None, None]","[u'', 2, -4, 24, -24, -2, 8, 24, 48, 4, -4, 48, 48]",396403,3.0,120017.0,mouselab-mdp,21
"[15925, 16915, 18208]","[u'right', u'right', u'down']",training,"[u'0', u'5', u'6', u'8']","{u'mouseover': {u'state': {u'target': [], u'time': []}, u'edge': {u'target': [], u'time': []}}, u'click': {u'state': {u'target': [u'4', u'3', u'7', u'8', u'12', u'2', u'6'], u'time': [4109, 5647, 6986, 7820, 11804, 12422, 13391]}, u'edge': {u'target': [], u'time': []}}, u'mouseout': {u'state': {u'target': [], u'time': []}, u'edge': {u'target': [], u'time': []}}}","[-4, 8, 48]","[15917, 450, 756]",45.0,"[None, None, None]","[u'', 2, 4, -24, 48, -4, 8, -48, 48, 2, -4, 24, -24]",417506,4.0,19895.0,mouselab-mdp,21
"[13058, 14092, 15015]","[u'left', u'left', u'up']",training,"[u'0', u'9', u'10', u'11']","{u'mouseover': {u'state': {u'target': [], u'time': []}, u'edge': {u'target': [], u'time': []}}, u'click': {u'state': {u'target': [u'4', u'3', u'6', u'7', u'11', u'12', u'8'], u'time': [1434, 2254, 5649, 8130, 9060, 9734, 10949]}, u'edge': {u'target': [], u'time': []}}, u'mouseout': {u'state': {u'target': [], u'time': []}, u'edge': {u'target': [], u'time': []}}}","[4, -8, 48]","[13050, 510, 390]",37.0,"[None, None, None]","[u'', -4, 4, -24, -24, -4, -8, 24, -24, 4, -8, 48, -48]",435225,5.0,16578.0,mouselab-mdp,21
"[13735, 14769, 15737]","[u'up', u'up', u'left']",training,"[u'0', u'1', u'2', u'4']","{u'mouseover': {u'state': {u'target': [], u'time': []}, u'edge': {u'target': [], u'time': []}}, u'click': {u'state': {u'target': [u'3', u'4', u'11', u'12', u'10', u'2', u'8', u'7'], u'time': [2044, 2987, 4189, 8200, 8612, 9197, 10793, 11401]}, u'edge': {u'target': [], u'time': []}}, u'mouseout': {u'state': {u'target': [], u'time': []}, u'edge': {u'target': [], u'time': []}}}","[4, 4, 48]","[13725, 497, 428]",48.0,"[None, None, None]","[u'', 4, 4, -48, 48, 4, 4, -24, -24, 2, -8, 48, -24]",454058,6.0,17683.0,mouselab-mdp,21
"[11422, 12997, 14492]","[u'up', u'up', u'right']",training,"[u'0', u'1', u'2', u'3']","{u'mouseover': {u'state': {u'target': [], u'time': []}, u'edge': {u'target': [], u'time': []}}, u'click': {u'state': {u'target': [u'4', u'3', u'7', u'8', u'10', u'11', u'12'], u'time': [1195, 1947, 3005, 3691, 8036, 8404, 9090]}, u'edge': {u'target': [], u'time': []}}, u'mouseout': {u'state': {u'target': [], u'time': []}, u'edge': {u'target': [], u'time': []}}}","[2, -4, 24]","[11414, 1047, 969]",15.0,"[None, None, None]","[u'', 2, -4, 24, 24, -4, 4, -24, -24, -2, 4, -24, -48]",472104,7.0,16866.0,mouselab-mdp,21
"[8013, 8957, 9768]","[u'up', u'up', u'right']",training,"[u'0', u'1', u'2', u'3']","{u'mouseover': {u'state': {u'target': [], u'time': []}, u'edge': {u'target': [], u'time': []}}, u'click': {u'state': {u'target': [u'4', u'3', u'7', u'8', u'12', u'11'], u'time': [1650, 2733, 3632, 4339, 5116, 5691]}, u'edge': {u'target': [], u'time': []}}, u'mouseout': {u'state': {u'target': [], u'time': []}, u'edge': {u'target': [], u'time': []}}}","[2, 8, 48]","[8005, 413, 270]",52.0,"[None, None, None]","[u'', 2, 8, 48, 24, -2, 4, 24, 24, -2, -4, -48, -24]",484568,8.0,11286.0,mouselab-mdp,21
"[15420, 22452, 23813]","[u'up', u'up', u'left']",training,"[u'0', u'1', u'2', u'4']","{u'mouseover': {u'state': {u'target': [], u'time': []}, u'edge': {u'target': [], u'time': []}}, u'click': {u'state': {u'target': [u'4', u'3', u'7', u'8', u'12', u'11', u'6', u'2'], u'time': [1175, 1812, 2466, 3265, 7005, 11396, 11818, 12560]}, u'edge': {u'target': [], u'time': []}}, u'mouseout': {u'state': {u'target': [], u'time': []}, u'edge': {u'target': [], u'time': []}}}","[4, -8, 48]","[15412, 3487, 825]",36.0,"[None, None, None]","[u'', 4, -8, 24, 48, 4, -8, -24, 48, -2, -8, 24, -24]",511130,9.0,25421.0,mouselab-mdp,21
"[7499, 8227, 9257]","[u'right', u'right', u'up']",training,"[u'0', u'5', u'6', u'7']","{u'mouseover': {u'state': {u'target': [], u'time': []}, u'edge': {u'target': [], u'time': []}}, u'click': {u'state': {u'target': [u'8', u'7'], u'time': [3480, 4126]}, u'edge': {u'target': [], u'time': []}}, u'mouseout': {u'state': {u'target': [], u'time': []}, u'edge': {u'target': [], u'time': []}}}","[-2, 8, 48]","[7495, 231, 529]",52.0,"[None, None, None]","[u'', 2, 8, -24, -48, -2, 8, 48, 24, 4, 8, -24, -48]",247314,0.0,11352.0,mouselab-mdp,24
"[2812, 3397, 4028]","[u'up', u'up', u'right']",training,"[u'0', u'1', u'2', u'3']","{u'mouseover': {u'state': {u'target': [], u'time': []}, u'edge': {u'target': [], u'time': []}}, u'click': {u'state': {u'target': [u'7', u'3'], u'time': [770, 1869]}, u'edge': {u'target': [], u'time': []}}, u'mouseout': {u'state': {u'target': [], u'time': []}, u'edge': {u'target': [], u'time': []}}}","[-2, -4, 48]","[2810, 68, 132]",40.0,"[None, None, None]","[u'', -2, -4, 48, 24, 2, 4, -48, 48, -4, 4, 48, 24]",256912,1.0,8561.0,mouselab-mdp,24
"[3557, 4179, 4782]","[u'left', u'left', u'up']",training,"[u'0', u'9', u'10', u'11']","{u'mouseover': {u'state': {u'target': [], u'time': []}, u'edge': {u'target': [], u'time': []}}, u'click': {u'state': {u'target': [u'7', u'3', u'4', u'11'], u'time': [645, 1293, 2000, 2698]}, u'edge': {u'target': [], u'time': []}}, u'mouseout': {u'state': {u'target': [], u'time': []}, u'edge': {u'target': [], u'time': []}}}","[-2, -8, 48]","[3555, 133, 101]",34.0,"[None, None, None]","[u'', -2, 8, 24, -48, 2, 4, -24, 24, -2, -8, 48, -24]",268499,2.0,10555.0,mouselab-mdp,24
"[3048, 3827, 4626]","[u'up', u'up', u'right']",training,"[u'0', u'1', u'2', u'3']","{u'mouseover': {u'state': {u'target': [], u'time': []}, u'edge': {u'target': [], u'time': []}}, u'click': {u'state': {u'target': [u'7', u'3'], u'time': [1225, 2028]}, u'edge': {u'target': [], u'time': []}}, u'mouseout': {u'state': {u'target': [], u'time': []}, u'edge': {u'target': [], u'time': []}}}","[2, 8, 48]","[3046, 204, 303]",56.0,"[None, None, None]","[u'', 2, 8, 48, 24, -2, 4, 24, 24, -2, -4, -48, -24]",278814,3.0,9283.0,mouselab-mdp,24
"[5407, 5967, 6628]","[u'left', u'left', u'up']",training,"[u'0', u'9', u'10', u'11']","{u'mouseover': {u'state': {u'target': [], u'time': []}, u'edge': {u'target': [], u'time': []}}, u'click': {u'state': {u'target': [u'3', u'7', u'8', u'4', u'11', u'12'], u'time': [792, 1463, 2422, 3143, 3708, 4633]}, u'edge': {u'target': [], u'time': []}}, u'mouseout': {u'state': {u'target': [], u'time': []}, u'edge': {u'target': [], u'time': []}}}","[-2, 8, 24]","[5404, 60, 171]",24.0,"[None, None, None]","[u'', 2, 4, -24, -48, -2, -4, -24, -24, -2, 8, 24, -24]",289482,4.0,9641.0,mouselab-mdp,24
"[2596, 3190, 3775]","[u'right', u'right', u'down']",training,"[u'0', u'5', u'6', u'8']","{u'mouseover': {u'state': {u'target': [], u'time': []}, u'edge': {u'target': [], u'time': []}}, u'click': {u'state': {u'target': [u'3', u'7', u'8'], u'time': [668, 1340, 1969]}, u'edge': {u'target': [], u'time': []}}, u'mouseout': {u'state': {u'target': [], u'time': []}, u'edge': {u'target': [], u'time': []}}}","[-2, -4, 48]","[2594, 102, 86]",39.0,"[None, None, None]","[u'', 4, -4, -48, 24, -2, -4, 24, 48, 4, -4, 48, -48]",299824,5.0,9307.0,mouselab-mdp,24
"[3123, 3721, 4408]","[u'up', u'up', u'right']",training,"[u'0', u'1', u'2', u'3']","{u'mouseover': {u'state': {u'target': [], u'time': []}, u'edge': {u'target': [], u'time': []}}, u'click': {u'state': {u'target': [u'7', u'8', u'3'], u'time': [794, 1820, 2397]}, u'edge': {u'target': [], u'time': []}}, u'mouseout': {u'state': {u'target': [], u'time': []}, u'edge': {u'target': [], u'time': []}}}","[-4, 8, 48]","[3121, 107, 193]",49.0,"[None, None, None]","[u'', -4, 8, 48, -24, -2, -4, 24, -48, 4, 4, 48, -48]",309180,6.0,8328.0,mouselab-mdp,24
"[5825, 6400, 7322]","[u'up', u'up', u'right']",training,"[u'0', u'1', u'2', u'3']","{u'mouseover': {u'state': {u'target': [], u'time': []}, u'edge': {u'target': [], u'time': []}}, u'click': {u'state': {u'target': [u'7', u'3', u'4', u'11', u'12', u'8'], u'time': [982, 1720, 2545, 3237, 3880, 4709]}, u'edge': {u'target': [], u'time': []}}, u'mouseout': {u'state': {u'target': [], u'time': []}, u'edge': {u'target': [], u'time': []}}}","[2, -4, 24]","[5823, 67, 422]",16.0,"[None, None, None]","[u'', 2, -4, 24, 24, -4, 4, -24, -24, -2, 4, -24, -48]",318491,7.0,8278.0,mouselab-mdp,24
"[3390, 3943, 4508]","[u'up', u'up', u'left']",training,"[u'0', u'1', u'2', u'4']","{u'mouseover': {u'state': {u'target': [], u'time': []}, u'edge': {u'target': [], u'time': []}}, u'click': {u'state': {u'target': [u'7', u'3', u'4'], u'time': [1443, 1986, 2685]}, u'edge': {u'target': [], u'time': []}}, u'mouseout': {u'state': {u'target': [], u'time': []}, u'edge': {u'target': [], u'time': []}}}","[4, -8, 48]","[3389, 44, 73]",41.0,"[None, None, None]","[u'', 4, -8, 24, 48, 4, -8, -24, 48, -2, -8, 24, -24]",328796,8.0,9278.0,mouselab-mdp,24
"[3913, 4507, 5134]","[u'right', u'right', u'down']",training,"[u'0', u'5', u'6', u'8']","{u'mouseover': {u'state': {u'target': [], u'time': []}, u'edge': {u'target': [], u'time': []}}, u'click': {u'state': {u'target': [u'7', u'3', u'4', u'8'], u'time': [1012, 1625, 2305, 3090]}, u'edge': {u'target': [], u'time': []}}, u'mouseout': {u'state': {u'target': [], u'time': []}, u'edge': {u'target': [], u'time': []}}}","[-2, 8, 48]","[3910, 98, 108]",50.0,"[None, None, None]","[u'', -4, -8, 24, -24, -2, 8, 24, 48, 4, -4, 24, -48]",339183,9.0,9363.0,mouselab-mdp,24
"[29314, 30961, 32155]","[u'right', u'right', u'down']",training,"[u'0', u'5', u'6', u'8']","{u'mouseover': {u'state': {u'target': [], u'time': []}, u'edge': {u'target': [], u'time': []}}, u'click': {u'state': {u'target': [u'5', u'3', u'11', u'7', u'8', u'12', u'4'], u'time': [10492, 13197, 20823, 22911, 24199, 25709, 26853]}, u'edge': {u'target': [], u'time': []}}, u'mouseout': {u'state': {u'target': [], u'time': []}, u'edge': {u'target': [], u'time': []}}}","[2, 4, 48]","[29306, 1129, 704]",47.0,"[None, None, None]","[u'', 4, -8, 24, 24, 2, 4, 24, 48, -2, 4, 24, -48]",210358,0.0,34521.0,mouselab-mdp,25
"[9169, 10246, 11552]","[u'left', u'left', u'up']",training,"[u'0', u'9', u'10', u'11']","{u'mouseover': {u'state': {u'target': [], u'time': []}, u'edge': {u'target': [], u'time': []}}, u'click': {u'state': {u'target': [u'3', u'4', u'11', u'12', u'7', u'8'], u'time': [2305, 3541, 4713, 5690, 6941, 7609]}, u'edge': {u'target': [], u'time': []}}, u'mouseout': {u'state': {u'target': [], u'time': []}, u'edge': {u'target': [], u'time': []}}}","[2, 4, 24]","[9164, 584, 792]",24.0,"[None, None, None]","[u'', -2, -4, -48, -48, 2, -8, -24, -24, 2, 4, 24, 24]",225487,1.0,13993.0,mouselab-mdp,25
"[16403, 19218, 20130]","[u'left', u'left', u'down']",training,"[u'0', u'9', u'10', u'12']","{u'mouseover': {u'state': {u'target': [], u'time': []}, u'edge': {u'target': [], u'time': []}}, u'click': {u'state': {u'target': [u'4', u'3', u'7', u'8', u'12', u'11'], u'time': [10817, 12012, 12582, 13245, 14038, 14743]}, u'edge': {u'target': [], u'time': []}}, u'mouseout': {u'state': {u'target': [], u'time': []}, u'edge': {u'target': [], u'time': []}}}","[-4, -4, 48]","[16398, 2289, 418]",34.0,"[None, None, None]","[u'', 2, -4, -24, -24, 4, -8, -48, -48, -4, -4, 48, 48]",248752,2.0,22107.0,mouselab-mdp,25
"[15644, 16371, 17018]","[u'left', u'left', u'up']",training,"[u'0', u'9', u'10', u'11']","{u'mouseover': {u'state': {u'target': [], u'time': []}, u'edge': {u'target': [], u'time': []}}, u'click': {u'state': {u'target': [u'4', u'3', u'11', u'12', u'7', u'8'], u'time': [821, 1652, 2279, 2929, 3733, 4342]}, u'edge': {u'target': [], u'time': []}}, u'mouseout': {u'state': {u'target': [], u'time': []}, u'edge': {u'target': [], u'time': []}}}","[-2, -8, 48]","[15642, 237, 134]",32.0,"[None, None, None]","[u'', -2, 8, 24, -48, 2, 4, -24, 24, -2, -8, 48, -24]",268639,3.0,18803.0,mouselab-mdp,25
"[5254, 6644, 7638]","[u'up', u'up', u'right']",training,"[u'0', u'1', u'2', u'3']","{u'mouseover': {u'state': {u'target': [], u'time': []}, u'edge': {u'target': [], u'time': []}}, u'click': {u'state': {u'target': [u'4', u'11', u'12', u'8', u'7', u'3'], u'time': [828, 1419, 2075, 2880, 3547, 4209]}, u'edge': {u'target': [], u'time': []}}, u'mouseout': {u'state': {u'target': [], u'time': []}, u'edge': {u'target': [], u'time': []}}}","[-2, 4, 48]","[5249, 896, 486]",44.0,"[None, None, None]","[u'', -2, 4, 48, 24, -4, 8, -48, 24, 4, -8, 24, 24]",280446,4.0,10741.0,mouselab-mdp,25
"[5672, 6522, 7241]","[u'right', u'right', u'down']",training,"[u'0', u'5', u'6', u'8']","{u'mouseover': {u'state': {u'target': [], u'time': []}, u'edge': {u'target': [], u'time': []}}, u'click': {u'state': {u'target': [u'4', u'11', u'12', u'8', u'7', u'3'], u'time': [1077, 1793, 2661, 3452, 4083, 4646]}, u'edge': {u'target': [], u'time': []}}, u'mouseout': {u'state': {u'target': [], u'time': []}, u'edge': {u'target': [], u'time': []}}}","[-2, 8, 48]","[5667, 357, 210]",48.0,"[None, None, None]","[u'', -4, -8, 24, -24, -2, 8, 24, 48, 4, -4, 24, -48]",290983,5.0,9393.0,mouselab-mdp,25
"[13757, 14477, 15332]","[u'up', u'up', u'left']",training,"[u'0', u'1', u'2', u'4']","{u'mouseover': {u'state': {u'target': [], u'time': []}, u'edge': {u'target': [], u'time': []}}, u'click': {u'state': {u'target': [u'3', u'4', u'11', u'12', u'8', u'10', u'2'], u'time': [826, 1462, 2016, 5849, 10683, 11040, 12284]}, u'edge': {u'target': [], u'time': []}}, u'mouseout': {u'state': {u'target': [], u'time': []}, u'edge': {u'target': [], u'time': []}}}","[4, 4, 48]","[13753, 197, 337]",49.0,"[None, None, None]","[u'', 4, 4, -48, 48, 4, 4, -24, -24, 2, -8, 48, -24]",309895,6.0,17837.0,mouselab-mdp,25
"[6505, 15646, 16294]","[u'right', u'right', u'up']",training,"[u'0', u'5', u'6', u'7']","{u'mouseover': {u'state': {u'target': [], u'time': []}, u'edge': {u'target': [], u'time': []}}, u'click': {u'state': {u'target': [u'3', u'4', u'11', u'12', u'8', u'7'], u'time': [1740, 2515, 3172, 3908, 4540, 5090]}, u'edge': {u'target': [], u'time': []}}, u'mouseout': {u'state': {u'target': [], u'time': []}, u'edge': {u'target': [], u'time': []}}}","[-2, -8, 24]","[6498, 3632, 147]",8.0,"[None, None, None]","[u'', 2, -4, 24, -48, -2, -8, 24, -48, 2, 4, 24, -48]",328590,7.0,17567.0,mouselab-mdp,25
"[15458, 16066, 16601]","[u'left', u'left', u'down']",training,"[u'0', u'9', u'10', u'12']","{u'mouseover': {u'state': {u'target': [], u'time': []}, u'edge': {u'target': [], u'time': []}}, u'click': {u'state': {u'target': [u'3', u'4', u'11', u'12', u'8', u'7', u'6', u'10', u'2', u'1', u'9'], u'time': [1213, 1892, 2451, 3085, 4135, 4668, 8523, 8909, 9845, 12494, 13166]}, u'edge': {u'target': [], u'time': []}}, u'mouseout': {u'state': {u'target': [], u'time': []}, u'edge': {u'target': [], u'time': []}}}","[4, -4, 24]","[15457, 96, 32]",13.0,"[None, None, None]","[u'', -2, -4, 24, -48, -4, 8, -24, -24, 4, -4, -48, 24]",347854,8.0,18202.0,mouselab-mdp,25
"[6187, 6851, 7450]","[u'left', u'left', u'up']",training,"[u'0', u'9', u'10', u'11']","{u'mouseover': {u'state': {u'target': [], u'time': []}, u'edge': {u'target': [], u'time': []}}, u'click': {u'state': {u'target': [u'3', u'4', u'11', u'12', u'8', u'7'], u'time': [1260, 1741, 2212, 2900, 3637, 4301]}, u'edge': {u'target': [], u'time': []}}, u'mouseout': {u'state': {u'target': [], u'time': []}, u'edge': {u'target': [], u'time': []}}}","[4, -4, 24]","[6183, 163, 78]",18.0,"[None, None, None]","[u'', 2, 8, -48, -24, 2, 8, -24, -48, 4, -4, 24, -48]",359318,9.0,10386.0,mouselab-mdp,25
"[25813, 110335, 115227]","[u'right', u'right', u'up']",training,"[u'0', u'5', u'6', u'7']","{u'mouseover': {u'state': {u'target': [], u'time': []}, u'edge': {u'target': [], u'time': []}}, u'click': {u'state': {u'target': [u'9', u'1'], u'time': [14904, 22525]}, u'edge': {u'target': [], u'time': []}}, u'mouseout': {u'state': {u'target': [], u'time': []}, u'edge': {u'target': [], u'time': []}}}","[2, 8, -24]","[25738, 43918, 4285]",-16.0,"[None, None, None]","[u'', -4, 4, 24, 24, 2, 8, -24, 24, -4, 4, -24, 48]",481111,0.0,121117.0,mouselab-mdp,26
"[25525, 45212, 46591]","[u'up', u'up', u'right']",training,"[u'0', u'1', u'2', u'3']","{u'mouseover': {u'state': {u'target': [], u'time': []}, u'edge': {u'target': [], u'time': []}}, u'click': {u'state': {u'target': [u'5', u'7', u'3', u'11', u'4', u'12'], u'time': [8019, 11070, 12181, 18263, 20617, 23412]}, u'edge': {u'target': [], u'time': []}}, u'mouseout': {u'state': {u'target': [], u'time': []}, u'edge': {u'target': [], u'time': []}}}","[-2, -4, 24]","[25488, 11056, 829]",12.0,"[None, None, None]","[u'', -2, -4, 24, -48, -4, 8, -24, -24, 4, -4, -48, 24]",531893,1.0,49233.0,mouselab-mdp,26
"[11905, 12862, 14617]","[u'left', u'left', u'up']",training,"[u'0', u'9', u'10', u'11']","{u'mouseover': {u'state': {u'target': [], u'time': []}, u'edge': {u'target': [], u'time': []}}, u'click': {u'state': {u'target': [u'7', u'4', u'12', u'8', u'11', u'3'], u'time': [2601, 4290, 5967, 7396, 8835, 10085]}, u'edge': {u'target': [], u'time': []}}, u'mouseout': {u'state': {u'target': [], u'time': []}, u'edge': {u'target': [], u'time': []}}}","[2, 4, 24]","[11882, 407, 1209]",24.0,"[None, None, None]","[u'', -2, -4, -48, -48, 2, -8, -24, -24, 2, 4, 24, 24]",551260,2.0,17702.0,mouselab-mdp,26
"[6795, 7693, 8545]","[u'left', u'left', u'down']",training,"[u'0', u'9', u'10', u'12']","{u'mouseover': {u'state': {u'target': [], u'time': []}, u'edge': {u'target': [], u'time': []}}, u'click': {u'state': {u'target': [u'4', u'12', u'7'], u'time': [1226, 2981, 4593]}, u'edge': {u'target': [], u'time': []}}, u'mouseout': {u'state': {u'target': [], u'time': []}, u'edge': {u'target': [], u'time': []}}}","[-4, -4, 48]","[6758, 333, 298]",37.0,"[None, None, None]","[u'', 2, -4, -24, -24, 4, -8, -48, -48, -4, -4, 48, 48]",564140,3.0,11367.0,mouselab-mdp,26
"[4945, 5721, 6978]","[u'left', u'left', u'up']",training,"[u'0', u'9', u'10', u'11']","{u'mouseover': {u'state': {u'target': [], u'time': []}, u'edge': {u'target': [], u'time': []}}, u'click': {u'state': {u'target': [u'3', u'11'], u'time': [1758, 3204]}, u'edge': {u'target': [], u'time': []}}, u'mouseout': {u'state': {u'target': [], u'time': []}, u'edge': {u'target': [], u'time': []}}}","[2, -8, 48]","[4878, 214, 692]",40.0,"[None, None, None]","[u'', 4, 4, -48, 48, 4, 4, -24, -24, 2, -8, 48, -24]",575076,4.0,9346.0,mouselab-mdp,26
"[9978, 10641, 11332]","[u'left', u'left', u'down']",training,"[u'0', u'9', u'10', u'12']","{u'mouseover': {u'state': {u'target': [], u'time': []}, u'edge': {u'target': [], u'time': []}}, u'click': {u'state': {u'target': [u'8', u'7', u'4', u'11', u'3', u'12'], u'time': [2075, 3344, 5263, 6595, 7549, 8576]}, u'edge': {u'target': [], u'time': []}}, u'mouseout': {u'state': {u'target': [], u'time': []}, u'edge': {u'target': [], u'time': []}}}","[-4, 4, 48]","[9959, 93, 148]",42.0,"[None, None, None]","[u'', 2, -4, 24, -48, -4, -8, -48, -48, -4, 4, -48, 48]",589641,5.0,13182.0,mouselab-mdp,26
"[6313, 7133, 10369]","[u'left', u'left', u'up']",training,"[u'0', u'9', u'10', u'11']","{u'mouseover': {u'state': {u'target': [], u'time': []}, u'edge': {u'target': [], u'time': []}}, u'click': {u'state': {u'target': [u'11'], u'time': [4578]}, u'edge': {u'target': [], u'time': []}}, u'mouseout': {u'state': {u'target': [], u'time': []}, u'edge': {u'target': [], u'time': []}}}","[4, -4, 48]","[6291, 251, 2647]",47.0,"[None, None, None]","[u'', -2, -8, -48, -48, -4, -8, 24, 24, 4, -4, 48, -24]",603329,6.0,12329.0,mouselab-mdp,26
"[5637, 6345, 8317]","[u'right', u'right', u'up']",training,"[u'0', u'5', u'6', u'7']","{u'mouseover': {u'state': {u'target': [], u'time': []}, u'edge': {u'target': [], u'time': []}}, u'click': {u'state': {u'target': [u'11', u'4', u'3', u'7'], u'time': [1505, 2627, 3412, 4293]}, u'edge': {u'target': [], u'time': []}}, u'mouseout': {u'state': {u'target': [], u'time': []}, u'edge': {u'target': [], u'time': []}}}","[4, -8, 48]","[5618, 153, 1413]",40.0,"[None, None, None]","[u'', 2, 4, 24, -24, 4, -8, 48, -24, -4, 8, -48, 48]",618012,7.0,13092.0,mouselab-mdp,26
"[3163, 3811, 4558]","[u'right', u'right', u'down']",training,"[u'0', u'5', u'6', u'8']","{u'mouseover': {u'state': {u'target': [], u'time': []}, u'edge': {u'target': [], u'time': []}}, u'click': {u'state': {u'target': [u'8'], u'time': [1600]}, u'edge': {u'target': [], u'time': []}}, u'mouseout': {u'state': {u'target': [], u'time': []}, u'edge': {u'target': [], u'time': []}}}","[-4, 4, 48]","[3123, 94, 170]",47.0,"[None, None, None]","[u'', 2, -4, 24, -48, -4, 4, 48, 48, 4, 4, -48, -24]",629338,8.0,9944.0,mouselab-mdp,26
"[11007, 19028, 20783]","[u'up', u'up', u'right']",training,"[u'0', u'1', u'2', u'3']","{u'mouseover': {u'state': {u'target': [], u'time': []}, u'edge': {u'target': [], u'time': []}}, u'click': {u'state': {u'target': [u'3', u'11', u'12', u'4', u'8', u'7'], u'time': [1747, 3439, 4295, 5584, 6508, 7889]}, u'edge': {u'target': [], u'time': []}}, u'mouseout': {u'state': {u'target': [], u'time': []}, u'edge': {u'target': [], u'time': []}}}","[2, 4, 24]","[10956, 2372, 1214]",24.0,"[None, None, None]","[u'', 2, 4, 24, -24, 4, 8, -48, 24, 4, -8, -24, 24]",653505,9.0,22808.0,mouselab-mdp,26
[],[],demo,"[u'0', 5, 6, 8]","{u'mouseover': {u'state': {u'target': [], u'time': []}, u'edge': {u'target': [], u'time': []}}, u'click': {u'state': {u'target': [3, 4, 12, 11, 7, 8], u'time': [651, 1654, 2658, 3662, 4666, 5669]}, u'edge': {u'target': [], u'time': []}}, u'mouseout': {u'state': {u'target': [], u'time': []}, u'edge': {u'target': [], u'time': []}}}","[-4, 8, 24]",[],22.0,[],"[u'', 4, -8, -24, -24, -4, 8, -24, 24, -2, -8, -48, -48]",294967,0.0,10739.0,mouselab-mdp,27
[],[],demo,"[u'0', 9, 10, 12]","{u'mouseover': {u'state': {u'target': [], u'time': []}, u'edge': {u'target': [], u'time': []}}, u'click': {u'state': {u'target': [12], u'time': [993]}, u'edge': {u'target': [], u'time': []}}, u'mouseout': {u'state': {u'target': [], u'time': []}, u'edge': {u'target': [], u'time': []}}}","[-2, -8, 48]",[],37.0,[],"[u'', -4, -4, 48, -24, -4, 4, -48, 48, -2, -8, 24, 48]",301117,1.0,5037.0,mouselab-mdp,27
[],[],demo,"[u'0', 1, 2, 4]","{u'mouseover': {u'state': {u'target': [], u'time': []}, u'edge': {u'target': [], u'time': []}}, u'click': {u'state': {u'target': [4], u'time': [996]}, u'edge': {u'target': [], u'time': []}}, u'mouseout': {u'state': {u'target': [], u'time': []}, u'edge': {u'target': [], u'time': []}}}","[-2, 8, 48]",[],53.0,[],"[u'', -2, 8, 24, 48, 2, -4, 48, -48, 2, 8, 24, -48]",307340,2.0,5134.0,mouselab-mdp,27
[],[],demo,"[u'0', 9, 10, 11]","{u'mouseover': {u'state': {u'target': [], u'time': []}, u'edge': {u'target': [], u'time': []}}, u'click': {u'state': {u'target': [7, 11], u'time': [997, 2000]}, u'edge': {u'target': [], u'time': []}}, u'mouseout': {u'state': {u'target': [], u'time': []}, u'edge': {u'target': [], u'time': []}}}","[2, -4, 48]",[],44.0,[],"[u'', 4, 8, 24, 24, -4, -4, -24, -48, 2, -4, 48, 48]",313706,3.0,5273.0,mouselab-mdp,27
[],[],demo,"[u'0', 9, 10, 12]","{u'mouseover': {u'state': {u'target': [], u'time': []}, u'edge': {u'target': [], u'time': []}}, u'click': {u'state': {u'target': [12], u'time': [994]}, u'edge': {u'target': [], u'time': []}}, u'mouseout': {u'state': {u'target': [], u'time': []}, u'edge': {u'target': [], u'time': []}}}","[-2, -8, 48]",[],37.0,[],"[u'', -4, -4, 48, -24, -4, 4, -48, 48, -2, -8, 24, 48]",319005,4.0,4176.0,mouselab-mdp,27
[],[],demo,"[u'0', 1, 2, 3]","{u'mouseover': {u'state': {u'target': [], u'time': []}, u'edge': {u'target': [], u'time': []}}, u'click': {u'state': {u'target': [3, 4, 8, 7, 11, 12, 10], u'time': [999, 2001, 3005, 4009, 5011, 6015, 7018]}, u'edge': {u'target': [], u'time': []}}, u'mouseout': {u'state': {u'target': [], u'time': []}, u'edge': {u'target': [], u'time': []}}}","[-4, 8, 24]",[],21.0,[],"[u'', -4, 8, 24, 24, -2, -8, -48, -24, -4, -8, 24, 24]",335704,5.0,15620.0,mouselab-mdp,27
[],[],demo,"[u'0', 1, 2, 4]","{u'mouseover': {u'state': {u'target': [], u'time': []}, u'edge': {u'target': [], u'time': []}}, u'click': {u'state': {u'target': [4], u'time': [995]}, u'edge': {u'target': [], u'time': []}}, u'mouseout': {u'state': {u'target': [], u'time': []}, u'edge': {u'target': [], u'time': []}}}","[4, 8, 48]",[],59.0,[],"[u'', 4, 8, 24, 48, -4, 8, -48, -48, -2, -8, 24, -48]",341922,6.0,5118.0,mouselab-mdp,27
[],[],demo,"[u'0', 9, 10, 11]","{u'mouseover': {u'state': {u'target': [], u'time': []}, u'edge': {u'target': [], u'time': []}}, u'click': {u'state': {u'target': [3, 4, 7, 8, 11], u'time': [995, 1997, 2999, 4002, 5006]}, u'edge': {u'target': [], u'time': []}}, u'mouseout': {u'state': {u'target': [], u'time': []}, u'edge': {u'target': [], u'time': []}}}","[4, 8, 48]",[],55.0,[],"[u'', 2, -4, -24, -24, -4, 4, 24, -48, 4, 8, 48, 48]",352721,7.0,9707.0,mouselab-mdp,27
[],[],demo,"[u'0', 9, 10, 11]","{u'mouseover': {u'state': {u'target': [], u'time': []}, u'edge': {u'target': [], u'time': []}}, u'click': {u'state': {u'target': [3, 8, 7, 11], u'time': [995, 1999, 3001, 4004]}, u'edge': {u'target': [], u'time': []}}, u'mouseout': {u'state': {u'target': [], u'time': []}, u'edge': {u'target': [], u'time': []}}}","[4, 8, 48]",[],56.0,[],"[u'', 2, -4, -24, -24, -4, 4, 24, -48, 4, 8, 48, 48]",361366,8.0,7553.0,mouselab-mdp,27
[],[],demo,"[u'0', 9, 10, 11]","{u'mouseover': {u'state': {u'target': [], u'time': []}, u'edge': {u'target': [], u'time': []}}, u'click': {u'state': {u'target': [12, 8, 11], u'time': [994, 1998, 3004]}, u'edge': {u'target': [], u'time': []}}, u'mouseout': {u'state': {u'target': [], u'time': []}, u'edge': {u'target': [], u'time': []}}}","[4, -8, 48]",[],41.0,[],"[u'', 2, 4, -48, 24, -4, 8, 24, -48, 4, -8, 48, 24]",370866,9.0,8400.0,mouselab-mdp,27
"[12181, 13298, 14230]","[u'left', u'left', u'up']",training,"[u'0', u'9', u'10', u'11']","{u'mouseover': {u'state': {u'target': [], u'time': []}, u'edge': {u'target': [], u'time': []}}, u'click': {u'state': {u'target': [u'4', u'11'], u'time': [6755, 9170]}, u'edge': {u'target': [], u'time': []}}, u'mouseout': {u'state': {u'target': [], u'time': []}, u'edge': {u'target': [], u'time': []}}}","[-4, -4, 48]","[12176, 600, 418]",38.0,"[None, None, None]","[u'', 2, -4, -24, -24, 4, -8, -48, -48, -4, -4, 48, 48]",311586,0.0,17053.0,mouselab-mdp,28
"[5639, 6588, 7486]","[u'right', u'right', u'up']",training,"[u'0', u'5', u'6', u'7']","{u'mouseover': {u'state': {u'target': [], u'time': []}, u'edge': {u'target': [], u'time': []}}, u'click': {u'state': {u'target': [u'4', u'7'], u'time': [2834, 3960]}, u'edge': {u'target': [], u'time': []}}, u'mouseout': {u'state': {u'target': [], u'time': []}, u'edge': {u'target': [], u'time': []}}}","[-2, -4, 48]","[5634, 430, 380]",40.0,"[None, None, None]","[u'', -4, 4, 24, 24, -2, -4, 48, -24, -4, 8, -48, 48]",323395,1.0,10741.0,mouselab-mdp,28
"[13257, 18889, 19539]","[u'right', u'right', u'up']",training,"[u'0', u'5', u'6', u'7']","{u'mouseover': {u'state': {u'target': [], u'time': []}, u'edge': {u'target': [], u'time': []}}, u'click': {u'state': {u'target': [u'7', u'6', u'5'], u'time': [1745, 6367, 9887]}, u'edge': {u'target': [], u'time': []}}, u'mouseout': {u'state': {u'target': [], u'time': []}, u'edge': {u'target': [], u'time': []}}}","[4, -8, 48]","[13253, 2112, 148]",41.0,"[None, None, None]","[u'', 2, 4, 24, -24, 4, -8, 48, -24, -4, 8, -48, 48]",345343,2.0,20910.0,mouselab-mdp,28
"[6892, 12762, 13328]","[u'up', u'up', u'left']",training,"[u'0', u'1', u'2', u'4']","{u'mouseover': {u'state': {u'target': [], u'time': []}, u'edge': {u'target': [], u'time': []}}, u'click': {u'state': {u'target': [u'7', u'4', u'3', u'11', u'12', u'8'], u'time': [786, 1867, 2704, 3388, 4085, 4908]}, u'edge': {u'target': [], u'time': []}}, u'mouseout': {u'state': {u'target': [], u'time': []}, u'edge': {u'target': [], u'time': []}}}","[-2, 4, 24]","[6888, 1330, 63]",20.0,"[None, None, None]","[u'', -2, 4, -24, 24, -2, -4, -48, -48, 4, -8, 24, 24]",363271,3.0,16880.0,mouselab-mdp,28
"[4294, 5102, 5868]","[u'right', u'right', u'up']",training,"[u'0', u'5', u'6', u'7']","{u'mouseover': {u'state': {u'target': [], u'time': []}, u'edge': {u'target': [], u'time': []}}, u'click': {u'state': {u'target': [u'4', u'3', u'7'], u'time': [888, 2217, 2953]}, u'edge': {u'target': [], u'time': []}}, u'mouseout': {u'state': {u'target': [], u'time': []}, u'edge': {u'target': [], u'time': []}}}","[4, 8, 48]","[4292, 291, 257]",57.0,"[None, None, None]","[u'', -2, -8, -24, -24, 4, 8, 48, 24, -2, 8, -24, -48]",373216,4.0,8905.0,mouselab-mdp,28
"[4229, 5128, 5962]","[u'left', u'left', u'down']",training,"[u'0', u'9', u'10', u'12']","{u'mouseover': {u'state': {u'target': [], u'time': []}, u'edge': {u'target': [], u'time': []}}, u'click': {u'state': {u'target': [u'3', u'7', u'8', u'12'], u'time': [1058, 1664, 2238, 2984]}, u'edge': {u'target': [], u'time': []}}, u'mouseout': {u'state': {u'target': [], u'time': []}, u'edge': {u'target': [], u'time': []}}}","[-2, -8, 48]","[4227, 385, 335]",34.0,"[None, None, None]","[u'', 4, -8, -48, -48, -4, 4, 24, 24, -2, -8, -24, 48]",383355,5.0,9093.0,mouselab-mdp,28
"[2724, 3744, 4539]","[u'left', u'left', u'up']",training,"[u'0', u'9', u'10', u'11']","{u'mouseover': {u'state': {u'target': [], u'time': []}, u'edge': {u'target': [], u'time': []}}, u'click': {u'state': {u'target': [u'11'], u'time': [1305]}, u'edge': {u'target': [], u'time': []}}, u'mouseout': {u'state': {u'target': [], u'time': []}, u'edge': {u'target': [], u'time': []}}}","[4, -8, 48]","[2721, 507, 303]",43.0,"[None, None, None]","[u'', 4, -4, -24, 24, 2, 4, -24, -48, 4, -8, 48, -48]",395571,6.0,11170.0,mouselab-mdp,28
"[18927, 19678, 20390]","[u'right', u'right', u'up']",training,"[u'0', u'5', u'6', u'7']","{u'mouseover': {u'state': {u'target': [], u'time': []}, u'edge': {u'target': [], u'time': []}}, u'click': {u'state': {u'target': [u'4', u'2', u'3', u'7', u'8', u'12', u'5', u'6', u'11', u'9', u'10', u'1'], u'time': [736, 3346, 6777, 7943, 8703, 9403, 10722, 13330, 13783, 14855, 15787, 16408]}, u'edge': {u'target': [], u'time': []}}, u'mouseout': {u'state': {u'target': [], u'time': []}, u'edge': {u'target': [], u'time': []}}}","[-4, 4, 48]","[18925, 235, 198]",36.0,"[None, None, None]","[u'', 2, -4, 24, -48, -4, 4, 48, 48, 4, 4, -48, -24]",420608,7.0,23999.0,mouselab-mdp,28
"[14159, 15186, 16241]","[u'up', u'up', u'left']",training,"[u'0', u'1', u'2', u'4']","{u'mouseover': {u'state': {u'target': [], u'time': []}, u'edge': {u'target': [], u'time': []}}, u'click': {u'state': {u'target': [u'4', u'3', u'7', u'8', u'5', u'2', u'6', u'1'], u'time': [954, 1597, 2371, 3040, 7598, 7927, 8717, 10521]}, u'edge': {u'target': [], u'time': []}}, u'mouseout': {u'state': {u'target': [], u'time': []}, u'edge': {u'target': [], u'time': []}}}","[2, 4, 48]","[14155, 514, 537]",46.0,"[None, None, None]","[u'', 2, 4, -24, 48, -4, 8, -48, 48, 2, -4, 24, -24]",439023,8.0,17378.0,mouselab-mdp,28
"[5172, 5737, 6249]","[u'up', u'up', u'right']",training,"[u'0', u'1', u'2', u'3']","{u'mouseover': {u'state': {u'target': [], u'time': []}, u'edge': {u'target': [], u'time': []}}, u'click': {u'state': {u'target': [u'4', u'3', u'2', u'1'], u'time': [1547, 2263, 3542, 4195]}, u'edge': {u'target': [], u'time': []}}, u'mouseout': {u'state': {u'target': [], u'time': []}, u'edge': {u'target': [], u'time': []}}}","[4, 4, 48]","[5159, 56, 2]",52.0,"[None, None, None]","[u'', 4, 4, 48, -48, -2, -8, 48, -24, -4, -8, 24, -48]",450812,9.0,10745.0,mouselab-mdp,28
