action_times,actions,block,path,queries,rewards,rt,score,simulation_mode,state_rewards,time_elapsed,trial_index,trial_time,trial_type,pid
[],[],demo,"[u'0', 9, 10, 11]","{u'mouseover': {u'state': {u'target': [], u'time': []}, u'edge': {u'target': [], u'time': []}}, u'click': {u'state': {u'target': [12, 7, 8, 11], u'time': [908, 1914, 2918, 3920]}, u'edge': {u'target': [], u'time': []}}, u'mouseout': {u'state': {u'target': [], u'time': []}, u'edge': {u'target': [], u'time': []}}}","[4, -4, 48]",[],44.0,[],"[u'', 4, -4, -48, -48, -4, 8, -48, -24, 4, -4, 48, -24]",159192,0.0,9382.0,mouselab-mdp,0
[],[],demo,"[u'0', 9, 10, 12]","{u'mouseover': {u'state': {u'target': [], u'time': []}, u'edge': {u'target': [], u'time': []}}, u'click': {u'state': {u'target': [12], u'time': [994]}, u'edge': {u'target': [], u'time': []}}, u'mouseout': {u'state': {u'target': [], u'time': []}, u'edge': {u'target': [], u'time': []}}}","[-4, 8, 48]",[],51.0,[],"[u'', -2, 8, 24, -48, -4, 4, -48, -48, -4, 8, 24, 48]",165030,1.0,4716.0,mouselab-mdp,0
[],[],demo,"[u'0', 9, 10, 11]","{u'mouseover': {u'state': {u'target': [], u'time': []}, u'edge': {u'target': [], u'time': []}}, u'click': {u'state': {u'target': [8, 12, 3, 11], u'time': [998, 2002, 3004, 4008]}, u'edge': {u'target': [], u'time': []}}, u'mouseout': {u'state': {u'target': [], u'time': []}, u'edge': {u'target': [], u'time': []}}}","[4, 4, 48]",[],52.0,[],"[u'', -4, -4, 24, -24, -4, 4, 24, 24, 4, 4, 48, -48]",176370,2.0,10252.0,mouselab-mdp,0
[],[],demo,"[u'0', 9, 10, 12]","{u'mouseover': {u'state': {u'target': [], u'time': []}, u'edge': {u'target': [], u'time': []}}, u'click': {u'state': {u'target': [12], u'time': [990]}, u'edge': {u'target': [], u'time': []}}, u'mouseout': {u'state': {u'target': [], u'time': []}, u'edge': {u'target': [], u'time': []}}}","[2, 8, 48]",[],57.0,[],"[u'', -2, 8, 24, -48, 4, 4, -48, -24, 2, 8, -48, 48]",182044,3.0,4582.0,mouselab-mdp,0
[],[],demo,"[u'0', 5, 6, 7]","{u'mouseover': {u'state': {u'target': [], u'time': []}, u'edge': {u'target': [], u'time': []}}, u'click': {u'state': {u'target': [3, 4, 8, 12, 7], u'time': [996, 2000, 3002, 4006, 5008]}, u'edge': {u'target': [], u'time': []}}, u'mouseout': {u'state': {u'target': [], u'time': []}, u'edge': {u'target': [], u'time': []}}}","[-4, 8, 48]",[],47.0,[],"[u'', -2, 4, 24, 24, -4, 8, 48, 24, -4, 8, -48, -24]",190754,4.0,7644.0,mouselab-mdp,0
[],[],demo,"[u'0', 1, 2, 4]","{u'mouseover': {u'state': {u'target': [], u'time': []}, u'edge': {u'target': [], u'time': []}}, u'click': {u'state': {u'target': [4], u'time': [992]}, u'edge': {u'target': [], u'time': []}}, u'mouseout': {u'state': {u'target': [], u'time': []}, u'edge': {u'target': [], u'time': []}}}","[4, 8, 48]",[],59.0,[],"[u'', 4, 8, 24, 48, -4, 8, -48, -48, -2, -8, 24, -48]",196140,5.0,4290.0,mouselab-mdp,0
[],[],demo,"[u'0', 9, 10, 11]","{u'mouseover': {u'state': {u'target': [], u'time': []}, u'edge': {u'target': [], u'time': []}}, u'click': {u'state': {u'target': [7, 8, 11], u'time': [992, 1996, 3000]}, u'edge': {u'target': [], u'time': []}}, u'mouseout': {u'state': {u'target': [], u'time': []}, u'edge': {u'target': [], u'time': []}}}","[4, -4, 48]",[],45.0,[],"[u'', 4, -8, 48, 24, -2, -4, 24, -24, 4, -4, 48, 48]",203516,6.0,6288.0,mouselab-mdp,0
[],[],demo,"[u'0', 9, 10, 11]","{u'mouseover': {u'state': {u'target': [], u'time': []}, u'edge': {u'target': [], u'time': []}}, u'click': {u'state': {u'target': [7, 11], u'time': [992, 1996]}, u'edge': {u'target': [], u'time': []}}, u'mouseout': {u'state': {u'target': [], u'time': []}, u'edge': {u'target': [], u'time': []}}}","[2, -4, 48]",[],44.0,[],"[u'', 4, 8, 24, 24, -4, -4, -24, -48, 2, -4, 48, 48]",209824,7.0,5212.0,mouselab-mdp,0
[],[],demo,"[u'0', 1, 2, 3]","{u'mouseover': {u'state': {u'target': [], u'time': []}, u'edge': {u'target': [], u'time': []}}, u'click': {u'state': {u'target': [8, 12, 4, 11, 7, 3], u'time': [988, 1992, 2996, 3996, 5000, 6002]}, u'edge': {u'target': [], u'time': []}}, u'mouseout': {u'state': {u'target': [], u'time': []}, u'edge': {u'target': [], u'time': []}}}","[2, -8, 48]",[],36.0,[],"[u'', 2, -8, 48, -48, -2, 8, -48, 24, 2, 8, -24, -48]",220072,8.0,9156.0,mouselab-mdp,0
[],[],demo,"[u'0', 1, 2, 4]","{u'mouseover': {u'state': {u'target': [], u'time': []}, u'edge': {u'target': [], u'time': []}}, u'click': {u'state': {u'target': [11, 12, 3, 4], u'time': [992, 1996, 3000, 4004]}, u'edge': {u'target': [], u'time': []}}, u'mouseout': {u'state': {u'target': [], u'time': []}, u'edge': {u'target': [], u'time': []}}}","[-4, 4, 48]",[],44.0,[],"[u'', -4, 4, -24, 48, -4, -8, -24, 48, -4, 8, -24, -48]",228328,9.0,7164.0,mouselab-mdp,0
"[20738, 21874, 22816, 28354, 28964]","[u'up', u'up', u'up', u'left', u'left']",test,"[u'0', u'1', u'2', u'3', u'8', u'11']","{u'mouseover': {u'state': {u'target': [], u'time': []}, u'edge': {u'target': [], u'time': []}}, u'click': {u'state': {u'target': [u'14', u'21', u'16', u'17', u'20', u'32', u'33', u'29', u'27', u'11', u'9', u'5'], u'time': [7308, 9070, 10306, 11710, 13386, 14326, 14870, 15482, 16054, 16874, 17368, 17990]}, u'edge': {u'target': [], u'time': []}}, u'mouseout': {u'state': {u'target': [], u'time': []}, u'edge': {u'target': [], u'time': []}}}","[0, -1, -1, -6, 46]","[20728, 608, 418, 5006, 84]",26.0,"[None, None, None, None, None]","[u'', 0, -1, -1, 8, 39, -38, -15, -6, 39, -2, 46, 0, 0, -5, 10, -12, -48, -19, -18, -1, 4, 9, 1, -1, 3, 2, -6, -66, 30, -4, 1, -41, 9]",64146,0.0,32782.0,mouselab-mdp,0
"[15130, 16206, 16862, 18302, 19018]","[u'up', u'up', u'up', u'left', u'down']",test,"[u'0', u'1', u'2', u'3', u'8', u'10']","{u'mouseover': {u'state': {u'target': [], u'time': []}, u'edge': {u'target': [], u'time': []}}, u'click': {u'state': {u'target': [u'32', u'33', u'29', u'27', u'11', u'9', u'5', u'6', u'16', u'17', u'20', u'21', u'22', u'31', u'28', u'18', u'7', u'10'], u'time': [2514, 2908, 3554, 4370, 5066, 5448, 5924, 6332, 6840, 7260, 7856, 9370, 10398, 11152, 11952, 12552, 13064, 13610]}, u'edge': {u'target': [], u'time': []}}, u'mouseout': {u'state': {u'target': [], u'time': []}, u'edge': {u'target': [], u'time': []}}}","[-1, 0, -2, 0, 55]","[15122, 544, 136, 906, 192]",34.0,"[None, None, None, None, None]","[u'', -1, 0, -2, 1, 18, 17, 42, 0, 31, 55, -39, 1, -2, -6, 13, 36, 17, -15, 12, -44, 2, 16, 1, -3, -12, 1, 10, 6, -28, 0, -49, 13, 29]",85738,1.0,20236.0,mouselab-mdp,0
"[14972, 15504, 16082, 17390, 18140]","[u'right', u'right', u'right', u'down', u'left']",test,"[u'0', u'12', u'13', u'14', u'19', u'22']","{u'mouseover': {u'state': {u'target': [], u'time': []}, u'edge': {u'target': [], u'time': []}}, u'click': {u'state': {u'target': [u'32', u'33', u'29', u'31', u'28', u'27', u'10', u'11', u'9', u'7', u'5', u'6', u'16', u'18', u'17', u'20', u'21', u'22'], u'time': [2176, 2716, 4172, 6356, 7030, 7776, 8320, 8754, 9222, 9994, 10394, 10854, 11438, 11850, 12270, 12808, 13200, 13634]}, u'edge': {u'target': [], u'time': []}}, u'mouseout': {u'state': {u'target': [], u'time': []}, u'edge': {u'target': [], u'time': []}}}","[1, 1, 1, -2, 70]","[14962, 10, 70, 780, 210]",53.0,"[None, None, None, None, None]","[u'', -1, 1, 3, -5, 17, -37, 26, 0, -6, -3, 28, 1, 1, 1, 1, 20, 7, 22, -2, -78, 33, 70, 0, 0, -1, -1, 1, -36, -17, -8, 8, -9, 16]",106592,2.0,19508.0,mouselab-mdp,0
"[7980, 8942, 9560, 10130, 10778]","[u'right', u'right', u'right', u'up', u'up']",test,"[u'0', u'12', u'13', u'14', u'15', u'16']","{u'mouseover': {u'state': {u'target': [], u'time': []}, u'edge': {u'target': [], u'time': []}}, u'click': {u'state': {u'target': [u'21', u'22', u'20', u'18', u'17', u'16'], u'time': [2856, 4598, 5154, 5822, 6372, 6870]}, u'edge': {u'target': [], u'time': []}}, u'mouseout': {u'state': {u'target': [], u'time': []}, u'edge': {u'target': [], u'time': []}}}","[1, 1, 0, -7, 62]","[7968, 438, 96, 48, 128]",51.0,"[None, None, None, None, None]","[u'', 0, -6, 2, -12, 19, -31, -47, 4, -48, -14, 7, 1, 1, 0, -7, 62, -19, 58, -4, 37, 34, -33, 0, 2, 3, -2, 10, -13, -37, 8, -18, 44, 19]",120612,3.0,12668.0,mouselab-mdp,0
"[40942, 41650, 42672, 43300, 43904]","[u'left', u'left', u'left', u'up', u'left']",test,"[u'0', u'23', u'24', u'25', u'26', u'29']","{u'mouseover': {u'state': {u'target': [], u'time': []}, u'edge': {u'target': [], u'time': []}}, u'click': {u'state': {u'target': [u'21', u'22', u'20', u'18', u'16', u'17', u'32', u'31', u'33', u'29', u'27', u'28'], u'time': [33702, 34898, 35278, 35896, 36262, 36596, 37494, 37932, 38332, 38810, 39176, 39610]}, u'edge': {u'target': [], u'time': []}}, u'mouseout': {u'state': {u'target': [], u'time': []}, u'edge': {u'target': [], u'time': []}}}","[1, 2, 4, 2, 40]","[40932, 180, 486, 100, 68]",37.0,"[None, None, None, None, None]","[u'', -1, -1, 0, -9, 8, 53, 24, -2, -28, -24, 54, 0, -1, 1, 17, 4, 20, 10, -3, -37, -11, -7, 1, 2, 4, 2, 28, -24, 40, 4, -10, 16, -2]",166786,4.0,44878.0,mouselab-mdp,0
"[8970, 9810, 11258, 11886, 12566]","[u'left', u'left', u'left', u'down', u'left']",test,"[u'0', u'23', u'24', u'25', u'30', u'33']","{u'mouseover': {u'state': {u'target': [], u'time': []}, u'edge': {u'target': [], u'time': []}}, u'click': {u'state': {u'target': [u'32', u'33', u'29', u'27', u'31', u'28', u'10', u'11', u'9', u'7', u'5', u'6', u'16', u'18', u'17'], u'time': [762, 1280, 1846, 2312, 3012, 3780, 4220, 4538, 4894, 5532, 5916, 6294, 6724, 7078, 7702]}, u'edge': {u'target': [], u'time': []}}, u'mouseout': {u'state': {u'target': [], u'time': []}, u'edge': {u'target': [], u'time': []}}}","[0, -1, -8, -6, 48]","[8962, 310, 920, 104, 148]",18.0,"[None, None, None, None, None]","[u'', 0, 4, 5, 13, -13, -29, -34, -1, -40, -20, -14, 1, -1, -6, -4, 6, 18, -29, 5, 44, 16, 8, 0, -1, -8, 5, -11, 5, 16, -6, 33, 4, 48]",181740,5.0,13614.0,mouselab-mdp,0
"[9934, 10812, 11402, 11940, 12574]","[u'up', u'up', u'up', u'left', u'left']",test,"[u'0', u'1', u'2', u'3', u'8', u'11']","{u'mouseover': {u'state': {u'target': [], u'time': []}, u'edge': {u'target': [], u'time': []}}, u'click': {u'state': {u'target': [u'32', u'33', u'29', u'27', u'21', u'20', u'17', u'16', u'18', u'22', u'31', u'28', u'10', u'11', u'9'], u'time': [1010, 1680, 2160, 2554, 3570, 3942, 4432, 4896, 5314, 5842, 6664, 7740, 8042, 8718, 9074]}, u'edge': {u'target': [], u'time': []}}, u'mouseout': {u'state': {u'target': [], u'time': []}, u'edge': {u'target': [], u'time': []}}}","[0, 0, -2, -8, 54]","[9926, 346, 68, 8, 100]",29.0,"[None, None, None, None, None]","[u'', 0, 0, -2, -4, 64, 0, 55, -8, 24, 0, 54, 0, 4, -2, 0, -37, -1, -7, -9, -59, 29, 16, -1, 0, -3, -1, 8, 11, -16, -2, 17, -21, -18]",196726,6.0,13682.0,mouselab-mdp,0
"[10336, 11214, 11836, 12370, 12920]","[u'right', u'right', u'right', u'up', u'left']",test,"[u'0', u'12', u'13', u'14', u'15', u'18']","{u'mouseover': {u'state': {u'target': [], u'time': []}, u'edge': {u'target': [], u'time': []}}, u'click': {u'state': {u'target': [u'32', u'33', u'31', u'28', u'29', u'27', u'11', u'9', u'10', u'7', u'6', u'5', u'16', u'18', u'17'], u'time': [2014, 2582, 3390, 4066, 4536, 4868, 5380, 5706, 6156, 6840, 7138, 8228, 8758, 9154, 9672]}, u'edge': {u'target': [], u'time': []}}, u'mouseout': {u'state': {u'target': [], u'time': []}, u'edge': {u'target': [], u'time': []}}}","[0, -3, -3, 5, 58]","[10328, 350, 90, 8, 40]",42.0,"[None, None, None, None, None]","[u'', 0, 1, 7, -1, -39, -38, -21, -13, 26, -16, -10, 0, -3, -3, 5, 20, -14, 58, -10, -11, -7, -89, 2, 1, -4, 16, 19, 14, -19, 1, -49, 25, -12]",211850,7.0,13820.0,mouselab-mdp,0
"[12468, 13448, 14020, 14554, 15096]","[u'up', u'up', u'up', u'right', u'down']",test,"[u'0', u'1', u'2', u'3', u'4', u'7']","{u'mouseover': {u'state': {u'target': [], u'time': []}, u'edge': {u'target': [], u'time': []}}, u'click': {u'state': {u'target': [u'29', u'17', u'18', u'28', u'33', u'31', u'32', u'21', u'22', u'20', u'16', u'27', u'11', u'9', u'10', u'7', u'5'], u'time': [1276, 2110, 2880, 3540, 4282, 4714, 5086, 5744, 6142, 6590, 7468, 8156, 8726, 9828, 10332, 10774, 11168]}, u'edge': {u'target': [], u'time': []}}, u'mouseout': {u'state': {u'target': [], u'time': []}, u'edge': {u'target': [], u'time': []}}}","[-1, 1, 4, 8, 64]","[12456, 452, 38, 8, 34]",59.0,"[None, None, None, None, None]","[u'', -1, 1, 4, 8, -97, -52, 64, -2, -5, 37, 6, -1, 0, 8, -11, 42, -10, -9, 15, -21, 27, -12, -1, 0, 5, -1, 18, 6, 1, -3, 4, -65, -14]",229500,8.0,16320.0,mouselab-mdp,0
"[9448, 10366, 10956, 11502, 12128]","[u'left', u'left', u'left', u'down', u'left']",test,"[u'0', u'23', u'24', u'25', u'30', u'33']","{u'mouseover': {u'state': {u'target': [], u'time': []}, u'edge': {u'target': [], u'time': []}}, u'click': {u'state': {u'target': [u'32', u'33'], u'time': [7622, 8180]}, u'edge': {u'target': [], u'time': []}}, u'mouseout': {u'state': {u'target': [], u'time': []}, u'edge': {u'target': [], u'time': []}}}","[1, -2, -2, 5, 66]","[9438, 402, 46, 20, 96]",66.0,"[None, None, None, None, None]","[u'', -3, 1, 3, -12, 3, 9, 11, -4, 3, 19, -57, 1, -1, 3, -6, -55, 38, 53, -15, -41, 3, -34, 1, -2, -2, 2, -70, -10, 64, 5, -32, 33, 66]",244062,9.0,13254.0,mouselab-mdp,0
"[24126, 25224, 25874, 26506, 27246]","[u'left', u'left', u'left', u'up', u'up']",test,"[u'0', u'23', u'24', u'25', u'26', u'27']","{u'mouseover': {u'state': {u'target': [], u'time': []}, u'edge': {u'target': [], u'time': []}}, u'click': {u'state': {u'target': [u'33', u'32', u'31', u'28', u'27', u'29'], u'time': [8280, 8902, 9370, 10104, 10602, 10994]}, u'edge': {u'target': [], u'time': []}}, u'mouseout': {u'state': {u'target': [], u'time': []}, u'edge': {u'target': [], u'time': []}}}","[-1, 3, 1, -22, 64]","[24114, 570, 120, 102, 204]",39.0,"[None, None, None, None, None]","[u'', 1, -4, 0, -9, 17, 58, -17, 12, -30, 70, -26, 0, 1, -6, 12, -34, 20, -41, 1, 0, -12, 16, -1, 3, 1, -22, 64, 14, 50, -1, -72, -13, -39]",273590,10.0,28204.0,mouselab-mdp,0
"[12418, 13490, 14038, 14570, 15088]","[u'up', u'up', u'up', u'right', u'up']",test,"[u'0', u'1', u'2', u'3', u'4', u'5']","{u'mouseover': {u'state': {u'target': [], u'time': []}, u'edge': {u'target': [], u'time': []}}, u'click': {u'state': {u'target': [u'32', u'33', u'27', u'29', u'28', u'31', u'22', u'21', u'20', u'17', u'16', u'18', u'6', u'5', u'7', u'9', u'10', u'11'], u'time': [992, 1432, 2514, 2884, 3404, 3890, 4920, 5390, 5764, 6220, 6638, 7588, 8492, 8964, 9642, 10234, 10948, 11330]}, u'edge': {u'target': [], u'time': []}}, u'mouseout': {u'state': {u'target': [], u'time': []}, u'edge': {u'target': [], u'time': []}}}","[-1, -1, 4, -6, 37]","[12406, 544, 26, 10, 8]",15.0,"[None, None, None, None, None]","[u'', -1, -1, 4, -6, 37, 17, -50, 1, -47, 30, -54, -2, -2, -3, 11, -1, 9, 34, -6, -19, -27, 25, 2, 1, -2, -4, -36, 23, -34, -2, -37, -61, -81]",291296,11.0,16366.0,mouselab-mdp,0
"[10208, 11264, 11890, 12480, 13080]","[u'right', u'right', u'right', u'down', u'right']",test,"[u'0', u'12', u'13', u'14', u'19', u'20']","{u'mouseover': {u'state': {u'target': [], u'time': []}, u'edge': {u'target': [], u'time': []}}, u'click': {u'state': {u'target': [u'31', u'33', u'32', u'29', u'28', u'27', u'10', u'11', u'9', u'22', u'21', u'17', u'20', u'18', u'16'], u'time': [1188, 2054, 2530, 3162, 3534, 3912, 4742, 5024, 5366, 6750, 7052, 7858, 8228, 8958, 9298]}, u'edge': {u'target': [], u'time': []}}, u'mouseout': {u'state': {u'target': [], u'time': []}, u'edge': {u'target': [], u'time': []}}}","[-1, 1, -3, 3, 44]","[10198, 534, 92, 68, 68]",29.0,"[None, None, None, None, None]","[u'', 1, -3, 4, 10, -9, 11, -18, 2, 5, -12, -1, -1, 1, -3, 3, 9, -25, -13, 3, 44, -20, -4, 0, -4, -1, 6, 25, -15, 17, -2, 11, 30, -21]",306896,12.0,14284.0,mouselab-mdp,0
"[4372, 4918, 5480, 6016, 6544]","[u'left', u'left', u'left', u'up', u'up']",test,"[u'0', u'23', u'24', u'25', u'26', u'27']","{u'mouseover': {u'state': {u'target': [], u'time': []}, u'edge': {u'target': [], u'time': []}}, u'click': {u'state': {u'target': [u'32', u'33', u'31', u'28', u'27', u'29'], u'time': [800, 1520, 1940, 2642, 3200, 3612]}, u'edge': {u'target': [], u'time': []}}, u'mouseout': {u'state': {u'target': [], u'time': []}, u'edge': {u'target': [], u'time': []}}}","[0, 1, 2, -7, 69]","[4362, 30, 42, 10, 20]",59.0,"[None, None, None, None, None]","[u'', 1, 3, -2, 6, -40, -18, 10, 17, 24, 9, -5, -1, 1, -1, 2, -28, 4, -49, 4, 42, 29, 68, 0, 1, 2, -7, 69, 32, -8, -7, 19, 27, 4]",359148,13.0,50964.0,mouselab-mdp,0
"[10428, 10974, 12046, 12938, 13566]","[u'right', u'right', u'right', u'down', u'right']",test,"[u'0', u'12', u'13', u'14', u'19', u'20']","{u'mouseover': {u'state': {u'target': [], u'time': []}, u'edge': {u'target': [], u'time': []}}, u'click': {u'state': {u'target': [u'32', u'33', u'31', u'28', u'27', u'29', u'10', u'11', u'9', u'7', u'6', u'5', u'18', u'16', u'17', u'21', u'20', u'22'], u'time': [828, 1208, 1664, 2126, 2476, 3168, 3742, 4068, 4406, 5638, 5942, 6258, 6828, 7134, 7532, 8600, 8968, 9396]}, u'edge': {u'target': [], u'time': []}}, u'mouseout': {u'state': {u'target': [], u'time': []}, u'edge': {u'target': [], u'time': []}}}","[0, -3, 1, 8, 45]","[10420, 18, 538, 368, 94]",33.0,"[None, None, None, None, None]","[u'', -1, -2, 1, 3, 10, -18, -26, 1, -13, 33, 37, 0, -3, 1, -5, 26, 22, -34, 8, 45, 12, 20, -1, -2, 5, 2, -3, -2, 24, -2, -16, -10, -5]",375212,14.0,14726.0,mouselab-mdp,0
"[6802, 8190, 8824, 9450, 10070]","[u'right', u'right', u'right', u'up', u'left']",test,"[u'0', u'12', u'13', u'14', u'15', u'18']","{u'mouseover': {u'state': {u'target': [], u'time': []}, u'edge': {u'target': [], u'time': []}}, u'click': {u'state': {u'target': [u'21', u'22', u'20', u'32', u'33', u'28', u'31', u'27', u'29', u'18', u'16'], u'time': [728, 1146, 1556, 2208, 2564, 3462, 3852, 4482, 4820, 5578, 6044]}, u'edge': {u'target': [], u'time': []}}, u'mouseout': {u'state': {u'target': [], u'time': []}, u'edge': {u'target': [], u'time': []}}}","[0, 0, 3, 4, 100]","[6794, 864, 114, 94, 92]",96.0,"[None, None, None, None, None]","[u'', 0, -1, -5, 5, -19, 34, -1, 0, -35, -32, 18, 0, 0, 3, 4, -11, 93, 100, 4, -46, -29, 19, -1, 0, -8, 3, 39, -39, -11, -3, -80, -15, -18]",387612,15.0,11080.0,mouselab-mdp,0
"[13566, 14430, 15042, 16198, 16844]","[u'up', u'up', u'up', u'right', u'down']",test,"[u'0', u'1', u'2', u'3', u'4', u'7']","{u'mouseover': {u'state': {u'target': [], u'time': []}, u'edge': {u'target': [], u'time': []}}, u'click': {u'state': {u'target': [u'27', u'29', u'33', u'32', u'31', u'28', u'11', u'21', u'10', u'9', u'5', u'7', u'6', u'18', u'16', u'17', u'22', u'20'], u'time': [600, 1430, 1886, 2382, 2762, 3208, 3758, 4658, 5698, 6102, 7398, 7840, 8250, 10292, 10620, 10996, 12514, 12902]}, u'edge': {u'target': [], u'time': []}}, u'mouseout': {u'state': {u'target': [], u'time': []}, u'edge': {u'target': [], u'time': []}}}","[2, -1, -2, -9, 56]","[13556, 344, 86, 626, 120]",28.0,"[None, None, None, None, None]","[u'', 2, -1, -2, -9, 28, -74, 56, -6, 10, -8, 47, -2, -1, -2, 9, -35, -6, -28, 0, 19, -35, 37, 1, 1, 4, -5, -4, -30, -9, 4, -22, -13, -22]",406680,16.0,17758.0,mouselab-mdp,0
"[3966, 4902, 5446, 6426, 6992]","[u'right', u'right', u'right', u'down', u'left']",test,"[u'0', u'12', u'13', u'14', u'19', u'22']","{u'mouseover': {u'state': {u'target': [], u'time': []}, u'edge': {u'target': [], u'time': []}}, u'click': {u'state': {u'target': [u'31', u'33', u'32', u'22', u'21', u'20'], u'time': [554, 1232, 1672, 2392, 2750, 3106]}, u'edge': {u'target': [], u'time': []}}, u'mouseout': {u'state': {u'target': [], u'time': []}, u'edge': {u'target': [], u'time': []}}}","[-1, 1, -1, -1, 51]","[3956, 414, 26, 450, 34]",43.0,"[None, None, None, None, None]","[u'', 0, 1, -1, 12, -67, -17, -10, -12, -25, -70, 6, -1, 1, -1, -7, -50, -22, 10, -1, 21, -25, 51, 0, -2, 5, 11, -3, -15, 29, -7, 30, -44, -3]",418032,17.0,10032.0,mouselab-mdp,0
"[27460, 28246, 28962, 29512, 30092]","[u'up', u'up', u'up', u'left', u'up']",test,"[u'0', u'1', u'2', u'3', u'8', u'9']","{u'mouseover': {u'state': {u'target': [], u'time': []}, u'edge': {u'target': [], u'time': []}}, u'click': {u'state': {u'target': [u'22', u'21', u'20', u'17', u'16', u'18', u'31', u'32', u'33', u'29', u'28', u'27', u'11', u'10', u'9', u'7', u'5', u'6'], u'time': [18104, 18494, 18850, 19526, 19876, 20406, 21218, 21614, 21952, 22372, 23216, 23480, 23948, 24288, 24682, 25814, 26306, 26702]}, u'edge': {u'target': [], u'time': []}}, u'mouseout': {u'state': {u'target': [], u'time': []}, u'edge': {u'target': [], u'time': []}}}","[0, -2, 2, -5, 65]","[27452, 248, 182, 18, 48]",42.0,"[None, None, None, None, None]","[u'', 0, -2, 2, -2, -20, -29, -2, -5, 65, 51, -9, 1, 2, -1, 15, 30, -3, -58, -8, 10, -14, -1, -1, 0, -2, -12, -11, -18, -50, 11, -2, -10, 24]",450340,18.0,30994.0,mouselab-mdp,0
"[7478, 8298, 8842, 9360, 9910]","[u'right', u'right', u'right', u'up', u'up']",test,"[u'0', u'12', u'13', u'14', u'15', u'16']","{u'mouseover': {u'state': {u'target': [], u'time': []}, u'edge': {u'target': [], u'time': []}}, u'click': {u'state': {u'target': [u'32', u'33', u'29', u'27', u'11', u'9', u'5', u'6', u'16', u'17', u'20', u'21'], u'time': [734, 1210, 1756, 2088, 2552, 3522, 4316, 4660, 5230, 5652, 6180, 6660]}, u'edge': {u'target': [], u'time': []}}, u'mouseout': {u'state': {u'target': [], u'time': []}, u'edge': {u'target': [], u'time': []}}}","[0, 0, -1, -6, 59]","[7468, 298, 8, 10, 26]",40.0,"[None, None, None, None, None]","[u'', 0, 0, 4, -10, 35, -22, 23, -3, 26, 25, -47, 0, 0, -1, -6, 59, 7, 50, -5, -34, 4, -18, 2, 0, 5, -2, -10, -1, 11, 7, -4, -22, -34]",462802,19.0,11094.0,mouselab-mdp,0
"[9220, 12546, 14482, 19954, 22130]","[u'left', u'left', u'left', u'up', u'up']",test,"[u'0', u'23', u'24', u'25', u'26', u'27']","{u'mouseover': {u'state': {u'target': [], u'time': []}, u'edge': {u'target': [], u'time': []}}, u'click': {u'state': {u'target': [u'1', u'23', u'12'], u'time': [2630, 4851, 6834]}, u'edge': {u'target': [], u'time': []}}, u'mouseout': {u'state': {u'target': [], u'time': []}, u'edge': {u'target': [], u'time': []}}}","[1, 0, 0, -2, -8]","[9210, 2800, 1421, 4959, 1652]",-12.0,"[None, None, None, None, None]","[u'', -1, 4, 3, -5, 1, 10, -3, -8, 46, -38, 28, 0, -2, -1, -15, 9, 23, -17, 2, -80, -17, -43, 1, 0, 0, -2, -8, 25, -33, 7, 22, 33, -11]",74804,0.0,26017.0,mouselab-mdp,1
"[906, 9097, 10169, 11298, 12241]","[u'up', u'up', u'up', u'right', u'right']",test,"[u'0', u'1', u'2', u'3', u'4', u'6']","{u'mouseover': {u'state': {u'target': [], u'time': []}, u'edge': {u'target': [], u'time': []}}, u'click': {u'state': {u'target': [], u'time': []}, u'edge': {u'target': [], u'time': []}}, u'mouseout': {u'state': {u'target': [], u'time': []}, u'edge': {u'target': [], u'time': []}}}","[2, -1, -5, -5, -15]","[895, 7671, 555, 620, 436]",-24.0,"[None, None, None, None, None]","[u'', 2, -1, -5, -5, -27, -15, 26, -15, -65, 62, -26, 1, -4, 3, -11, -32, -45, 17, -8, -32, 22, 50, 0, 1, 3, 13, -8, -31, 59, 11, -39, 26, 13]",90195,1.0,14185.0,mouselab-mdp,1
"[11718, 12494, 13366, 14687, 16830]","[u'right', u'right', u'right', u'down', u'down']",test,"[u'0', u'12', u'13', u'14', u'19', u'21']","{u'mouseover': {u'state': {u'target': [], u'time': []}, u'edge': {u'target': [], u'time': []}}, u'click': {u'state': {u'target': [u'30', u'26', u'8', u'4', u'15', u'19'], u'time': [4614, 5676, 6367, 7130, 8763, 9363]}, u'edge': {u'target': [], u'time': []}}, u'mouseout': {u'state': {u'target': [], u'time': []}, u'edge': {u'target': [], u'time': []}}}","[1, 1, -1, 7, -14]","[11707, 272, 360, 817, 1628]",-12.0,"[None, None, None, None, None]","[u'', -1, 4, -2, 3, -37, 49, -18, -21, 87, -35, 42, 1, 1, -1, 2, 39, -10, 8, 7, 3, -14, 46, 0, 0, -3, -8, 29, 30, -69, -5, 31, 78, 69]",110956,2.0,19558.0,mouselab-mdp,1
"[8345, 9080, 9889, 10865, 15754]","[u'left', u'left', u'left', u'up', u'right']",test,"[u'0', u'23', u'24', u'25', u'26', u'28']","{u'mouseover': {u'state': {u'target': [], u'time': []}, u'edge': {u'target': [], u'time': []}}, u'click': {u'state': {u'target': [u'19', u'15', u'3', u'4', u'8', u'25', u'26', u'30'], u'time': [1669, 2252, 3653, 4102, 4637, 5468, 5845, 6332]}, u'edge': {u'target': [], u'time': []}}, u'mouseout': {u'state': {u'target': [], u'time': []}, u'edge': {u'target': [], u'time': []}}}","[-1, 0, 3, 9, 4]","[8331, 212, 286, 464, 4386]",7.0,"[None, None, None, None, None]","[u'', 0, 1, -2, 6, -2, -22, 3, -12, -59, 11, -57, -1, 2, 1, -7, 0, -46, -36, -1, 19, -1, -3, -1, 0, 3, 9, 11, 4, 11, 4, -15, -12, -21]",131803,3.0,19640.0,mouselab-mdp,1
"[6103, 6854, 7623, 8446, 10854]","[u'up', u'up', u'up', u'left', u'down']",test,"[u'0', u'1', u'2', u'3', u'8', u'10']","{u'mouseover': {u'state': {u'target': [], u'time': []}, u'edge': {u'target': [], u'time': []}}, u'click': {u'state': {u'target': [u'19', u'15', u'30', u'26', u'8', u'4'], u'time': [1818, 2338, 3186, 3834, 4490, 5003]}, u'edge': {u'target': [], u'time': []}}, u'mouseout': {u'state': {u'target': [], u'time': []}, u'edge': {u'target': [], u'time': []}}}","[1, 3, 9, 7, -65]","[6093, 234, 236, 293, 1885]",-51.0,"[None, None, None, None, None]","[u'', 1, 3, 9, -11, -46, -16, 5, 7, 10, -65, -10, 1, 0, 3, -2, -6, 6, 13, 2, 4, -21, 12, 0, 2, 5, 1, -12, -20, 14, 1, -11, 1, -20]",146243,4.0,13238.0,mouselab-mdp,1
"[7417, 8049, 8793, 9498, 13002]","[u'up', u'up', u'up', u'right', u'right']",test,"[u'0', u'1', u'2', u'3', u'4', u'6']","{u'mouseover': {u'state': {u'target': [], u'time': []}, u'edge': {u'target': [], u'time': []}}, u'click': {u'state': {u'target': [u'26', u'30', u'8', u'4'], u'time': [3774, 4486, 5405, 5949]}, u'edge': {u'target': [], u'time': []}}, u'mouseout': {u'state': {u'target': [], u'time': []}, u'edge': {u'target': [], u'time': []}}}","[1, 4, -1, 10, -16]","[7407, 129, 223, 177, 2996]",-6.0,"[None, None, None, None, None]","[u'', 1, 4, -1, 10, -14, -16, 14, -9, -42, 31, -63, 0, -1, -1, -11, -65, -21, -37, -3, 3, -24, -34, 0, -2, -4, -2, 9, 67, 52, -10, -42, 2, 18]",162460,5.0,15026.0,mouselab-mdp,1
"[1590, 2454, 3198, 4229, 5069]","[u'up', u'up', u'up', u'left', u'down']",test,"[u'0', u'1', u'2', u'3', u'8', u'10']","{u'mouseover': {u'state': {u'target': [], u'time': []}, u'edge': {u'target': [], u'time': []}}, u'click': {u'state': {u'target': [], u'time': []}, u'edge': {u'target': [], u'time': []}}, u'mouseout': {u'state': {u'target': [], u'time': []}, u'edge': {u'target': [], u'time': []}}}","[1, -2, -6, -6, -1]","[1581, 340, 236, 516, 341]",-14.0,"[None, None, None, None, None]","[u'', 1, -2, -6, 10, 10, -20, -34, -6, 39, -1, -45, 1, 1, -1, 5, -26, 31, -46, -7, -44, -13, -24, 0, 0, 2, 1, 8, 51, -9, -12, 30, 59, 6]",172708,6.0,9070.0,mouselab-mdp,1
"[481, 1138, 1905, 2746, 3362]","[u'right', u'right', u'right', u'up', u'left']",test,"[u'0', u'12', u'13', u'14', u'15', u'18']","{u'mouseover': {u'state': {u'target': [], u'time': []}, u'edge': {u'target': [], u'time': []}}, u'click': {u'state': {u'target': [], u'time': []}, u'edge': {u'target': [], u'time': []}}, u'mouseout': {u'state': {u'target': [], u'time': []}, u'edge': {u'target': [], u'time': []}}}","[0, 6, -4, 1, -21]","[473, 129, 246, 319, 103]",-18.0,"[None, None, None, None, None]","[u'', 0, -3, 1, -2, -24, 51, 2, 0, -8, -13, 6, 0, 6, -4, 1, -15, -22, -21, 0, 30, 38, 22, 0, 4, 7, 14, -15, 20, 23, 5, 18, 18, -10]",185052,7.0,11146.0,mouselab-mdp,1
"[478, 1389, 2117, 2942, 3613]","[u'left', u'left', u'left', u'down', u'right']",test,"[u'0', u'23', u'24', u'25', u'30', u'31']","{u'mouseover': {u'state': {u'target': [], u'time': []}, u'edge': {u'target': [], u'time': []}}, u'click': {u'state': {u'target': [], u'time': []}, u'edge': {u'target': [], u'time': []}}, u'mouseout': {u'state': {u'target': [], u'time': []}, u'edge': {u'target': [], u'time': []}}}","[0, 0, 0, 1, 3]","[470, 380, 226, 300, 155]",4.0,"[None, None, None, None, None]","[u'', 0, 0, 4, 4, -39, 45, 32, 1, 5, 43, 53, 1, -2, 0, 7, -27, -39, 0, 1, 12, 39, -70, 0, 0, 0, 1, 33, 18, -1, 1, 3, -4, 42]",196652,8.0,10398.0,mouselab-mdp,1
"[2720, 3464, 4120, 4960, 5688]","[u'up', u'up', u'up', u'right', u'down']",test,"[u'0', u'1', u'2', u'3', u'4', u'7']","{u'mouseover': {u'state': {u'target': [], u'time': []}, u'edge': {u'target': [], u'time': []}}, u'click': {u'state': {u'target': [], u'time': []}, u'edge': {u'target': [], u'time': []}}, u'mouseout': {u'state': {u'target': [], u'time': []}, u'edge': {u'target': [], u'time': []}}}","[-2, -3, 2, -4, -63]","[2710, 231, 135, 327, 204]",-70.0,"[None, None, None, None, None]","[u'', -2, -3, 2, -4, -10, -1, -63, 1, 0, -1, 11, -2, 4, -1, -11, 4, -41, 2, 4, -42, 27, 4, 0, 1, 2, 9, 28, 16, -24, 2, -18, -46, -1]",207963,9.0,10112.0,mouselab-mdp,1
"[675, 1451, 2139, 3811, 4443]","[u'right', u'right', u'right', u'up', u'up']",test,"[u'0', u'12', u'13', u'14', u'15', u'16']","{u'mouseover': {u'state': {u'target': [], u'time': []}, u'edge': {u'target': [], u'time': []}}, u'click': {u'state': {u'target': [], u'time': []}, u'edge': {u'target': [], u'time': []}}, u'mouseout': {u'state': {u'target': [], u'time': []}, u'edge': {u'target': [], u'time': []}}}","[1, 0, 3, 17, 64]","[668, 277, 167, 1156, 123]",85.0,"[None, None, None, None, None]","[u'', 1, -1, 1, 5, 12, -17, 52, 1, 30, 13, 28, 1, 0, 3, 17, 64, 24, 54, -10, 47, 2, -57, 0, 2, -3, 15, 43, -41, 32, 1, -18, -10, -14]",218484,10.0,9324.0,mouselab-mdp,1
"[663, 1318, 2046, 3406, 4078]","[u'left', u'left', u'left', u'up', u'left']",test,"[u'0', u'23', u'24', u'25', u'26', u'29']","{u'mouseover': {u'state': {u'target': [], u'time': []}, u'edge': {u'target': [], u'time': []}}, u'click': {u'state': {u'target': [], u'time': []}, u'edge': {u'target': [], u'time': []}}, u'mouseout': {u'state': {u'target': [], u'time': []}, u'edge': {u'target': [], u'time': []}}}","[2, 1, -2, -4, -34]","[657, 139, 218, 845, 151]",-37.0,"[None, None, None, None, None]","[u'', -1, -1, 4, -6, 37, 17, -50, 1, -47, 30, -54, -2, -2, -3, 11, -1, 9, 34, -6, -19, -27, 25, 2, 1, -2, -4, -36, 23, -34, -2, -37, -61, -81]",227997,11.0,8311.0,mouselab-mdp,1
"[1024, 1632, 2296, 2960, 5231]","[u'up', u'up', u'up', u'left', u'up']",test,"[u'0', u'1', u'2', u'3', u'8', u'9']","{u'mouseover': {u'state': {u'target': [], u'time': []}, u'edge': {u'target': [], u'time': []}}, u'click': {u'state': {u'target': [], u'time': []}, u'edge': {u'target': [], u'time': []}}, u'mouseout': {u'state': {u'target': [], u'time': []}, u'edge': {u'target': [], u'time': []}}}","[0, 2, 1, 12, 24]","[1017, 91, 156, 153, 1757]",39.0,"[None, None, None, None, None]","[u'', 0, 2, 1, 2, 9, -23, 27, 12, 24, 28, -28, -1, -3, 5, -2, 45, -25, -14, 1, 29, 2, 7, 0, 0, -4, 1, -6, -2, 16, -5, -3, -10, 13]",239972,12.0,10752.0,mouselab-mdp,1
"[4679, 5367, 6103, 6822, 7935]","[u'up', u'up', u'up', u'left', u'up']",test,"[u'0', u'1', u'2', u'3', u'8', u'9']","{u'mouseover': {u'state': {u'target': [], u'time': []}, u'edge': {u'target': [], u'time': []}}, u'click': {u'state': {u'target': [], u'time': []}, u'edge': {u'target': [], u'time': []}}, u'mouseout': {u'state': {u'target': [], u'time': []}, u'edge': {u'target': [], u'time': []}}}","[1, 2, 2, 16, -53]","[4671, 171, 209, 198, 593]",-32.0,"[None, None, None, None, None]","[u'', 1, 2, 2, 9, -14, -2, 43, 16, -53, 30, -40, 0, -1, 1, -2, 13, 21, -11, 5, -9, 22, 38, 0, 0, -7, -6, -20, -5, -45, -10, -2, 7, 32]",252188,13.0,11007.0,mouselab-mdp,1
"[767, 1375, 2087, 2767, 4055]","[u'right', u'right', u'right', u'up', u'right']",test,"[u'0', u'12', u'13', u'14', u'15', u'17']","{u'mouseover': {u'state': {u'target': [], u'time': []}, u'edge': {u'target': [], u'time': []}}, u'click': {u'state': {u'target': [], u'time': []}, u'edge': {u'target': [], u'time': []}}, u'mouseout': {u'state': {u'target': [], u'time': []}, u'edge': {u'target': [], u'time': []}}}","[0, 4, -2, 0, -1]","[759, 84, 196, 160, 765]",1.0,"[None, None, None, None, None]","[u'', 0, 0, -2, -4, 64, 0, 55, -8, 24, 0, 54, 0, 4, -2, 0, -37, -1, -7, -9, -59, 29, 16, -1, 0, -3, -1, 8, 11, -16, -2, 17, -21, -18]",262733,14.0,9336.0,mouselab-mdp,1
"[802, 1409, 2073, 2818, 3777]","[u'left', u'left', u'left', u'down', u'left']",test,"[u'0', u'23', u'24', u'25', u'30', u'33']","{u'mouseover': {u'state': {u'target': [], u'time': []}, u'edge': {u'target': [], u'time': []}}, u'click': {u'state': {u'target': [], u'time': []}, u'edge': {u'target': [], u'time': []}}, u'mouseout': {u'state': {u'target': [], u'time': []}, u'edge': {u'target': [], u'time': []}}}","[-2, 1, 5, -16, 52]","[794, 113, 143, 222, 447]",40.0,"[None, None, None, None, None]","[u'', 0, 1, 6, 0, 65, -20, -17, 3, -11, 38, -21, 1, 0, 10, -4, -6, 5, -70, 5, 15, 3, -49, -2, 1, 5, 13, -29, -33, -9, -16, -19, 27, 52]",275227,15.0,11289.0,mouselab-mdp,1
"[18298, 18994, 19786, 20442, 21266]","[u'up', u'up', u'up', u'right', u'right']",test,"[u'0', u'1', u'2', u'3', u'4', u'6']","{u'mouseover': {u'state': {u'target': [], u'time': []}, u'edge': {u'target': [], u'time': []}}, u'click': {u'state': {u'target': [u'32', u'21', u'17', u'16', u'18', u'22', u'20', u'29', u'27', u'28', u'31', u'33', u'11', u'9', u'10', u'7', u'5', u'6'], u'time': [3759, 4879, 5746, 6359, 7055, 8086, 8719, 9806, 10446, 10926, 11663, 12254, 13119, 14151, 14815, 15599, 16126, 16847]}, u'edge': {u'target': [], u'time': []}}, u'mouseout': {u'state': {u'target': [], u'time': []}, u'edge': {u'target': [], u'time': []}}}","[1, 1, 0, -1, 56]","[18291, 175, 266, 139, 314]",39.0,"[None, None, None, None, None]","[u'', 1, 1, 0, -1, 14, 56, 28, -4, 25, -4, -6, 2, -1, -2, -16, -45, 14, -22, 4, -36, -25, 22, 1, 1, 5, 14, 33, -29, -3, 5, -13, 14, -51]",299587,16.0,23145.0,mouselab-mdp,1
"[12381, 13036, 13796, 14548, 15340]","[u'left', u'left', u'left', u'up', u'left']",test,"[u'0', u'23', u'24', u'25', u'26', u'29']","{u'mouseover': {u'state': {u'target': [], u'time': []}, u'edge': {u'target': [], u'time': []}}, u'click': {u'state': {u'target': [u'11', u'9', u'10', u'7', u'6', u'5', u'16', u'17', u'18', u'22', u'21', u'20', u'32', u'31', u'33', u'29', u'27', u'28'], u'time': [962, 1512, 2017, 2760, 3209, 3800, 4456, 4929, 5369, 6337, 6769, 7129, 7792, 8305, 8841, 9801, 10754, 11250]}, u'edge': {u'target': [], u'time': []}}, u'mouseout': {u'state': {u'target': [], u'time': []}, u'edge': {u'target': [], u'time': []}}}","[-1, 6, 10, 6, 76]","[12374, 136, 248, 232, 275]",79.0,"[None, None, None, None, None]","[u'', 1, -1, -2, 1, -25, 64, 5, 6, -41, -56, 22, 1, -2, -2, -5, 7, 30, -49, 4, -28, -17, -5, -1, 6, 10, 6, 21, -33, 76, 0, -4, 39, 8]",317676,17.0,16901.0,mouselab-mdp,1
"[12580, 13300, 14012, 14628, 15396]","[u'right', u'right', u'right', u'down', u'down']",test,"[u'0', u'12', u'13', u'14', u'19', u'21']","{u'mouseover': {u'state': {u'target': [], u'time': []}, u'edge': {u'target': [], u'time': []}}, u'click': {u'state': {u'target': [u'10', u'11', u'9', u'5', u'6', u'7', u'16', u'17', u'18', u'22', u'21', u'20', u'29', u'27', u'28', u'31', u'32', u'33'], u'time': [1104, 1536, 2048, 2562, 3063, 3512, 4073, 4464, 5764, 6328, 6720, 7152, 8217, 8825, 9496, 10225, 10729, 11178]}, u'edge': {u'target': [], u'time': []}}, u'mouseout': {u'state': {u'target': [], u'time': []}, u'edge': {u'target': [], u'time': []}}}","[-1, -3, 2, 7, 74]","[12573, 201, 197, 97, 248]",61.0,"[None, None, None, None, None]","[u'', 1, 1, -1, 6, -26, 7, 57, 12, -10, 31, -12, -1, -3, 2, 2, 32, 26, -10, 7, 60, 74, 25, 0, 1, 0, -5, 50, 24, 5, 12, 27, -40, 40]",336099,18.0,17228.0,mouselab-mdp,1
"[13522, 14138, 14896, 15585, 16297]","[u'right', u'right', u'right', u'up', u'up']",test,"[u'0', u'12', u'13', u'14', u'15', u'16']","{u'mouseover': {u'state': {u'target': [], u'time': []}, u'edge': {u'target': [], u'time': []}}, u'click': {u'state': {u'target': [u'11', u'9', u'10', u'7', u'6', u'5', u'16', u'18', u'17', u'20', u'21', u'22', u'32', u'31', u'33', u'29', u'27', u'28'], u'time': [833, 1741, 2181, 3061, 3693, 4077, 4685, 5080, 5597, 6165, 6670, 7214, 7870, 8662, 9462, 9968, 10427, 11032]}, u'edge': {u'target': [], u'time': []}}, u'mouseout': {u'state': {u'target': [], u'time': []}, u'edge': {u'target': [], u'time': []}}}","[1, 1, 0, -7, 62]","[13503, 96, 240, 163, 190]",39.0,"[None, None, None, None, None]","[u'', 0, -6, 2, -12, 19, -31, -47, 4, -48, -14, 7, 1, 1, 0, -7, 62, -19, 58, -4, 37, 34, -33, 0, 2, 3, -2, 10, -13, -37, 8, -18, 44, 19]",355140,19.0,17849.0,mouselab-mdp,1
"[18009, 19215, 20133, 21017, 21915]","[u'up', u'up', u'up', u'left', u'up']",test,"[u'0', u'1', u'2', u'3', u'8', u'9']","{u'mouseover': {u'state': {u'target': [], u'time': []}, u'edge': {u'target': [], u'time': []}}, u'click': {u'state': {u'target': [u'29', u'28', u'22', u'31', u'7', u'10', u'9'], u'time': [6830, 8249, 11295, 12870, 13945, 14720, 15126]}, u'edge': {u'target': [], u'time': []}}, u'mouseout': {u'state': {u'target': [], u'time': []}, u'edge': {u'target': [], u'time': []}}}","[-1, 4, 3, -8, 46]","[18004, 702, 418, 385, 395]",37.0,"[None, None, None, None, None]","[u'', -1, 4, 3, -5, 1, 10, -3, -8, 46, -38, 28, 0, -2, -1, -15, 9, 23, -17, 2, -80, -17, -43, 1, 0, 0, -2, -8, 25, -33, 7, 22, 33, -11]",57588,0.0,23540.0,mouselab-mdp,2
"[5077, 5723, 6341, 6977, 7622]","[u'up', u'up', u'up', u'left', u'left']",test,"[u'0', u'1', u'2', u'3', u'8', u'11']","{u'mouseover': {u'state': {u'target': [], u'time': []}, u'edge': {u'target': [], u'time': []}}, u'click': {u'state': {u'target': [u'16', u'6', u'7', u'11'], u'time': [1185, 1991, 2481, 3265]}, u'edge': {u'target': [], u'time': []}}, u'mouseout': {u'state': {u'target': [], u'time': []}, u'edge': {u'target': [], u'time': []}}}","[0, 2, -7, -10, 47]","[5073, 149, 112, 138, 137]",28.0,"[None, None, None, None, None]","[u'', 0, 2, -7, 2, -4, 0, -28, -10, -15, -8, 47, 0, 0, 3, -13, 23, 29, 29, -3, -40, -32, 8, 1, 3, 6, 7, 1, 8, -8, 8, 19, 7, -40]",69075,1.0,10366.0,mouselab-mdp,2
"[4350, 4982, 5615, 6328, 7067]","[u'left', u'left', u'left', u'up', u'right']",test,"[u'0', u'23', u'24', u'25', u'26', u'28']","{u'mouseover': {u'state': {u'target': [], u'time': []}, u'edge': {u'target': [], u'time': []}}, u'click': {u'state': {u'target': [u'7', u'10', u'28', u'31'], u'time': [903, 1502, 2288, 3167]}, u'edge': {u'target': [], u'time': []}}, u'mouseout': {u'state': {u'target': [], u'time': []}, u'edge': {u'target': [], u'time': []}}}","[0, -3, 4, -12, 33]","[4347, 131, 128, 209, 240]",18.0,"[None, None, None, None, None]","[u'', 1, 3, 6, -6, -8, 12, -9, -3, 22, -11, -57, 0, -1, -3, -13, 32, -71, -54, -2, 39, 42, -37, 0, -3, 4, -12, -5, 33, -7, 12, -28, 12, 27]",79888,2.0,9695.0,mouselab-mdp,2
"[3674, 4276, 4959, 5694, 6467]","[u'up', u'up', u'up', u'right', u'down']",test,"[u'0', u'1', u'2', u'3', u'4', u'7']","{u'mouseover': {u'state': {u'target': [], u'time': []}, u'edge': {u'target': [], u'time': []}}, u'click': {u'state': {u'target': [u'7'], u'time': [1442]}, u'edge': {u'target': [], u'time': []}}, u'mouseout': {u'state': {u'target': [], u'time': []}, u'edge': {u'target': [], u'time': []}}}","[2, -1, -2, -9, 56]","[3670, 100, 180, 216, 270]",45.0,"[None, None, None, None, None]","[u'', 2, -1, -2, -9, 28, -74, 56, -6, 10, -8, 47, -2, -1, -2, 9, -35, -6, -28, 0, 19, -35, 37, 1, 1, 4, -5, -4, -30, -9, 4, -22, -13, -22]",91863,3.0,10859.0,mouselab-mdp,2
"[6051, 6601, 7121, 7665, 8240]","[u'up', u'up', u'up', u'left', u'down']",test,"[u'0', u'1', u'2', u'3', u'8', u'10']","{u'mouseover': {u'state': {u'target': [], u'time': []}, u'edge': {u'target': [], u'time': []}}, u'click': {u'state': {u'target': [u'29', u'32', u'28', u'10'], u'time': [1948, 2975, 3892, 4764]}, u'edge': {u'target': [], u'time': []}}, u'mouseout': {u'state': {u'target': [], u'time': []}, u'edge': {u'target': [], u'time': []}}}","[-1, 0, -2, 0, 55]","[6048, 49, 16, 45, 72]",48.0,"[None, None, None, None, None]","[u'', -1, 0, -2, 1, 18, 17, 42, 0, 31, 55, -39, 1, -2, -6, 13, 36, 17, -15, 12, -44, 2, 16, 1, -3, -12, 1, 10, 6, -28, 0, -49, 13, 29]",102743,4.0,9766.0,mouselab-mdp,2
"[3081, 3589, 4727, 5560, 6161]","[u'up', u'up', u'up', u'left', u'up']",test,"[u'0', u'1', u'2', u'3', u'8', u'9']","{u'mouseover': {u'state': {u'target': [], u'time': []}, u'edge': {u'target': [], u'time': []}}, u'click': {u'state': {u'target': [u'7', u'9'], u'time': [647, 1430]}, u'edge': {u'target': [], u'time': []}}, u'mouseout': {u'state': {u'target': [], u'time': []}, u'edge': {u'target': [], u'time': []}}}","[-1, 0, -1, 2, 66]","[3076, 5, 629, 330, 97]",64.0,"[None, None, None, None, None]","[u'', -1, 0, -1, -2, -34, -30, -34, 2, 66, -4, -44, 1, -2, 2, -4, 3, 110, -24, -5, 12, -1, -13, -1, 1, 4, -8, -36, 59, -46, 6, 14, -35, 24]",116546,5.0,12679.0,mouselab-mdp,2
"[5701, 6248, 6766, 7330, 7885]","[u'left', u'left', u'left', u'down', u'left']",test,"[u'0', u'23', u'24', u'25', u'30', u'33']","{u'mouseover': {u'state': {u'target': [], u'time': []}, u'edge': {u'target': [], u'time': []}}, u'click': {u'state': {u'target': [u'7', u'27', u'28', u'31', u'32', u'33'], u'time': [922, 1999, 2657, 3160, 3625, 4492]}, u'edge': {u'target': [], u'time': []}}, u'mouseout': {u'state': {u'target': [], u'time': []}, u'edge': {u'target': [], u'time': []}}}","[0, 2, 0, -5, 55]","[5698, 44, 8, 58, 50]",46.0,"[None, None, None, None, None]","[u'', 0, 3, 2, -13, 127, 21, 3, -11, 3, -15, 21, 0, 4, 1, 4, 12, -5, -6, 9, 25, -20, -36, 0, 2, 0, 14, -25, 5, -81, -5, -10, 16, 55]",129000,6.0,11328.0,mouselab-mdp,2
"[17151, 17664, 18170, 18709, 19304]","[u'up', u'up', u'up', u'right', u'right']",test,"[u'0', u'1', u'2', u'3', u'4', u'6']","{u'mouseover': {u'state': {u'target': [], u'time': []}, u'edge': {u'target': [], u'time': []}}, u'click': {u'state': {u'target': [u'28', u'7', u'9', u'10', u'16', u'17', u'18', u'20', u'22', u'21', u'32', u'31', u'33', u'29', u'27', u'25', u'5', u'6', u'11'], u'time': [1579, 2231, 2937, 3993, 4607, 5121, 5657, 6870, 7279, 7780, 8569, 8974, 9385, 10511, 10860, 11369, 13557, 13930, 15373]}, u'edge': {u'target': [], u'time': []}}, u'mouseout': {u'state': {u'target': [], u'time': []}, u'edge': {u'target': [], u'time': []}}}","[1, 1, 0, -1, 56]","[17148, 9, 2, 26, 94]",38.0,"[None, None, None, None, None]","[u'', 1, 1, 0, -1, 14, 56, 28, -4, 25, -4, -6, 2, -1, -2, -16, -45, 14, -22, 4, -36, -25, 22, 1, 1, 5, 14, 33, -29, -3, 5, -13, 14, -51]",151854,7.0,21772.0,mouselab-mdp,2
"[8812, 9727, 10377, 10979, 11664]","[u'right', u'right', u'right', u'down', u'down']",test,"[u'0', u'12', u'13', u'14', u'19', u'21']","{u'mouseover': {u'state': {u'target': [], u'time': []}, u'edge': {u'target': [], u'time': []}}, u'click': {u'state': {u'target': [u'7', u'10', u'28', u'27', u'29', u'31', u'22', u'18', u'16', u'17', u'20', u'21'], u'time': [1021, 1759, 2662, 3129, 3615, 4058, 4869, 5466, 6157, 6501, 7024, 7456]}, u'edge': {u'target': [], u'time': []}}, u'mouseout': {u'state': {u'target': [], u'time': []}, u'edge': {u'target': [], u'time': []}}}","[0, -3, -5, 8, 47]","[8809, 413, 147, 95, 183]",35.0,"[None, None, None, None, None]","[u'', 0, 2, 4, 7, -3, 37, -2, 4, 33, 26, 57, 0, -3, -5, 11, -11, 12, -27, 8, -12, 47, -17, 1, 1, -3, 9, -29, -26, 23, -5, -19, -11, -32]",166475,8.0,13510.0,mouselab-mdp,2
"[18385, 19351, 19918, 20521, 21170]","[u'right', u'right', u'right', u'up', u'right']",test,"[u'0', u'12', u'13', u'14', u'15', u'17']","{u'mouseover': {u'state': {u'target': [], u'time': []}, u'edge': {u'target': [], u'time': []}}, u'click': {u'state': {u'target': [u'7', u'28', u'27', u'31', u'33', u'32', u'11', u'5', u'6', u'9', u'16', u'17'], u'time': [1638, 2334, 3027, 10477, 12206, 12930, 13664, 14628, 15000, 15763, 16633, 16990]}, u'edge': {u'target': [], u'time': []}}, u'mouseout': {u'state': {u'target': [], u'time': []}, u'edge': {u'target': [], u'time': []}}}","[-1, 0, -3, -16, 50]","[18382, 466, 68, 102, 147]",18.0,"[None, None, None, None, None]","[u'', 0, 3, 2, 2, -5, 6, -8, -1, -21, 8, 0, -1, 0, -3, -16, 15, 50, 76, 12, -28, 38, 36, -2, 2, 3, 1, 9, 2, 52, -3, -6, 0, 9]",191689,9.0,24107.0,mouselab-mdp,2
"[6725, 7630, 8240, 8792, 9406]","[u'right', u'right', u'right', u'down', u'left']",test,"[u'0', u'12', u'13', u'14', u'19', u'22']","{u'mouseover': {u'state': {u'target': [], u'time': []}, u'edge': {u'target': [], u'time': []}}, u'click': {u'state': {u'target': [u'7', u'28', u'22', u'18', u'20', u'21'], u'time': [1537, 2546, 3738, 4714, 5233, 5729]}, u'edge': {u'target': [], u'time': []}}, u'mouseout': {u'state': {u'target': [], u'time': []}, u'edge': {u'target': [], u'time': []}}}","[-1, 1, -1, -3, 35]","[6722, 406, 105, 53, 111]",25.0,"[None, None, None, None, None]","[u'', -1, -1, 3, 11, 47, -18, -4, -7, 33, -53, -44, -1, 1, -1, 0, 2, 7, -33, -3, 18, 9, 35, -1, 2, 6, -1, 9, 7, 17, 3, 47, 16, 28]",203711,10.0,10921.0,mouselab-mdp,2
"[13973, 14510, 15035, 15535, 16065]","[u'right', u'right', u'right', u'down', u'down']",test,"[u'0', u'12', u'13', u'14', u'19', u'21']","{u'mouseover': {u'state': {u'target': [], u'time': []}, u'edge': {u'target': [], u'time': []}}, u'click': {u'state': {u'target': [u'18', u'20', u'31', u'29', u'11', u'7', u'5', u'9', u'10', u'6', u'28', u'27', u'33', u'32', u'22', u'21', u'17', u'16', u'14'], u'time': [1194, 3031, 3797, 4367, 5132, 5694, 6180, 6573, 6988, 7586, 8449, 8771, 9405, 9714, 10649, 11213, 11992, 12275, 12788]}, u'edge': {u'target': [], u'time': []}}, u'mouseout': {u'state': {u'target': [], u'time': []}, u'edge': {u'target': [], u'time': []}}}","[0, -4, 4, -4, 39]","[13969, 39, 22, 1, 17]",16.0,"[None, None, None, None, None]","[u'', -1, 1, 4, 5, -1, -27, 3, 3, -11, 19, 10, 0, -4, 4, 14, -13, -47, 20, -4, -31, 39, -44, 1, -2, 6, 4, -8, 5, 19, 7, 26, 17, -15]",223911,11.0,19117.0,mouselab-mdp,2
"[5675, 6187, 7085, 7736, 8452]","[u'right', u'right', u'right', u'up', u'up']",test,"[u'0', u'12', u'13', u'14', u'15', u'16']","{u'mouseover': {u'state': {u'target': [], u'time': []}, u'edge': {u'target': [], u'time': []}}, u'click': {u'state': {u'target': [u'5', u'28', u'31', u'32', u'18', u'16'], u'time': [1217, 2030, 2623, 3482, 4230, 4612]}, u'edge': {u'target': [], u'time': []}}, u'mouseout': {u'state': {u'target': [], u'time': []}, u'edge': {u'target': [], u'time': []}}}","[-1, -3, 5, -2, 45]","[5671, 9, 393, 148, 217]",38.0,"[None, None, None, None, None]","[u'', 0, 2, 1, 2, 9, -23, 27, 12, 24, 28, -28, -1, -3, 5, -2, 45, -25, -14, 1, 29, 2, 7, 0, 0, -4, 1, -6, -2, 16, -5, -3, -10, 13]",234695,12.0,9698.0,mouselab-mdp,2
"[5115, 5630, 6198, 6816, 7366]","[u'right', u'right', u'right', u'up', u'left']",test,"[u'0', u'12', u'13', u'14', u'15', u'18']","{u'mouseover': {u'state': {u'target': [], u'time': []}, u'edge': {u'target': [], u'time': []}}, u'click': {u'state': {u'target': [u'5', u'10', u'28', u'31', u'18'], u'time': [1010, 1666, 2978, 3507, 4169]}, u'edge': {u'target': [], u'time': []}}, u'mouseout': {u'state': {u'target': [], u'time': []}, u'edge': {u'target': [], u'time': []}}}","[1, -1, 3, -6, 53]","[5111, 16, 69, 111, 51]",45.0,"[None, None, None, None, None]","[u'', -3, 1, 3, -12, 3, 9, 11, -4, 3, 19, -57, 1, -1, 3, -6, -55, 38, 53, -15, -41, 3, -34, 1, -2, -2, 2, -70, -10, 64, 5, -32, 33, 66]",245289,13.0,9513.0,mouselab-mdp,2
"[4188, 5126, 5715, 6287, 6862]","[u'right', u'right', u'right', u'up', u'up']",test,"[u'0', u'12', u'13', u'14', u'15', u'16']","{u'mouseover': {u'state': {u'target': [], u'time': []}, u'edge': {u'target': [], u'time': []}}, u'click': {u'state': {u'target': [u'16', u'9'], u'time': [1428, 2416]}, u'edge': {u'target': [], u'time': []}}, u'mouseout': {u'state': {u'target': [], u'time': []}, u'edge': {u'target': [], u'time': []}}}","[0, 0, 2, 6, 48]","[4185, 434, 85, 74, 66]",54.0,"[None, None, None, None, None]","[u'', 0, 1, 2, 0, -19, 5, 18, 0, 4, -5, 29, 0, 0, 2, 6, 48, 22, 19, -12, 19, 73, -27, -1, 0, 4, 4, -15, -1, 33, 5, 78, 32, 11]",255629,14.0,9215.0,mouselab-mdp,2
"[9651, 10167, 10706, 11280, 11868]","[u'right', u'right', u'right', u'down', u'right']",test,"[u'0', u'12', u'13', u'14', u'19', u'20']","{u'mouseover': {u'state': {u'target': [], u'time': []}, u'edge': {u'target': [], u'time': []}}, u'click': {u'state': {u'target': [u'28', u'31', u'22', u'17', u'16', u'6', u'5', u'9', u'10', u'7', u'11', u'21', u'20'], u'time': [1192, 1798, 3130, 3717, 4407, 4905, 5436, 6291, 6638, 7117, 7585, 8300, 8676]}, u'edge': {u'target': [], u'time': []}}, u'mouseout': {u'state': {u'target': [], u'time': []}, u'edge': {u'target': [], u'time': []}}}","[-1, 1, -3, 3, 44]","[9647, 15, 34, 73, 78]",31.0,"[None, None, None, None, None]","[u'', 1, -3, 4, 10, -9, 11, -18, 2, 5, -12, -1, -1, 1, -3, 3, 9, -25, -13, 3, 44, -20, -4, 0, -4, -1, 6, 25, -15, 17, -2, 11, 30, -21]",273211,15.0,16485.0,mouselab-mdp,2
"[11978, 12889, 13452, 14028, 14626]","[u'left', u'left', u'left', u'up', u'up']",test,"[u'0', u'23', u'24', u'25', u'26', u'27']","{u'mouseover': {u'state': {u'target': [], u'time': []}, u'edge': {u'target': [], u'time': []}}, u'click': {u'state': {u'target': [u'18', u'6', u'9', u'27'], u'time': [8881, 9534, 10313, 11021]}, u'edge': {u'target': [], u'time': []}}, u'mouseout': {u'state': {u'target': [], u'time': []}, u'edge': {u'target': [], u'time': []}}}","[0, 1, 0, -5, 50]","[11975, 406, 59, 67, 95]",42.0,"[None, None, None, None, None]","[u'', 1, 1, -1, 6, -26, 7, 57, 12, -10, 31, -12, -1, -3, 2, 2, 32, 26, -10, 7, 60, 74, 25, 0, 1, 0, -5, 50, 24, 5, 12, 27, -40, 40]",293080,16.0,18762.0,mouselab-mdp,2
"[8478, 9087, 9637, 10260, 10889]","[u'left', u'left', u'left', u'up', u'up']",test,"[u'0', u'23', u'24', u'25', u'26', u'27']","{u'mouseover': {u'state': {u'target': [], u'time': []}, u'edge': {u'target': [], u'time': []}}, u'click': {u'state': {u'target': [u'5', u'7', u'16', u'17', u'18', u'22', u'21', u'20', u'28', u'27', u'29', u'31', u'33', u'32'], u'time': [974, 1822, 2381, 2781, 3469, 3949, 4312, 4652, 5389, 5772, 6201, 6912, 7476, 7741]}, u'edge': {u'target': [], u'time': []}}, u'mouseout': {u'state': {u'target': [], u'time': []}, u'edge': {u'target': [], u'time': []}}}","[0, 3, 4, 13, 39]","[8475, 97, 45, 113, 130]",45.0,"[None, None, None, None, None]","[u'', 0, 1, -6, -9, 23, -1, -7, -1, 16, -19, 16, -1, -1, 4, 9, -35, 27, -33, 6, -61, -36, -16, 0, 3, 4, 13, 39, -9, -9, 9, 1, -5, -43]",306611,17.0,12450.0,mouselab-mdp,2
"[3058, 3575, 4517, 5103, 5778]","[u'right', u'right', u'right', u'up', u'left']",test,"[u'0', u'12', u'13', u'14', u'15', u'18']","{u'mouseover': {u'state': {u'target': [], u'time': []}, u'edge': {u'target': [], u'time': []}}, u'click': {u'state': {u'target': [u'28', u'18'], u'time': [1192, 2129]}, u'edge': {u'target': [], u'time': []}}, u'mouseout': {u'state': {u'target': [], u'time': []}, u'edge': {u'target': [], u'time': []}}}","[1, 1, 0, -7, 58]","[3054, 14, 441, 84, 175]",51.0,"[None, None, None, None, None]","[u'', 0, -6, 2, -12, 19, -31, -47, 4, -48, -14, 7, 1, 1, 0, -7, 62, -19, 58, -4, 37, 34, -33, 0, 2, 3, -2, 10, -13, -37, 8, -18, 44, 19]",317928,18.0,10216.0,mouselab-mdp,2
"[2632, 3191, 3758, 4350, 4986]","[u'up', u'up', u'up', u'left', u'left']",test,"[u'0', u'1', u'2', u'3', u'8', u'11']","{u'mouseover': {u'state': {u'target': [], u'time': []}, u'edge': {u'target': [], u'time': []}}, u'click': {u'state': {u'target': [u'11'], u'time': [992]}, u'edge': {u'target': [], u'time': []}}, u'mouseout': {u'state': {u'target': [], u'time': []}, u'edge': {u'target': [], u'time': []}}}","[0, -1, -1, -6, 46]","[2628, 57, 68, 91, 136]",37.0,"[None, None, None, None, None]","[u'', 0, -1, -1, 8, 39, -38, -15, -6, 39, -2, 46, 0, 0, -5, 10, -12, -48, -19, -18, -1, 4, 9, 1, -1, 3, 2, -6, -66, 30, -4, 1, -41, 9]",329616,19.0,10595.0,mouselab-mdp,2
[],[],demo,"[u'0', 1, 2, 4]","{u'mouseover': {u'state': {u'target': [], u'time': []}, u'edge': {u'target': [], u'time': []}}, u'click': {u'state': {u'target': [4, 11, 8, 3, 7, 12], u'time': [924, 1926, 2928, 3930, 4930, 5933]}, u'edge': {u'target': [], u'time': []}}, u'mouseout': {u'state': {u'target': [], u'time': []}, u'edge': {u'target': [], u'time': []}}}","[-4, 8, 24]",[],22.0,[],"[u'', -4, 8, -24, 24, 2, -8, -48, -48, -4, -4, -48, -48]",273116,0.0,11931.0,mouselab-mdp,2
[],[],demo,"[u'0', 5, 6, 8]","{u'mouseover': {u'state': {u'target': [], u'time': []}, u'edge': {u'target': [], u'time': []}}, u'click': {u'state': {u'target': [8], u'time': [998]}, u'edge': {u'target': [], u'time': []}}, u'mouseout': {u'state': {u'target': [], u'time': []}, u'edge': {u'target': [], u'time': []}}}","[2, -8, 48]",[],41.0,[],"[u'', -4, -8, -48, 24, 2, -8, -48, 48, 2, -8, -24, 24]",279779,1.0,5635.0,mouselab-mdp,2
[],[],demo,"[u'0', 9, 10, 12]","{u'mouseover': {u'state': {u'target': [], u'time': []}, u'edge': {u'target': [], u'time': []}}, u'click': {u'state': {u'target': [12], u'time': [991]}, u'edge': {u'target': [], u'time': []}}, u'mouseout': {u'state': {u'target': [], u'time': []}, u'edge': {u'target': [], u'time': []}}}","[-2, -8, 48]",[],37.0,[],"[u'', -4, -4, 48, -24, -4, 4, -48, 48, -2, -8, 24, 48]",287228,2.0,6410.0,mouselab-mdp,2
[],[],demo,"[u'0', 5, 6, 7]","{u'mouseover': {u'state': {u'target': [], u'time': []}, u'edge': {u'target': [], u'time': []}}, u'click': {u'state': {u'target': [7], u'time': [999]}, u'edge': {u'target': [], u'time': []}}, u'mouseout': {u'state': {u'target': [], u'time': []}, u'edge': {u'target': [], u'time': []}}}","[4, 8, 48]",[],59.0,[],"[u'', -2, -8, -24, 48, 4, 8, 48, -48, -4, -8, -24, -48]",293321,3.0,5068.0,mouselab-mdp,2
[],[],demo,"[u'0', 9, 10, 12]","{u'mouseover': {u'state': {u'target': [], u'time': []}, u'edge': {u'target': [], u'time': []}}, u'click': {u'state': {u'target': [4, 12], u'time': [999, 2001]}, u'edge': {u'target': [], u'time': []}}, u'mouseout': {u'state': {u'target': [], u'time': []}, u'edge': {u'target': [], u'time': []}}}","[2, -8, 48]",[],40.0,[],"[u'', -4, -4, -24, 24, -2, 4, 24, 24, 2, -8, 48, 48]",300576,4.0,6227.0,mouselab-mdp,2
[],[],demo,"[u'0', 1, 2, 3]","{u'mouseover': {u'state': {u'target': [], u'time': []}, u'edge': {u'target': [], u'time': []}}, u'click': {u'state': {u'target': [11, 7, 3], u'time': [996, 1998, 2998]}, u'edge': {u'target': [], u'time': []}}, u'mouseout': {u'state': {u'target': [], u'time': []}, u'edge': {u'target': [], u'time': []}}}","[4, 4, 48]",[],53.0,[],"[u'', 4, 4, 48, 24, 4, -4, 24, -48, -2, -8, -24, -48]",308295,5.0,6691.0,mouselab-mdp,2
[],[],demo,"[u'0', 9, 10, 12]","{u'mouseover': {u'state': {u'target': [], u'time': []}, u'edge': {u'target': [], u'time': []}}, u'click': {u'state': {u'target': [12], u'time': [999]}, u'edge': {u'target': [], u'time': []}}, u'mouseout': {u'state': {u'target': [], u'time': []}, u'edge': {u'target': [], u'time': []}}}","[-4, 8, 48]",[],51.0,[],"[u'', -2, 8, 24, -48, -4, 4, -48, -48, -4, 8, 24, 48]",315261,6.0,5931.0,mouselab-mdp,2
[],[],demo,"[u'0', 1, 2, 3]","{u'mouseover': {u'state': {u'target': [], u'time': []}, u'edge': {u'target': [], u'time': []}}, u'click': {u'state': {u'target': [4, 3], u'time': [1002, 2001]}, u'edge': {u'target': [], u'time': []}}, u'mouseout': {u'state': {u'target': [], u'time': []}, u'edge': {u'target': [], u'time': []}}}","[-4, -8, 48]",[],34.0,[],"[u'', -4, -8, 48, -48, -2, -8, 48, 24, -2, 8, 24, -24]",321634,7.0,5353.0,mouselab-mdp,2
[],[],demo,"[u'0', 5, 6, 8]","{u'mouseover': {u'state': {u'target': [], u'time': []}, u'edge': {u'target': [], u'time': []}}, u'click': {u'state': {u'target': [3, 7, 12, 4, 11, 8], u'time': [998, 2000, 3002, 4002, 5004, 6006]}, u'edge': {u'target': [], u'time': []}}, u'mouseout': {u'state': {u'target': [], u'time': []}, u'edge': {u'target': [], u'time': []}}}","[-4, -8, 48]",[],30.0,[],"[u'', 2, 4, 24, 24, -4, -8, 24, 48, -4, -4, -24, -24]",332132,8.0,9471.0,mouselab-mdp,2
[],[],demo,"[u'0', 1, 2, 4]","{u'mouseover': {u'state': {u'target': [], u'time': []}, u'edge': {u'target': [], u'time': []}}, u'click': {u'state': {u'target': [7, 12, 11, 3, 8, 4], u'time': [995, 1997, 2998, 3999, 5000, 6002]}, u'edge': {u'target': [], u'time': []}}, u'mouseout': {u'state': {u'target': [], u'time': []}, u'edge': {u'target': [], u'time': []}}}","[2, 4, 48]",[],48.0,[],"[u'', 2, 4, -24, 48, 2, -4, 24, 24, 2, -4, -48, -24]",342839,9.0,9682.0,mouselab-mdp,2
"[27993, 28738, 29489, 30138, 30890]","[u'up', u'up', u'up', u'left', u'left']",test,"[u'0', u'1', u'2', u'3', u'8', u'11']","{u'mouseover': {u'state': {u'target': [], u'time': []}, u'edge': {u'target': [], u'time': []}}, u'click': {u'state': {u'target': [u'28', u'10', u'7', u'18', u'16', u'17', u'20', u'21', u'22', u'31', u'32', u'33', u'29', u'27', u'11', u'9', u'5', u'6', u'2', u'1', u'3', u'8'], u'time': [4330, 5707, 6350, 7698, 8521, 8941, 9551, 10055, 10919, 12047, 12491, 13634, 14769, 15362, 16124, 16775, 17621, 18179, 25174, 25776, 26253, 26777]}, u'edge': {u'target': [], u'time': []}}, u'mouseout': {u'state': {u'target': [], u'time': []}, u'edge': {u'target': [], u'time': []}}}","[0, 2, 4, 4, 57]","[27969, 213, 216, 110, 211]",45.0,"[None, None, None, None, None]","[u'', 0, 2, 4, 7, -3, 37, -2, 4, 33, 26, 57, 0, -3, -5, 11, -11, 12, -27, 8, -12, 47, -17, 1, 1, -3, 9, -29, -26, 23, -5, -19, -11, -32]",81220,0.0,33810.0,mouselab-mdp,3
"[20734, 21383, 22408, 23288, 24093]","[u'left', u'left', u'left', u'down', u'left']",test,"[u'0', u'23', u'24', u'25', u'30', u'33']","{u'mouseover': {u'state': {u'target': [], u'time': []}, u'edge': {u'target': [], u'time': []}}, u'click': {u'state': {u'target': [u'33', u'20', u'17', u'16', u'6', u'5', u'9', u'11', u'27', u'29', u'32', u'28', u'31', u'10', u'7', u'18', u'22', u'21', u'25', u'30', u'26', u'24'], u'time': [1793, 3371, 4020, 4922, 5266, 5748, 6624, 7341, 7911, 8427, 9148, 10012, 10629, 11457, 11979, 12890, 13425, 13847, 17088, 17760, 18452, 19144]}, u'edge': {u'target': [], u'time': []}}, u'mouseout': {u'state': {u'target': [], u'time': []}, u'edge': {u'target': [], u'time': []}}}","[1, -2, -2, 5, 66]","[20720, 123, 494, 338, 281]",46.0,"[None, None, None, None, None]","[u'', -3, 1, 3, -12, 3, 9, 11, -4, 3, 19, -57, 1, -1, 3, -6, -55, 38, 53, -15, -41, 3, -34, 1, -2, -2, 2, -70, -10, 64, 5, -32, 33, 66]",108533,1.0,25879.0,mouselab-mdp,3
"[4445, 5079, 5928, 6749, 7556]","[u'up', u'up', u'up', u'right', u'right']",test,"[u'0', u'1', u'2', u'3', u'4', u'6']","{u'mouseover': {u'state': {u'target': [], u'time': []}, u'edge': {u'target': [], u'time': []}}, u'click': {u'state': {u'target': [u'11', u'6'], u'time': [1525, 2512]}, u'edge': {u'target': [], u'time': []}}, u'mouseout': {u'state': {u'target': [], u'time': []}, u'edge': {u'target': [], u'time': []}}}","[1, -1, -2, 1, 64]","[4434, 100, 316, 285, 259]",61.0,"[None, None, None, None, None]","[u'', 1, -1, -2, 1, -25, 64, 5, 6, -41, -56, 22, 1, -2, -2, -5, 7, 30, -49, 4, -28, -17, -5, -1, 6, 10, 6, 21, -33, 76, 0, -4, 39, 8]",120860,2.0,10910.0,mouselab-mdp,3
"[14485, 15331, 16171, 17077, 17948]","[u'left', u'left', u'left', u'up', u'left']",test,"[u'0', u'23', u'24', u'25', u'26', u'29']","{u'mouseover': {u'state': {u'target': [], u'time': []}, u'edge': {u'target': [], u'time': []}}, u'click': {u'state': {u'target': [u'32', u'21', u'16', u'5', u'7', u'10', u'11', u'9', u'27', u'29', u'33', u'31', u'28', u'18', u'17', u'20', u'22'], u'time': [1358, 2196, 3020, 3726, 4417, 5105, 5786, 6282, 7102, 7629, 8214, 8801, 9428, 10174, 10859, 11333, 11887]}, u'edge': {u'target': [], u'time': []}}, u'mouseout': {u'state': {u'target': [], u'time': []}, u'edge': {u'target': [], u'time': []}}}","[1, 2, 4, 2, 40]","[14473, 309, 315, 370, 335]",32.0,"[None, None, None, None, None]","[u'', -1, -1, 0, -9, 8, 53, 24, -2, -28, -24, 54, 0, -1, 1, 17, 4, 20, 10, -3, -37, -11, -7, 1, 2, 4, 2, 28, -24, 40, 4, -10, 16, -2]",141957,3.0,19749.0,mouselab-mdp,3
"[9133, 9765, 10628, 11501, 12301]","[u'left', u'left', u'left', u'down', u'left']",test,"[u'0', u'23', u'24', u'25', u'30', u'33']","{u'mouseover': {u'state': {u'target': [], u'time': []}, u'edge': {u'target': [], u'time': []}}, u'click': {u'state': {u'target': [u'32', u'20', u'5', u'28', u'11', u'29', u'33'], u'time': [1473, 2343, 3215, 4660, 5470, 6324, 7008]}, u'edge': {u'target': [], u'time': []}}, u'mouseout': {u'state': {u'target': [], u'time': []}, u'edge': {u'target': [], u'time': []}}}","[-1, -5, 1, -6, 71]","[9117, 100, 318, 352, 270]",53.0,"[None, None, None, None, None]","[u'', 0, -1, 1, -14, 2, -15, 20, -14, -14, 53, -38, 1, 3, 0, 8, 33, 50, -12, -1, 26, -24, 2, -1, -5, 1, 14, -12, 3, -14, -6, 4, 34, 71]",156947,4.0,13700.0,mouselab-mdp,3
"[5115, 5826, 6569, 7260, 7932]","[u'right', u'right', u'right', u'up', u'right']",test,"[u'0', u'12', u'13', u'14', u'15', u'17']","{u'mouseover': {u'state': {u'target': [], u'time': []}, u'edge': {u'target': [], u'time': []}}, u'click': {u'state': {u'target': [u'9', u'5', u'16', u'17'], u'time': [1615, 2113, 2923, 3462]}, u'edge': {u'target': [], u'time': []}}, u'mouseout': {u'state': {u'target': [], u'time': []}, u'edge': {u'target': [], u'time': []}}}","[1, -2, 2, -4, 110]","[5098, 191, 206, 157, 145]",103.0,"[None, None, None, None, None]","[u'', -1, 0, -1, -2, -34, -30, -34, 2, 66, -4, -44, 1, -2, 2, -4, 3, 110, -24, -5, 12, -1, -13, -1, 1, 4, -8, -36, 59, -46, 6, 14, -35, 24]",169989,5.0,11732.0,mouselab-mdp,3
"[22551, 23238, 23951, 24611, 25342]","[u'left', u'left', u'left', u'up', u'right']",test,"[u'0', u'23', u'24', u'25', u'26', u'28']","{u'mouseover': {u'state': {u'target': [], u'time': []}, u'edge': {u'target': [], u'time': []}}, u'click': {u'state': {u'target': [u'17', u'33', u'9', u'7', u'6', u'5', u'10', u'31', u'21', u'18', u'22', u'16', u'28', u'27', u'29', u'32', u'20', u'11'], u'time': [3227, 4091, 4976, 5571, 6829, 8295, 9102, 10150, 10945, 12376, 13009, 13659, 14656, 15417, 15881, 16536, 18599, 19341]}, u'edge': {u'target': [], u'time': []}}, u'mouseout': {u'state': {u'target': [], u'time': []}, u'edge': {u'target': [], u'time': []}}}","[-1, 1, 6, -7, 25]","[22541, 152, 180, 115, 201]",6.0,"[None, None, None, None, None]","[u'', 1, -3, 5, 8, -51, -2, -40, -1, 18, -4, -44, 0, 1, 0, -8, -11, 9, -5, 17, 8, -7, 15, -1, 1, 6, -7, 10, 25, -54, 13, -33, -11, 12]",198164,6.0,26822.0,mouselab-mdp,3
"[15224, 15870, 16575, 17167, 17879]","[u'up', u'up', u'up', u'right', u'down']",test,"[u'0', u'1', u'2', u'3', u'4', u'7']","{u'mouseover': {u'state': {u'target': [], u'time': []}, u'edge': {u'target': [], u'time': []}}, u'click': {u'state': {u'target': [u'9', u'21', u'16', u'6', u'10', u'28', u'27', u'29', u'33', u'32', u'31', u'22', u'20', u'17', u'18', u'7', u'11'], u'time': [1127, 2031, 2833, 3485, 4512, 5356, 6381, 6822, 7367, 7859, 8307, 8916, 9349, 9883, 10469, 11054, 11657]}, u'edge': {u'target': [], u'time': []}}, u'mouseout': {u'state': {u'target': [], u'time': []}, u'edge': {u'target': [], u'time': []}}}","[1, 2, 2, 9, 43]","[15194, 108, 141, 32, 168]",40.0,"[None, None, None, None, None]","[u'', 1, 2, 2, 9, -14, -2, 43, 16, -53, 30, -40, 0, -1, 1, -2, 13, 21, -11, 5, -9, 22, 38, 0, 0, -7, -6, -20, -5, -45, -10, -2, 7, 32]",219052,7.0,19544.0,mouselab-mdp,3
"[17384, 18070, 18758, 19566, 20454]","[u'left', u'left', u'left', u'up', u'up']",test,"[u'0', u'23', u'24', u'25', u'26', u'27']","{u'mouseover': {u'state': {u'target': [], u'time': []}, u'edge': {u'target': [], u'time': []}}, u'click': {u'state': {u'target': [u'21', u'16', u'9', u'32', u'33', u'28', u'31', u'29', u'11', u'6', u'17', u'18', u'20', u'22', u'10', u'7', u'5', u'27'], u'time': [694, 2211, 3137, 3990, 4556, 5077, 5566, 6123, 6870, 7474, 8168, 8805, 9971, 10498, 11686, 12064, 12447, 14177]}, u'edge': {u'target': [], u'time': []}}, u'mouseout': {u'state': {u'target': [], u'time': []}, u'edge': {u'target': [], u'time': []}}}","[0, -2, 2, 3, 61]","[17373, 157, 160, 265, 340]",46.0,"[None, None, None, None, None]","[u'', 0, 2, -2, 1, -32, -15, 37, 13, -11, -8, -24, -2, 1, 2, 5, 1, 17, 5, 10, 12, 46, 34, 0, -2, 2, 3, 61, 24, -36, -6, 31, -6, -38]",242396,8.0,21750.0,mouselab-mdp,3
"[14661, 15484, 16251, 17155, 18026]","[u'right', u'right', u'right', u'down', u'right']",test,"[u'0', u'12', u'13', u'14', u'19', u'20']","{u'mouseover': {u'state': {u'target': [], u'time': []}, u'edge': {u'target': [], u'time': []}}, u'click': {u'state': {u'target': [u'21', u'9', u'32', u'31', u'28', u'27', u'29', u'33', u'22', u'18', u'16', u'17', u'20', u'6', u'5', u'7', u'10', u'11'], u'time': [1074, 1740, 2795, 3468, 3969, 4367, 4774, 5222, 6598, 7129, 7562, 7939, 9013, 10158, 10619, 11070, 11478, 11840]}, u'edge': {u'target': [], u'time': []}}, u'mouseout': {u'state': {u'target': [], u'time': []}, u'edge': {u'target': [], u'time': []}}}","[-2, 2, 4, 7, 58]","[14646, 292, 242, 378, 335]",51.0,"[None, None, None, None, None]","[u'', -1, 0, -1, -7, 16, -15, 52, 7, -28, -1, -7, -2, 2, 4, 7, -15, 34, -7, 7, 58, 4, -45, 0, 1, 5, -9, -6, 7, 14, 7, -30, -14, 32]",262986,9.0,19337.0,mouselab-mdp,3
"[17567, 18370, 19100, 19788, 20500]","[u'up', u'up', u'up', u'right', u'right']",test,"[u'0', u'1', u'2', u'3', u'4', u'6']","{u'mouseover': {u'state': {u'target': [], u'time': []}, u'edge': {u'target': [], u'time': []}}, u'click': {u'state': {u'target': [u'21', u'20', u'17', u'16', u'18', u'22', u'31', u'32', u'33', u'29', u'27', u'28', u'11', u'9', u'10', u'7', u'5', u'6'], u'time': [2555, 3045, 3536, 4046, 4617, 5111, 5971, 6469, 6984, 8075, 8482, 9056, 9680, 10129, 10673, 11234, 11711, 12097]}, u'edge': {u'target': [], u'time': []}}, u'mouseout': {u'state': {u'target': [], u'time': []}, u'edge': {u'target': [], u'time': []}}}","[1, 3, 3, 0, 40]","[17544, 268, 199, 152, 177]",29.0,"[None, None, None, None, None]","[u'', 1, 3, 3, 0, 13, 40, -4, 6, -24, 12, -41, -1, 4, 1, 9, -86, -8, -6, -4, 4, -28, 40, 1, -2, 2, 3, 52, 34, -36, -6, 32, -42, 19]",286084,10.0,21812.0,mouselab-mdp,3
"[12842, 13430, 13982, 15200, 15834]","[u'right', u'right', u'right', u'down', u'right']",test,"[u'0', u'12', u'13', u'14', u'19', u'20']","{u'mouseover': {u'state': {u'target': [], u'time': []}, u'edge': {u'target': [], u'time': []}}, u'click': {u'state': {u'target': [u'9', u'7', u'22', u'21', u'20', u'18', u'16', u'17', u'31', u'32', u'33', u'29', u'27', u'28', u'11', u'5', u'10', u'6'], u'time': [1657, 2265, 3254, 3819, 4346, 5239, 5714, 6114, 6984, 7450, 7883, 8423, 8886, 9296, 9769, 10286, 10746, 11526]}, u'edge': {u'target': [], u'time': []}}, u'mouseout': {u'state': {u'target': [], u'time': []}, u'edge': {u'target': [], u'time': []}}}","[0, -2, 9, -7, 52]","[12823, 56, 27, 679, 94]",34.0,"[None, None, None, None, None]","[u'', 1, 3, -5, -4, -25, -34, 8, 4, -23, -16, 8, 0, -2, 9, -2, 3, -20, -8, -7, 52, -59, -6, 1, -3, 2, 11, 9, 0, -1, -2, 19, -28, 10]",304994,11.0,17542.0,mouselab-mdp,3
"[12554, 13284, 14052, 14796, 15621]","[u'up', u'up', u'up', u'left', u'down']",test,"[u'0', u'1', u'2', u'3', u'8', u'10']","{u'mouseover': {u'state': {u'target': [], u'time': []}, u'edge': {u'target': [], u'time': []}}, u'click': {u'state': {u'target': [u'20', u'16', u'32', u'27', u'33', u'29', u'28', u'31', u'21', u'22', u'18', u'17', u'6', u'5', u'7', u'10'], u'time': [788, 1583, 2434, 3193, 4087, 4838, 5454, 6006, 6941, 7463, 7929, 8570, 9318, 9759, 10238, 10737]}, u'edge': {u'target': [], u'time': []}}, u'mouseout': {u'state': {u'target': [], u'time': []}, u'edge': {u'target': [], u'time': []}}}","[-1, 2, 3, -16, 61]","[12544, 199, 243, 210, 287]",33.0,"[None, None, None, None, None]","[u'', -1, 2, 3, 8, 8, -25, -39, -16, -2, 61, 15, 0, -3, -3, 0, -7, 29, -5, 6, -4, -6, 40, -1, -1, -5, 1, 34, 22, 23, 8, 20, 24, 13]",323580,12.0,17268.0,mouselab-mdp,3
"[16163, 16933, 17701, 18445, 19347]","[u'right', u'right', u'right', u'up', u'left']",test,"[u'0', u'12', u'13', u'14', u'15', u'18']","{u'mouseover': {u'state': {u'target': [], u'time': []}, u'edge': {u'target': [], u'time': []}}, u'click': {u'state': {u'target': [u'9', u'5', u'7', u'10', u'31', u'22', u'18', u'17', u'20', u'21', u'16', u'27', u'29', u'33', u'32', u'28', u'11', u'6'], u'time': [780, 1306, 1832, 2443, 3378, 3928, 4438, 5042, 5517, 6380, 6938, 7786, 8192, 8642, 9178, 9793, 11368, 12196]}, u'edge': {u'target': [], u'time': []}}, u'mouseout': {u'state': {u'target': [], u'time': []}, u'edge': {u'target': [], u'time': []}}}","[-2, -2, -3, 11, 34]","[16151, 240, 243, 220, 369]",20.0,"[None, None, None, None, None]","[u'', -1, -1, 4, -6, 37, 17, -50, 1, -47, 30, -54, -2, -2, -3, 11, -1, 9, 34, -6, -19, -27, 25, 2, 1, -2, -4, -36, 23, -34, -2, -37, -61, -81]",345860,13.0,20997.0,mouselab-mdp,3
"[11139, 11796, 12442, 13090, 13762]","[u'up', u'up', u'up', u'right', u'right']",test,"[u'0', u'1', u'2', u'3', u'4', u'6']","{u'mouseover': {u'state': {u'target': [], u'time': []}, u'edge': {u'target': [], u'time': []}}, u'click': {u'state': {u'target': [u'21', u'20', u'16', u'18', u'22', u'17', u'6', u'7', u'5', u'9', u'10', u'11', u'27', u'29', u'33', u'32'], u'time': [1395, 1815, 2538, 2916, 3445, 4004, 4542, 4906, 5512, 6061, 7260, 7696, 8153, 8537, 9043, 9542]}, u'edge': {u'target': [], u'time': []}}, u'mouseout': {u'state': {u'target': [], u'time': []}, u'edge': {u'target': [], u'time': []}}}","[1, 2, -2, 7, 63]","[11113, 88, 99, 109, 133]",55.0,"[None, None, None, None, None]","[u'', 1, 2, -2, 7, -18, 63, -43, -14, -53, -28, -36, 2, -1, -5, 9, -19, -40, 28, 5, -14, 45, 4, 2, 1, 6, 1, -39, 78, -17, -2, -22, -7, 8]",362858,14.0,15642.0,mouselab-mdp,3
"[6573, 7341, 8109, 8815, 9648]","[u'left', u'left', u'left', u'up', u'up']",test,"[u'0', u'23', u'24', u'25', u'26', u'27']","{u'mouseover': {u'state': {u'target': [], u'time': []}, u'edge': {u'target': [], u'time': []}}, u'click': {u'state': {u'target': [u'5', u'32', u'21', u'16', u'27', u'29', u'31'], u'time': [957, 1859, 2521, 3278, 4001, 4608, 5442]}, u'edge': {u'target': [], u'time': []}}, u'mouseout': {u'state': {u'target': [], u'time': []}, u'edge': {u'target': [], u'time': []}}}","[-1, -3, -2, 5, 56]","[6556, 243, 223, 169, 303]",48.0,"[None, None, None, None, None]","[u'', -1, 1, 2, 8, -7, -10, -19, 12, 32, -1, 21, -1, 4, -2, -3, -12, 54, 5, 9, -4, -39, 25, -1, -3, -2, 5, 56, -44, -70, 7, 10, -18, 13]",375533,15.0,11192.0,mouselab-mdp,3
"[14850, 15579, 16249, 16938, 17665]","[u'up', u'up', u'up', u'right', u'right']",test,"[u'0', u'1', u'2', u'3', u'4', u'6']","{u'mouseover': {u'state': {u'target': [], u'time': []}, u'edge': {u'target': [], u'time': []}}, u'click': {u'state': {u'target': [u'21', u'9', u'32', u'29', u'18', u'16', u'17', u'20', u'22', u'7', u'5', u'6', u'10', u'11', u'27', u'33', u'31', u'28'], u'time': [1707, 2510, 3393, 4061, 5286, 5834, 6427, 6895, 7409, 8329, 8852, 9262, 9945, 10548, 11270, 11942, 12436, 12854]}, u'edge': {u'target': [], u'time': []}}, u'mouseout': {u'state': {u'target': [], u'time': []}, u'edge': {u'target': [], u'time': []}}}","[0, 2, -6, -8, 48]","[14837, 190, 139, 135, 184]",18.0,"[None, None, None, None, None]","[u'', 0, 2, -6, -8, 17, 48, 1, 2, -26, -1, -23, 0, 1, -8, 2, -26, -21, 36, 2, 30, -56, -13, 0, -1, 2, 7, -35, -31, -40, 9, -16, -3, -11]",396010,16.0,19025.0,mouselab-mdp,3
"[5762, 6396, 7042, 7675, 8363]","[u'right', u'right', u'right', u'up', u'left']",test,"[u'0', u'12', u'13', u'14', u'15', u'18']","{u'mouseover': {u'state': {u'target': [], u'time': []}, u'edge': {u'target': [], u'time': []}}, u'click': {u'state': {u'target': [u'5', u'32', u'21', u'20', u'18'], u'time': [1087, 1810, 2557, 3081, 4139]}, u'edge': {u'target': [], u'time': []}}, u'mouseout': {u'state': {u'target': [], u'time': []}, u'edge': {u'target': [], u'time': []}}}","[0, 0, -1, -6, 50]","[5744, 108, 120, 88, 158]",38.0,"[None, None, None, None, None]","[u'', 0, 0, 4, -10, 35, -22, 23, -3, 26, 25, -47, 0, 0, -1, -6, 59, 7, 50, -5, -34, 4, -18, 2, 0, 5, -2, -10, -1, 11, 7, -4, -22, -34]",407244,17.0,9963.0,mouselab-mdp,3
"[15105, 15672, 16323, 17075, 17842]","[u'right', u'right', u'right', u'up', u'up']",test,"[u'0', u'12', u'13', u'14', u'15', u'16']","{u'mouseover': {u'state': {u'target': [], u'time': []}, u'edge': {u'target': [], u'time': []}}, u'click': {u'state': {u'target': [u'9', u'32', u'29', u'31', u'28', u'10', u'7', u'6', u'5', u'11', u'21', u'20', u'17', u'16', u'18', u'22', u'27', u'33'], u'time': [775, 1537, 2328, 2889, 3393, 3768, 4235, 5093, 5735, 6325, 7563, 8123, 8779, 9297, 9644, 10345, 11615, 12197]}, u'edge': {u'target': [], u'time': []}}, u'mouseout': {u'state': {u'target': [], u'time': []}, u'edge': {u'target': [], u'time': []}}}","[-1, -3, 5, -2, 45]","[15082, 39, 119, 219, 240]",26.0,"[None, None, None, None, None]","[u'', 0, 2, 1, 2, 9, -23, 27, 12, 24, 28, -28, -1, -3, 5, -2, 45, -25, -14, 1, 29, 2, 7, 0, 0, -4, 1, -6, -2, 16, -5, -3, -10, 13]",427652,18.0,19034.0,mouselab-mdp,3
"[17285, 17888, 18520, 19248, 20075]","[u'right', u'right', u'right', u'down', u'left']",test,"[u'0', u'12', u'13', u'14', u'19', u'22']","{u'mouseover': {u'state': {u'target': [], u'time': []}, u'edge': {u'target': [], u'time': []}}, u'click': {u'state': {u'target': [u'5', u'32', u'21', u'16', u'17', u'11', u'9', u'10', u'7', u'6', u'27', u'29', u'33', u'31', u'28', u'18', u'22', u'20'], u'time': [1103, 1944, 2841, 3864, 4538, 6080, 6841, 7552, 8037, 8506, 9414, 9834, 10311, 10841, 11293, 12231, 12978, 13505]}, u'edge': {u'target': [], u'time': []}}, u'mouseout': {u'state': {u'target': [], u'time': []}, u'edge': {u'target': [], u'time': []}}}","[1, 1, 1, -2, 70]","[17271, 61, 100, 190, 303]",53.0,"[None, None, None, None, None]","[u'', -1, 1, 3, -5, 17, -37, 26, 0, -6, -3, 28, 1, 1, 1, 1, 20, 7, 22, -2, -78, 33, 70, 0, 0, -1, -1, 1, -36, -17, -8, 8, -9, 16]",450843,19.0,21897.0,mouselab-mdp,3
"[8488, 9300, 10230]","[u'left', u'left', u'up']",training,"[u'0', u'9', u'10', u'11']","{u'mouseover': {u'state': {u'target': [], u'time': []}, u'edge': {u'target': [], u'time': []}}, u'click': {u'state': {u'target': [u'11', u'4', u'3', u'7', u'8', u'12'], u'time': [1026, 3426, 4320, 4976, 6148, 7020]}, u'edge': {u'target': [], u'time': []}}, u'mouseout': {u'state': {u'target': [], u'time': []}, u'edge': {u'target': [], u'time': []}}}","[4, -8, 48]","[8470, 289, 404]",38.0,"[None, None, None]","[u'', 4, -4, -24, 24, 2, 4, -24, -48, 4, -8, 48, -48]",152675,0.0,13064.0,mouselab-mdp,3
"[5879, 6484, 7174]","[u'up', u'up', u'right']",training,"[u'0', u'1', u'2', u'3']","{u'mouseover': {u'state': {u'target': [], u'time': []}, u'edge': {u'target': [], u'time': []}}, u'click': {u'state': {u'target': [u'11', u'8', u'7', u'3'], u'time': [1028, 2330, 3202, 3926]}, u'edge': {u'target': [], u'time': []}}, u'mouseout': {u'state': {u'target': [], u'time': []}, u'edge': {u'target': [], u'time': []}}}","[-4, 4, 48]","[5868, 79, 165]",44.0,"[None, None, None]","[u'', -4, 4, 48, -48, -4, 4, -24, 24, -4, -8, 24, 24]",164536,1.0,10677.0,mouselab-mdp,3
"[17231, 18297, 19118]","[u'left', u'left', u'up']",training,"[u'0', u'9', u'10', u'11']","{u'mouseover': {u'state': {u'target': [], u'time': []}, u'edge': {u'target': [], u'time': []}}, u'click': {u'state': {u'target': [u'12', u'8', u'7', u'11', u'4', u'3', u'1', u'2', u'10', u'9'], u'time': [1043, 1617, 2219, 2873, 3359, 4118, 10115, 13654, 15084, 15925]}, u'edge': {u'target': [], u'time': []}}, u'mouseout': {u'state': {u'target': [], u'time': []}, u'edge': {u'target': [], u'time': []}}}","[4, 4, 48]","[17216, 523, 296]",46.0,"[None, None, None]","[u'', -4, 8, 48, -24, -2, -4, 24, -48, 4, 4, 48, -48]",186952,2.0,21311.0,mouselab-mdp,3
"[14412, 15236, 15925]","[u'right', u'right', u'down']",training,"[u'0', u'5', u'6', u'8']","{u'mouseover': {u'state': {u'target': [], u'time': []}, u'edge': {u'target': [], u'time': []}}, u'click': {u'state': {u'target': [u'4', u'3', u'7', u'8', u'12', u'11', u'10', u'6', u'5', u'9'], u'time': [1617, 2747, 3348, 4017, 4786, 8439, 9322, 10332, 11019, 11751]}, u'edge': {u'target': [], u'time': []}}, u'mouseout': {u'state': {u'target': [], u'time': []}, u'edge': {u'target': [], u'time': []}}}","[-2, 4, 48]","[14408, 310, 161]",40.0,"[None, None, None]","[u'', 4, 8, -24, 24, -2, 4, -24, 48, 2, -8, 24, 48]",206137,3.0,18117.0,mouselab-mdp,3
"[7812, 8539, 9162]","[u'up', u'up', u'right']",training,"[u'0', u'1', u'2', u'3']","{u'mouseover': {u'state': {u'target': [], u'time': []}, u'edge': {u'target': [], u'time': []}}, u'click': {u'state': {u'target': [u'8', u'7', u'4', u'12', u'11', u'3'], u'time': [1120, 1799, 2561, 3315, 3964, 4744]}, u'edge': {u'target': [], u'time': []}}, u'mouseout': {u'state': {u'target': [], u'time': []}, u'edge': {u'target': [], u'time': []}}}","[2, 8, 48]","[7799, 215, 94]",52.0,"[None, None, None]","[u'', 2, 8, 48, -24, -4, -4, -48, 24, -4, -8, -48, -24]",217850,4.0,10579.0,mouselab-mdp,3
"[6183, 6798, 7609]","[u'left', u'left', u'down']",training,"[u'0', u'9', u'10', u'12']","{u'mouseover': {u'state': {u'target': [], u'time': []}, u'edge': {u'target': [], u'time': []}}, u'click': {u'state': {u'target': [u'11', u'8', u'7', u'4', u'3', u'12'], u'time': [840, 1828, 2385, 3360, 3994, 4754]}, u'edge': {u'target': [], u'time': []}}, u'mouseout': {u'state': {u'target': [], u'time': []}, u'edge': {u'target': [], u'time': []}}}","[-4, 4, 48]","[6173, 90, 281]",42.0,"[None, None, None]","[u'', -4, 4, 24, 24, 2, 8, -24, 24, -4, 4, -24, 48]",228936,5.0,9967.0,mouselab-mdp,3
"[5939, 7060, 7749]","[u'left', u'left', u'down']",training,"[u'0', u'9', u'10', u'12']","{u'mouseover': {u'state': {u'target': [], u'time': []}, u'edge': {u'target': [], u'time': []}}, u'click': {u'state': {u'target': [u'3', u'12', u'8', u'7', u'11', u'4'], u'time': [1062, 1822, 3289, 3973, 4830, 5407]}, u'edge': {u'target': [], u'time': []}}, u'mouseout': {u'state': {u'target': [], u'time': []}, u'edge': {u'target': [], u'time': []}}}","[4, 4, 48]","[5935, 596, 176]",50.0,"[None, None, None]","[u'', 2, 4, 24, -24, 4, 8, 24, -24, 4, 4, 24, 48]",244512,6.0,14507.0,mouselab-mdp,3
"[5203, 5794, 6394]","[u'up', u'up', u'left']",training,"[u'0', u'1', u'2', u'4']","{u'mouseover': {u'state': {u'target': [], u'time': []}, u'edge': {u'target': [], u'time': []}}, u'click': {u'state': {u'target': [u'8', u'7', u'3', u'4', u'11', u'12'], u'time': [966, 1613, 2034, 2604, 3147, 4114]}, u'edge': {u'target': [], u'time': []}}, u'mouseout': {u'state': {u'target': [], u'time': []}, u'edge': {u'target': [], u'time': []}}}","[-2, -8, 48]","[5192, 64, 82]",32.0,"[None, None, None]","[u'', -2, -8, 24, 48, -2, 8, -24, -24, -2, -4, 24, -24]",254943,7.0,9322.0,mouselab-mdp,3
"[2368, 3215, 4078]","[u'left', u'left', u'down']",training,"[u'0', u'9', u'10', u'12']","{u'mouseover': {u'state': {u'target': [], u'time': []}, u'edge': {u'target': [], u'time': []}}, u'click': {u'state': {u'target': [u'12'], u'time': [854]}, u'edge': {u'target': [], u'time': []}}, u'mouseout': {u'state': {u'target': [], u'time': []}, u'edge': {u'target': [], u'time': []}}}","[-4, 8, 48]","[2362, 343, 338]",51.0,"[None, None, None]","[u'', -4, 4, 24, 24, -2, -4, 48, -24, -4, 8, -48, 48]",264425,8.0,8382.0,mouselab-mdp,3
"[13109, 13738, 14346]","[u'up', u'up', u'right']",training,"[u'0', u'1', u'2', u'3']","{u'mouseover': {u'state': {u'target': [], u'time': []}, u'edge': {u'target': [], u'time': []}}, u'click': {u'state': {u'target': [u'8', u'4', u'3', u'7', u'11', u'12', u'10', u'2', u'1', u'9'], u'time': [1617, 2674, 3206, 4396, 5019, 8749, 9588, 10329, 11114, 11712]}, u'edge': {u'target': [], u'time': []}}, u'mouseout': {u'state': {u'target': [], u'time': []}, u'edge': {u'target': [], u'time': []}}}","[-4, 8, 48]","[13102, 109, 83]",42.0,"[None, None, None]","[u'', -4, 8, 48, 24, 2, -8, -48, -24, -4, -4, 48, -24]",282047,9.0,16496.0,mouselab-mdp,3
[],[],demo,"[u'0', 9, 10, 12]","{u'mouseover': {u'state': {u'target': [], u'time': []}, u'edge': {u'target': [], u'time': []}}, u'click': {u'state': {u'target': [4, 12], u'time': [797, 1800]}, u'edge': {u'target': [], u'time': []}}, u'mouseout': {u'state': {u'target': [], u'time': []}, u'edge': {u'target': [], u'time': []}}}","[2, -8, 48]",[],40.0,[],"[u'', -4, -4, -24, 24, -2, 4, 24, 24, 2, -8, 48, 48]",205556,0.0,7469.0,mouselab-mdp,4
[],[],demo,"[u'0', 9, 10, 11]","{u'mouseover': {u'state': {u'target': [], u'time': []}, u'edge': {u'target': [], u'time': []}}, u'click': {u'state': {u'target': [12, 8, 11], u'time': [989, 1993, 2997]}, u'edge': {u'target': [], u'time': []}}, u'mouseout': {u'state': {u'target': [], u'time': []}, u'edge': {u'target': [], u'time': []}}}","[4, -8, 48]",[],41.0,[],"[u'', 2, 4, -48, 24, -4, 8, 24, -48, 4, -8, 48, 24]",213707,1.0,6932.0,mouselab-mdp,4
[],[],demo,"[u'0', 9, 10, 11]","{u'mouseover': {u'state': {u'target': [], u'time': []}, u'edge': {u'target': [], u'time': []}}, u'click': {u'state': {u'target': [3, 8, 7, 11], u'time': [992, 1997, 3001, 4010]}, u'edge': {u'target': [], u'time': []}}, u'mouseout': {u'state': {u'target': [], u'time': []}, u'edge': {u'target': [], u'time': []}}}","[4, 8, 48]",[],56.0,[],"[u'', 2, -4, -24, -24, -4, 4, 24, -48, 4, 8, 48, 48]",222434,2.0,7547.0,mouselab-mdp,4
[],[],demo,"[u'0', 1, 2, 4]","{u'mouseover': {u'state': {u'target': [], u'time': []}, u'edge': {u'target': [], u'time': []}}, u'click': {u'state': {u'target': [4], u'time': [991]}, u'edge': {u'target': [], u'time': []}}, u'mouseout': {u'state': {u'target': [], u'time': []}, u'edge': {u'target': [], u'time': []}}}","[-2, 8, 48]",[],53.0,[],"[u'', -2, 8, 24, 48, 2, -4, 48, -48, 2, 8, 24, -48]",227732,3.0,4124.0,mouselab-mdp,4
[],[],demo,"[u'0', 5, 6, 7]","{u'mouseover': {u'state': {u'target': [], u'time': []}, u'edge': {u'target': [], u'time': []}}, u'click': {u'state': {u'target': [7], u'time': [991]}, u'edge': {u'target': [], u'time': []}}, u'mouseout': {u'state': {u'target': [], u'time': []}, u'edge': {u'target': [], u'time': []}}}","[4, 8, 48]",[],59.0,[],"[u'', -2, -8, -24, 48, 4, 8, 48, -48, -4, -8, -24, -48]",233132,4.0,4232.0,mouselab-mdp,4
[],[],demo,"[u'0', 9, 10, 11]","{u'mouseover': {u'state': {u'target': [], u'time': []}, u'edge': {u'target': [], u'time': []}}, u'click': {u'state': {u'target': [3, 8, 12, 7, 11], u'time': [988, 1992, 2996, 3999, 5002]}, u'edge': {u'target': [], u'time': []}}, u'mouseout': {u'state': {u'target': [], u'time': []}, u'edge': {u'target': [], u'time': []}}}","[4, -4, 48]",[],43.0,[],"[u'', 4, -8, 24, 24, 2, 4, -24, 24, 4, -4, 48, -48]",242978,5.0,8588.0,mouselab-mdp,4
[],[],demo,"[u'0', 9, 10, 11]","{u'mouseover': {u'state': {u'target': [], u'time': []}, u'edge': {u'target': [], u'time': []}}, u'click': {u'state': {u'target': [4, 7, 3, 8, 11], u'time': [995, 2000, 3003, 4007, 5011]}, u'edge': {u'target': [], u'time': []}}, u'mouseout': {u'state': {u'target': [], u'time': []}, u'edge': {u'target': [], u'time': []}}}","[4, -4, 48]",[],43.0,[],"[u'', -2, 8, -24, 24, 2, -8, -48, -24, 4, -4, 48, -48]",252826,6.0,8694.0,mouselab-mdp,4
[],[],demo,"[u'0', 1, 2, 3]","{u'mouseover': {u'state': {u'target': [], u'time': []}, u'edge': {u'target': [], u'time': []}}, u'click': {u'state': {u'target': [4, 3], u'time': [983, 1986]}, u'edge': {u'target': [], u'time': []}}, u'mouseout': {u'state': {u'target': [], u'time': []}, u'edge': {u'target': [], u'time': []}}}","[-4, -8, 48]",[],34.0,[],"[u'', -4, -8, 48, -48, -2, -8, 48, 24, -2, 8, 24, -24]",259338,7.0,5302.0,mouselab-mdp,4
[],[],demo,"[u'0', 5, 6, 8]","{u'mouseover': {u'state': {u'target': [], u'time': []}, u'edge': {u'target': [], u'time': []}}, u'click': {u'state': {u'target': [3, 7, 12, 4, 11, 8], u'time': [994, 1997, 3001, 4005, 5009, 6015]}, u'edge': {u'target': [], u'time': []}}, u'mouseout': {u'state': {u'target': [], u'time': []}, u'edge': {u'target': [], u'time': []}}}","[-4, -8, 48]",[],30.0,[],"[u'', 2, 4, 24, 24, -4, -8, 24, 48, -4, -4, -24, -24]",271696,8.0,11208.0,mouselab-mdp,4
[],[],demo,"[u'0', 1, 2, 3]","{u'mouseover': {u'state': {u'target': [], u'time': []}, u'edge': {u'target': [], u'time': []}}, u'click': {u'state': {u'target': [11, 7, 3], u'time': [982, 1987, 2993]}, u'edge': {u'target': [], u'time': []}}, u'mouseout': {u'state': {u'target': [], u'time': []}, u'edge': {u'target': [], u'time': []}}}","[4, 4, 48]",[],53.0,[],"[u'', 4, 4, 48, 24, 4, -4, 24, -48, -2, -8, -24, -48]",280050,9.0,7136.0,mouselab-mdp,4
"[11580, 12628, 14875, 15846, 16829]","[u'up', u'up', u'up', u'right', u'up']",test,"[u'0', u'1', u'2', u'3', u'4', u'5']","{u'mouseover': {u'state': {u'target': [], u'time': []}, u'edge': {u'target': [], u'time': []}}, u'click': {u'state': {u'target': [u'29', u'9', u'5'], u'time': [4191, 5746, 6801]}, u'edge': {u'target': [], u'time': []}}, u'mouseout': {u'state': {u'target': [], u'time': []}, u'edge': {u'target': [], u'time': []}}}","[2, -1, -2, -9, 28]","[11427, 480, 1681, 415, 411]",15.0,"[None, None, None, None, None]","[u'', 2, -1, -2, -9, 28, -74, 56, -6, 10, -8, 47, -2, -1, -2, 9, -35, -6, -28, 0, 19, -35, 37, 1, 1, 4, -5, -4, -30, -9, 4, -22, -13, -22]",64101,0.0,24029.0,mouselab-mdp,4
"[6866, 7601, 8423, 9180, 10053]","[u'right', u'right', u'right', u'up', u'up']",test,"[u'0', u'12', u'13', u'14', u'15', u'16']","{u'mouseover': {u'state': {u'target': [], u'time': []}, u'edge': {u'target': [], u'time': []}}, u'click': {u'state': {u'target': [u'21', u'22', u'16'], u'time': [2652, 3420, 4387]}, u'edge': {u'target': [], u'time': []}}, u'mouseout': {u'state': {u'target': [], u'time': []}, u'edge': {u'target': [], u'time': []}}}","[0, 2, -7, 13, 45]","[6820, 141, 235, 184, 298]",50.0,"[None, None, None, None, None]","[u'', 1, -1, -4, 1, 16, -45, -17, -3, 9, -8, 14, 0, 2, -7, 13, 45, 2, 21, 5, -24, 5, 25, 0, 2, 0, 1, -25, -12, -15, 14, 8, -32, 13]",79276,1.0,13293.0,mouselab-mdp,4
"[18630, 19553, 20308, 21152, 22023]","[u'right', u'right', u'right', u'down', u'down']",test,"[u'0', u'12', u'13', u'14', u'19', u'21']","{u'mouseover': {u'state': {u'target': [], u'time': []}, u'edge': {u'target': [], u'time': []}}, u'click': {u'state': {u'target': [u'29', u'9', u'11', u'27', u'33', u'32', u'31', u'21', u'22', u'20', u'17', u'16', u'18'], u'time': [6002, 7738, 8427, 9729, 10900, 11471, 12123, 12888, 13647, 14254, 15725, 16398, 17074]}, u'edge': {u'target': [], u'time': []}}, u'mouseout': {u'state': {u'target': [], u'time': []}, u'edge': {u'target': [], u'time': []}}}","[0, -4, 4, -4, 39]","[18557, 332, 201, 285, 322]",22.0,"[None, None, None, None, None]","[u'', -1, 1, 4, 5, -1, -27, 3, 3, -11, 19, 10, 0, -4, 4, 14, -13, -47, 20, -4, -31, 39, -44, 1, -2, 6, 4, -8, 5, 19, 7, 26, 17, -15]",106159,2.0,24761.0,mouselab-mdp,4
"[5163, 5895, 6610, 7306, 8000]","[u'up', u'up', u'up', u'right', u'up']",test,"[u'0', u'1', u'2', u'3', u'4', u'5']","{u'mouseover': {u'state': {u'target': [], u'time': []}, u'edge': {u'target': [], u'time': []}}, u'click': {u'state': {u'target': [u'5'], u'time': [3516]}, u'edge': {u'target': [], u'time': []}}, u'mouseout': {u'state': {u'target': [], u'time': []}, u'edge': {u'target': [], u'time': []}}}","[0, 0, -2, -4, 64]","[5141, 189, 141, 132, 138]",57.0,"[None, None, None, None, None]","[u'', 0, 0, -2, -4, 64, 0, 55, -8, 24, 0, 54, 0, 4, -2, 0, -37, -1, -7, -9, -59, 29, 16, -1, 0, -3, -1, 8, 11, -16, -2, 17, -21, -18]",121492,3.0,13419.0,mouselab-mdp,4
"[10953, 11822, 12692, 13456, 14260]","[u'right', u'right', u'right', u'up', u'right']",test,"[u'0', u'12', u'13', u'14', u'15', u'17']","{u'mouseover': {u'state': {u'target': [], u'time': []}, u'edge': {u'target': [], u'time': []}}, u'click': {u'state': {u'target': [u'21', u'22', u'20', u'17'], u'time': [6590, 7947, 8609, 9367]}, u'edge': {u'target': [], u'time': []}}, u'mouseout': {u'state': {u'target': [], u'time': []}, u'edge': {u'target': [], u'time': []}}}","[0, 0, 3, 4, 93]","[10908, 307, 330, 188, 262]",96.0,"[None, None, None, None, None]","[u'', 0, -1, -5, 5, -19, 34, -1, 0, -35, -32, 18, 0, 0, 3, 4, -11, 93, 100, 4, -46, -29, 19, -1, 0, -8, 3, 39, -39, -11, -3, -80, -15, -18]",141180,4.0,17380.0,mouselab-mdp,4
"[3003, 3663, 4256, 4934, 5626]","[u'up', u'up', u'up', u'right', u'up']",test,"[u'0', u'1', u'2', u'3', u'4', u'5']","{u'mouseover': {u'state': {u'target': [], u'time': []}, u'edge': {u'target': [], u'time': []}}, u'click': {u'state': {u'target': [u'9', u'5'], u'time': [986, 1616]}, u'edge': {u'target': [], u'time': []}}, u'mouseout': {u'state': {u'target': [], u'time': []}, u'edge': {u'target': [], u'time': []}}}","[0, -1, 2, -1, 76]","[2949, 94, 40, 113, 145]",74.0,"[None, None, None, None, None]","[u'', 0, -1, 2, -1, 76, 6, -15, -4, -7, 51, 17, 1, -3, -2, 1, -6, 22, 34, -3, -92, -30, -38, 1, 4, 1, 15, 11, 36, 10, 6, -30, -10, 48]",155288,5.0,11966.0,mouselab-mdp,4
"[10710, 11417, 12140, 12886, 13704]","[u'up', u'up', u'up', u'left', u'left']",test,"[u'0', u'1', u'2', u'3', u'8', u'11']","{u'mouseover': {u'state': {u'target': [], u'time': []}, u'edge': {u'target': [], u'time': []}}, u'click': {u'state': {u'target': [u'5', u'9', u'29', u'27', u'33', u'32', u'31', u'11'], u'time': [3460, 4334, 5727, 6215, 6957, 7490, 8183, 9039]}, u'edge': {u'target': [], u'time': []}}, u'mouseout': {u'state': {u'target': [], u'time': []}, u'edge': {u'target': [], u'time': []}}}","[-3, 2, 1, -1, 72]","[10679, 153, 147, 166, 263]",63.0,"[None, None, None, None, None]","[u'', -3, 2, 1, -2, -4, -8, 14, -1, -57, -6, 72, 0, 1, -2, 1, 6, -8, 28, -7, -4, 16, -9, -1, 1, -4, -4, -27, -4, -14, -4, 22, 56, -11]",173802,6.0,16148.0,mouselab-mdp,4
"[10673, 11867, 12545, 13233, 13984]","[u'up', u'up', u'up', u'left', u'up']",test,"[u'0', u'1', u'2', u'3', u'8', u'9']","{u'mouseover': {u'state': {u'target': [], u'time': []}, u'edge': {u'target': [], u'time': []}}, u'click': {u'state': {u'target': [u'21', u'22', u'20', u'17', u'16', u'6', u'5', u'7', u'18', u'9'], u'time': [1558, 2334, 3290, 3911, 4493, 5824, 6600, 7220, 7866, 9205]}, u'edge': {u'target': [], u'time': []}}, u'mouseout': {u'state': {u'target': [], u'time': []}, u'edge': {u'target': [], u'time': []}}}","[-1, 4, -2, -21, 87]","[10646, 600, 121, 130, 202]",57.0,"[None, None, None, None, None]","[u'', -1, 4, -2, 3, -37, 49, -18, -21, 87, -35, 42, 1, 1, -1, 2, 39, -10, 8, 7, 3, -14, 46, 0, 0, -3, -8, 29, 30, -69, -5, 31, 78, 69]",192294,7.0,16376.0,mouselab-mdp,4
"[16151, 16810, 17811, 18521, 19441]","[u'up', u'up', u'up', u'left', u'up']",test,"[u'0', u'1', u'2', u'3', u'8', u'9']","{u'mouseover': {u'state': {u'target': [], u'time': []}, u'edge': {u'target': [], u'time': []}}, u'click': {u'state': {u'target': [u'32', u'31', u'33', u'29', u'27', u'28', u'11', u'9', u'10', u'7', u'6', u'5', u'16', u'18', u'17', u'20', u'21', u'22'], u'time': [1995, 2644, 3478, 4331, 4869, 5544, 6321, 6994, 7971, 8641, 9322, 9915, 10753, 11534, 12202, 13074, 13804, 14494]}, u'edge': {u'target': [], u'time': []}}, u'mouseout': {u'state': {u'target': [], u'time': []}, u'edge': {u'target': [], u'time': []}}}","[-1, 4, 3, -8, 46]","[16054, 97, 433, 157, 358]",26.0,"[None, None, None, None, None]","[u'', -1, 4, 3, -5, 1, 10, -3, -8, 46, -38, 28, 0, -2, -1, -15, 9, 23, -17, 2, -80, -17, -43, 1, 0, 0, -2, -8, 25, -33, 7, 22, 33, -11]",216574,8.0,22255.0,mouselab-mdp,4
"[12273, 12961, 13619, 14284, 15073]","[u'right', u'right', u'right', u'down', u'left']",test,"[u'0', u'12', u'13', u'14', u'19', u'22']","{u'mouseover': {u'state': {u'target': [], u'time': []}, u'edge': {u'target': [], u'time': []}}, u'click': {u'state': {u'target': [u'21', u'22', u'20', u'17', u'18', u'16', u'6', u'5', u'7', u'10', u'11', u'9'], u'time': [1870, 2567, 3309, 4037, 4664, 5236, 6328, 6818, 7449, 9033, 9776, 11158]}, u'edge': {u'target': [], u'time': []}}, u'mouseout': {u'state': {u'target': [], u'time': []}, u'edge': {u'target': [], u'time': []}}}","[0, 2, 0, 0, 52]","[12231, 80, 99, 113, 209]",42.0,"[None, None, None, None, None]","[u'', 0, -3, -2, -9, 14, -20, 25, 4, -8, 3, 29, 0, 2, 0, 2, 26, 43, 17, 0, 23, -49, 52, -1, 2, -2, 4, -4, 10, -26, -17, 13, -19, -21]",235959,9.0,17697.0,mouselab-mdp,4
"[15494, 16140, 16827, 17607, 18412]","[u'left', u'left', u'left', u'up', u'left']",test,"[u'0', u'23', u'24', u'25', u'26', u'29']","{u'mouseover': {u'state': {u'target': [], u'time': []}, u'edge': {u'target': [], u'time': []}}, u'click': {u'state': {u'target': [u'32', u'33', u'31', u'29', u'28', u'27', u'11', u'9', u'5', u'6', u'7', u'10', u'16', u'18', u'22', u'21', u'20', u'17'], u'time': [1728, 3033, 3800, 4758, 5462, 5999, 6801, 7222, 7992, 8557, 9190, 9802, 10615, 11040, 11796, 12349, 13177, 13798]}, u'edge': {u'target': [], u'time': []}}, u'mouseout': {u'state': {u'target': [], u'time': []}, u'edge': {u'target': [], u'time': []}}}","[1, 0, 4, 12, 56]","[15476, 74, 142, 216, 255]",55.0,"[None, None, None, None, None]","[u'', -1, 1, -9, -9, -1, -55, 2, -6, -9, -8, 6, -1, 0, -2, 4, 54, 6, 5, -9, 22, -24, -26, 1, 0, 4, 12, -17, 4, 56, 8, 23, 42, -19]",260345,10.0,22602.0,mouselab-mdp,4
"[18102, 18765, 19498, 20272, 21286]","[u'up', u'up', u'up', u'right', u'down']",test,"[u'0', u'1', u'2', u'3', u'4', u'7']","{u'mouseover': {u'state': {u'target': [], u'time': []}, u'edge': {u'target': [], u'time': []}}, u'click': {u'state': {u'target': [u'32', u'31', u'21', u'22', u'20', u'17', u'16', u'18', u'6', u'5', u'9', u'11', u'10', u'7', u'28', u'27', u'29', u'33'], u'time': [1808, 2369, 3185, 3753, 4414, 5079, 5785, 6607, 7339, 7944, 8552, 9341, 9910, 11065, 12017, 12473, 12970, 14292]}, u'edge': {u'target': [], u'time': []}}, u'mouseout': {u'state': {u'target': [], u'time': []}, u'edge': {u'target': [], u'time': []}}}","[1, 2, 2, 9, 43]","[18061, 116, 162, 203, 429]",39.0,"[None, None, None, None, None]","[u'', 1, 2, 2, 9, -14, -2, 43, 16, -53, 30, -40, 0, -1, 1, -2, 13, 21, -11, 5, -9, 22, 38, 0, 0, -7, -6, -20, -5, -45, -10, -2, 7, 32]",285939,11.0,23710.0,mouselab-mdp,4
"[9771, 10405, 11048, 11732, 12511]","[u'up', u'up', u'up', u'left', u'left']",test,"[u'0', u'1', u'2', u'3', u'8', u'11']","{u'mouseover': {u'state': {u'target': [], u'time': []}, u'edge': {u'target': [], u'time': []}}, u'click': {u'state': {u'target': [u'32', u'33', u'31', u'28', u'27', u'29', u'11', u'9', u'10'], u'time': [1695, 2599, 3193, 4030, 4576, 5122, 6032, 6566, 7940]}, u'edge': {u'target': [], u'time': []}}, u'mouseout': {u'state': {u'target': [], u'time': []}, u'edge': {u'target': [], u'time': []}}}","[0, -1, -1, -6, 46]","[9751, 69, 83, 126, 206]",29.0,"[None, None, None, None, None]","[u'', 0, -1, -1, 8, 39, -38, -15, -6, 39, -2, 46, 0, 0, -5, 10, -12, -48, -19, -18, -1, 4, 9, 1, -1, 3, 2, -6, -66, 30, -4, 1, -41, 9]",302641,12.0,15020.0,mouselab-mdp,4
"[9111, 9712, 10328, 10987, 11739]","[u'up', u'up', u'up', u'right', u'down']",test,"[u'0', u'1', u'2', u'3', u'4', u'7']","{u'mouseover': {u'state': {u'target': [], u'time': []}, u'edge': {u'target': [], u'time': []}}, u'click': {u'state': {u'target': [u'21', u'22', u'20', u'17', u'16', u'18', u'6', u'7', u'5'], u'time': [1678, 2313, 2894, 3575, 4128, 4776, 5954, 7215, 7842]}, u'edge': {u'target': [], u'time': []}}, u'mouseout': {u'state': {u'target': [], u'time': []}, u'edge': {u'target': [], u'time': []}}}","[-1, 1, 4, 8, 64]","[9075, 47, 43, 91, 201]",67.0,"[None, None, None, None, None]","[u'', -1, 1, 4, 8, -97, -52, 64, -2, -5, 37, 6, -1, 0, 8, -11, 42, -10, -9, 15, -21, 27, -12, -1, 0, 5, -1, 18, 6, 1, -3, 4, -65, -14]",318855,13.0,14298.0,mouselab-mdp,4
"[15314, 15928, 16550, 17327, 18149]","[u'right', u'right', u'right', u'down', u'right']",test,"[u'0', u'12', u'13', u'14', u'19', u'20']","{u'mouseover': {u'state': {u'target': [], u'time': []}, u'edge': {u'target': [], u'time': []}}, u'click': {u'state': {u'target': [u'32', u'31', u'33', u'29', u'28', u'27', u'11', u'9', u'10', u'7', u'5', u'6', u'16', u'18', u'17', u'20', u'21', u'22'], u'time': [1624, 2788, 3437, 4219, 4973, 5720, 6297, 6793, 7621, 8189, 8790, 9366, 10017, 10594, 11199, 11996, 12573, 13454]}, u'edge': {u'target': [], u'time': []}}, u'mouseout': {u'state': {u'target': [], u'time': []}, u'edge': {u'target': [], u'time': []}}}","[-2, 1, -1, 4, 48]","[15283, 56, 52, 223, 261]",32.0,"[None, None, None, None, None]","[u'', 0, 0, 2, 6, 41, -4, -73, -1, 11, -6, -5, -2, 1, -1, -12, -28, -28, 19, 4, 48, 21, -43, -1, 2, 6, -2, 18, -48, -62, -9, -11, -17, -7]",341413,14.0,20358.0,mouselab-mdp,4
"[15016, 15668, 16340, 17060, 17773]","[u'left', u'left', u'left', u'down', u'right']",test,"[u'0', u'23', u'24', u'25', u'30', u'31']","{u'mouseover': {u'state': {u'target': [], u'time': []}, u'edge': {u'target': [], u'time': []}}, u'click': {u'state': {u'target': [u'21', u'22', u'20', u'17', u'16', u'18', u'6', u'5', u'7', u'10', u'11', u'9', u'27', u'28', u'29', u'33', u'32', u'31'], u'time': [2754, 3436, 4050, 4789, 5310, 5839, 6855, 7423, 7983, 8544, 9228, 9910, 10734, 11207, 11845, 12465, 12999, 13694]}, u'edge': {u'target': [], u'time': []}}, u'mouseout': {u'state': {u'target': [], u'time': []}, u'edge': {u'target': [], u'time': []}}}","[1, 1, -1, -3, 58]","[14992, 71, 103, 168, 144]",38.0,"[None, None, None, None, None]","[u'', -2, 3, 1, 5, 6, -6, -11, 1, 5, 37, 11, 0, 4, -5, -11, 11, -7, -57, -2, -23, 36, -20, 1, 1, -1, 0, 14, -74, 10, -3, 58, -22, 37]",362817,15.0,19601.0,mouselab-mdp,4
"[11350, 11992, 12680, 13378, 14054]","[u'right', u'right', u'right', u'up', u'up']",test,"[u'0', u'12', u'13', u'14', u'15', u'16']","{u'mouseover': {u'state': {u'target': [], u'time': []}, u'edge': {u'target': [], u'time': []}}, u'click': {u'state': {u'target': [u'32', u'31', u'33', u'29', u'27', u'28', u'11', u'9', u'10', u'7', u'5', u'16'], u'time': [1444, 2616, 3402, 4193, 4798, 5367, 6076, 6576, 7331, 8009, 8743, 9776]}, u'edge': {u'target': [], u'time': []}}, u'mouseout': {u'state': {u'target': [], u'time': []}, u'edge': {u'target': [], u'time': []}}}","[-1, -3, 5, -2, 45]","[11322, 90, 124, 143, 90]",32.0,"[None, None, None, None, None]","[u'', 0, 2, 1, 2, 9, -23, 27, 12, 24, 28, -28, -1, -3, 5, -2, 45, -25, -14, 1, 29, 2, 7, 0, 0, -4, 1, -6, -2, 16, -5, -3, -10, 13]",381033,16.0,16277.0,mouselab-mdp,4
"[4317, 4890, 5464, 6245, 7053]","[u'right', u'right', u'right', u'down', u'left']",test,"[u'0', u'12', u'13', u'14', u'19', u'22']","{u'mouseover': {u'state': {u'target': [], u'time': []}, u'edge': {u'target': [], u'time': []}}, u'click': {u'state': {u'target': [u'21', u'22'], u'time': [1830, 2534]}, u'edge': {u'target': [], u'time': []}}, u'mouseout': {u'state': {u'target': [], u'time': []}, u'edge': {u'target': [], u'time': []}}}","[0, -3, -3, 6, 40]","[4289, 7, 11, 222, 249]",38.0,"[None, None, None, None, None]","[u'', -1, 2, 3, 8, 8, -25, -39, -16, -2, 61, 15, 0, -3, -3, 0, -7, 29, -5, 6, -4, -6, 40, -1, -1, -5, 1, 34, 22, 23, 8, 20, 24, 13]",394563,17.0,11640.0,mouselab-mdp,4
"[16537, 17289, 17963, 18762, 19598]","[u'up', u'up', u'up', u'right', u'up']",test,"[u'0', u'1', u'2', u'3', u'4', u'5']","{u'mouseover': {u'state': {u'target': [], u'time': []}, u'edge': {u'target': [], u'time': []}}, u'click': {u'state': {u'target': [u'32', u'33', u'31', u'28', u'27', u'29', u'11', u'9', u'10', u'7', u'5', u'6', u'16', u'17', u'18', u'22', u'21', u'20'], u'time': [1536, 2508, 3117, 3846, 4353, 5017, 5969, 6430, 7040, 7629, 8153, 8652, 9221, 10110, 10696, 11650, 12263, 12816]}, u'edge': {u'target': [], u'time': []}}, u'mouseout': {u'state': {u'target': [], u'time': []}, u'edge': {u'target': [], u'time': []}}}","[-1, -1, 4, -6, 37]","[16499, 198, 90, 242, 274]",15.0,"[None, None, None, None, None]","[u'', -1, -1, 4, -6, 37, 17, -50, 1, -47, 30, -54, -2, -2, -3, 11, -1, 9, 34, -6, -19, -27, 25, 2, 1, -2, -4, -36, 23, -34, -2, -37, -61, -81]",418157,18.0,21734.0,mouselab-mdp,4
"[8774, 9413, 10091, 10893, 11836]","[u'right', u'right', u'right', u'up', u'up']",test,"[u'0', u'12', u'13', u'14', u'15', u'16']","{u'mouseover': {u'state': {u'target': [], u'time': []}, u'edge': {u'target': [], u'time': []}}, u'click': {u'state': {u'target': [u'21', u'22', u'20', u'16', u'18', u'17', u'5', u'6'], u'time': [1539, 2137, 3028, 4724, 5510, 6140, 7309, 7983]}, u'edge': {u'target': [], u'time': []}}, u'mouseout': {u'state': {u'target': [], u'time': []}, u'edge': {u'target': [], u'time': []}}}","[1, 1, 0, -7, 62]","[8748, 61, 125, 229, 395]",49.0,"[None, None, None, None, None]","[u'', 0, -6, 2, -12, 19, -31, -47, 4, -48, -14, 7, 1, 1, 0, -7, 62, -19, 58, -4, 37, 34, -33, 0, 2, 3, -2, 10, -13, -37, 8, -18, 44, 19]",434220,19.0,14259.0,mouselab-mdp,4
