action_times,actions,beliefs,correct,delays,information_used_correctly,meta_actions,path,planned_too_little,planned_too_much,queries,questions,responses,rt,score,time_elapsed,trial_index,trial_i,trial_type,view_history,pid
"[14779, 15861, 16668]","[u'1', u'1', u'0']","[[0, u'__', u'__', u'__', u'__', u'__', u'__', u'__', u'__', u'__', u'__', u'__', u'__', u'__', u'__', u'__', u'__'], [0, u'__', u'__', u'__', u'__', u'__', u'__', u'__', u'__', u'__', -4, u'__', u'__', u'__', u'__', u'__', u'__'], [0, u'__', u'__', u'__', u'__', u'__', u'__', u'__', u'__', u'__', -4, u'__', u'__', 4, u'__', u'__', u'__'], [0, u'__', u'__', u'__', u'__', 4, u'__', u'__', u'__', u'__', -4, u'__', u'__', 4, u'__', u'__', u'__'], [0, -4, u'__', u'__', u'__', 4, u'__', u'__', u'__', u'__', -4, u'__', u'__', 4, u'__', u'__', u'__'], [0, -4, u'__', u'__', u'__', 4, u'__', u'__', u'__', u'__', -4, u'__', u'__', 4, 4, u'__', u'__'], [0, -4, u'__', u'__', u'__', 4, u'__', u'__', u'__', u'__', -4, u'__', u'__', 4, 4, u'__', -12], [0, -4, u'__', u'__', u'__', 4, u'__', u'__', u'__', u'__', -4, u'__', u'__', 4, 4, -12, -12], [0, -4, u'__', u'__', u'__', 4, u'__', u'__', 4, u'__', -4, u'__', u'__', 4, 4, -12, -12], [0, -4, u'__', u'__', u'__', 4, 4, u'__', 4, u'__', -4, u'__', u'__', 4, 4, -12, -12]]",,[],[],[],"[u'0', 5, 6, 8]",[],[],"{u'mouseover': {u'state': {u'target': [], u'time': []}, u'edge': {u'target': [], u'time': []}}, u'click': {u'state': {u'target': [10, 13, 5, 1, 14, 16, 15, 8, 6], u'time': [2179, 4344, 5941, 6987, 8063, 9136, 9891, 10930, 13843]}, u'edge': {u'target': [], u'time': []}}, u'mouseout': {u'state': {u'target': [], u'time': []}, u'edge': {u'target': [], u'time': []}}}",,,"[14779, 584, 310]",3.0,127717,1.0,,mouselab-mdp,,0
"[4104, 8797, 10940]","[u'2', u'2', u'3']","[[0, u'__', u'__', u'__', u'__', u'__', u'__', u'__', u'__', u'__', u'__', u'__', u'__', u'__', u'__', u'__', u'__'], [0, u'__', u'__', u'__', u'__', u'__', u'__', u'__', u'__', 20, u'__', u'__', u'__', u'__', u'__', u'__', u'__']]",,[],[],[],"[u'0', 9, 10, 11]",[],[],"{u'mouseover': {u'state': {u'target': [], u'time': []}, u'edge': {u'target': [], u'time': []}}, u'click': {u'state': {u'target': [9], u'time': [2817]}, u'edge': {u'target': [], u'time': []}}, u'mouseout': {u'state': {u'target': [], u'time': []}, u'edge': {u'target': [], u'time': []}}}",,,"[4104, 4185, 1644]",27.0,181776,2.0,,mouselab-mdp,,0
"[4214, 5280, 6518]","[u'0', u'0', u'1']","[[0, u'__', u'__', u'__', u'__', u'__', u'__', u'__', u'__', u'__', u'__', u'__', u'__', u'__', u'__', u'__', u'__'], [0, 12, u'__', u'__', u'__', u'__', u'__', u'__', u'__', u'__', u'__', u'__', u'__', u'__', u'__', u'__', u'__']]",,[],[],[],"[u'0', 1, 2, 3]",[],[],"{u'mouseover': {u'state': {u'target': [], u'time': []}, u'edge': {u'target': [], u'time': []}}, u'click': {u'state': {u'target': [1], u'time': [2698]}, u'edge': {u'target': [], u'time': []}}, u'mouseout': {u'state': {u'target': [], u'time': []}, u'edge': {u'target': [], u'time': []}}}",,,"[4214, 548, 737]",3.0,237763,3.0,,mouselab-mdp,,0
"[7856, 10576, 12224]","[u'2', u'2', u'1']","[[0, u'__', u'__', u'__', u'__', u'__', u'__', u'__', u'__', u'__', u'__', u'__', u'__', u'__', u'__', u'__', u'__'], [0, u'__', u'__', u'__', u'__', u'__', u'__', u'__', u'__', u'__', u'__', u'__', u'__', -12, u'__', u'__', u'__'], [0, -4, u'__', u'__', u'__', u'__', u'__', u'__', u'__', u'__', u'__', u'__', u'__', -12, u'__', u'__', u'__'], [0, -4, u'__', u'__', u'__', u'__', u'__', u'__', u'__', 4, u'__', u'__', u'__', -12, u'__', u'__', u'__']]",,[],[],[],"[u'0', 9, 10, 12]",[],[],"{u'mouseover': {u'state': {u'target': [], u'time': []}, u'edge': {u'target': [], u'time': []}}, u'click': {u'state': {u'target': [13, 1, 9], u'time': [2166, 3420, 6643]}, u'edge': {u'target': [], u'time': []}}, u'mouseout': {u'state': {u'target': [], u'time': []}, u'edge': {u'target': [], u'time': []}}}",,,"[7855, 2206, 1136]",17.0,286964,4.0,,mouselab-mdp,,0
"[7926, 9520, 10646]","[u'0', u'0', u'3']","[[0, u'__', u'__', u'__', u'__', u'__', u'__', u'__', u'__', u'__', u'__', u'__', u'__', u'__', u'__', u'__', u'__'], [0, u'__', u'__', u'__', u'__', u'__', u'__', u'__', u'__', -12, u'__', u'__', u'__', u'__', u'__', u'__', u'__'], [0, 12, u'__', u'__', u'__', u'__', u'__', u'__', u'__', -12, u'__', u'__', u'__', u'__', u'__', u'__', u'__'], [0, 12, u'__', u'__', u'__', u'__', u'__', u'__', u'__', -12, u'__', u'__', u'__', 4, u'__', u'__', u'__'], [0, 12, u'__', u'__', u'__', 4, u'__', u'__', u'__', -12, u'__', u'__', u'__', 4, u'__', u'__', u'__']]",,[],[],[],"[u'0', 1, 2, 4]",[],[],"{u'mouseover': {u'state': {u'target': [], u'time': []}, u'edge': {u'target': [], u'time': []}}, u'click': {u'state': {u'target': [9, 1, 13, 5], u'time': [1869, 2988, 4695, 6376]}, u'edge': {u'target': [], u'time': []}}, u'mouseout': {u'state': {u'target': [], u'time': []}, u'edge': {u'target': [], u'time': []}}}",,,"[7926, 1101, 624]",-16.0,343440,5.0,,mouselab-mdp,,0
"[14295, 24248, 53879]","[u'1', u'1', u'0']","[[0, u'__', u'__', u'__', u'__', u'__', u'__', u'__', u'__', u'__', u'__', u'__', u'__', u'__', u'__', u'__', u'__'], [0, u'__', u'__', u'__', u'__', u'__', u'__', u'__', u'__', 4, u'__', u'__', u'__', u'__', u'__', u'__', u'__'], [0, -4, u'__', u'__', u'__', u'__', u'__', u'__', u'__', 4, u'__', u'__', u'__', u'__', u'__', u'__', u'__'], [0, -4, u'__', u'__', u'__', 20, u'__', u'__', u'__', 4, u'__', u'__', u'__', u'__', u'__', u'__', u'__'], [0, -4, u'__', u'__', u'__', 20, u'__', u'__', u'__', 4, u'__', u'__', u'__', -12, u'__', u'__', u'__'], [0, -4, u'__', u'__', u'__', 20, -12, u'__', u'__', 4, u'__', u'__', u'__', -12, u'__', u'__', u'__'], [0, -4, u'__', u'__', u'__', 20, -12, -12, u'__', 4, u'__', u'__', u'__', -12, u'__', u'__', u'__'], [0, -4, u'__', u'__', u'__', 20, -12, -12, -12, 4, u'__', u'__', u'__', -12, u'__', u'__', u'__'], [0, -4, u'__', u'__', u'__', 20, -12, -12, -12, 4, -4, u'__', u'__', -12, u'__', u'__', u'__'], [0, -4, u'__', u'__', u'__', 20, -12, -12, -12, 4, -4, u'__', -4, -12, u'__', u'__', u'__'], [0, -4, u'__', u'__', u'__', 20, -12, -12, -12, 4, -4, -4, -4, -12, u'__', u'__', u'__']]",,[],[],[],"[u'0', 5, 6, 8]",[],[],"{u'mouseover': {u'state': {u'target': [], u'time': []}, u'edge': {u'target': [], u'time': []}}, u'click': {u'state': {u'target': [9, 1, 5, 13, 6, 7, 8, 10, 12, 11], u'time': [1994, 3201, 4174, 5350, 6104, 7284, 8452, 10858, 12126, 13372]}, u'edge': {u'target': [], u'time': []}}, u'mouseout': {u'state': {u'target': [], u'time': []}, u'edge': {u'target': [], u'time': []}}}",,,"[14295, 9438, 29119]",-14.0,400643,6.0,,mouselab-mdp,,0
"[5305, 6290, 7105]","[u'3', u'3', u'2']","[[0, u'__', u'__', u'__', u'__', u'__', u'__', u'__', u'__', u'__', u'__', u'__', u'__', u'__', u'__', u'__', u'__'], [0, u'__', u'__', u'__', u'__', u'__', u'__', u'__', u'__', 4, u'__', u'__', u'__', u'__', u'__', u'__', u'__'], [0, u'__', u'__', u'__', u'__', u'__', u'__', u'__', u'__', 4, u'__', u'__', u'__', 12, u'__', u'__', u'__'], [0, u'__', u'__', u'__', u'__', u'__', u'__', u'__', u'__', 4, u'__', u'__', u'__', 12, -4, u'__', u'__'], [0, u'__', u'__', u'__', u'__', u'__', u'__', u'__', u'__', 4, u'__', u'__', u'__', 12, -4, u'__', 12]]",,[],[],[],"[u'0', 13, 14, 16]",[],[],"{u'mouseover': {u'state': {u'target': [], u'time': []}, u'edge': {u'target': [], u'time': []}}, u'click': {u'state': {u'target': [9, 13, 14, 16], u'time': [1403, 2334, 3557, 4239]}, u'edge': {u'target': [], u'time': []}}, u'mouseout': {u'state': {u'target': [], u'time': []}, u'edge': {u'target': [], u'time': []}}}",,,"[5305, 467, 298]",16.0,455015,7.0,,mouselab-mdp,,0
"[9386, 10299, 11378]","[u'1', u'1', u'0']","[[0, u'__', u'__', u'__', u'__', u'__', u'__', u'__', u'__', u'__', u'__', u'__', u'__', u'__', u'__', u'__', u'__'], [0, u'__', u'__', u'__', u'__', u'__', u'__', u'__', u'__', 4, u'__', u'__', u'__', u'__', u'__', u'__', u'__'], [0, 4, u'__', u'__', u'__', u'__', u'__', u'__', u'__', 4, u'__', u'__', u'__', u'__', u'__', u'__', u'__'], [0, 4, u'__', u'__', u'__', u'__', u'__', u'__', u'__', 4, u'__', u'__', u'__', -12, u'__', u'__', u'__'], [0, 4, u'__', u'__', u'__', 20, u'__', u'__', u'__', 4, u'__', u'__', u'__', -12, u'__', u'__', u'__'], [0, 4, u'__', u'__', u'__', 20, 12, u'__', u'__', 4, u'__', u'__', u'__', -12, u'__', u'__', u'__'], [0, 4, u'__', u'__', u'__', 20, 12, -20, u'__', 4, u'__', u'__', u'__', -12, u'__', u'__', u'__'], [0, 4, u'__', u'__', u'__', 20, 12, -20, -4, 4, u'__', u'__', u'__', -12, u'__', u'__', u'__']]",,[],[],[],"[u'0', 5, 6, 8]",[],[],"{u'mouseover': {u'state': {u'target': [], u'time': []}, u'edge': {u'target': [], u'time': []}}, u'click': {u'state': {u'target': [9, 1, 13, 5, 6, 7, 8], u'time': [2557, 3447, 4100, 5296, 6432, 7108, 7973]}, u'edge': {u'target': [], u'time': []}}, u'mouseout': {u'state': {u'target': [], u'time': []}, u'edge': {u'target': [], u'time': []}}}",,,"[9386, 404, 583]",21.0,501460,8.0,,mouselab-mdp,,0
"[17196, 18359, 19272]","[u'0', u'0', u'1']","[[0, u'__', u'__', u'__', u'__', u'__', u'__', u'__', u'__', u'__', u'__', u'__', u'__', u'__', u'__', u'__', u'__'], [0, u'__', u'__', u'__', u'__', u'__', u'__', u'__', u'__', -4, u'__', u'__', u'__', u'__', u'__', u'__', u'__'], [0, -12, u'__', u'__', u'__', u'__', u'__', u'__', u'__', -4, u'__', u'__', u'__', u'__', u'__', u'__', u'__'], [0, -12, u'__', u'__', u'__', u'__', u'__', u'__', u'__', -4, u'__', u'__', u'__', -20, u'__', u'__', u'__'], [0, -12, u'__', u'__', u'__', -4, u'__', u'__', u'__', -4, u'__', u'__', u'__', -20, u'__', u'__', u'__'], [0, -12, u'__', u'__', u'__', -4, u'__', u'__', u'__', -4, 4, u'__', u'__', -20, u'__', u'__', u'__'], [0, -12, u'__', u'__', u'__', -4, u'__', u'__', u'__', -4, 4, -4, u'__', -20, u'__', u'__', u'__'], [0, -12, u'__', u'__', u'__', -4, u'__', u'__', u'__', -4, 4, -4, -12, -20, u'__', u'__', u'__'], [0, -12, u'__', u'__', u'__', -4, -4, u'__', u'__', -4, 4, -4, -12, -20, u'__', u'__', u'__'], [0, -12, u'__', u'__', u'__', -4, -4, -12, u'__', -4, 4, -4, -12, -20, u'__', u'__', u'__'], [0, -12, u'__', u'__', u'__', -4, -4, -12, -4, -4, 4, -4, -12, -20, u'__', u'__', u'__'], [0, -12, u'__', u'__', u'__', -4, -4, -12, -4, -4, 4, -4, -12, -20, -12, u'__', u'__'], [0, -12, u'__', u'__', u'__', -4, -4, -12, -4, -4, 4, -4, -12, -20, -12, u'__', -4], [0, -12, u'__', u'__', u'__', -4, -4, -12, -4, -4, 4, -4, -12, -20, -12, 4, -4], [0, -12, 12, u'__', u'__', -4, -4, -12, -4, -4, 4, -4, -12, -20, -12, 4, -4], [0, -12, 12, 4, u'__', -4, -4, -12, -4, -4, 4, -4, -12, -20, -12, 4, -4], [0, -12, 12, 4, -4, -4, -4, -12, -4, -4, 4, -4, -12, -20, -12, 4, -4]]",,[],[],[],"[u'0', 1, 2, 3]",[],[],"{u'mouseover': {u'state': {u'target': [], u'time': []}, u'edge': {u'target': [], u'time': []}}, u'click': {u'state': {u'target': [9, 1, 13, 5, 10, 11, 12, 6, 7, 8, 14, 16, 15, 2, 3, 4], u'time': [1786, 2592, 3199, 3889, 4844, 5423, 6164, 7452, 8099, 8745, 10015, 11057, 11842, 12729, 13403, 14364]}, u'edge': {u'target': [], u'time': []}}, u'mouseout': {u'state': {u'target': [], u'time': []}, u'edge': {u'target': [], u'time': []}}}",,,"[17196, 669, 418]",-12.0,549219,9.0,,mouselab-mdp,,0
"[7091, 8011, 9268]","[u'1', u'1', u'0']","[[0, u'__', u'__', u'__', u'__', u'__', u'__', u'__', u'__', u'__', u'__', u'__', u'__', u'__', u'__', u'__', u'__'], [0, u'__', u'__', u'__', u'__', u'__', u'__', u'__', u'__', 4, u'__', u'__', u'__', u'__', u'__', u'__', u'__'], [0, -12, u'__', u'__', u'__', u'__', u'__', u'__', u'__', 4, u'__', u'__', u'__', u'__', u'__', u'__', u'__'], [0, -12, u'__', u'__', u'__', 20, u'__', u'__', u'__', 4, u'__', u'__', u'__', u'__', u'__', u'__', u'__'], [0, -12, u'__', u'__', u'__', 20, 4, u'__', u'__', 4, u'__', u'__', u'__', u'__', u'__', u'__', u'__'], [0, -12, u'__', u'__', u'__', 20, 4, -4, u'__', 4, u'__', u'__', u'__', u'__', u'__', u'__', u'__'], [0, -12, u'__', u'__', u'__', 20, 4, -4, -4, 4, u'__', u'__', u'__', u'__', u'__', u'__', u'__']]",,[],[],[],"[u'0', 5, 6, 8]",[],[],"{u'mouseover': {u'state': {u'target': [], u'time': []}, u'edge': {u'target': [], u'time': []}}, u'click': {u'state': {u'target': [9, 1, 5, 6, 7, 8], u'time': [1164, 2146, 3129, 4368, 5161, 6069]}, u'edge': {u'target': [], u'time': []}}, u'mouseout': {u'state': {u'target': [], u'time': []}, u'edge': {u'target': [], u'time': []}}}",,,"[7090, 416, 738]",14.0,596681,10.0,,mouselab-mdp,,0
"[8936, 9696, 10681]","[u'2', u'2', u'3']","[[0, u'__', u'__', u'__', u'__', u'__', u'__', u'__', u'__', u'__', u'__', u'__', u'__', u'__', u'__', u'__', u'__'], [0, u'__', u'__', u'__', u'__', u'__', u'__', u'__', u'__', 20, u'__', u'__', u'__', u'__', u'__', u'__', u'__'], [0, -12, u'__', u'__', u'__', u'__', u'__', u'__', u'__', 20, u'__', u'__', u'__', u'__', u'__', u'__', u'__'], [0, -12, u'__', u'__', u'__', u'__', u'__', u'__', u'__', 20, u'__', u'__', u'__', -4, u'__', u'__', u'__'], [0, -12, u'__', u'__', u'__', 12, u'__', u'__', u'__', 20, u'__', u'__', u'__', -4, u'__', u'__', u'__'], [0, -12, u'__', u'__', u'__', 12, u'__', u'__', u'__', 20, 4, u'__', u'__', -4, u'__', u'__', u'__'], [0, -12, u'__', u'__', u'__', 12, u'__', u'__', u'__', 20, 4, u'__', -20, -4, u'__', u'__', u'__'], [0, -12, u'__', u'__', u'__', 12, u'__', u'__', u'__', 20, 4, 4, -20, -4, u'__', u'__', u'__']]",,[],[],[],"[u'0', 9, 10, 11]",[],[],"{u'mouseover': {u'state': {u'target': [], u'time': []}, u'edge': {u'target': [], u'time': []}}, u'click': {u'state': {u'target': [9, 1, 13, 5, 10, 12, 11], u'time': [2559, 3614, 4430, 5089, 6527, 7170, 8272]}, u'edge': {u'target': [], u'time': []}}, u'mouseout': {u'state': {u'target': [], u'time': []}, u'edge': {u'target': [], u'time': []}}}",,,"[8936, 269, 470]",21.0,659398,11.0,,mouselab-mdp,,0
"[8038, 8745, 9476]","[u'1', u'1', u'2']","[[0, u'__', u'__', u'__', u'__', u'__', u'__', u'__', u'__', u'__', u'__', u'__', u'__', u'__', u'__', u'__', u'__'], [0, u'__', u'__', u'__', u'__', u'__', u'__', u'__', u'__', 4, u'__', u'__', u'__', u'__', u'__', u'__', u'__'], [0, u'__', u'__', u'__', u'__', u'__', u'__', u'__', u'__', 4, u'__', u'__', u'__', -4, u'__', u'__', u'__'], [0, u'__', u'__', u'__', u'__', 12, u'__', u'__', u'__', 4, u'__', u'__', u'__', -4, u'__', u'__', u'__'], [0, 4, u'__', u'__', u'__', 12, u'__', u'__', u'__', 4, u'__', u'__', u'__', -4, u'__', u'__', u'__'], [0, 4, u'__', u'__', u'__', 12, 4, u'__', u'__', 4, u'__', u'__', u'__', -4, u'__', u'__', u'__'], [0, 4, u'__', u'__', u'__', 12, 4, 12, u'__', 4, u'__', u'__', u'__', -4, u'__', u'__', u'__']]",,[],[],[],"[u'0', 5, 6, 7]",[],[],"{u'mouseover': {u'state': {u'target': [], u'time': []}, u'edge': {u'target': [], u'time': []}}, u'click': {u'state': {u'target': [9, 13, 5, 1, 6, 7], u'time': [2581, 3631, 4372, 5158, 6434, 7190]}, u'edge': {u'target': [], u'time': []}}, u'mouseout': {u'state': {u'target': [], u'time': []}, u'edge': {u'target': [], u'time': []}}}",,,"[8038, 202, 217]",22.0,707004,12.0,,mouselab-mdp,,0
"[7560, 8213, 8947]","[u'2', u'2', u'3']","[[0, u'__', u'__', u'__', u'__', u'__', u'__', u'__', u'__', u'__', u'__', u'__', u'__', u'__', u'__', u'__', u'__'], [0, u'__', u'__', u'__', u'__', -12, u'__', u'__', u'__', u'__', u'__', u'__', u'__', u'__', u'__', u'__', u'__'], [0, u'__', u'__', u'__', u'__', -12, u'__', u'__', u'__', 12, u'__', u'__', u'__', u'__', u'__', u'__', u'__'], [0, u'__', u'__', u'__', u'__', -12, u'__', u'__', u'__', 12, 4, u'__', u'__', u'__', u'__', u'__', u'__'], [0, u'__', u'__', u'__', u'__', -12, u'__', u'__', u'__', 12, 4, 4, u'__', u'__', u'__', u'__', u'__'], [0, u'__', u'__', u'__', u'__', -12, u'__', u'__', u'__', 12, 4, 4, u'__', 4, u'__', u'__', u'__']]",,[],[],[],"[u'0', 9, 10, 11]",[],[],"{u'mouseover': {u'state': {u'target': [], u'time': []}, u'edge': {u'target': [], u'time': []}}, u'click': {u'state': {u'target': [5, 9, 10, 11, 13], u'time': [886, 1617, 2721, 3548, 6594]}, u'edge': {u'target': [], u'time': []}}, u'mouseout': {u'state': {u'target': [], u'time': []}, u'edge': {u'target': [], u'time': []}}}",,,"[7560, 147, 231]",15.0,756953,13.0,,mouselab-mdp,,0
"[7680, 8331, 9158]","[u'1', u'1', u'0']","[[0, u'__', u'__', u'__', u'__', u'__', u'__', u'__', u'__', u'__', u'__', u'__', u'__', u'__', u'__', u'__', u'__'], [0, -20, u'__', u'__', u'__', u'__', u'__', u'__', u'__', u'__', u'__', u'__', u'__', u'__', u'__', u'__', u'__'], [0, -20, u'__', u'__', u'__', u'__', u'__', u'__', u'__', -12, u'__', u'__', u'__', u'__', u'__', u'__', u'__'], [0, -20, u'__', u'__', u'__', u'__', u'__', u'__', u'__', -12, u'__', u'__', u'__', 4, u'__', u'__', u'__'], [0, -20, u'__', u'__', u'__', 20, u'__', u'__', u'__', -12, u'__', u'__', u'__', 4, u'__', u'__', u'__'], [0, -20, u'__', u'__', u'__', 20, 12, u'__', u'__', -12, u'__', u'__', u'__', 4, u'__', u'__', u'__'], [0, -20, u'__', u'__', u'__', 20, 12, -4, u'__', -12, u'__', u'__', u'__', 4, u'__', u'__', u'__'], [0, -20, u'__', u'__', u'__', 20, 12, -4, 4, -12, u'__', u'__', u'__', 4, u'__', u'__', u'__']]",,[],[],[],"[u'0', 5, 6, 8]",[],[],"{u'mouseover': {u'state': {u'target': [], u'time': []}, u'edge': {u'target': [], u'time': []}}, u'click': {u'state': {u'target': [1, 9, 13, 5, 6, 7, 8], u'time': [2421, 3450, 4190, 4797, 5621, 6188, 6979]}, u'edge': {u'target': [], u'time': []}}, u'mouseout': {u'state': {u'target': [], u'time': []}, u'edge': {u'target': [], u'time': []}}}",,,"[7680, 139, 315]",29.0,808415,14.0,,mouselab-mdp,,0
"[9187, 10034, 10745]","[u'1', u'1', u'0']","[[0, u'__', u'__', u'__', u'__', u'__', u'__', u'__', u'__', u'__', u'__', u'__', u'__', u'__', u'__', u'__', u'__'], [0, u'__', u'__', u'__', u'__', u'__', u'__', u'__', u'__', -4, u'__', u'__', u'__', u'__', u'__', u'__', u'__'], [0, u'__', u'__', u'__', u'__', u'__', u'__', u'__', u'__', -4, u'__', u'__', u'__', -4, u'__', u'__', u'__'], [0, 4, u'__', u'__', u'__', u'__', u'__', u'__', u'__', -4, u'__', u'__', u'__', -4, u'__', u'__', u'__'], [0, 4, u'__', u'__', u'__', 4, u'__', u'__', u'__', -4, u'__', u'__', u'__', -4, u'__', u'__', u'__'], [0, 4, u'__', u'__', u'__', 4, -4, u'__', u'__', -4, u'__', u'__', u'__', -4, u'__', u'__', u'__'], [0, 4, -20, u'__', u'__', 4, -4, u'__', u'__', -4, u'__', u'__', u'__', -4, u'__', u'__', u'__'], [0, 4, -20, u'__', u'__', 4, -4, 4, u'__', -4, u'__', u'__', u'__', -4, u'__', u'__', u'__'], [0, 4, -20, u'__', u'__', 4, -4, 4, 20, -4, u'__', u'__', u'__', -4, u'__', u'__', u'__']]",,[],[],[],"[u'0', 5, 6, 8]",[],[],"{u'mouseover': {u'state': {u'target': [], u'time': []}, u'edge': {u'target': [], u'time': []}}, u'click': {u'state': {u'target': [9, 13, 1, 5, 6, 2, 7, 8], u'time': [927, 1623, 2219, 3281, 4367, 6182, 7265, 8146]}, u'edge': {u'target': [], u'time': []}}, u'mouseout': {u'state': {u'target': [], u'time': []}, u'edge': {u'target': [], u'time': []}}}",,,"[9187, 328, 206]",12.0,858932,15.0,,mouselab-mdp,,0
"[6596, 7214, 7898]","[u'3', u'3', u'2']","[[0, u'__', u'__', u'__', u'__', u'__', u'__', u'__', u'__', u'__', u'__', u'__', u'__', u'__', u'__', u'__', u'__'], [0, u'__', u'__', u'__', u'__', u'__', u'__', u'__', u'__', -4, u'__', u'__', u'__', u'__', u'__', u'__', u'__'], [0, u'__', u'__', u'__', u'__', u'__', u'__', u'__', u'__', -4, u'__', u'__', u'__', 4, u'__', u'__', u'__'], [0, 4, u'__', u'__', u'__', u'__', u'__', u'__', u'__', -4, u'__', u'__', u'__', 4, u'__', u'__', u'__'], [0, 4, u'__', u'__', u'__', 4, u'__', u'__', u'__', -4, u'__', u'__', u'__', 4, u'__', u'__', u'__'], [0, 4, u'__', u'__', u'__', 4, -4, u'__', u'__', -4, u'__', u'__', u'__', 4, u'__', u'__', u'__'], [0, 4, u'__', u'__', u'__', 4, -4, u'__', u'__', -4, u'__', u'__', u'__', 4, 12, u'__', u'__'], [0, 4, u'__', u'__', u'__', 4, -4, u'__', u'__', -4, u'__', u'__', u'__', 4, 12, u'__', 12]]",,[],[],[],"[u'0', 13, 14, 16]",[],[],"{u'mouseover': {u'state': {u'target': [], u'time': []}, u'edge': {u'target': [], u'time': []}}, u'click': {u'state': {u'target': [9, 13, 1, 5, 6, 14, 16], u'time': [910, 1612, 2353, 3102, 4173, 5003, 5706]}, u'edge': {u'target': [], u'time': []}}, u'mouseout': {u'state': {u'target': [], u'time': []}, u'edge': {u'target': [], u'time': []}}}",,,"[6596, 101, 167]",21.0,907057,16.0,,mouselab-mdp,,0
"[9558, 11773, 12997]","[u'2', u'2', u'1']","[[0, u'__', u'__', u'__', u'__', u'__', u'__', u'__', u'__', u'__', u'__', u'__', u'__', u'__', u'__', u'__', u'__'], [0, u'__', u'__', u'__', u'__', u'__', u'__', u'__', u'__', 4, u'__', u'__', u'__', u'__', u'__', u'__', u'__'], [0, u'__', u'__', u'__', u'__', 4, u'__', u'__', u'__', 4, u'__', u'__', u'__', u'__', u'__', u'__', u'__']]",,[],[],[],"[u'0', 9, 10, 12]",[],[],"{u'mouseover': {u'state': {u'target': [], u'time': []}, u'edge': {u'target': [], u'time': []}}, u'click': {u'state': {u'target': [9, 5], u'time': [2338, 6460]}, u'edge': {u'target': [], u'time': []}}, u'mouseout': {u'state': {u'target': [], u'time': []}, u'edge': {u'target': [], u'time': []}}}",,,"[9557, 1689, 703]",18.0,212525,1.0,,mouselab-mdp,,2
"[12859, 14450, 15610]","[u'1', u'1', u'0']","[[0, u'__', u'__', u'__', u'__', u'__', u'__', u'__', u'__', u'__', u'__', u'__', u'__', u'__', u'__', u'__', u'__'], [0, u'__', u'__', u'__', u'__', u'__', u'__', u'__', -4, u'__', u'__', u'__', u'__', u'__', u'__', u'__', u'__'], [0, u'__', u'__', u'__', u'__', 20, u'__', u'__', -4, u'__', u'__', u'__', u'__', u'__', u'__', u'__', u'__']]",,[],[],[],"[u'0', 5, 6, 8]",[],[],"{u'mouseover': {u'state': {u'target': [], u'time': []}, u'edge': {u'target': [], u'time': []}}, u'click': {u'state': {u'target': [8, 5], u'time': [3923, 10963]}, u'edge': {u'target': [], u'time': []}}, u'mouseout': {u'state': {u'target': [], u'time': []}, u'edge': {u'target': [], u'time': []}}}",,,"[12858, 1066, 635]",18.0,262220,2.0,,mouselab-mdp,,2
"[9820, 11244, 12635]","[u'1', u'1', u'2']","[[0, u'__', u'__', u'__', u'__', u'__', u'__', u'__', u'__', u'__', u'__', u'__', u'__', u'__', u'__', u'__', u'__'], [0, u'__', u'__', 12, u'__', u'__', u'__', u'__', u'__', u'__', u'__', u'__', u'__', u'__', u'__', u'__', u'__'], [0, -12, u'__', 12, u'__', u'__', u'__', u'__', u'__', u'__', u'__', u'__', u'__', u'__', u'__', u'__', u'__']]",,[],[],[],"[u'0', 5, 6, 7]",[],[],"{u'mouseover': {u'state': {u'target': [], u'time': []}, u'edge': {u'target': [], u'time': []}}, u'click': {u'state': {u'target': [3, 1], u'time': [4773, 6125]}, u'edge': {u'target': [], u'time': []}}, u'mouseout': {u'state': {u'target': [], u'time': []}, u'edge': {u'target': [], u'time': []}}}",,,"[9819, 815, 867]",18.0,310371,3.0,,mouselab-mdp,,2
"[12711, 14136, 15216]","[u'2', u'2', u'3']","[[0, u'__', u'__', u'__', u'__', u'__', u'__', u'__', u'__', u'__', u'__', u'__', u'__', u'__', u'__', u'__', u'__'], [0, u'__', u'__', u'__', u'__', u'__', u'__', u'__', u'__', u'__', u'__', u'__', u'__', u'__', u'__', 4, u'__'], [0, u'__', u'__', u'__', u'__', u'__', u'__', -12, u'__', u'__', u'__', u'__', u'__', u'__', u'__', 4, u'__']]",,[],[],[],"[u'0', 9, 10, 11]",[],[],"{u'mouseover': {u'state': {u'target': [], u'time': []}, u'edge': {u'target': [], u'time': []}}, u'click': {u'state': {u'target': [15, 7], u'time': [3837, 9953]}, u'edge': {u'target': [], u'time': []}}, u'mouseout': {u'state': {u'target': [], u'time': []}, u'edge': {u'target': [], u'time': []}}}",,,"[12711, 869, 548]",-6.0,358946,4.0,,mouselab-mdp,,2
"[9321, 10609, 11712]","[u'3', u'3', u'2']","[[0, u'__', u'__', u'__', u'__', u'__', u'__', u'__', u'__', u'__', u'__', u'__', u'__', u'__', u'__', u'__', u'__'], [0, u'__', u'__', u'__', -4, u'__', u'__', u'__', u'__', u'__', u'__', u'__', u'__', u'__', u'__', u'__', u'__'], [0, u'__', u'__', u'__', -4, u'__', u'__', u'__', u'__', u'__', u'__', u'__', u'__', u'__', u'__', u'__', 12]]",,[],[],[],"[u'0', 13, 14, 16]",[],[],"{u'mouseover': {u'state': {u'target': [], u'time': []}, u'edge': {u'target': [], u'time': []}}, u'click': {u'state': {u'target': [4, 16], u'time': [3716, 7302]}, u'edge': {u'target': [], u'time': []}}, u'mouseout': {u'state': {u'target': [], u'time': []}, u'edge': {u'target': [], u'time': []}}}",,,"[9321, 767, 580]",18.0,407713,5.0,,mouselab-mdp,,2
"[9370, 10442, 11474]","[u'3', u'3', u'0']","[[0, u'__', u'__', u'__', u'__', u'__', u'__', u'__', u'__', u'__', u'__', u'__', u'__', u'__', u'__', u'__', u'__'], [0, u'__', u'__', u'__', u'__', u'__', u'__', -12, u'__', u'__', u'__', u'__', u'__', u'__', u'__', u'__', u'__'], [0, u'__', u'__', u'__', u'__', u'__', u'__', -12, u'__', u'__', u'__', u'__', u'__', u'__', u'__', 4, u'__']]",,[],[],[],"[u'0', 13, 14, 15]",[],[],"{u'mouseover': {u'state': {u'target': [], u'time': []}, u'edge': {u'target': [], u'time': []}}, u'click': {u'state': {u'target': [7, 15], u'time': [3493, 7587]}, u'edge': {u'target': [], u'time': []}}, u'mouseout': {u'state': {u'target': [], u'time': []}, u'edge': {u'target': [], u'time': []}}}",,,"[9370, 553, 504]",-22.0,455688,6.0,,mouselab-mdp,,2
"[11745, 12921, 13984]","[u'1', u'1', u'2']","[[0, u'__', u'__', u'__', u'__', u'__', u'__', u'__', u'__', u'__', u'__', u'__', u'__', u'__', u'__', u'__', u'__'], [0, u'__', u'__', u'__', u'__', u'__', u'__', u'__', u'__', u'__', u'__', u'__', 12, u'__', u'__', u'__', u'__'], [0, u'__', u'__', u'__', u'__', u'__', u'__', u'__', u'__', -12, u'__', u'__', 12, u'__', u'__', u'__', u'__']]",,[],[],[],"[u'0', 5, 6, 7]",[],[],"{u'mouseover': {u'state': {u'target': [], u'time': []}, u'edge': {u'target': [], u'time': []}}, u'click': {u'state': {u'target': [12, 9], u'time': [2646, 5052]}, u'edge': {u'target': [], u'time': []}}, u'mouseout': {u'state': {u'target': [], u'time': []}, u'edge': {u'target': [], u'time': []}}}",,,"[11744, 565, 539]",26.0,503752,7.0,,mouselab-mdp,,2
"[7438, 8614, 9702]","[u'0', u'0', u'1']","[[0, u'__', u'__', u'__', u'__', u'__', u'__', u'__', u'__', u'__', u'__', u'__', u'__', u'__', u'__', u'__', u'__'], [0, u'__', u'__', 20, u'__', u'__', u'__', u'__', u'__', u'__', u'__', u'__', u'__', u'__', u'__', u'__', u'__'], [0, 4, u'__', 20, u'__', u'__', u'__', u'__', u'__', u'__', u'__', u'__', u'__', u'__', u'__', u'__', u'__']]",,[],[],[],"[u'0', 1, 2, 3]",[],[],"{u'mouseover': {u'state': {u'target': [], u'time': []}, u'edge': {u'target': [], u'time': []}}, u'click': {u'state': {u'target': [3, 1], u'time': [4200, 5330]}, u'edge': {u'target': [], u'time': []}}, u'mouseout': {u'state': {u'target': [], u'time': []}, u'edge': {u'target': [], u'time': []}}}",,,"[7438, 650, 568]",34.0,552919,8.0,,mouselab-mdp,,2
"[8561, 10033, 11353]","[u'2', u'2', u'3']","[[0, u'__', u'__', u'__', u'__', u'__', u'__', u'__', u'__', u'__', u'__', u'__', u'__', u'__', u'__', u'__', u'__'], [0, u'__', u'__', u'__', u'__', u'__', u'__', u'__', u'__', u'__', u'__', u'__', u'__', 4, u'__', u'__', u'__'], [0, u'__', u'__', u'__', u'__', u'__', u'__', u'__', u'__', u'__', u'__', u'__', u'__', 4, u'__', -12, u'__']]",,[],[],[],"[u'0', 9, 10, 11]",[],[],"{u'mouseover': {u'state': {u'target': [], u'time': []}, u'edge': {u'target': [], u'time': []}}, u'click': {u'state': {u'target': [13, 15], u'time': [3623, 4623]}, u'edge': {u'target': [], u'time': []}}, u'mouseout': {u'state': {u'target': [], u'time': []}, u'edge': {u'target': [], u'time': []}}}",,,"[8561, 860, 791]",-6.0,602013,9.0,,mouselab-mdp,,2
"[6567, 7655, 8823]","[u'0', u'0', u'1']","[[0, u'__', u'__', u'__', u'__', u'__', u'__', u'__', u'__', u'__', u'__', u'__', u'__', u'__', u'__', u'__', u'__'], [0, 4, u'__', u'__', u'__', u'__', u'__', u'__', u'__', u'__', u'__', u'__', u'__', u'__', u'__', u'__', u'__'], [0, 4, u'__', 12, u'__', u'__', u'__', u'__', u'__', u'__', u'__', u'__', u'__', u'__', u'__', u'__', u'__']]",,[],[],[],"[u'0', 1, 2, 3]",[],[],"{u'mouseover': {u'state': {u'target': [], u'time': []}, u'edge': {u'target': [], u'time': []}}, u'click': {u'state': {u'target': [1, 3], u'time': [2845, 3734]}, u'edge': {u'target': [], u'time': []}}, u'mouseout': {u'state': {u'target': [], u'time': []}, u'edge': {u'target': [], u'time': []}}}",,,"[6567, 559, 637]",10.0,649716,10.0,,mouselab-mdp,,2
"[7686, 8934, 9838]","[u'2', u'2', u'1']","[[0, u'__', u'__', u'__', u'__', u'__', u'__', u'__', u'__', u'__', u'__', u'__', u'__', u'__', u'__', u'__', u'__'], [0, u'__', u'__', u'__', u'__', u'__', u'__', u'__', u'__', u'__', u'__', u'__', 4, u'__', u'__', u'__', u'__'], [0, u'__', u'__', u'__', u'__', u'__', u'__', u'__', u'__', 20, u'__', u'__', 4, u'__', u'__', u'__', u'__']]",,[],[],[],"[u'0', 9, 10, 12]",[],[],"{u'mouseover': {u'state': {u'target': [], u'time': []}, u'edge': {u'target': [], u'time': []}}, u'click': {u'state': {u'target': [12, 9], u'time': [4149, 5868]}, u'edge': {u'target': [], u'time': []}}, u'mouseout': {u'state': {u'target': [], u'time': []}, u'edge': {u'target': [], u'time': []}}}",,,"[7686, 636, 380]",18.0,697451,11.0,,mouselab-mdp,,2
"[8140, 9476, 10476]","[u'0', u'0', u'1']","[[0, u'__', u'__', u'__', u'__', u'__', u'__', u'__', u'__', u'__', u'__', u'__', u'__', u'__', u'__', u'__', u'__'], [0, u'__', u'__', u'__', u'__', -12, u'__', u'__', u'__', u'__', u'__', u'__', u'__', u'__', u'__', u'__', u'__'], [0, u'__', 12, u'__', u'__', -12, u'__', u'__', u'__', u'__', u'__', u'__', u'__', u'__', u'__', u'__', u'__']]",,[],[],[],"[u'0', 1, 2, 3]",[],[],"{u'mouseover': {u'state': {u'target': [], u'time': []}, u'edge': {u'target': [], u'time': []}}, u'click': {u'state': {u'target': [5, 2], u'time': [2587, 7335]}, u'edge': {u'target': [], u'time': []}}, u'mouseout': {u'state': {u'target': [], u'time': []}, u'edge': {u'target': [], u'time': []}}}",,,"[8140, 720, 479]",10.0,745091,12.0,,mouselab-mdp,,2
"[11634, 12618, 13554]","[u'3', u'3', u'0']","[[0, u'__', u'__', u'__', u'__', u'__', u'__', u'__', u'__', u'__', u'__', u'__', u'__', u'__', u'__', u'__', u'__'], [0, u'__', u'__', u'__', u'__', u'__', u'__', u'__', u'__', u'__', u'__', u'__', u'__', 4, u'__', u'__', u'__'], [0, u'__', u'__', u'__', u'__', u'__', u'__', u'__', u'__', u'__', u'__', u'__', u'__', 4, u'__', u'__', -12]]",,[],[],[],"[u'0', 13, 14, 15]",[],[],"{u'mouseover': {u'state': {u'target': [], u'time': []}, u'edge': {u'target': [], u'time': []}}, u'click': {u'state': {u'target': [13, 16], u'time': [1683, 3645]}, u'edge': {u'target': [], u'time': []}}, u'mouseout': {u'state': {u'target': [], u'time': []}, u'edge': {u'target': [], u'time': []}}}",,,"[11634, 383, 399]",18.0,793145,13.0,,mouselab-mdp,,2
"[10210, 11330, 12410]","[u'0', u'0', u'1']","[[0, u'__', u'__', u'__', u'__', u'__', u'__', u'__', u'__', u'__', u'__', u'__', u'__', u'__', u'__', u'__', u'__'], [0, u'__', u'__', u'__', u'__', u'__', u'__', -20, u'__', u'__', u'__', u'__', u'__', u'__', u'__', u'__', u'__'], [0, u'__', u'__', 4, u'__', u'__', u'__', -20, u'__', u'__', u'__', u'__', u'__', u'__', u'__', u'__', u'__']]",,[],[],[],"[u'0', 1, 2, 3]",[],[],"{u'mouseover': {u'state': {u'target': [], u'time': []}, u'edge': {u'target': [], u'time': []}}, u'click': {u'state': {u'target': [7, 3], u'time': [3232, 5161]}, u'edge': {u'target': [], u'time': []}}, u'mouseout': {u'state': {u'target': [], u'time': []}, u'edge': {u'target': [], u'time': []}}}",,,"[10210, 597, 559]",2.0,840808,14.0,,mouselab-mdp,,2
"[14434, 15698, 16634]","[u'0', u'0', u'3']","[[0, u'__', u'__', u'__', u'__', u'__', u'__', u'__', u'__', u'__', u'__', u'__', u'__', u'__', u'__', u'__', u'__'], [0, u'__', u'__', u'__', u'__', u'__', u'__', u'__', u'__', -12, u'__', u'__', u'__', u'__', u'__', u'__', u'__'], [0, u'__', u'__', u'__', u'__', u'__', u'__', u'__', u'__', -12, u'__', u'__', u'__', u'__', u'__', -4, u'__']]",,[],[],[],"[u'0', 1, 2, 4]",[],[],"{u'mouseover': {u'state': {u'target': [], u'time': []}, u'edge': {u'target': [], u'time': []}}, u'click': {u'state': {u'target': [9, 15], u'time': [3487, 8895]}, u'edge': {u'target': [], u'time': []}}, u'mouseout': {u'state': {u'target': [], u'time': []}, u'edge': {u'target': [], u'time': []}}}",,,"[14434, 642, 418]",26.0,888368,15.0,,mouselab-mdp,,2
"[8502, 9494, 11214]","[u'1', u'1', u'0']","[[0, u'__', u'__', u'__', u'__', u'__', u'__', u'__', u'__', u'__', u'__', u'__', u'__', u'__', u'__', u'__', u'__'], [0, u'__', u'__', u'__', u'__', u'__', u'__', u'__', u'__', u'__', u'__', u'__', 4, u'__', u'__', u'__', u'__'], [0, u'__', u'__', u'__', u'__', 4, u'__', u'__', u'__', u'__', u'__', u'__', 4, u'__', u'__', u'__', u'__']]",,[],[],[],"[u'0', 5, 6, 8]",[],[],"{u'mouseover': {u'state': {u'target': [], u'time': []}, u'edge': {u'target': [], u'time': []}}, u'click': {u'state': {u'target': [12, 5], u'time': [2150, 4260]}, u'edge': {u'target': [], u'time': []}}, u'mouseout': {u'state': {u'target': [], u'time': []}, u'edge': {u'target': [], u'time': []}}}",,,"[8502, 474, 1194]",18.0,935934,16.0,,mouselab-mdp,,2
"[20250, 21273, 24525]","[u'1', u'1', u'2']","[[0, u'__', u'__', u'__', u'__', u'__', u'__', u'__', u'__', u'__', u'__', u'__', u'__', u'__', u'__', u'__', u'__'], [0, u'__', u'__', u'__', u'__', u'__', u'__', u'__', u'__', 4, u'__', u'__', u'__', u'__', u'__', u'__', u'__'], [0, u'__', u'__', u'__', u'__', 20, u'__', u'__', u'__', 4, u'__', u'__', u'__', u'__', u'__', u'__', u'__'], [0, -4, u'__', u'__', u'__', 20, u'__', u'__', u'__', 4, u'__', u'__', u'__', u'__', u'__', u'__', u'__'], [0, -4, u'__', u'__', u'__', 20, u'__', u'__', u'__', 4, u'__', u'__', u'__', -12, u'__', u'__', u'__'], [0, -4, u'__', u'__', u'__', 20, -12, u'__', u'__', 4, u'__', u'__', u'__', -12, u'__', u'__', u'__'], [0, -4, u'__', u'__', u'__', 20, -12, -12, u'__', 4, u'__', u'__', u'__', -12, u'__', u'__', u'__'], [0, -4, u'__', u'__', u'__', 20, -12, -12, -12, 4, u'__', u'__', u'__', -12, u'__', u'__', u'__'], [0, -4, u'__', u'__', u'__', 20, -12, -12, -12, 4, u'__', u'__', -4, -12, u'__', u'__', u'__'], [0, -4, u'__', u'__', u'__', 20, -12, -12, -12, 4, -4, u'__', -4, -12, u'__', u'__', u'__'], [0, -4, u'__', u'__', u'__', 20, -12, -12, -12, 4, -4, -4, -4, -12, u'__', u'__', u'__'], [0, -4, u'__', u'__', u'__', 20, -12, -12, -12, 4, -4, -4, -4, -12, u'__', u'__', -12], [0, -4, u'__', u'__', u'__', 20, -12, -12, -12, 4, -4, -4, -4, -12, -12, u'__', -12], [0, -4, u'__', u'__', u'__', 20, -12, -12, -12, 4, -4, -4, -4, -12, -12, 4, -12], [0, -4, -4, u'__', u'__', 20, -12, -12, -12, 4, -4, -4, -4, -12, -12, 4, -12], [0, -4, -4, u'__', -4, 20, -12, -12, -12, 4, -4, -4, -4, -12, -12, 4, -12], [0, -4, -4, 4, -4, 20, -12, -12, -12, 4, -4, -4, -4, -12, -12, 4, -12]]",,[],[],[],"[u'0', 5, 6, 7]",[],[],"{u'mouseover': {u'state': {u'target': [], u'time': []}, u'edge': {u'target': [], u'time': []}}, u'click': {u'state': {u'target': [9, 5, 1, 13, 6, 7, 8, 12, 10, 11, 16, 14, 15, 2, 4, 3], u'time': [2064, 3666, 5447, 6336, 7281, 9541, 10739, 12134, 12735, 13287, 13864, 14749, 15751, 16855, 17786, 18599]}, u'edge': {u'target': [], u'time': []}}, u'mouseout': {u'state': {u'target': [], u'time': []}, u'edge': {u'target': [], u'time': []}}}",,,"[20249, 525, 2759]",-20.0,157878,1.0,,mouselab-mdp,,3
"[1062, 3075, 3745]","[u'0', u'0', u'3']","[[0, u'__', u'__', u'__', u'__', u'__', u'__', u'__', u'__', u'__', u'__', u'__', u'__', u'__', u'__', u'__', u'__']]",,[],[],[],"[u'0', 1, 2, 4]",[],[],"{u'mouseover': {u'state': {u'target': [], u'time': []}, u'edge': {u'target': [], u'time': []}}, u'click': {u'state': {u'target': [], u'time': []}, u'edge': {u'target': [], u'time': []}}, u'mouseout': {u'state': {u'target': [], u'time': []}, u'edge': {u'target': [], u'time': []}}}",,,"[1062, 1517, 166]",12.0,213042,2.0,,mouselab-mdp,,3
"[10231, 10773, 11354]","[u'0', u'0', u'1']","[[0, u'__', u'__', u'__', u'__', u'__', u'__', u'__', u'__', u'__', u'__', u'__', u'__', u'__', u'__', u'__', u'__'], [0, u'__', u'__', u'__', u'__', 4, u'__', u'__', u'__', u'__', u'__', u'__', u'__', u'__', u'__', u'__', u'__'], [0, u'__', u'__', u'__', u'__', 4, u'__', u'__', u'__', -4, u'__', u'__', u'__', u'__', u'__', u'__', u'__'], [0, 4, u'__', u'__', u'__', 4, u'__', u'__', u'__', -4, u'__', u'__', u'__', u'__', u'__', u'__', u'__'], [0, 4, u'__', u'__', u'__', 4, u'__', u'__', u'__', -4, u'__', u'__', u'__', 4, u'__', u'__', u'__'], [0, 4, 12, u'__', u'__', 4, u'__', u'__', u'__', -4, u'__', u'__', u'__', 4, u'__', u'__', u'__'], [0, 4, 12, 20, u'__', 4, u'__', u'__', u'__', -4, u'__', u'__', u'__', 4, u'__', u'__', u'__']]",,[],[],[],"[u'0', 1, 2, 3]",[],[],"{u'mouseover': {u'state': {u'target': [], u'time': []}, u'edge': {u'target': [], u'time': []}}, u'click': {u'state': {u'target': [5, 9, 1, 13, 2, 3], u'time': [2379, 3320, 4392, 5164, 6413, 8828]}, u'edge': {u'target': [], u'time': []}}, u'mouseout': {u'state': {u'target': [], u'time': []}, u'edge': {u'target': [], u'time': []}}}",,,"[10231, 49, 78]",30.0,269926,3.0,,mouselab-mdp,,3
"[11086, 11696, 12359]","[u'2', u'2', u'1']","[[0, u'__', u'__', u'__', u'__', u'__', u'__', u'__', u'__', u'__', u'__', u'__', u'__', u'__', u'__', u'__', u'__'], [0, -4, u'__', u'__', u'__', u'__', u'__', u'__', u'__', u'__', u'__', u'__', u'__', u'__', u'__', u'__', u'__'], [0, -4, u'__', u'__', u'__', 4, u'__', u'__', u'__', u'__', u'__', u'__', u'__', u'__', u'__', u'__', u'__'], [0, -4, u'__', u'__', u'__', 4, u'__', u'__', u'__', 4, u'__', u'__', u'__', u'__', u'__', u'__', u'__'], [0, -4, u'__', u'__', u'__', 4, u'__', u'__', u'__', 4, u'__', u'__', u'__', -12, u'__', u'__', u'__'], [0, -4, u'__', u'__', u'__', 4, -4, u'__', u'__', 4, u'__', u'__', u'__', -12, u'__', u'__', u'__'], [0, -4, u'__', u'__', u'__', 4, -4, u'__', u'__', 4, 12, u'__', u'__', -12, u'__', u'__', u'__'], [0, -4, u'__', u'__', u'__', 4, -4, u'__', u'__', 4, 12, u'__', 4, -12, u'__', u'__', u'__'], [0, -4, u'__', u'__', u'__', 4, -4, u'__', u'__', 4, 12, -4, 4, -12, u'__', u'__', u'__']]",,[],[],[],"[u'0', 9, 10, 12]",[],[],"{u'mouseover': {u'state': {u'target': [], u'time': []}, u'edge': {u'target': [], u'time': []}}, u'click': {u'state': {u'target': [1, 5, 9, 13, 6, 10, 12, 11], u'time': [1620, 2634, 3483, 4300, 6616, 7558, 9080, 9914]}, u'edge': {u'target': [], u'time': []}}, u'mouseout': {u'state': {u'target': [], u'time': []}, u'edge': {u'target': [], u'time': []}}}",,,"[11086, 116, 156]",12.0,322995,4.0,,mouselab-mdp,,3
"[17594, 18306, 19090]","[u'1', u'1', u'0']","[[0, u'__', u'__', u'__', u'__', u'__', u'__', u'__', u'__', u'__', u'__', u'__', u'__', u'__', u'__', u'__', u'__'], [0, -20, u'__', u'__', u'__', u'__', u'__', u'__', u'__', u'__', u'__', u'__', u'__', u'__', u'__', u'__', u'__'], [0, -20, u'__', u'__', u'__', u'__', u'__', u'__', u'__', u'__', u'__', u'__', u'__', 4, u'__', u'__', u'__'], [0, -20, u'__', u'__', u'__', 20, u'__', u'__', u'__', u'__', u'__', u'__', u'__', 4, u'__', u'__', u'__'], [0, -20, u'__', u'__', u'__', 20, u'__', u'__', u'__', -12, u'__', u'__', u'__', 4, u'__', u'__', u'__'], [0, -20, u'__', u'__', u'__', 20, 12, u'__', u'__', -12, u'__', u'__', u'__', 4, u'__', u'__', u'__'], [0, -20, u'__', u'__', u'__', 20, 12, -4, u'__', -12, u'__', u'__', u'__', 4, u'__', u'__', u'__'], [0, -20, u'__', u'__', u'__', 20, 12, -4, 4, -12, u'__', u'__', u'__', 4, u'__', u'__', u'__'], [0, -20, u'__', u'__', u'__', 20, 12, -4, 4, -12, 4, u'__', u'__', 4, u'__', u'__', u'__'], [0, -20, 12, u'__', u'__', 20, 12, -4, 4, -12, 4, u'__', u'__', 4, u'__', u'__', u'__'], [0, -20, 12, u'__', u'__', 20, 12, -4, 4, -12, 4, u'__', u'__', 4, -4, u'__', u'__'], [0, -20, 12, u'__', u'__', 20, 12, -4, 4, -12, 4, u'__', u'__', 4, -4, u'__', 4], [0, -20, 12, u'__', u'__', 20, 12, -4, 4, -12, 4, u'__', u'__', 4, -4, -4, 4]]",,[],[],[],"[u'0', 5, 6, 8]",[],[],"{u'mouseover': {u'state': {u'target': [], u'time': []}, u'edge': {u'target': [], u'time': []}}, u'click': {u'state': {u'target': [1, 13, 5, 9, 6, 7, 8, 10, 2, 14, 16, 15], u'time': [1430, 2552, 3802, 4822, 5704, 6801, 7738, 10805, 12054, 13867, 15422, 16055]}, u'edge': {u'target': [], u'time': []}}, u'mouseout': {u'state': {u'target': [], u'time': []}, u'edge': {u'target': [], u'time': []}}}",,,"[17594, 216, 282]",24.0,380627,5.0,,mouselab-mdp,,3
"[12537, 13475, 14633]","[u'1', u'1', u'2']","[[0, u'__', u'__', u'__', u'__', u'__', u'__', u'__', u'__', u'__', u'__', u'__', u'__', u'__', u'__', u'__', u'__'], [0, u'__', u'__', u'__', u'__', 4, u'__', u'__', u'__', u'__', u'__', u'__', u'__', u'__', u'__', u'__', u'__'], [0, u'__', u'__', u'__', u'__', 4, u'__', u'__', u'__', u'__', u'__', u'__', u'__', 4, u'__', u'__', u'__'], [0, -4, u'__', u'__', u'__', 4, u'__', u'__', u'__', u'__', u'__', u'__', u'__', 4, u'__', u'__', u'__'], [0, -4, u'__', u'__', u'__', 4, u'__', u'__', u'__', -4, u'__', u'__', u'__', 4, u'__', u'__', u'__'], [0, -4, u'__', u'__', u'__', 4, u'__', u'__', u'__', -4, u'__', u'__', u'__', 4, 4, u'__', u'__'], [0, -4, u'__', u'__', u'__', 4, 4, u'__', u'__', -4, u'__', u'__', u'__', 4, 4, u'__', u'__'], [0, -4, u'__', u'__', u'__', 4, 4, u'__', u'__', -4, u'__', u'__', u'__', 4, 4, u'__', -12], [0, -4, u'__', u'__', u'__', 4, 4, u'__', u'__', -4, u'__', u'__', u'__', 4, 4, -12, -12], [0, -4, u'__', u'__', u'__', 4, 4, 12, u'__', -4, u'__', u'__', u'__', 4, 4, -12, -12], [0, -4, u'__', u'__', u'__', 4, 4, 12, 4, -4, u'__', u'__', u'__', 4, 4, -12, -12]]",,[],[],[],"[u'0', 5, 6, 7]",[],[],"{u'mouseover': {u'state': {u'target': [], u'time': []}, u'edge': {u'target': [], u'time': []}}, u'click': {u'state': {u'target': [5, 13, 1, 9, 14, 6, 16, 15, 7, 8], u'time': [1422, 2343, 3203, 4156, 5479, 6465, 8614, 9533, 10537, 11366]}, u'edge': {u'target': [], u'time': []}}, u'mouseout': {u'state': {u'target': [], u'time': []}, u'edge': {u'target': [], u'time': []}}}",,,"[12537, 441, 663]",10.0,428509,6.0,,mouselab-mdp,,3
"[19954, 22194, 22820]","[u'3', u'3', u'0']","[[0, u'__', u'__', u'__', u'__', u'__', u'__', u'__', u'__', u'__', u'__', u'__', u'__', u'__', u'__', u'__', u'__'], [0, -12, u'__', u'__', u'__', u'__', u'__', u'__', u'__', u'__', u'__', u'__', u'__', u'__', u'__', u'__', u'__'], [0, -12, u'__', u'__', u'__', u'__', u'__', u'__', u'__', u'__', u'__', u'__', u'__', -20, u'__', u'__', u'__'], [0, -12, u'__', u'__', u'__', -4, u'__', u'__', u'__', u'__', u'__', u'__', u'__', -20, u'__', u'__', u'__'], [0, -12, u'__', u'__', u'__', -4, u'__', u'__', u'__', -4, u'__', u'__', u'__', -20, u'__', u'__', u'__'], [0, -12, u'__', u'__', u'__', -4, -4, u'__', u'__', -4, u'__', u'__', u'__', -20, u'__', u'__', u'__'], [0, -12, u'__', u'__', u'__', -4, -4, u'__', u'__', -4, 4, u'__', u'__', -20, u'__', u'__', u'__'], [0, -12, u'__', u'__', u'__', -4, -4, u'__', u'__', -4, 4, -4, u'__', -20, u'__', u'__', u'__'], [0, -12, u'__', u'__', u'__', -4, -4, u'__', u'__', -4, 4, -4, -12, -20, u'__', u'__', u'__'], [0, -12, u'__', u'__', u'__', -4, -4, -12, u'__', -4, 4, -4, -12, -20, u'__', u'__', u'__'], [0, -12, u'__', u'__', u'__', -4, -4, -12, -4, -4, 4, -4, -12, -20, u'__', u'__', u'__'], [0, -12, u'__', 4, u'__', -4, -4, -12, -4, -4, 4, -4, -12, -20, u'__', u'__', u'__'], [0, -12, 12, 4, u'__', -4, -4, -12, -4, -4, 4, -4, -12, -20, u'__', u'__', u'__'], [0, -12, 12, 4, -4, -4, -4, -12, -4, -4, 4, -4, -12, -20, u'__', u'__', u'__'], [0, -12, 12, 4, -4, -4, -4, -12, -4, -4, 4, -4, -12, -20, u'__', 4, u'__'], [0, -12, 12, 4, -4, -4, -4, -12, -4, -4, 4, -4, -12, -20, -12, 4, u'__'], [0, -12, 12, 4, -4, -4, -4, -12, -4, -4, 4, -4, -12, -20, -12, 4, -4]]",,[],[],[],"[u'0', 13, 14, 15]",[],[],"{u'mouseover': {u'state': {u'target': [], u'time': []}, u'edge': {u'target': [], u'time': []}}, u'click': {u'state': {u'target': [1, 13, 5, 9, 6, 10, 11, 12, 7, 8, 3, 2, 4, 15, 14, 16], u'time': [2119, 2896, 3653, 4367, 6674, 7426, 8360, 9058, 10267, 11164, 12354, 13605, 14349, 17116, 17757, 18335]}, u'edge': {u'target': [], u'time': []}}, u'mouseout': {u'state': {u'target': [], u'time': []}, u'edge': {u'target': [], u'time': []}}}",,,"[19954, 1736, 123]",-44.0,476524,7.0,,mouselab-mdp,,3
"[12436, 13122, 13863]","[u'2', u'2', u'3']","[[0, u'__', u'__', u'__', u'__', u'__', u'__', u'__', u'__', u'__', u'__', u'__', u'__', u'__', u'__', u'__', u'__'], [0, 4, u'__', u'__', u'__', u'__', u'__', u'__', u'__', u'__', u'__', u'__', u'__', u'__', u'__', u'__', u'__'], [0, 4, u'__', u'__', u'__', u'__', u'__', u'__', u'__', 20, u'__', u'__', u'__', u'__', u'__', u'__', u'__'], [0, 4, u'__', u'__', u'__', -4, u'__', u'__', u'__', 20, u'__', u'__', u'__', u'__', u'__', u'__', u'__'], [0, 4, u'__', u'__', u'__', -4, u'__', u'__', u'__', 20, u'__', u'__', u'__', 4, u'__', u'__', u'__'], [0, 4, u'__', u'__', u'__', -4, u'__', u'__', u'__', 20, -4, u'__', u'__', 4, u'__', u'__', u'__'], [0, 4, u'__', u'__', u'__', -4, u'__', u'__', u'__', 20, -4, u'__', 4, 4, u'__', u'__', u'__'], [0, 4, u'__', u'__', u'__', -4, u'__', u'__', u'__', 20, -4, 12, 4, 4, u'__', u'__', u'__'], [0, 4, u'__', u'__', u'__', -4, u'__', u'__', u'__', 20, -4, 12, 4, 4, 12, u'__', u'__'], [0, 4, u'__', u'__', u'__', -4, u'__', u'__', u'__', 20, -4, 12, 4, 4, 12, u'__', -12], [0, 4, u'__', u'__', u'__', -4, u'__', u'__', u'__', 20, -4, 12, 4, 4, 12, -12, -12]]",,[],[],[],"[u'0', 9, 10, 11]",[],[],"{u'mouseover': {u'state': {u'target': [], u'time': []}, u'edge': {u'target': [], u'time': []}}, u'click': {u'state': {u'target': [1, 9, 5, 13, 10, 12, 11, 14, 16, 15], u'time': [1819, 2941, 3648, 4327, 5773, 6429, 7280, 9547, 10359, 11209]}, u'edge': {u'target': [], u'time': []}}, u'mouseout': {u'state': {u'target': [], u'time': []}, u'edge': {u'target': [], u'time': []}}}",,,"[12436, 190, 246]",18.0,524571,8.0,,mouselab-mdp,,3
"[10094, 10730, 11373]","[u'2', u'2', u'3']","[[0, u'__', u'__', u'__', u'__', u'__', u'__', u'__', u'__', u'__', u'__', u'__', u'__', u'__', u'__', u'__', u'__'], [0, -12, u'__', u'__', u'__', u'__', u'__', u'__', u'__', u'__', u'__', u'__', u'__', u'__', u'__', u'__', u'__'], [0, -12, u'__', u'__', u'__', u'__', u'__', u'__', u'__', u'__', u'__', u'__', u'__', -4, u'__', u'__', u'__'], [0, -12, u'__', u'__', u'__', u'__', u'__', u'__', u'__', 20, u'__', u'__', u'__', -4, u'__', u'__', u'__'], [0, -12, u'__', u'__', u'__', 12, u'__', u'__', u'__', 20, u'__', u'__', u'__', -4, u'__', u'__', u'__'], [0, -12, u'__', u'__', u'__', 12, u'__', u'__', u'__', 20, u'__', u'__', -20, -4, u'__', u'__', u'__'], [0, -12, u'__', u'__', u'__', 12, u'__', u'__', u'__', 20, u'__', 4, -20, -4, u'__', u'__', u'__']]",,[],[],[],"[u'0', 9, 10, 11]",[],[],"{u'mouseover': {u'state': {u'target': [], u'time': []}, u'edge': {u'target': [], u'time': []}}, u'click': {u'state': {u'target': [1, 13, 9, 5, 12, 11], u'time': [2360, 2994, 4090, 4851, 8317, 9054]}, u'edge': {u'target': [], u'time': []}}, u'mouseout': {u'state': {u'target': [], u'time': []}, u'edge': {u'target': [], u'time': []}}}",,,"[10094, 134, 142]",22.0,572239,9.0,,mouselab-mdp,,3
"[17689, 18350, 19001]","[u'0', u'0', u'3']","[[0, u'__', u'__', u'__', u'__', u'__', u'__', u'__', u'__', u'__', u'__', u'__', u'__', u'__', u'__', u'__', u'__'], [0, u'__', u'__', u'__', u'__', u'__', u'__', u'__', u'__', -12, u'__', u'__', u'__', u'__', u'__', u'__', u'__'], [0, 12, u'__', u'__', u'__', u'__', u'__', u'__', u'__', -12, u'__', u'__', u'__', u'__', u'__', u'__', u'__'], [0, 12, u'__', u'__', u'__', 4, u'__', u'__', u'__', -12, u'__', u'__', u'__', u'__', u'__', u'__', u'__'], [0, 12, u'__', u'__', u'__', 4, u'__', u'__', u'__', -12, u'__', u'__', u'__', 12, u'__', u'__', u'__'], [0, 12, u'__', u'__', u'__', 4, u'__', u'__', u'__', -12, u'__', u'__', u'__', 12, u'__', u'__', -12], [0, 12, u'__', u'__', u'__', 4, u'__', u'__', u'__', -12, u'__', u'__', u'__', 12, u'__', -4, -12], [0, 12, u'__', u'__', 12, 4, u'__', u'__', u'__', -12, u'__', u'__', u'__', 12, u'__', -4, -12], [0, 12, u'__', -12, 12, 4, u'__', u'__', u'__', -12, u'__', u'__', u'__', 12, u'__', -4, -12]]",,[],[],[],"[u'0', 1, 2, 4]",[],[],"{u'mouseover': {u'state': {u'target': [], u'time': []}, u'edge': {u'target': [], u'time': []}}, u'click': {u'state': {u'target': [9, 1, 5, 13, 16, 15, 4, 3], u'time': [1859, 2981, 3961, 4860, 9424, 10408, 11281, 12518]}, u'edge': {u'target': [], u'time': []}}, u'mouseout': {u'state': {u'target': [], u'time': []}, u'edge': {u'target': [], u'time': []}}}",,,"[17689, 162, 162]",20.0,627088,10.0,,mouselab-mdp,,3
"[9019, 9562, 10104]","[u'3', u'3', u'2']","[[0, u'__', u'__', u'__', u'__', u'__', u'__', u'__', u'__', u'__', u'__', u'__', u'__', u'__', u'__', u'__', u'__'], [0, u'__', u'__', u'__', u'__', u'__', u'__', u'__', u'__', 4, u'__', u'__', u'__', u'__', u'__', u'__', u'__'], [0, 4, u'__', u'__', u'__', u'__', u'__', u'__', u'__', 4, u'__', u'__', u'__', u'__', u'__', u'__', u'__'], [0, 4, u'__', u'__', u'__', -12, u'__', u'__', u'__', 4, u'__', u'__', u'__', u'__', u'__', u'__', u'__'], [0, 4, u'__', u'__', u'__', -12, u'__', u'__', u'__', 4, u'__', u'__', u'__', 12, u'__', u'__', u'__'], [0, 4, u'__', u'__', u'__', -12, u'__', u'__', u'__', 4, u'__', u'__', u'__', 12, u'__', -4, u'__'], [0, 4, u'__', u'__', u'__', -12, u'__', u'__', u'__', 4, u'__', u'__', u'__', 12, u'__', -4, 12]]",,[],[],[],"[u'0', 13, 14, 16]",[],[],"{u'mouseover': {u'state': {u'target': [], u'time': []}, u'edge': {u'target': [], u'time': []}}, u'click': {u'state': {u'target': [9, 1, 5, 13, 15, 16], u'time': [2443, 3476, 4149, 4863, 6324, 6965]}, u'edge': {u'target': [], u'time': []}}, u'mouseout': {u'state': {u'target': [], u'time': []}, u'edge': {u'target': [], u'time': []}}}",,,"[9019, 45, 53]",14.0,683238,11.0,,mouselab-mdp,,3
"[31957, 32563, 33301]","[u'1', u'1', u'2']","[[0, u'__', u'__', u'__', u'__', u'__', u'__', u'__', u'__', u'__', u'__', u'__', u'__', u'__', u'__', u'__', u'__'], [0, u'__', u'__', u'__', u'__', u'__', u'__', u'__', u'__', u'__', u'__', u'__', u'__', -4, u'__', u'__', u'__'], [0, -12, u'__', u'__', u'__', u'__', u'__', u'__', u'__', u'__', u'__', u'__', u'__', -4, u'__', u'__', u'__'], [0, -12, u'__', u'__', u'__', 20, u'__', u'__', u'__', u'__', u'__', u'__', u'__', -4, u'__', u'__', u'__'], [0, -12, u'__', u'__', u'__', 20, u'__', u'__', u'__', 4, u'__', u'__', u'__', -4, u'__', u'__', u'__'], [0, -12, u'__', u'__', u'__', 20, u'__', -4, u'__', 4, u'__', u'__', u'__', -4, u'__', u'__', u'__'], [0, -12, u'__', u'__', u'__', 20, u'__', -4, -4, 4, u'__', u'__', u'__', -4, u'__', u'__', u'__'], [0, -12, u'__', u'__', u'__', 20, u'__', -4, -4, 4, u'__', u'__', -4, -4, u'__', u'__', u'__'], [0, -12, u'__', u'__', u'__', 20, u'__', -4, -4, 4, u'__', -12, -4, -4, u'__', u'__', u'__'], [0, -12, u'__', u'__', u'__', 20, u'__', -4, -4, 4, u'__', -12, -4, -4, u'__', u'__', 4], [0, -12, u'__', u'__', u'__', 20, u'__', -4, -4, 4, u'__', -12, -4, -4, u'__', -4, 4], [0, -12, 20, u'__', u'__', 20, u'__', -4, -4, 4, u'__', -12, -4, -4, u'__', -4, 4], [0, -12, 20, 4, u'__', 20, u'__', -4, -4, 4, u'__', -12, -4, -4, u'__', -4, 4], [0, -12, 20, 4, -4, 20, u'__', -4, -4, 4, u'__', -12, -4, -4, u'__', -4, 4], [0, -12, 20, 4, -4, 20, 4, -4, -4, 4, u'__', -12, -4, -4, u'__', -4, 4]]",,[],[],[],"[u'0', 5, 6, 7]",[],[],"{u'mouseover': {u'state': {u'target': [], u'time': []}, u'edge': {u'target': [], u'time': []}}, u'click': {u'state': {u'target': [13, 1, 5, 9, 7, 8, 12, 11, 16, 15, 2, 3, 4, 6], u'time': [2538, 3419, 4270, 5327, 6789, 7478, 9577, 10198, 13666, 14688, 23735, 25129, 26050, 30656]}, u'edge': {u'target': [], u'time': []}}, u'mouseout': {u'state': {u'target': [], u'time': []}, u'edge': {u'target': [], u'time': []}}}",,,"[31956, 113, 249]",6.0,731832,12.0,,mouselab-mdp,,3
"[7481, 8037, 8609]","[u'0', u'0', u'1']","[[0, u'__', u'__', u'__', u'__', u'__', u'__', u'__', u'__', u'__', u'__', u'__', u'__', u'__', u'__', u'__', u'__'], [0, u'__', u'__', u'__', u'__', 4, u'__', u'__', u'__', u'__', u'__', u'__', u'__', u'__', u'__', u'__', u'__'], [0, u'__', u'__', u'__', u'__', 4, u'__', u'__', u'__', -12, u'__', u'__', u'__', u'__', u'__', u'__', u'__'], [0, 12, u'__', u'__', u'__', 4, u'__', u'__', u'__', -12, u'__', u'__', u'__', u'__', u'__', u'__', u'__'], [0, 12, u'__', u'__', u'__', 4, u'__', u'__', u'__', -12, u'__', u'__', u'__', 4, u'__', u'__', u'__'], [0, 12, u'__', 4, u'__', 4, u'__', u'__', u'__', -12, u'__', u'__', u'__', 4, u'__', u'__', u'__'], [0, 12, u'__', 4, -12, 4, u'__', u'__', u'__', -12, u'__', u'__', u'__', 4, u'__', u'__', u'__']]",,[],[],[],"[u'0', 1, 2, 3]",[],[],"{u'mouseover': {u'state': {u'target': [], u'time': []}, u'edge': {u'target': [], u'time': []}}, u'click': {u'state': {u'target': [5, 9, 1, 13, 3, 4], u'time': [1574, 2414, 3610, 4297, 5455, 6159]}, u'edge': {u'target': [], u'time': []}}, u'mouseout': {u'state': {u'target': [], u'time': []}, u'edge': {u'target': [], u'time': []}}}",,,"[7481, 52, 73]",-2.0,786710,13.0,,mouselab-mdp,,3
"[14866, 15705, 17021]","[u'1', u'1', u'0']","[[0, u'__', u'__', u'__', u'__', u'__', u'__', u'__', u'__', u'__', u'__', u'__', u'__', u'__', u'__', u'__', u'__'], [0, u'__', u'__', u'__', u'__', 4, u'__', u'__', u'__', u'__', u'__', u'__', u'__', u'__', u'__', u'__', u'__'], [0, 4, u'__', u'__', u'__', 4, u'__', u'__', u'__', u'__', u'__', u'__', u'__', u'__', u'__', u'__', u'__'], [0, 4, u'__', u'__', u'__', 4, u'__', u'__', u'__', u'__', u'__', u'__', u'__', -4, u'__', u'__', u'__'], [0, 4, u'__', u'__', u'__', 4, u'__', u'__', u'__', -4, u'__', u'__', u'__', -4, u'__', u'__', u'__'], [0, 4, -20, u'__', u'__', 4, u'__', u'__', u'__', -4, u'__', u'__', u'__', -4, u'__', u'__', u'__'], [0, 4, -20, u'__', -20, 4, u'__', u'__', u'__', -4, u'__', u'__', u'__', -4, u'__', u'__', u'__'], [0, 4, -20, 12, -20, 4, u'__', u'__', u'__', -4, u'__', u'__', u'__', -4, u'__', u'__', u'__'], [0, 4, -20, 12, -20, 4, -4, u'__', u'__', -4, u'__', u'__', u'__', -4, u'__', u'__', u'__'], [0, 4, -20, 12, -20, 4, -4, u'__', 20, -4, u'__', u'__', u'__', -4, u'__', u'__', u'__'], [0, 4, -20, 12, -20, 4, -4, 4, 20, -4, u'__', u'__', u'__', -4, u'__', u'__', u'__']]",,[],[],[],"[u'0', 5, 6, 8]",[],[],"{u'mouseover': {u'state': {u'target': [], u'time': []}, u'edge': {u'target': [], u'time': []}}, u'click': {u'state': {u'target': [5, 1, 13, 9, 2, 4, 3, 6, 8, 7], u'time': [2366, 3190, 3872, 4504, 6234, 6911, 7657, 9163, 9860, 10998]}, u'edge': {u'target': [], u'time': []}}, u'mouseout': {u'state': {u'target': [], u'time': []}, u'edge': {u'target': [], u'time': []}}}",,,"[14866, 348, 807]",10.0,838395,14.0,,mouselab-mdp,,3
"[15249, 15835, 16391]","[u'1', u'1', u'2']","[[0, u'__', u'__', u'__', u'__', u'__', u'__', u'__', u'__', u'__', u'__', u'__', u'__', u'__', u'__', u'__', u'__'], [0, 4, u'__', u'__', u'__', u'__', u'__', u'__', u'__', u'__', u'__', u'__', u'__', u'__', u'__', u'__', u'__'], [0, 4, u'__', u'__', u'__', 12, u'__', u'__', u'__', u'__', u'__', u'__', u'__', u'__', u'__', u'__', u'__'], [0, 4, u'__', u'__', u'__', 12, u'__', u'__', u'__', 4, u'__', u'__', u'__', u'__', u'__', u'__', u'__'], [0, 4, u'__', u'__', u'__', 12, u'__', u'__', u'__', 4, u'__', u'__', u'__', -4, u'__', u'__', u'__'], [0, 4, u'__', u'__', u'__', 12, u'__', 12, u'__', 4, u'__', u'__', u'__', -4, u'__', u'__', u'__'], [0, 4, u'__', u'__', u'__', 12, u'__', 12, 4, 4, u'__', u'__', u'__', -4, u'__', u'__', u'__'], [0, 4, u'__', u'__', u'__', 12, 4, 12, 4, 4, u'__', u'__', u'__', -4, u'__', u'__', u'__']]",,[],[],[],"[u'0', 5, 6, 7]",[],[],"{u'mouseover': {u'state': {u'target': [], u'time': []}, u'edge': {u'target': [], u'time': []}}, u'click': {u'state': {u'target': [1, 5, 9, 13, 7, 8, 6], u'time': [7493, 8241, 9063, 10045, 11840, 12938, 13710]}, u'edge': {u'target': [], u'time': []}}, u'mouseout': {u'state': {u'target': [], u'time': []}, u'edge': {u'target': [], u'time': []}}}",,,"[15249, 91, 63]",21.0,887552,15.0,,mouselab-mdp,,3
"[21815, 22354, 22902]","[u'2', u'2', u'1']","[[0, u'__', u'__', u'__', u'__', u'__', u'__', u'__', u'__', u'__', u'__', u'__', u'__', u'__', u'__', u'__', u'__'], [0, u'__', u'__', u'__', u'__', -12, u'__', u'__', u'__', u'__', u'__', u'__', u'__', u'__', u'__', u'__', u'__'], [0, u'__', u'__', u'__', u'__', -12, u'__', u'__', u'__', 12, u'__', u'__', u'__', u'__', u'__', u'__', u'__'], [0, u'__', u'__', u'__', u'__', -12, u'__', u'__', u'__', 12, u'__', u'__', u'__', 4, u'__', u'__', u'__'], [0, -4, u'__', u'__', u'__', -12, u'__', u'__', u'__', 12, u'__', u'__', u'__', 4, u'__', u'__', u'__'], [0, -4, u'__', u'__', u'__', -12, u'__', u'__', u'__', 12, 4, u'__', u'__', 4, u'__', u'__', u'__'], [0, -4, u'__', u'__', u'__', -12, u'__', u'__', u'__', 12, 4, 4, u'__', 4, u'__', u'__', u'__'], [0, -4, u'__', u'__', u'__', -12, u'__', u'__', u'__', 12, 4, 4, 4, 4, u'__', u'__', u'__'], [0, -4, u'__', u'__', u'__', -12, u'__', u'__', u'__', 12, 4, 4, 4, 4, -4, u'__', u'__'], [0, -4, u'__', u'__', u'__', -12, u'__', u'__', u'__', 12, 4, 4, 4, 4, -4, u'__', -12], [0, -4, u'__', u'__', u'__', -12, u'__', u'__', u'__', 12, 4, 4, 4, 4, -4, -4, -12], [0, -4, 12, u'__', u'__', -12, u'__', u'__', u'__', 12, 4, 4, 4, 4, -4, -4, -12], [0, -4, 12, u'__', -20, -12, u'__', u'__', u'__', 12, 4, 4, 4, 4, -4, -4, -12], [0, -4, 12, 4, -20, -12, u'__', u'__', u'__', 12, 4, 4, 4, 4, -4, -4, -12]]",,[],[],[],"[u'0', 9, 10, 12]",[],[],"{u'mouseover': {u'state': {u'target': [], u'time': []}, u'edge': {u'target': [], u'time': []}}, u'click': {u'state': {u'target': [5, 9, 13, 1, 10, 11, 12, 14, 16, 15, 2, 4, 3], u'time': [2320, 3204, 3883, 4584, 6683, 7333, 8387, 10366, 10909, 11684, 15601, 16530, 17259]}, u'edge': {u'target': [], u'time': []}}, u'mouseout': {u'state': {u'target': [], u'time': []}, u'edge': {u'target': [], u'time': []}}}",,,"[21815, 50, 47]",7.0,935368,16.0,,mouselab-mdp,,3
"[1801, 4717, 6162]","[u'3', u'3', u'2']","[[0, u'__', u'__', u'__', u'__', u'__', u'__', u'__', u'__', u'__', u'__', u'__', u'__', u'__', u'__', u'__', u'__']]",,[],[],[],"[u'0', 13, 14, 16]",[],[],"{u'mouseover': {u'state': {u'target': [], u'time': []}, u'edge': {u'target': [], u'time': []}}, u'click': {u'state': {u'target': [], u'time': []}, u'edge': {u'target': [], u'time': []}}, u'mouseout': {u'state': {u'target': [], u'time': []}, u'edge': {u'target': [], u'time': []}}}",,,"[1800, 2245, 930]",-4.0,281266,1.0,,mouselab-mdp,,4
"[1077, 2413, 3703]","[u'2', u'2', u'3']","[[0, u'__', u'__', u'__', u'__', u'__', u'__', u'__', u'__', u'__', u'__', u'__', u'__', u'__', u'__', u'__', u'__']]",,[],[],[],"[u'0', 9, 10, 11]",[],[],"{u'mouseover': {u'state': {u'target': [], u'time': []}, u'edge': {u'target': [], u'time': []}}, u'click': {u'state': {u'target': [], u'time': []}, u'edge': {u'target': [], u'time': []}}, u'mouseout': {u'state': {u'target': [], u'time': []}, u'edge': {u'target': [], u'time': []}}}",,,"[1075, 823, 766]",-20.0,330316,2.0,,mouselab-mdp,,4
"[741, 2485, 4045]","[u'0', u'0', u'1']","[[0, u'__', u'__', u'__', u'__', u'__', u'__', u'__', u'__', u'__', u'__', u'__', u'__', u'__', u'__', u'__', u'__']]",,[],[],[],"[u'0', 1, 2, 3]",[],[],"{u'mouseover': {u'state': {u'target': [], u'time': []}, u'edge': {u'target': [], u'time': []}}, u'click': {u'state': {u'target': [], u'time': []}, u'edge': {u'target': [], u'time': []}}, u'mouseout': {u'state': {u'target': [], u'time': []}, u'edge': {u'target': [], u'time': []}}}",,,"[741, 1223, 1032]",-4.0,380561,3.0,,mouselab-mdp,,4
"[670, 2994, 4465]","[u'1', u'1', u'2']","[[0, u'__', u'__', u'__', u'__', u'__', u'__', u'__', u'__', u'__', u'__', u'__', u'__', u'__', u'__', u'__', u'__']]",,[],[],[],"[u'0', 5, 6, 7]",[],[],"{u'mouseover': {u'state': {u'target': [], u'time': []}, u'edge': {u'target': [], u'time': []}}, u'click': {u'state': {u'target': [], u'time': []}, u'edge': {u'target': [], u'time': []}}, u'mouseout': {u'state': {u'target': [], u'time': []}, u'edge': {u'target': [], u'time': []}}}",,,"[670, 1801, 957]",20.0,461209,4.0,,mouselab-mdp,,4
"[1226, 3177, 4552]","[u'1', u'1', u'0']","[[0, u'__', u'__', u'__', u'__', u'__', u'__', u'__', u'__', u'__', u'__', u'__', u'__', u'__', u'__', u'__', u'__']]",,[],[],[],"[u'0', 5, 6, 8]",[],[],"{u'mouseover': {u'state': {u'target': [], u'time': []}, u'edge': {u'target': [], u'time': []}}, u'click': {u'state': {u'target': [], u'time': []}, u'edge': {u'target': [], u'time': []}}, u'mouseout': {u'state': {u'target': [], u'time': []}, u'edge': {u'target': [], u'time': []}}}",,,"[1226, 1421, 849]",20.0,507920,5.0,,mouselab-mdp,,4
"[667, 6521, 8261]","[u'0', u'0', u'1']","[[0, u'__', u'__', u'__', u'__', u'__', u'__', u'__', u'__', u'__', u'__', u'__', u'__', u'__', u'__', u'__', u'__']]",,[],[],[],"[u'0', 1, 2, 3]",[],[],"{u'mouseover': {u'state': {u'target': [], u'time': []}, u'edge': {u'target': [], u'time': []}}, u'click': {u'state': {u'target': [], u'time': []}, u'edge': {u'target': [], u'time': []}}, u'mouseout': {u'state': {u'target': [], u'time': []}, u'edge': {u'target': [], u'time': []}}}",,,"[667, 5324, 1216]",4.0,554919,6.0,,mouselab-mdp,,4
"[382, 1386, 2875]","[u'3', u'3', u'0']","[[0, u'__', u'__', u'__', u'__', u'__', u'__', u'__', u'__', u'__', u'__', u'__', u'__', u'__', u'__', u'__', u'__']]",,[],[],[],"[u'0', 13, 14, 15]",[],[],"{u'mouseover': {u'state': {u'target': [], u'time': []}, u'edge': {u'target': [], u'time': []}}, u'click': {u'state': {u'target': [], u'time': []}, u'edge': {u'target': [], u'time': []}}, u'mouseout': {u'state': {u'target': [], u'time': []}, u'edge': {u'target': [], u'time': []}}}",,,"[382, 473, 980]",12.0,603301,7.0,,mouselab-mdp,,4
"[899, 1813, 2707]","[u'0', u'0', u'3']","[[0, u'__', u'__', u'__', u'__', u'__', u'__', u'__', u'__', u'__', u'__', u'__', u'__', u'__', u'__', u'__', u'__']]",,[],[],[],"[u'0', 1, 2, 4]",[],[],"{u'mouseover': {u'state': {u'target': [], u'time': []}, u'edge': {u'target': [], u'time': []}}, u'click': {u'state': {u'target': [], u'time': []}, u'edge': {u'target': [], u'time': []}}, u'mouseout': {u'state': {u'target': [], u'time': []}, u'edge': {u'target': [], u'time': []}}}",,,"[899, 374, 355]",-4.0,651148,8.0,,mouselab-mdp,,4
"[396, 1117, 1835]","[u'2', u'2', u'3']","[[0, u'__', u'__', u'__', u'__', u'__', u'__', u'__', u'__', u'__', u'__', u'__', u'__', u'__', u'__', u'__', u'__']]",,[],[],[],"[u'0', 9, 10, 11]",[],[],"{u'mouseover': {u'state': {u'target': [], u'time': []}, u'edge': {u'target': [], u'time': []}}, u'click': {u'state': {u'target': [], u'time': []}, u'edge': {u'target': [], u'time': []}}, u'mouseout': {u'state': {u'target': [], u'time': []}, u'edge': {u'target': [], u'time': []}}}",,,"[395, 191, 189]",-4.0,700155,9.0,,mouselab-mdp,,4
"[357, 984, 1698]","[u'1', u'1', u'0']","[[0, u'__', u'__', u'__', u'__', u'__', u'__', u'__', u'__', u'__', u'__', u'__', u'__', u'__', u'__', u'__', u'__']]",,[],[],[],"[u'0', 5, 6, 8]",[],[],"{u'mouseover': {u'state': {u'target': [], u'time': []}, u'edge': {u'target': [], u'time': []}}, u'click': {u'state': {u'target': [], u'time': []}, u'edge': {u'target': [], u'time': []}}, u'mouseout': {u'state': {u'target': [], u'time': []}, u'edge': {u'target': [], u'time': []}}}",,,"[357, 95, 205]",-4.0,760267,10.0,,mouselab-mdp,,4
"[2819, 3502, 4128]","[u'3', u'3', u'2']","[[0, u'__', u'__', u'__', u'__', u'__', u'__', u'__', u'__', u'__', u'__', u'__', u'__', u'__', u'__', u'__', u'__']]",,[],[],[],"[u'0', 13, 14, 16]",[],[],"{u'mouseover': {u'state': {u'target': [], u'time': []}, u'edge': {u'target': [], u'time': []}}, u'click': {u'state': {u'target': [], u'time': []}, u'edge': {u'target': [], u'time': []}}, u'mouseout': {u'state': {u'target': [], u'time': []}, u'edge': {u'target': [], u'time': []}}}",,,"[2819, 166, 91]",-36.0,818401,11.0,,mouselab-mdp,,4
"[15879, 23525, 26004]","[u'1', u'1', u'2']","[[0, u'__', u'__', u'__', u'__', u'__', u'__', u'__', u'__', u'__', u'__', u'__', u'__', u'__', u'__', u'__', u'__'], [0, u'__', u'__', u'__', u'__', 4, u'__', u'__', u'__', u'__', u'__', u'__', u'__', u'__', u'__', u'__', u'__'], [0, u'__', u'__', u'__', u'__', 4, -4, u'__', u'__', u'__', u'__', u'__', u'__', u'__', u'__', u'__', u'__'], [0, u'__', u'__', u'__', u'__', 4, -4, u'__', -12, u'__', u'__', u'__', u'__', u'__', u'__', u'__', u'__'], [0, u'__', u'__', u'__', u'__', 4, -4, 4, -12, u'__', u'__', u'__', u'__', u'__', u'__', u'__', u'__'], [0, u'__', u'__', 4, u'__', 4, -4, 4, -12, u'__', u'__', u'__', u'__', u'__', u'__', u'__', u'__'], [0, u'__', -12, 4, u'__', 4, -4, 4, -12, u'__', u'__', u'__', u'__', u'__', u'__', u'__', u'__'], [0, u'__', -12, 4, -12, 4, -4, 4, -12, u'__', u'__', u'__', u'__', u'__', u'__', u'__', u'__'], [0, 12, -12, 4, -12, 4, -4, 4, -12, u'__', u'__', u'__', u'__', u'__', u'__', u'__', u'__'], [0, 12, -12, 4, -12, 4, -4, 4, -12, u'__', u'__', u'__', u'__', u'__', u'__', 12, u'__'], [0, 12, -12, 4, -12, 4, -4, 4, -12, u'__', u'__', u'__', u'__', u'__', 4, 12, u'__'], [0, 12, -12, 4, -12, 4, -4, 4, -12, u'__', u'__', u'__', u'__', 4, 4, 12, u'__'], [0, 12, -12, 4, -12, 4, -4, 4, -12, u'__', u'__', u'__', u'__', 4, 4, 12, -12], [0, 12, -12, 4, -12, 4, -4, 4, -12, u'__', u'__', -4, u'__', 4, 4, 12, -12], [0, 12, -12, 4, -12, 4, -4, 4, -12, u'__', -4, -4, u'__', 4, 4, 12, -12], [0, 12, -12, 4, -12, 4, -4, 4, -12, -12, -4, -4, u'__', 4, 4, 12, -12], [0, 12, -12, 4, -12, 4, -4, 4, -12, -12, -4, -4, 12, 4, 4, 12, -12]]",,[],[],[],"[u'0', 5, 6, 7]",[],[],"{u'mouseover': {u'state': {u'target': [], u'time': []}, u'edge': {u'target': [], u'time': []}}, u'click': {u'state': {u'target': [5, 6, 8, 7, 3, 2, 4, 1, 15, 14, 13, 16, 11, 10, 9, 12], u'time': [1824, 5474, 5791, 6134, 6998, 7362, 7677, 8063, 8799, 9125, 9431, 9889, 11980, 12343, 12625, 12935]}, u'edge': {u'target': [], u'time': []}}, u'mouseout': {u'state': {u'target': [], u'time': []}, u'edge': {u'target': [], u'time': []}}}",,,"[15879, 7114, 1960]",-12.0,142930,1.0,,mouselab-mdp,,5
"[12800, 16071, 18238]","[u'2', u'2', u'3']","[[0, u'__', u'__', u'__', u'__', u'__', u'__', u'__', u'__', u'__', u'__', u'__', u'__', u'__', u'__', u'__', u'__'], [0, u'__', u'__', u'__', u'__', 12, u'__', u'__', u'__', u'__', u'__', u'__', u'__', u'__', u'__', u'__', u'__'], [0, u'__', u'__', u'__', u'__', 12, -12, u'__', u'__', u'__', u'__', u'__', u'__', u'__', u'__', u'__', u'__'], [0, u'__', u'__', u'__', u'__', 12, -12, u'__', -4, u'__', u'__', u'__', u'__', u'__', u'__', u'__', u'__'], [0, u'__', u'__', u'__', u'__', 12, -12, 20, -4, u'__', u'__', u'__', u'__', u'__', u'__', u'__', u'__'], [0, u'__', u'__', u'__', u'__', 12, -12, 20, -4, 20, u'__', u'__', u'__', u'__', u'__', u'__', u'__'], [0, u'__', u'__', u'__', u'__', 12, -12, 20, -4, 20, 4, u'__', u'__', u'__', u'__', u'__', u'__'], [0, u'__', u'__', u'__', u'__', 12, -12, 20, -4, 20, 4, u'__', -20, u'__', u'__', u'__', u'__'], [0, u'__', u'__', u'__', u'__', 12, -12, 20, -4, 20, 4, 4, -20, u'__', u'__', u'__', u'__'], [0, u'__', u'__', u'__', u'__', 12, -12, 20, -4, 20, 4, 4, -20, u'__', u'__', u'__', -12], [0, u'__', u'__', u'__', u'__', 12, -12, 20, -4, 20, 4, 4, -20, u'__', -12, u'__', -12], [0, u'__', u'__', u'__', u'__', 12, -12, 20, -4, 20, 4, 4, -20, -4, -12, u'__', -12], [0, u'__', u'__', u'__', u'__', 12, -12, 20, -4, 20, 4, 4, -20, -4, -12, -4, -12], [0, u'__', u'__', u'__', -12, 12, -12, 20, -4, 20, 4, 4, -20, -4, -12, -4, -12], [0, u'__', -4, u'__', -12, 12, -12, 20, -4, 20, 4, 4, -20, -4, -12, -4, -12], [0, u'__', -4, 12, -12, 12, -12, 20, -4, 20, 4, 4, -20, -4, -12, -4, -12], [0, -12, -4, 12, -12, 12, -12, 20, -4, 20, 4, 4, -20, -4, -12, -4, -12]]",,[],[],[],"[u'0', 9, 10, 11]",[],[],"{u'mouseover': {u'state': {u'target': [], u'time': []}, u'edge': {u'target': [], u'time': []}}, u'click': {u'state': {u'target': [5, 6, 8, 7, 9, 10, 12, 11, 16, 14, 13, 15, 4, 2, 3, 1], u'time': [1684, 2001, 2753, 3200, 4613, 4902, 5113, 5546, 6056, 6277, 6543, 6845, 7540, 7801, 8055, 8496]}, u'edge': {u'target': [], u'time': []}}, u'mouseout': {u'state': {u'target': [], u'time': []}, u'edge': {u'target': [], u'time': []}}}",,,"[12800, 2752, 1653]",12.0,190533,2.0,,mouselab-mdp,,5
"[7057, 8324, 9676]","[u'1', u'1', u'2']","[[0, u'__', u'__', u'__', u'__', u'__', u'__', u'__', u'__', u'__', u'__', u'__', u'__', u'__', u'__', u'__', u'__'], [0, u'__', u'__', u'__', u'__', u'__', u'__', u'__', u'__', -12, u'__', u'__', u'__', u'__', u'__', u'__', u'__'], [0, u'__', u'__', u'__', u'__', u'__', u'__', u'__', u'__', -12, 4, u'__', u'__', u'__', u'__', u'__', u'__'], [0, u'__', u'__', u'__', u'__', 20, u'__', u'__', u'__', -12, 4, u'__', u'__', u'__', u'__', u'__', u'__'], [0, u'__', u'__', u'__', u'__', 20, 12, u'__', u'__', -12, 4, u'__', u'__', u'__', u'__', u'__', u'__'], [0, -20, u'__', u'__', u'__', 20, 12, u'__', u'__', -12, 4, u'__', u'__', u'__', u'__', u'__', u'__'], [0, -20, 12, u'__', u'__', 20, 12, u'__', u'__', -12, 4, u'__', u'__', u'__', u'__', u'__', u'__'], [0, -20, 12, u'__', u'__', 20, 12, u'__', u'__', -12, 4, u'__', u'__', 4, u'__', u'__', u'__'], [0, -20, 12, u'__', u'__', 20, 12, u'__', u'__', -12, 4, u'__', u'__', 4, -4, u'__', u'__']]",,[],[],[],"[u'0', 5, 6, 7]",[],[],"{u'mouseover': {u'state': {u'target': [], u'time': []}, u'edge': {u'target': [], u'time': []}}, u'click': {u'state': {u'target': [9, 10, 5, 6, 1, 2, 13, 14], u'time': [2121, 2402, 3475, 3753, 4475, 4776, 5372, 5733]}, u'edge': {u'target': [], u'time': []}}, u'mouseout': {u'state': {u'target': [], u'time': []}, u'edge': {u'target': [], u'time': []}}}",,,"[7057, 741, 844]",20.0,238350,3.0,,mouselab-mdp,,5
"[5142, 6095, 7107]","[u'1', u'1', u'0']","[[0, u'__', u'__', u'__', u'__', u'__', u'__', u'__', u'__', u'__', u'__', u'__', u'__', u'__', u'__', u'__', u'__'], [0, u'__', u'__', u'__', u'__', 12, u'__', u'__', u'__', u'__', u'__', u'__', u'__', u'__', u'__', u'__', u'__'], [0, u'__', u'__', u'__', u'__', 12, 4, u'__', u'__', u'__', u'__', u'__', u'__', u'__', u'__', u'__', u'__'], [0, 4, u'__', u'__', u'__', 12, 4, u'__', u'__', u'__', u'__', u'__', u'__', u'__', u'__', u'__', u'__'], [0, 4, -4, u'__', u'__', 12, 4, u'__', u'__', u'__', u'__', u'__', u'__', u'__', u'__', u'__', u'__'], [0, 4, -4, u'__', u'__', 12, 4, u'__', u'__', 4, u'__', u'__', u'__', u'__', u'__', u'__', u'__'], [0, 4, -4, u'__', u'__', 12, 4, u'__', u'__', 4, 4, u'__', u'__', u'__', u'__', u'__', u'__'], [0, 4, -4, u'__', u'__', 12, 4, u'__', u'__', 4, 4, u'__', u'__', -4, u'__', u'__', u'__'], [0, 4, -4, u'__', u'__', 12, 4, u'__', u'__', 4, 4, u'__', u'__', -4, 4, u'__', u'__']]",,[],[],[],"[u'0', 5, 6, 8]",[],[],"{u'mouseover': {u'state': {u'target': [], u'time': []}, u'edge': {u'target': [], u'time': []}}, u'click': {u'state': {u'target': [5, 6, 1, 2, 9, 10, 13, 14], u'time': [691, 1021, 1676, 1985, 2673, 2978, 3622, 3973]}, u'edge': {u'target': [], u'time': []}}, u'mouseout': {u'state': {u'target': [], u'time': []}, u'edge': {u'target': [], u'time': []}}}",,,"[5142, 444, 504]",12.0,286957,4.0,,mouselab-mdp,,5
"[5383, 6192, 7411]","[u'3', u'3', u'2']","[[0, u'__', u'__', u'__', u'__', u'__', u'__', u'__', u'__', u'__', u'__', u'__', u'__', u'__', u'__', u'__', u'__'], [0, u'__', u'__', u'__', u'__', -4, u'__', u'__', u'__', u'__', u'__', u'__', u'__', u'__', u'__', u'__', u'__'], [0, u'__', u'__', u'__', u'__', -4, 4, u'__', u'__', u'__', u'__', u'__', u'__', u'__', u'__', u'__', u'__'], [0, 4, u'__', u'__', u'__', -4, 4, u'__', u'__', u'__', u'__', u'__', u'__', u'__', u'__', u'__', u'__'], [0, 4, 4, u'__', u'__', -4, 4, u'__', u'__', u'__', u'__', u'__', u'__', u'__', u'__', u'__', u'__'], [0, 4, 4, u'__', u'__', -4, 4, u'__', u'__', 20, u'__', u'__', u'__', u'__', u'__', u'__', u'__'], [0, 4, 4, u'__', u'__', -4, 4, u'__', u'__', 20, -4, u'__', u'__', u'__', u'__', u'__', u'__'], [0, 4, 4, u'__', u'__', -4, 4, u'__', u'__', 20, -4, u'__', u'__', 4, u'__', u'__', u'__'], [0, 4, 4, u'__', u'__', -4, 4, u'__', u'__', 20, -4, u'__', u'__', 4, 12, u'__', u'__']]",,[],[],[],"[u'0', 13, 14, 16]",[],[],"{u'mouseover': {u'state': {u'target': [], u'time': []}, u'edge': {u'target': [], u'time': []}}, u'click': {u'state': {u'target': [5, 6, 1, 2, 9, 10, 13, 14], u'time': [783, 1146, 1918, 2188, 2874, 3170, 3833, 4216]}, u'edge': {u'target': [], u'time': []}}, u'mouseout': {u'state': {u'target': [], u'time': []}, u'edge': {u'target': [], u'time': []}}}",,,"[5382, 263, 711]",-4.0,334341,5.0,,mouselab-mdp,,5
"[8630, 9253, 11839]","[u'1', u'1', u'2']","[[0, u'__', u'__', u'__', u'__', u'__', u'__', u'__', u'__', u'__', u'__', u'__', u'__', u'__', u'__', u'__', u'__'], [0, u'__', u'__', u'__', u'__', 4, u'__', u'__', u'__', u'__', u'__', u'__', u'__', u'__', u'__', u'__', u'__'], [0, u'__', u'__', u'__', u'__', 4, 4, u'__', u'__', u'__', u'__', u'__', u'__', u'__', u'__', u'__', u'__'], [0, u'__', u'__', u'__', u'__', 4, 4, 12, u'__', u'__', u'__', u'__', u'__', u'__', u'__', u'__', u'__'], [0, u'__', u'__', u'__', u'__', 4, 4, 12, 4, u'__', u'__', u'__', u'__', u'__', u'__', u'__', u'__']]",,[],[],[],"[u'0', 5, 6, 7]",[],[],"{u'mouseover': {u'state': {u'target': [], u'time': []}, u'edge': {u'target': [], u'time': []}}, u'click': {u'state': {u'target': [5, 6, 7, 8], u'time': [4421, 4808, 7008, 7689]}, u'edge': {u'target': [], u'time': []}}, u'mouseout': {u'state': {u'target': [], u'time': []}, u'edge': {u'target': [], u'time': []}}}",,,"[8630, 38, 2081]",16.0,385330,6.0,,mouselab-mdp,,5
"[13928, 14784, 16042]","[u'1', u'1', u'0']","[[0, u'__', u'__', u'__', u'__', u'__', u'__', u'__', u'__', u'__', u'__', u'__', u'__', u'__', u'__', u'__', u'__'], [0, u'__', u'__', u'__', u'__', 4, u'__', u'__', u'__', u'__', u'__', u'__', u'__', u'__', u'__', u'__', u'__'], [0, 4, u'__', u'__', u'__', 4, u'__', u'__', u'__', u'__', u'__', u'__', u'__', u'__', u'__', u'__', u'__'], [0, 4, u'__', u'__', u'__', 4, u'__', u'__', u'__', u'__', u'__', u'__', u'__', -4, u'__', u'__', u'__'], [0, 4, u'__', u'__', u'__', 4, u'__', u'__', u'__', -4, u'__', u'__', u'__', -4, u'__', u'__', u'__'], [0, 4, u'__', u'__', u'__', 4, -4, u'__', u'__', -4, u'__', u'__', u'__', -4, u'__', u'__', u'__'], [0, 4, -20, u'__', u'__', 4, -4, u'__', u'__', -4, u'__', u'__', u'__', -4, u'__', u'__', u'__'], [0, 4, -20, 12, u'__', 4, -4, u'__', u'__', -4, u'__', u'__', u'__', -4, u'__', u'__', u'__'], [0, 4, -20, 12, -20, 4, -4, u'__', u'__', -4, u'__', u'__', u'__', -4, u'__', u'__', u'__'], [0, 4, -20, 12, -20, 4, -4, 4, u'__', -4, u'__', u'__', u'__', -4, u'__', u'__', u'__'], [0, 4, -20, 12, -20, 4, -4, 4, 20, -4, u'__', u'__', u'__', -4, u'__', u'__', u'__']]",,[],[],[],"[u'0', 5, 6, 8]",[],[],"{u'mouseover': {u'state': {u'target': [], u'time': []}, u'edge': {u'target': [], u'time': []}}, u'click': {u'state': {u'target': [5, 1, 13, 9, 6, 2, 3, 4, 7, 8], u'time': [3845, 4373, 4871, 5437, 7725, 8622, 10305, 10852, 12127, 12607]}, u'edge': {u'target': [], u'time': []}}, u'mouseout': {u'state': {u'target': [], u'time': []}, u'edge': {u'target': [], u'time': []}}}",,,"[13927, 335, 760]",10.0,438524,7.0,,mouselab-mdp,,5
"[24445, 27184, 28435]","[u'1', u'1', u'2']","[[0, u'__', u'__', u'__', u'__', u'__', u'__', u'__', u'__', u'__', u'__', u'__', u'__', u'__', u'__', u'__', u'__'], [0, u'__', u'__', u'__', u'__', u'__', u'__', u'__', u'__', u'__', u'__', u'__', u'__', -12, u'__', u'__', u'__'], [0, u'__', u'__', u'__', u'__', u'__', u'__', u'__', u'__', u'__', u'__', u'__', u'__', -12, -12, u'__', u'__'], [0, u'__', u'__', u'__', u'__', 20, u'__', u'__', u'__', u'__', u'__', u'__', u'__', -12, -12, u'__', u'__'], [0, u'__', u'__', u'__', u'__', 20, -12, u'__', u'__', u'__', u'__', u'__', u'__', -12, -12, u'__', u'__'], [0, -4, u'__', u'__', u'__', 20, -12, u'__', u'__', u'__', u'__', u'__', u'__', -12, -12, u'__', u'__'], [0, -4, -4, u'__', u'__', 20, -12, u'__', u'__', u'__', u'__', u'__', u'__', -12, -12, u'__', u'__'], [0, -4, -4, u'__', u'__', 20, -12, u'__', u'__', 4, u'__', u'__', u'__', -12, -12, u'__', u'__'], [0, -4, -4, u'__', u'__', 20, -12, u'__', u'__', 4, -4, u'__', u'__', -12, -12, u'__', u'__'], [0, -4, -4, u'__', u'__', 20, -12, -12, u'__', 4, -4, u'__', u'__', -12, -12, u'__', u'__'], [0, -4, -4, u'__', u'__', 20, -12, -12, -12, 4, -4, u'__', u'__', -12, -12, u'__', u'__'], [0, -4, -4, 4, u'__', 20, -12, -12, -12, 4, -4, u'__', u'__', -12, -12, u'__', u'__'], [0, -4, -4, 4, -4, 20, -12, -12, -12, 4, -4, u'__', u'__', -12, -12, u'__', u'__'], [0, -4, -4, 4, -4, 20, -12, -12, -12, 4, -4, u'__', -4, -12, -12, u'__', u'__'], [0, -4, -4, 4, -4, 20, -12, -12, -12, 4, -4, -4, -4, -12, -12, u'__', u'__']]",,[],[],[],"[u'0', 5, 6, 7]",[],[],"{u'mouseover': {u'state': {u'target': [], u'time': []}, u'edge': {u'target': [], u'time': []}}, u'click': {u'state': {u'target': [13, 14, 5, 6, 1, 2, 9, 10, 7, 8, 3, 4, 12, 11], u'time': [2985, 3405, 4158, 4493, 5236, 5526, 6194, 6551, 8448, 9058, 12422, 13067, 14058, 14624]}, u'edge': {u'target': [], u'time': []}}, u'mouseout': {u'state': {u'target': [], u'time': []}, u'edge': {u'target': [], u'time': []}}}",,,"[24445, 2227, 746]",-18.0,486229,8.0,,mouselab-mdp,,5
"[20390, 22329, 23891]","[u'0', u'0', u'1']","[[0, u'__', u'__', u'__', u'__', u'__', u'__', u'__', u'__', u'__', u'__', u'__', u'__', u'__', u'__', u'__', u'__'], [0, u'__', u'__', u'__', u'__', -4, u'__', u'__', u'__', u'__', u'__', u'__', u'__', u'__', u'__', u'__', u'__'], [0, -12, u'__', u'__', u'__', -4, u'__', u'__', u'__', u'__', u'__', u'__', u'__', u'__', u'__', u'__', u'__'], [0, -12, u'__', u'__', u'__', -4, u'__', u'__', u'__', u'__', u'__', u'__', u'__', -20, u'__', u'__', u'__'], [0, -12, u'__', u'__', u'__', -4, u'__', u'__', u'__', -4, u'__', u'__', u'__', -20, u'__', u'__', u'__'], [0, -12, u'__', u'__', u'__', -4, u'__', -12, u'__', -4, u'__', u'__', u'__', -20, u'__', u'__', u'__'], [0, -12, u'__', u'__', u'__', -4, u'__', -12, -4, -4, u'__', u'__', u'__', -20, u'__', u'__', u'__'], [0, -12, u'__', 4, u'__', -4, u'__', -12, -4, -4, u'__', u'__', u'__', -20, u'__', u'__', u'__'], [0, -12, u'__', 4, -4, -4, u'__', -12, -4, -4, u'__', u'__', u'__', -20, u'__', u'__', u'__'], [0, -12, u'__', 4, -4, -4, u'__', -12, -4, -4, u'__', u'__', u'__', -20, u'__', 4, u'__'], [0, -12, u'__', 4, -4, -4, u'__', -12, -4, -4, u'__', u'__', u'__', -20, u'__', 4, -4], [0, -12, u'__', 4, -4, -4, u'__', -12, -4, -4, u'__', -4, u'__', -20, u'__', 4, -4], [0, -12, u'__', 4, -4, -4, u'__', -12, -4, -4, u'__', -4, -12, -20, u'__', 4, -4], [0, -12, 12, 4, -4, -4, u'__', -12, -4, -4, u'__', -4, -12, -20, u'__', 4, -4]]",,[],[],[],"[u'0', 1, 2, 3]",[],[],"{u'mouseover': {u'state': {u'target': [], u'time': []}, u'edge': {u'target': [], u'time': []}}, u'click': {u'state': {u'target': [5, 1, 13, 9, 7, 8, 3, 4, 15, 16, 11, 12, 2], u'time': [6633, 7030, 7507, 7953, 9174, 9654, 10348, 10922, 11533, 11980, 12602, 13369, 15351]}, u'edge': {u'target': [], u'time': []}}, u'mouseout': {u'state': {u'target': [], u'time': []}, u'edge': {u'target': [], u'time': []}}}",,,"[20390, 1400, 1045]",-9.0,534419,9.0,,mouselab-mdp,,5
"[5910, 7044, 8290]","[u'1', u'1', u'0']","[[0, u'__', u'__', u'__', u'__', u'__', u'__', u'__', u'__', u'__', u'__', u'__', u'__', u'__', u'__', u'__', u'__'], [0, u'__', u'__', u'__', u'__', 20, u'__', u'__', u'__', u'__', u'__', u'__', u'__', u'__', u'__', u'__', u'__'], [0, u'__', u'__', u'__', u'__', 20, 12, u'__', u'__', u'__', u'__', u'__', u'__', u'__', u'__', u'__', u'__'], [0, u'__', u'__', u'__', u'__', 20, 12, -20, u'__', u'__', u'__', u'__', u'__', u'__', u'__', u'__', u'__'], [0, u'__', u'__', u'__', u'__', 20, 12, -20, -4, u'__', u'__', u'__', u'__', u'__', u'__', u'__', u'__']]",,[],[],[],"[u'0', 5, 6, 8]",[],[],"{u'mouseover': {u'state': {u'target': [], u'time': []}, u'edge': {u'target': [], u'time': []}}, u'click': {u'state': {u'target': [5, 6, 7, 8], u'time': [2291, 3005, 3749, 4555]}, u'edge': {u'target': [], u'time': []}}, u'mouseout': {u'state': {u'target': [], u'time': []}, u'edge': {u'target': [], u'time': []}}}",,,"[5910, 564, 727]",24.0,582187,10.0,,mouselab-mdp,,5
"[9553, 10486, 11612]","[u'2', u'2', u'1']","[[0, u'__', u'__', u'__', u'__', u'__', u'__', u'__', u'__', u'__', u'__', u'__', u'__', u'__', u'__', u'__', u'__'], [0, u'__', u'__', u'__', u'__', 4, u'__', u'__', u'__', u'__', u'__', u'__', u'__', u'__', u'__', u'__', u'__'], [0, -4, u'__', u'__', u'__', 4, u'__', u'__', u'__', u'__', u'__', u'__', u'__', u'__', u'__', u'__', u'__'], [0, -4, u'__', u'__', u'__', 4, u'__', u'__', u'__', u'__', u'__', u'__', u'__', -12, u'__', u'__', u'__'], [0, -4, u'__', u'__', u'__', 4, u'__', u'__', u'__', 4, u'__', u'__', u'__', -12, u'__', u'__', u'__'], [0, -4, u'__', u'__', u'__', 4, -4, u'__', u'__', 4, u'__', u'__', u'__', -12, u'__', u'__', u'__'], [0, -4, u'__', u'__', u'__', 4, -4, u'__', u'__', 4, 12, u'__', u'__', -12, u'__', u'__', u'__'], [0, -4, u'__', u'__', u'__', 4, -4, u'__', u'__', 4, 12, -4, u'__', -12, u'__', u'__', u'__'], [0, -4, u'__', u'__', u'__', 4, -4, u'__', u'__', 4, 12, -4, 4, -12, u'__', u'__', u'__']]",,[],[],[],"[u'0', 9, 10, 12]",[],[],"{u'mouseover': {u'state': {u'target': [], u'time': []}, u'edge': {u'target': [], u'time': []}}, u'click': {u'state': {u'target': [5, 1, 13, 9, 6, 10, 11, 12], u'time': [2950, 3512, 4056, 4572, 5646, 6345, 7423, 7928]}, u'edge': {u'target': [], u'time': []}}, u'mouseout': {u'state': {u'target': [], u'time': []}, u'edge': {u'target': [], u'time': []}}}",,,"[9552, 420, 615]",12.0,630430,11.0,,mouselab-mdp,,5
"[7032, 8024, 9111]","[u'2', u'2', u'1']","[[0, u'__', u'__', u'__', u'__', u'__', u'__', u'__', u'__', u'__', u'__', u'__', u'__', u'__', u'__', u'__', u'__'], [0, u'__', u'__', u'__', u'__', -12, u'__', u'__', u'__', u'__', u'__', u'__', u'__', u'__', u'__', u'__', u'__'], [0, -4, u'__', u'__', u'__', -12, u'__', u'__', u'__', u'__', u'__', u'__', u'__', u'__', u'__', u'__', u'__'], [0, -4, u'__', u'__', u'__', -12, u'__', u'__', u'__', u'__', u'__', u'__', u'__', 4, u'__', u'__', u'__'], [0, -4, u'__', u'__', u'__', -12, u'__', u'__', u'__', 12, u'__', u'__', u'__', 4, u'__', u'__', u'__'], [0, -4, u'__', u'__', u'__', -12, u'__', u'__', u'__', 12, 4, u'__', u'__', 4, u'__', u'__', u'__'], [0, -4, u'__', u'__', u'__', -12, u'__', u'__', u'__', 12, 4, u'__', 4, 4, u'__', u'__', u'__'], [0, -4, u'__', u'__', u'__', -12, u'__', u'__', u'__', 12, 4, 4, 4, 4, u'__', u'__', u'__']]",,[],[],[],"[u'0', 9, 10, 12]",[],[],"{u'mouseover': {u'state': {u'target': [], u'time': []}, u'edge': {u'target': [], u'time': []}}, u'click': {u'state': {u'target': [5, 1, 13, 9, 10, 12, 11], u'time': [828, 1329, 2093, 2548, 3501, 4120, 5109]}, u'edge': {u'target': [], u'time': []}}, u'mouseout': {u'state': {u'target': [], u'time': []}, u'edge': {u'target': [], u'time': []}}}",,,"[7032, 450, 554]",13.0,678008,12.0,,mouselab-mdp,,5
"[7195, 8108, 9655]","[u'3', u'3', u'2']","[[0, u'__', u'__', u'__', u'__', u'__', u'__', u'__', u'__', u'__', u'__', u'__', u'__', u'__', u'__', u'__', u'__'], [0, 4, u'__', u'__', u'__', u'__', u'__', u'__', u'__', u'__', u'__', u'__', u'__', u'__', u'__', u'__', u'__'], [0, 4, u'__', u'__', u'__', u'__', u'__', u'__', u'__', u'__', u'__', u'__', u'__', 4, u'__', u'__', u'__'], [0, 4, u'__', u'__', u'__', 4, u'__', u'__', u'__', u'__', u'__', u'__', u'__', 4, u'__', u'__', u'__'], [0, 4, u'__', u'__', u'__', 4, u'__', u'__', u'__', -4, u'__', u'__', u'__', 4, u'__', u'__', u'__'], [0, 4, u'__', u'__', u'__', 4, -4, u'__', u'__', -4, u'__', u'__', u'__', 4, u'__', u'__', u'__'], [0, 4, u'__', u'__', u'__', 4, -4, u'__', u'__', -4, u'__', u'__', u'__', 4, 12, u'__', u'__'], [0, 4, u'__', u'__', u'__', 4, -4, u'__', u'__', -4, u'__', u'__', u'__', 4, 12, -4, u'__'], [0, 4, u'__', u'__', u'__', 4, -4, u'__', u'__', -4, u'__', u'__', u'__', 4, 12, -4, 12]]",,[],[],[],"[u'0', 13, 14, 16]",[],[],"{u'mouseover': {u'state': {u'target': [], u'time': []}, u'edge': {u'target': [], u'time': []}}, u'click': {u'state': {u'target': [1, 13, 5, 9, 6, 14, 15, 16], u'time': [691, 1251, 1733, 2336, 3293, 4034, 5213, 5787]}, u'edge': {u'target': [], u'time': []}}, u'mouseout': {u'state': {u'target': [], u'time': []}, u'edge': {u'target': [], u'time': []}}}",,,"[7194, 392, 1040]",20.0,725970,13.0,,mouselab-mdp,,5
"[8293, 9377, 10576]","[u'0', u'0', u'3']","[[0, u'__', u'__', u'__', u'__', u'__', u'__', u'__', u'__', u'__', u'__', u'__', u'__', u'__', u'__', u'__', u'__'], [0, u'__', u'__', u'__', u'__', 4, u'__', u'__', u'__', u'__', u'__', u'__', u'__', u'__', u'__', u'__', u'__'], [0, 12, u'__', u'__', u'__', 4, u'__', u'__', u'__', u'__', u'__', u'__', u'__', u'__', u'__', u'__', u'__'], [0, 12, u'__', u'__', u'__', 4, u'__', u'__', u'__', u'__', u'__', u'__', u'__', 12, u'__', u'__', u'__'], [0, 12, u'__', u'__', u'__', 4, u'__', u'__', u'__', -12, u'__', u'__', u'__', 12, u'__', u'__', u'__'], [0, 12, 4, u'__', u'__', 4, u'__', u'__', u'__', -12, u'__', u'__', u'__', 12, u'__', u'__', u'__'], [0, 12, 4, u'__', u'__', 4, u'__', u'__', u'__', -12, u'__', u'__', u'__', 12, 4, u'__', u'__'], [0, 12, 4, -12, u'__', 4, u'__', u'__', u'__', -12, u'__', u'__', u'__', 12, 4, u'__', u'__'], [0, 12, 4, -12, 12, 4, u'__', u'__', u'__', -12, u'__', u'__', u'__', 12, 4, u'__', u'__']]",,[],[],[],"[u'0', 1, 2, 4]",[],[],"{u'mouseover': {u'state': {u'target': [], u'time': []}, u'edge': {u'target': [], u'time': []}}, u'click': {u'state': {u'target': [5, 1, 13, 9, 2, 14, 3, 4], u'time': [1709, 2277, 2870, 3337, 4146, 5051, 5935, 6466]}, u'edge': {u'target': [], u'time': []}}, u'mouseout': {u'state': {u'target': [], u'time': []}, u'edge': {u'target': [], u'time': []}}}",,,"[8293, 575, 674]",20.0,774063,14.0,,mouselab-mdp,,5
"[7819, 9015, 10349]","[u'3', u'3', u'2']","[[0, u'__', u'__', u'__', u'__', u'__', u'__', u'__', u'__', u'__', u'__', u'__', u'__', u'__', u'__', u'__', u'__'], [0, u'__', u'__', u'__', u'__', -12, u'__', u'__', u'__', u'__', u'__', u'__', u'__', u'__', u'__', u'__', u'__'], [0, 4, u'__', u'__', u'__', -12, u'__', u'__', u'__', u'__', u'__', u'__', u'__', u'__', u'__', u'__', u'__'], [0, 4, u'__', u'__', u'__', -12, u'__', u'__', u'__', u'__', u'__', u'__', u'__', 12, u'__', u'__', u'__'], [0, 4, u'__', u'__', u'__', -12, u'__', u'__', u'__', 4, u'__', u'__', u'__', 12, u'__', u'__', u'__'], [0, 4, u'__', u'__', u'__', -12, u'__', u'__', u'__', 4, u'__', u'__', u'__', 12, -4, u'__', u'__'], [0, 4, u'__', u'__', u'__', -12, u'__', u'__', u'__', 4, u'__', u'__', u'__', 12, -4, u'__', 12], [0, 4, u'__', u'__', u'__', -12, u'__', u'__', u'__', 4, u'__', u'__', u'__', 12, -4, -4, 12]]",,[],[],[],"[u'0', 13, 14, 16]",[],[],"{u'mouseover': {u'state': {u'target': [], u'time': []}, u'edge': {u'target': [], u'time': []}}, u'click': {u'state': {u'target': [5, 1, 13, 9, 14, 16, 15], u'time': [835, 1361, 1889, 2322, 3042, 3755, 4785]}, u'edge': {u'target': [], u'time': []}}, u'mouseout': {u'state': {u'target': [], u'time': []}, u'edge': {u'target': [], u'time': []}}}",,,"[7818, 696, 826]",13.0,822059,15.0,,mouselab-mdp,,5
"[8171, 8902, 10437]","[u'1', u'1', u'2']","[[0, u'__', u'__', u'__', u'__', u'__', u'__', u'__', u'__', u'__', u'__', u'__', u'__', u'__', u'__', u'__', u'__'], [0, -12, u'__', u'__', u'__', u'__', u'__', u'__', u'__', u'__', u'__', u'__', u'__', u'__', u'__', u'__', u'__'], [0, -12, 20, u'__', u'__', u'__', u'__', u'__', u'__', u'__', u'__', u'__', u'__', u'__', u'__', u'__', u'__'], [0, -12, 20, u'__', u'__', 20, u'__', u'__', u'__', u'__', u'__', u'__', u'__', u'__', u'__', u'__', u'__'], [0, -12, 20, u'__', u'__', 20, 4, u'__', u'__', u'__', u'__', u'__', u'__', u'__', u'__', u'__', u'__'], [0, -12, 20, u'__', u'__', 20, 4, -4, u'__', u'__', u'__', u'__', u'__', u'__', u'__', u'__', u'__'], [0, -12, 20, u'__', u'__', 20, 4, -4, -4, u'__', u'__', u'__', u'__', u'__', u'__', u'__', u'__']]",,[],[],[],"[u'0', 5, 6, 7]",[],[],"{u'mouseover': {u'state': {u'target': [], u'time': []}, u'edge': {u'target': [], u'time': []}}, u'click': {u'state': {u'target': [1, 2, 5, 6, 7, 8], u'time': [960, 1294, 1802, 2408, 3169, 3772]}, u'edge': {u'target': [], u'time': []}}, u'mouseout': {u'state': {u'target': [], u'time': []}, u'edge': {u'target': [], u'time': []}}}",,,"[8171, 206, 1024]",14.0,869859,16.0,,mouselab-mdp,,5
"[4431, 9324, 18094]","[u'2', u'2', u'1']","[[0, u'__', u'__', u'__', u'__', u'__', u'__', u'__', u'__', u'__', u'__', u'__', u'__', u'__', u'__', u'__', u'__'], [0, u'__', u'__', u'__', u'__', u'__', u'__', u'__', u'__', u'__', u'__', u'__', u'__', -4, u'__', u'__', u'__'], [0, u'__', u'__', u'__', u'__', u'__', u'__', u'__', u'__', 4, u'__', u'__', u'__', -4, u'__', u'__', u'__']]",,[],[],[],"[u'0', 9, 10, 12]",[],[],"{u'mouseover': {u'state': {u'target': [], u'time': []}, u'edge': {u'target': [], u'time': []}}, u'click': {u'state': {u'target': [13, 9], u'time': [1763, 2944]}, u'edge': {u'target': [], u'time': []}}, u'mouseout': {u'state': {u'target': [], u'time': []}, u'edge': {u'target': [], u'time': []}}}",,,"[4430, 903, 8252]",-22.0,174020,1.0,,mouselab-mdp,,6
"[4384, 7906, 16254]","[u'2', u'2', u'1']","[[0, u'__', u'__', u'__', u'__', u'__', u'__', u'__', u'__', u'__', u'__', u'__', u'__', u'__', u'__', u'__', u'__'], [0, u'__', u'__', u'__', u'__', u'__', u'__', u'__', u'__', 12, u'__', u'__', u'__', u'__', u'__', u'__', u'__']]",,[],[],[],"[u'0', 9, 10, 12]",[],[],"{u'mouseover': {u'state': {u'target': [], u'time': []}, u'edge': {u'target': [], u'time': []}}, u'click': {u'state': {u'target': [9], u'time': [2446]}, u'edge': {u'target': [], u'time': []}}, u'mouseout': {u'state': {u'target': [], u'time': []}, u'edge': {u'target': [], u'time': []}}}",,,"[4383, 1500, 7840]",19.0,223603,2.0,,mouselab-mdp,,6
"[10255, 11093, 11915]","[u'1', u'1', u'2']","[[0, u'__', u'__', u'__', u'__', u'__', u'__', u'__', u'__', u'__', u'__', u'__', u'__', u'__', u'__', u'__', u'__'], [0, u'__', u'__', u'__', u'__', u'__', u'__', u'__', u'__', -4, u'__', u'__', u'__', u'__', u'__', u'__', u'__'], [0, u'__', u'__', u'__', u'__', 4, u'__', u'__', u'__', -4, u'__', u'__', u'__', u'__', u'__', u'__', u'__'], [0, -4, u'__', u'__', u'__', 4, u'__', u'__', u'__', -4, u'__', u'__', u'__', u'__', u'__', u'__', u'__'], [0, -4, u'__', u'__', u'__', 4, u'__', u'__', u'__', -4, u'__', u'__', u'__', 4, u'__', u'__', u'__'], [0, -4, u'__', u'__', u'__', 4, 4, u'__', u'__', -4, u'__', u'__', u'__', 4, u'__', u'__', u'__'], [0, -4, u'__', u'__', u'__', 4, 4, 12, u'__', -4, u'__', u'__', u'__', 4, u'__', u'__', u'__']]",,[],[],[],"[u'0', 5, 6, 7]",[],[],"{u'mouseover': {u'state': {u'target': [], u'time': []}, u'edge': {u'target': [], u'time': []}}, u'click': {u'state': {u'target': [9, 5, 1, 13, 6, 7], u'time': [1603, 2802, 3755, 4610, 7210, 9107]}, u'edge': {u'target': [], u'time': []}}, u'mouseout': {u'state': {u'target': [], u'time': []}, u'edge': {u'target': [], u'time': []}}}",,,"[10255, 324, 313]",14.0,271937,3.0,,mouselab-mdp,,6
"[13503, 14431, 15215]","[u'0', u'0', u'1']","[[0, u'__', u'__', u'__', u'__', u'__', u'__', u'__', u'__', u'__', u'__', u'__', u'__', u'__', u'__', u'__', u'__'], [0, u'__', u'__', u'__', u'__', u'__', u'__', u'__', u'__', -4, u'__', u'__', u'__', u'__', u'__', u'__', u'__'], [0, u'__', u'__', u'__', u'__', u'__', u'__', u'__', u'__', -4, u'__', u'__', u'__', -20, u'__', u'__', u'__'], [0, -12, u'__', u'__', u'__', u'__', u'__', u'__', u'__', -4, u'__', u'__', u'__', -20, u'__', u'__', u'__'], [0, -12, u'__', u'__', u'__', -4, u'__', u'__', u'__', -4, u'__', u'__', u'__', -20, u'__', u'__', u'__'], [0, -12, u'__', u'__', u'__', -4, -4, u'__', u'__', -4, u'__', u'__', u'__', -20, u'__', u'__', u'__'], [0, -12, u'__', u'__', u'__', -4, -4, -12, u'__', -4, u'__', u'__', u'__', -20, u'__', u'__', u'__'], [0, -12, u'__', u'__', u'__', -4, -4, -12, u'__', -4, 4, u'__', u'__', -20, u'__', u'__', u'__'], [0, -12, u'__', u'__', u'__', -4, -4, -12, u'__', -4, 4, -4, u'__', -20, u'__', u'__', u'__'], [0, -12, u'__', u'__', u'__', -4, -4, -12, u'__', -4, 4, -4, -12, -20, u'__', u'__', u'__'], [0, -12, u'__', u'__', u'__', -4, -4, -12, u'__', -4, 4, -4, -12, -20, -12, u'__', u'__'], [0, -12, 12, u'__', u'__', -4, -4, -12, u'__', -4, 4, -4, -12, -20, -12, u'__', u'__'], [0, -12, 12, 4, u'__', -4, -4, -12, u'__', -4, 4, -4, -12, -20, -12, u'__', u'__'], [0, -12, 12, 4, -4, -4, -4, -12, u'__', -4, 4, -4, -12, -20, -12, u'__', u'__']]",,[],[],[],"[u'0', 1, 2, 3]",[],[],"{u'mouseover': {u'state': {u'target': [], u'time': []}, u'edge': {u'target': [], u'time': []}}, u'click': {u'state': {u'target': [9, 13, 1, 5, 6, 7, 10, 11, 12, 14, 2, 3, 4], u'time': [906, 1898, 2850, 3597, 4677, 5642, 6682, 7538, 8629, 9587, 10466, 11274, 12140]}, u'edge': {u'target': [], u'time': []}}, u'mouseout': {u'state': {u'target': [], u'time': []}, u'edge': {u'target': [], u'time': []}}}",,,"[13503, 406, 274]",-9.0,323617,4.0,,mouselab-mdp,,6
"[11172, 12025, 12815]","[u'3', u'3', u'2']","[[0, u'__', u'__', u'__', u'__', u'__', u'__', u'__', u'__', u'__', u'__', u'__', u'__', u'__', u'__', u'__', u'__'], [0, u'__', u'__', u'__', u'__', u'__', u'__', u'__', u'__', -4, u'__', u'__', u'__', u'__', u'__', u'__', u'__'], [0, u'__', u'__', u'__', u'__', u'__', u'__', u'__', u'__', -4, u'__', u'__', u'__', 4, u'__', u'__', u'__'], [0, 4, u'__', u'__', u'__', u'__', u'__', u'__', u'__', -4, u'__', u'__', u'__', 4, u'__', u'__', u'__'], [0, 4, u'__', u'__', u'__', 4, u'__', u'__', u'__', -4, u'__', u'__', u'__', 4, u'__', u'__', u'__'], [0, 4, 12, u'__', u'__', 4, u'__', u'__', u'__', -4, u'__', u'__', u'__', 4, u'__', u'__', u'__'], [0, 4, 12, u'__', u'__', 4, u'__', u'__', u'__', -4, u'__', u'__', u'__', 4, 12, u'__', u'__'], [0, 4, 12, u'__', u'__', 4, -4, u'__', u'__', -4, u'__', u'__', u'__', 4, 12, u'__', u'__'], [0, 4, 12, u'__', -4, 4, -4, u'__', u'__', -4, u'__', u'__', u'__', 4, 12, u'__', u'__'], [0, 4, 12, u'__', -4, 4, -4, u'__', u'__', -4, u'__', u'__', u'__', 4, 12, -4, u'__'], [0, 4, 12, u'__', -4, 4, -4, u'__', u'__', -4, u'__', u'__', u'__', 4, 12, -4, 12]]",,[],[],[],"[u'0', 13, 14, 16]",[],[],"{u'mouseover': {u'state': {u'target': [], u'time': []}, u'edge': {u'target': [], u'time': []}}, u'click': {u'state': {u'target': [9, 13, 1, 5, 2, 14, 6, 4, 15, 16], u'time': [1095, 2103, 2838, 3588, 4841, 5794, 6647, 7960, 8839, 9695]}, u'edge': {u'target': [], u'time': []}}, u'mouseout': {u'state': {u'target': [], u'time': []}, u'edge': {u'target': [], u'time': []}}}",,,"[11172, 341, 280]",18.0,372882,5.0,,mouselab-mdp,,6
"[7099, 8000, 9103]","[u'1', u'1', u'2']","[[0, u'__', u'__', u'__', u'__', u'__', u'__', u'__', u'__', u'__', u'__', u'__', u'__', u'__', u'__', u'__', u'__'], [0, u'__', u'__', u'__', u'__', u'__', u'__', u'__', u'__', u'__', u'__', u'__', u'__', -4, u'__', u'__', u'__'], [0, u'__', u'__', u'__', u'__', u'__', u'__', u'__', u'__', 4, u'__', u'__', u'__', -4, u'__', u'__', u'__'], [0, u'__', u'__', u'__', u'__', 12, u'__', u'__', u'__', 4, u'__', u'__', u'__', -4, u'__', u'__', u'__'], [0, 4, u'__', u'__', u'__', 12, u'__', u'__', u'__', 4, u'__', u'__', u'__', -4, u'__', u'__', u'__'], [0, 4, u'__', u'__', u'__', 12, 4, u'__', u'__', 4, u'__', u'__', u'__', -4, u'__', u'__', u'__'], [0, 4, u'__', u'__', u'__', 12, 4, u'__', 4, 4, u'__', u'__', u'__', -4, u'__', u'__', u'__'], [0, 4, u'__', u'__', u'__', 12, 4, 12, 4, 4, u'__', u'__', u'__', -4, u'__', u'__', u'__']]",,[],[],[],"[u'0', 5, 6, 7]",[],[],"{u'mouseover': {u'state': {u'target': [], u'time': []}, u'edge': {u'target': [], u'time': []}}, u'click': {u'state': {u'target': [13, 9, 5, 1, 6, 8, 7], u'time': [928, 1863, 2535, 3223, 4319, 5020, 5751]}, u'edge': {u'target': [], u'time': []}}, u'mouseout': {u'state': {u'target': [], u'time': []}, u'edge': {u'target': [], u'time': []}}}",,,"[7099, 392, 597]",21.0,422840,6.0,,mouselab-mdp,,6
"[8498, 9375, 10459]","[u'1', u'1', u'0']","[[0, u'__', u'__', u'__', u'__', u'__', u'__', u'__', u'__', u'__', u'__', u'__', u'__', u'__', u'__', u'__', u'__'], [0, u'__', u'__', u'__', u'__', u'__', u'__', u'__', u'__', u'__', u'__', u'__', u'__', -12, u'__', u'__', u'__'], [0, 4, u'__', u'__', u'__', u'__', u'__', u'__', u'__', u'__', u'__', u'__', u'__', -12, u'__', u'__', u'__'], [0, 4, u'__', u'__', u'__', 20, u'__', u'__', u'__', u'__', u'__', u'__', u'__', -12, u'__', u'__', u'__'], [0, 4, u'__', u'__', u'__', 20, u'__', u'__', u'__', 4, u'__', u'__', u'__', -12, u'__', u'__', u'__'], [0, 4, u'__', u'__', u'__', 20, 12, u'__', u'__', 4, u'__', u'__', u'__', -12, u'__', u'__', u'__'], [0, 4, u'__', u'__', u'__', 20, 12, -20, u'__', 4, u'__', u'__', u'__', -12, u'__', u'__', u'__'], [0, 4, u'__', u'__', u'__', 20, 12, -20, -4, 4, u'__', u'__', u'__', -12, u'__', u'__', u'__']]",,[],[],[],"[u'0', 5, 6, 8]",[],[],"{u'mouseover': {u'state': {u'target': [], u'time': []}, u'edge': {u'target': [], u'time': []}}, u'click': {u'state': {u'target': [13, 1, 5, 9, 6, 7, 8], u'time': [918, 1655, 2932, 3855, 4613, 5205, 6073]}, u'edge': {u'target': [], u'time': []}}, u'mouseout': {u'state': {u'target': [], u'time': []}, u'edge': {u'target': [], u'time': []}}}",,,"[8497, 368, 572]",21.0,487592,7.0,,mouselab-mdp,,6
"[7297, 8108, 8898]","[u'1', u'1', u'0']","[[0, u'__', u'__', u'__', u'__', u'__', u'__', u'__', u'__', u'__', u'__', u'__', u'__', u'__', u'__', u'__', u'__'], [0, u'__', u'__', u'__', u'__', u'__', u'__', u'__', u'__', -12, u'__', u'__', u'__', u'__', u'__', u'__', u'__'], [0, u'__', u'__', u'__', u'__', u'__', u'__', u'__', u'__', -12, u'__', u'__', u'__', 4, u'__', u'__', u'__'], [0, -20, u'__', u'__', u'__', u'__', u'__', u'__', u'__', -12, u'__', u'__', u'__', 4, u'__', u'__', u'__'], [0, -20, u'__', u'__', u'__', 20, u'__', u'__', u'__', -12, u'__', u'__', u'__', 4, u'__', u'__', u'__'], [0, -20, u'__', u'__', u'__', 20, 12, u'__', u'__', -12, u'__', u'__', u'__', 4, u'__', u'__', u'__'], [0, -20, u'__', u'__', u'__', 20, 12, u'__', 4, -12, u'__', u'__', u'__', 4, u'__', u'__', u'__'], [0, -20, u'__', u'__', u'__', 20, 12, -4, 4, -12, u'__', u'__', u'__', 4, u'__', u'__', u'__']]",,[],[],[],"[u'0', 5, 6, 8]",[],[],"{u'mouseover': {u'state': {u'target': [], u'time': []}, u'edge': {u'target': [], u'time': []}}, u'click': {u'state': {u'target': [9, 13, 1, 5, 6, 8, 7], u'time': [1376, 2031, 2893, 3435, 4523, 5277, 6132]}, u'edge': {u'target': [], u'time': []}}, u'mouseout': {u'state': {u'target': [], u'time': []}, u'edge': {u'target': [], u'time': []}}}",,,"[7297, 295, 271]",29.0,541330,8.0,,mouselab-mdp,,6
"[7432, 8293, 8959]","[u'2', u'2', u'3']","[[0, u'__', u'__', u'__', u'__', u'__', u'__', u'__', u'__', u'__', u'__', u'__', u'__', u'__', u'__', u'__', u'__'], [0, u'__', u'__', u'__', u'__', u'__', u'__', u'__', u'__', 20, u'__', u'__', u'__', u'__', u'__', u'__', u'__'], [0, u'__', u'__', u'__', u'__', -4, u'__', u'__', u'__', 20, u'__', u'__', u'__', u'__', u'__', u'__', u'__'], [0, u'__', u'__', u'__', u'__', -4, u'__', u'__', u'__', 20, -4, u'__', u'__', u'__', u'__', u'__', u'__'], [0, u'__', u'__', u'__', u'__', -4, u'__', u'__', u'__', 20, -4, 12, u'__', u'__', u'__', u'__', u'__'], [0, u'__', u'__', u'__', u'__', -4, u'__', u'__', u'__', 20, -4, 12, 4, u'__', u'__', u'__', u'__'], [0, u'__', u'__', u'__', u'__', -4, u'__', u'__', u'__', 20, -4, 12, 4, 4, u'__', u'__', u'__'], [0, 4, u'__', u'__', u'__', -4, u'__', u'__', u'__', 20, -4, 12, 4, 4, u'__', u'__', u'__']]",,[],[],[],"[u'0', 9, 10, 11]",[],[],"{u'mouseover': {u'state': {u'target': [], u'time': []}, u'edge': {u'target': [], u'time': []}}, u'click': {u'state': {u'target': [9, 5, 10, 11, 12, 13, 1], u'time': [860, 1540, 2816, 3870, 4628, 5712, 6268]}, u'edge': {u'target': [], u'time': []}}, u'mouseout': {u'state': {u'target': [], u'time': []}, u'edge': {u'target': [], u'time': []}}}",,,"[7432, 344, 160]",21.0,588838,9.0,,mouselab-mdp,,6
