p_rdata,action_times,actions,beliefs,correct,delays,information_used_correctly,key_press,meta_actions,path,planned_too_little,planned_too_much,queries,questions,responses,rt,score,time_elapsed,trial_index,trial_id,trial_type,view_history,pid
,,,,,,,,,,,,,,,184439,,184439,,,instructions,"[{""page_index"":0,""viewing_time"":2100},{""page_index"":1,""viewing_time"":170059},{""page_index"":2,""viewing_time"":12279}]",0
,,,,,,,,,,,,,,,13479,,221212,,,instructions,"[{""page_index"":0,""viewing_time"":5703},{""page_index"":1,""viewing_time"":6799},{""page_index"":2,""viewing_time"":976}]",0
,,,,,,,,,,,,,,,99128,,99128,,,instructions,"[{""page_index"":0,""viewing_time"":25337},{""page_index"":1,""viewing_time"":14400},{""page_index"":2,""viewing_time"":16967},{""page_index"":3,""viewing_time"":16496},{""page_index"":2,""viewing_time"":6279},{""page_index"":1,""viewing_time"":7576},{""page_index"":0,""viewing_time"":6369},{""page_index"":1,""viewing_time"":839},{""page_index"":2,""viewing_time"":3889},{""page_index"":3,""viewing_time"":975}]",1
,,,,,,,,,,,,,,,34142,,320553,,,instructions,"[{""page_index"":0,""viewing_time"":11517},{""page_index"":1,""viewing_time"":6008},{""page_index"":2,""viewing_time"":6504},{""page_index"":3,""viewing_time"":10113}]",1
,,,,,,,,,,,,,,,111267,,111268,,,instructions,"[{""page_index"":0,""viewing_time"":68145},{""page_index"":1,""viewing_time"":15501},{""page_index"":2,""viewing_time"":16315},{""page_index"":3,""viewing_time"":11299}]",2
,,,,,,,,,,,,,,,12049,,150843,,,instructions,"[{""page_index"":0,""viewing_time"":5040},{""page_index"":1,""viewing_time"":3358},{""page_index"":2,""viewing_time"":1895},{""page_index"":3,""viewing_time"":1752}]",2
,,,,,,,,,,,,,,,73072,,73073,,,instructions,"[{""page_index"":0,""viewing_time"":41808},{""page_index"":1,""viewing_time"":13640},{""page_index"":2,""viewing_time"":12545},{""page_index"":3,""viewing_time"":5078}]",3
,,,,,,,,,,,,,,,29323,,131668,,,instructions,"[{""page_index"":0,""viewing_time"":13593},{""page_index"":1,""viewing_time"":6120},{""page_index"":2,""viewing_time"":5087},{""page_index"":3,""viewing_time"":4522}]",3
,,,,,,,,,,,,,,,104583,,104584,,,instructions,"[{""page_index"":0,""viewing_time"":30206},{""page_index"":1,""viewing_time"":19799},{""page_index"":2,""viewing_time"":35266},{""page_index"":3,""viewing_time"":19312}]",4
,,,,,,,,,,,,,,,83653,,83658,,,instructions,"[{""page_index"":0,""viewing_time"":42018},{""page_index"":1,""viewing_time"":24740},{""page_index"":2,""viewing_time"":16892}]",5
,,,,,,,,,,,,,,,32420,,145901,,,instructions,"[{""page_index"":0,""viewing_time"":8942},{""page_index"":1,""viewing_time"":11877},{""page_index"":2,""viewing_time"":11600}]",5
,,,,,,,,,,,,,,,374003,,374005,,,instructions,"[{""page_index"":0,""viewing_time"":60166},{""page_index"":1,""viewing_time"":42856},{""page_index"":2,""viewing_time"":58836},{""page_index"":3,""viewing_time"":212144}]",6
,,,,,,,,,,,,,,,208198,,208199,,,instructions,"[{""page_index"":0,""viewing_time"":90012},{""page_index"":1,""viewing_time"":101492},{""page_index"":2,""viewing_time"":16692}]",7
,,,,,,,,,,,,,,,127006,,396582,,,instructions,"[{""page_index"":0,""viewing_time"":29526},{""page_index"":1,""viewing_time"":46994},{""page_index"":2,""viewing_time"":50484}]",7
,,,,,,,,,,,,,,,145632,,145634,,,instructions,"[{""page_index"":0,""viewing_time"":45361},{""page_index"":1,""viewing_time"":44782},{""page_index"":2,""viewing_time"":31795},{""page_index"":3,""viewing_time"":23690}]",8
,,,,,,,,,,,,,,,149970,,149971,,,instructions,"[{""page_index"":0,""viewing_time"":40218},{""page_index"":1,""viewing_time"":61656},{""page_index"":2,""viewing_time"":15997},{""page_index"":3,""viewing_time"":32099}]",9
,,,,,,,,,,,,,,,23523,,220933,,,instructions,"[{""page_index"":0,""viewing_time"":6598},{""page_index"":1,""viewing_time"":2057},{""page_index"":0,""viewing_time"":6324},{""page_index"":1,""viewing_time"":4220},{""page_index"":2,""viewing_time"":2198},{""page_index"":3,""viewing_time"":2126}]",9
,,,,,,,,,,,,,,,41623,,277632,,,instructions,"[{""page_index"":0,""viewing_time"":9564},{""page_index"":1,""viewing_time"":12261},{""page_index"":2,""viewing_time"":15280},{""page_index"":3,""viewing_time"":4517}]",9
,,,,,,,,,,,,,,,36333,,337271,,,instructions,"[{""page_index"":0,""viewing_time"":20476},{""page_index"":1,""viewing_time"":12813},{""page_index"":2,""viewing_time"":2158},{""page_index"":3,""viewing_time"":886}]",9
,,,,,,,,,,,,,,,143398,,143400,,,instructions,"[{""page_index"":0,""viewing_time"":67510},{""page_index"":1,""viewing_time"":20677},{""page_index"":2,""viewing_time"":19841},{""page_index"":3,""viewing_time"":35368}]",10
,,,,,,,,,,,,,,,25604,,204342,,,instructions,"[{""page_index"":0,""viewing_time"":16835},{""page_index"":1,""viewing_time"":6176},{""page_index"":2,""viewing_time"":1640},{""page_index"":3,""viewing_time"":952}]",10
,,,,,,,,,,,,,,,111510,,337686,,,instructions,"[{""page_index"":0,""viewing_time"":2358},{""page_index"":1,""viewing_time"":3183},{""page_index"":2,""viewing_time"":103840},{""page_index"":3,""viewing_time"":2128}]",10
,,,,,,,,,,,,,,,76101,,445374,,,instructions,"[{""page_index"":0,""viewing_time"":13533},{""page_index"":1,""viewing_time"":9440},{""page_index"":2,""viewing_time"":8617},{""page_index"":1,""viewing_time"":16799},{""page_index"":2,""viewing_time"":22048},{""page_index"":3,""viewing_time"":5663}]",10
,,,,,,,,,,,,,,,85980,,85981,,,instructions,"[{""page_index"":0,""viewing_time"":23691},{""page_index"":1,""viewing_time"":23328},{""page_index"":2,""viewing_time"":19919},{""page_index"":3,""viewing_time"":19041}]",11
,,,,,,,,,,,,,,,60351,,185219,,,instructions,"[{""page_index"":0,""viewing_time"":14094},{""page_index"":1,""viewing_time"":23169},{""page_index"":2,""viewing_time"":15007},{""page_index"":3,""viewing_time"":8080}]",11
,,,,,,,,,,,,,,,308194,,308194,,,instructions,"[{""page_index"":0,""viewing_time"":106188},{""page_index"":1,""viewing_time"":32236},{""page_index"":0,""viewing_time"":6803},{""page_index"":1,""viewing_time"":4276},{""page_index"":0,""viewing_time"":5316},{""page_index"":1,""viewing_time"":42680},{""page_index"":2,""viewing_time"":60272},{""page_index"":1,""viewing_time"":47519},{""page_index"":2,""viewing_time"":2904}]",12
,,,,,,,,,,,,,,,74921,,74921,,,instructions,"[{""page_index"":0,""viewing_time"":16217},{""page_index"":1,""viewing_time"":19744},{""page_index"":2,""viewing_time"":21060},{""page_index"":3,""viewing_time"":17899}]",13
,,,,,,,,,,,,,,,21431,,136279,,,instructions,"[{""page_index"":0,""viewing_time"":5636},{""page_index"":1,""viewing_time"":4612},{""page_index"":2,""viewing_time"":8158},{""page_index"":3,""viewing_time"":3025}]",13
,,,,,,,,,,,,,,,137400,,137404,,,instructions,"[{""page_index"":0,""viewing_time"":48510},{""page_index"":1,""viewing_time"":61860},{""page_index"":2,""viewing_time"":27025}]",14
,,,,,,,,,,,,,,,97778,,97779,,,instructions,"[{""page_index"":0,""viewing_time"":32752},{""page_index"":1,""viewing_time"":37966},{""page_index"":2,""viewing_time"":27058}]",15
,,,,,,,,,,,,,,,160079,,160080,,,instructions,"[{""page_index"":0,""viewing_time"":58451},{""page_index"":1,""viewing_time"":54638},{""page_index"":2,""viewing_time"":24458},{""page_index"":3,""viewing_time"":22531}]",16
,,,,,,,,,,,,,,,112883,,112885,,,instructions,"[{""page_index"":0,""viewing_time"":46268},{""page_index"":1,""viewing_time"":39879},{""page_index"":2,""viewing_time"":26734}]",17
,,,,,,,,,,,,,,,126191,,126192,,,instructions,"[{""page_index"":0,""viewing_time"":45401},{""page_index"":1,""viewing_time"":29729},{""page_index"":2,""viewing_time"":26159},{""page_index"":3,""viewing_time"":24902}]",18
,,,,,,,,,,,,,,,469694,,469695,,,instructions,"[{""page_index"":0,""viewing_time"":121752},{""page_index"":1,""viewing_time"":187230},{""page_index"":2,""viewing_time"":126356},{""page_index"":3,""viewing_time"":34355}]",19
,,,,,,,,,,,,,,,111051,,111053,,,instructions,"[{""page_index"":0,""viewing_time"":35283},{""page_index"":1,""viewing_time"":46196},{""page_index"":2,""viewing_time"":29570}]",20
,,,,,,,,,,,,,,,14003,,14005,,,instructions,"[{""page_index"":0,""viewing_time"":4483},{""page_index"":1,""viewing_time"":3231},{""page_index"":2,""viewing_time"":3784},{""page_index"":3,""viewing_time"":2504}]",21
,,,,,,,,,,,,,,,304582,,350124,,,instructions,"[{""page_index"":0,""viewing_time"":287903},{""page_index"":1,""viewing_time"":5470},{""page_index"":2,""viewing_time"":3992},{""page_index"":3,""viewing_time"":7216}]",21
,,,,,,,,,,,,,,,132157,,132159,,,instructions,"[{""page_index"":0,""viewing_time"":73349},{""page_index"":1,""viewing_time"":26064},{""page_index"":2,""viewing_time"":14272},{""page_index"":3,""viewing_time"":18471}]",22
,,,,,,,,,,,,,,,56223,,56229,,,instructions,"[{""page_index"":0,""viewing_time"":17219},{""page_index"":1,""viewing_time"":30819},{""page_index"":2,""viewing_time"":5174},{""page_index"":3,""viewing_time"":3005}]",23
,,,,,,,,,,,,,,,91263,,91264,,,instructions,"[{""page_index"":0,""viewing_time"":45961},{""page_index"":1,""viewing_time"":28936},{""page_index"":0,""viewing_time"":8910},{""page_index"":1,""viewing_time"":1279},{""page_index"":2,""viewing_time"":6176}]",24
,,,,,,,,,,,,,,,140407,,140407,,,instructions,"[{""page_index"":0,""viewing_time"":35364},{""page_index"":1,""viewing_time"":62199},{""page_index"":2,""viewing_time"":17989},{""page_index"":3,""viewing_time"":24853}]",25
,,,,,,,,,,,,,,,293400,,293402,,,instructions,"[{""page_index"":0,""viewing_time"":202171},{""page_index"":1,""viewing_time"":22166},{""page_index"":2,""viewing_time"":24748},{""page_index"":3,""viewing_time"":24704},{""page_index"":2,""viewing_time"":1642},{""page_index"":1,""viewing_time"":10423},{""page_index"":2,""viewing_time"":1330},{""page_index"":3,""viewing_time"":6215}]",26
,,,,,,,,,,,,,,,94645,,426332,,,instructions,"[{""page_index"":0,""viewing_time"":44315},{""page_index"":1,""viewing_time"":10488},{""page_index"":2,""viewing_time"":32016},{""page_index"":3,""viewing_time"":7825}]",26
,,,,,,,,,,,,,,,136041,,603147,,,instructions,"[{""page_index"":0,""viewing_time"":78570},{""page_index"":1,""viewing_time"":25724},{""page_index"":2,""viewing_time"":18926},{""page_index"":3,""viewing_time"":12821}]",26
,,,,,,,,,,,,,,,7448,,639197,,,instructions,"[{""page_index"":0,""viewing_time"":3107},{""page_index"":1,""viewing_time"":1089},{""page_index"":2,""viewing_time"":1686},{""page_index"":3,""viewing_time"":1566}]",26
,,,,,,,,,,,,,,,44898,,718156,,,instructions,"[{""page_index"":0,""viewing_time"":15579},{""page_index"":1,""viewing_time"":12280},{""page_index"":2,""viewing_time"":11514},{""page_index"":3,""viewing_time"":5525}]",26
,,,,,,,,,,,,,,,55166,,55166,,,instructions,"[{""page_index"":0,""viewing_time"":23254},{""page_index"":1,""viewing_time"":16469},{""page_index"":2,""viewing_time"":4602},{""page_index"":3,""viewing_time"":10840}]",27
,,,,,,,,,,,,,,,25752,,110590,,,instructions,"[{""page_index"":0,""viewing_time"":7509},{""page_index"":1,""viewing_time"":6327},{""page_index"":2,""viewing_time"":5844},{""page_index"":3,""viewing_time"":6072}]",27
,,,,,,,,,,,,,,,89428,,89430,,,instructions,"[{""page_index"":0,""viewing_time"":32885},{""page_index"":1,""viewing_time"":22787},{""page_index"":2,""viewing_time"":17094},{""page_index"":3,""viewing_time"":16662}]",28
,,,,,,,,,,,,,,,14739,,139273,,,instructions,"[{""page_index"":0,""viewing_time"":2391},{""page_index"":1,""viewing_time"":1242},{""page_index"":0,""viewing_time"":564},{""page_index"":1,""viewing_time"":398},{""page_index"":2,""viewing_time"":6996},{""page_index"":3,""viewing_time"":3148}]",28
,,,,,,,,,,,,,,,323379,,323380,,,instructions,"[{""page_index"":0,""viewing_time"":73483},{""page_index"":1,""viewing_time"":110569},{""page_index"":2,""viewing_time"":92087},{""page_index"":3,""viewing_time"":47240}]",29
,,,,,,,,,,,,,,,74143,,74144,,,instructions,"[{""page_index"":0,""viewing_time"":21629},{""page_index"":1,""viewing_time"":34157},{""page_index"":2,""viewing_time"":13303},{""page_index"":3,""viewing_time"":5053}]",30
,,,,,,,,,,,,,,,36522,,142483,,,instructions,"[{""page_index"":0,""viewing_time"":3610},{""page_index"":1,""viewing_time"":9045},{""page_index"":2,""viewing_time"":10162},{""page_index"":3,""viewing_time"":13705}]",30
,,,,,,,,,,,,,,,2234,,161344,,,instructions,"[{""page_index"":0,""viewing_time"":1081},{""page_index"":1,""viewing_time"":343},{""page_index"":2,""viewing_time"":467},{""page_index"":3,""viewing_time"":343}]",30
,,,,,,,,,,,,,,,124476,,124479,,,instructions,"[{""page_index"":0,""viewing_time"":39141},{""page_index"":1,""viewing_time"":54842},{""page_index"":2,""viewing_time"":30489}]",31
,,,,,,,,,,,,,,,160034,,160038,,,instructions,"[{""page_index"":0,""viewing_time"":44712},{""page_index"":1,""viewing_time"":44860},{""page_index"":2,""viewing_time"":36556},{""page_index"":3,""viewing_time"":33905}]",32
,,,,,,,,,,,,,,,137192,,137195,,,instructions,"[{""page_index"":0,""viewing_time"":45015},{""page_index"":1,""viewing_time"":28160},{""page_index"":2,""viewing_time"":44547},{""page_index"":3,""viewing_time"":19469}]",33
,,,,,,,,,,,,,,,210814,,210816,,,instructions,"[{""page_index"":0,""viewing_time"":48776},{""page_index"":1,""viewing_time"":63913},{""page_index"":2,""viewing_time"":98124}]",34
,,,,,,,,,,,,,,,83776,,83778,,,instructions,"[{""page_index"":0,""viewing_time"":3373},{""page_index"":1,""viewing_time"":669},{""page_index"":0,""viewing_time"":29967},{""page_index"":1,""viewing_time"":35407},{""page_index"":2,""viewing_time"":14359}]",35
,,,,,,,,,,,,,,,26883,,140127,,,instructions,"[{""page_index"":0,""viewing_time"":19138},{""page_index"":1,""viewing_time"":6160},{""page_index"":2,""viewing_time"":1584}]",35
,,,,,,,,,,,,,,,3023,,157831,,,instructions,"[{""page_index"":0,""viewing_time"":2161},{""page_index"":1,""viewing_time"":190},{""page_index"":2,""viewing_time"":671}]",35
,,,,,,,,,,,,,,,72745,,72745,,,instructions,"[{""page_index"":0,""viewing_time"":21222},{""page_index"":1,""viewing_time"":17944},{""page_index"":2,""viewing_time"":19619},{""page_index"":3,""viewing_time"":13960}]",36
,,,,,,,,,,,,,,,99038,,99039,,,instructions,"[{""page_index"":0,""viewing_time"":25199},{""page_index"":1,""viewing_time"":51132},{""page_index"":2,""viewing_time"":22706}]",37
,,,,,,,,,,,,,,,60827,,198565,,,instructions,"[{""page_index"":0,""viewing_time"":36106},{""page_index"":1,""viewing_time"":21705},{""page_index"":2,""viewing_time"":3016}]",37
,,,,,,,,,,,,,,,218482,,218482,,,instructions,"[{""page_index"":0,""viewing_time"":53965},{""page_index"":1,""viewing_time"":71458},{""page_index"":2,""viewing_time"":60251},{""page_index"":3,""viewing_time"":32807}]",38
,,,,,,,,,,,,,,,131030,,131032,,,instructions,"[{""page_index"":0,""viewing_time"":42488},{""page_index"":1,""viewing_time"":40989},{""page_index"":2,""viewing_time"":27726},{""page_index"":3,""viewing_time"":19825}]",39
,,,,,,,,,,,,,,,160175,,160177,,,instructions,"[{""page_index"":0,""viewing_time"":29851},{""page_index"":1,""viewing_time"":79910},{""page_index"":2,""viewing_time"":22859},{""page_index"":3,""viewing_time"":27553}]",40
,,,,,,,,,,,,,,,52725,,52725,,,instructions,"[{""page_index"":0,""viewing_time"":20363},{""page_index"":1,""viewing_time"":17833},{""page_index"":2,""viewing_time"":14528}]",41
,,,,,,,,,,,,,,,24212,,102999,,,instructions,"[{""page_index"":0,""viewing_time"":2074},{""page_index"":1,""viewing_time"":8385},{""page_index"":2,""viewing_time"":4848},{""page_index"":1,""viewing_time"":7544},{""page_index"":2,""viewing_time"":1360}]",41
,,,,,,,,,,,,,,,187686,,187688,,,instructions,"[{""page_index"":0,""viewing_time"":77656},{""page_index"":1,""viewing_time"":33062},{""page_index"":2,""viewing_time"":49757},{""page_index"":3,""viewing_time"":27210}]",42
,,,,,,,,,,,,,,,207286,,458382,,,instructions,"[{""page_index"":0,""viewing_time"":57331},{""page_index"":1,""viewing_time"":30009},{""page_index"":2,""viewing_time"":34711},{""page_index"":3,""viewing_time"":85233}]",42
,,,,,,,,,,,,,,,75584,,75591,,,instructions,"[{""page_index"":0,""viewing_time"":37478},{""page_index"":1,""viewing_time"":24068},{""page_index"":2,""viewing_time"":7378},{""page_index"":3,""viewing_time"":6657}]",43
,,,,,,,,,,,,,,,69985,,169282,,,instructions,"[{""page_index"":0,""viewing_time"":6606},{""page_index"":1,""viewing_time"":5402},{""page_index"":2,""viewing_time"":13241},{""page_index"":3,""viewing_time"":14947},{""page_index"":2,""viewing_time"":5383},{""page_index"":1,""viewing_time"":17037},{""page_index"":0,""viewing_time"":4834},{""page_index"":1,""viewing_time"":791},{""page_index"":2,""viewing_time"":1039},{""page_index"":3,""viewing_time"":703}]",43
,,,,,,,,,,,,,,,102388,,102388,,,instructions,"[{""page_index"":0,""viewing_time"":25036},{""page_index"":1,""viewing_time"":11570},{""page_index"":2,""viewing_time"":34938},{""page_index"":3,""viewing_time"":30843}]",44
,,,,,,,,,,,,,,,130906,,130908,,,instructions,"[{""page_index"":0,""viewing_time"":43134},{""page_index"":1,""viewing_time"":54116},{""page_index"":2,""viewing_time"":33655}]",45
,,,,,,,,,,,,,,,51720,,218973,,,instructions,"[{""page_index"":0,""viewing_time"":8575},{""page_index"":1,""viewing_time"":6095},{""page_index"":2,""viewing_time"":7439},{""page_index"":1,""viewing_time"":24266},{""page_index"":2,""viewing_time"":5344}]",45
,,,,,,,,,,,,,,,121840,,121841,,,instructions,"[{""page_index"":0,""viewing_time"":41281},{""page_index"":1,""viewing_time"":34027},{""page_index"":2,""viewing_time"":23088},{""page_index"":3,""viewing_time"":23443}]",46
,,,,,,,,,,,,,,,108472,,108472,,,instructions,"[{""page_index"":0,""viewing_time"":36898},{""page_index"":1,""viewing_time"":45856},{""page_index"":2,""viewing_time"":25717}]",47
,,,,,,,,,,,,,,,272736,,272737,,,instructions,"[{""page_index"":0,""viewing_time"":84664},{""page_index"":1,""viewing_time"":94727},{""page_index"":2,""viewing_time"":48807},{""page_index"":3,""viewing_time"":44536}]",48
,,,,,,,,,,,,,,,196636,,196638,,,instructions,"[{""page_index"":0,""viewing_time"":101274},{""page_index"":1,""viewing_time"":49561},{""page_index"":2,""viewing_time"":45800}]",49
,,,,,,,,,,,,,,,54720,,288601,,,instructions,"[{""page_index"":0,""viewing_time"":13862},{""page_index"":1,""viewing_time"":20681},{""page_index"":2,""viewing_time"":20176}]",49
,,,,,,,,,,,,,,,111583,,419290,,,instructions,"[{""page_index"":0,""viewing_time"":99519},{""page_index"":1,""viewing_time"":8432},{""page_index"":2,""viewing_time"":3631}]",49
,,,,,,,,,,,,,,,4229,,450761,,,instructions,"[{""page_index"":0,""viewing_time"":1726},{""page_index"":1,""viewing_time"":1615},{""page_index"":2,""viewing_time"":888}]",49
,,,,,,,,,,,,,,,4071,,467538,,,instructions,"[{""page_index"":0,""viewing_time"":2110},{""page_index"":1,""viewing_time"":1423},{""page_index"":2,""viewing_time"":537}]",49
,,,,,,,,,,,,,,,24195,,509646,,,instructions,"[{""page_index"":0,""viewing_time"":17773},{""page_index"":1,""viewing_time"":5392},{""page_index"":2,""viewing_time"":1030}]",49
,,,,,,,,,,,,,,,102274,,102275,,,instructions,"[{""page_index"":0,""viewing_time"":32648},{""page_index"":1,""viewing_time"":31014},{""page_index"":2,""viewing_time"":15084},{""page_index"":3,""viewing_time"":23527}]",50
,,,,,,,,,,,,,,,46643,,46644,,,instructions,"[{""page_index"":0,""viewing_time"":31266},{""page_index"":1,""viewing_time"":13890},{""page_index"":2,""viewing_time"":1485}]",51
,,,,,,,,,,,,,,,124912,,222180,,,instructions,"[{""page_index"":0,""viewing_time"":67621},{""page_index"":1,""viewing_time"":22992},{""page_index"":2,""viewing_time"":34299}]",51
,,,,,,,,,,,,,,,166030,,166031,,,instructions,"[{""page_index"":0,""viewing_time"":74830},{""page_index"":1,""viewing_time"":39855},{""page_index"":2,""viewing_time"":28224},{""page_index"":3,""viewing_time"":23121}]",52
,,,,,,,,,,,,,,,128198,,128198,,,instructions,"[{""page_index"":0,""viewing_time"":52174},{""page_index"":1,""viewing_time"":45190},{""page_index"":2,""viewing_time"":30833}]",53
,,,,,,,,,,,,,,,159701,,159703,,,instructions,"[{""page_index"":0,""viewing_time"":53196},{""page_index"":1,""viewing_time"":58371},{""page_index"":2,""viewing_time"":32847},{""page_index"":3,""viewing_time"":15285}]",54
,,,,,,,,,,,,,,,63255,,63257,,,instructions,"[{""page_index"":0,""viewing_time"":26323},{""page_index"":1,""viewing_time"":17209},{""page_index"":2,""viewing_time"":10833},{""page_index"":3,""viewing_time"":8889}]",55
,,,,,,,,,,,,,,,95115,,245232,,,instructions,"[{""page_index"":0,""viewing_time"":19654},{""page_index"":1,""viewing_time"":11889},{""page_index"":2,""viewing_time"":30558},{""page_index"":3,""viewing_time"":33013}]",55
,,,,,,,,,,,,,,,124240,,412913,,,instructions,"[{""page_index"":0,""viewing_time"":38636},{""page_index"":1,""viewing_time"":18986},{""page_index"":2,""viewing_time"":49401},{""page_index"":3,""viewing_time"":17216}]",55
,,,,,,,,,,,,,,,246994,,246996,,,instructions,"[{""page_index"":0,""viewing_time"":68187},{""page_index"":1,""viewing_time"":123360},{""page_index"":2,""viewing_time"":38852},{""page_index"":1,""viewing_time"":13908},{""page_index"":2,""viewing_time"":2686}]",56
,,,,,,,,,,,,,,,107481,,391994,,,instructions,"[{""page_index"":0,""viewing_time"":46451},{""page_index"":1,""viewing_time"":2438},{""page_index"":0,""viewing_time"":2378},{""page_index"":1,""viewing_time"":42817},{""page_index"":2,""viewing_time"":13396}]",56
,,,,,,,,,,,,,,,165739,,165744,,,instructions,"[{""page_index"":0,""viewing_time"":36918},{""page_index"":1,""viewing_time"":32848},{""page_index"":2,""viewing_time"":25108},{""page_index"":3,""viewing_time"":27583},{""page_index"":2,""viewing_time"":2903},{""page_index"":1,""viewing_time"":1578},{""page_index"":0,""viewing_time"":13817},{""page_index"":1,""viewing_time"":9461},{""page_index"":2,""viewing_time"":7135},{""page_index"":3,""viewing_time"":8384}]",57
,,,,,,,,,,,,,,,59199,,331205,,,instructions,"[{""page_index"":0,""viewing_time"":26454},{""page_index"":1,""viewing_time"":11920},{""page_index"":2,""viewing_time"":12970},{""page_index"":3,""viewing_time"":7851}]",57
,,,,,,,,,,,,,,,192158,,192158,,,instructions,"[{""page_index"":0,""viewing_time"":80308},{""page_index"":1,""viewing_time"":84062},{""page_index"":2,""viewing_time"":27787}]",58
,,,,,,,,,,,,,,,98182,,98187,,,instructions,"[{""page_index"":0,""viewing_time"":28560},{""page_index"":1,""viewing_time"":55438},{""page_index"":2,""viewing_time"":7167},{""page_index"":3,""viewing_time"":7016}]",59
,,,,,,,,,,,,,,,24068,,156721,,,instructions,"[{""page_index"":0,""viewing_time"":4723},{""page_index"":1,""viewing_time"":4920},{""page_index"":2,""viewing_time"":6344},{""page_index"":3,""viewing_time"":8080}]",59
,,,,,,,,,,,,,,,38545,,38547,,,instructions,"[{""page_index"":0,""viewing_time"":13924},{""page_index"":1,""viewing_time"":4052},{""page_index"":2,""viewing_time"":8057},{""page_index"":3,""viewing_time"":12510}]",60
,,,,,,,,,,,,,,,32116,,103850,,,instructions,"[{""page_index"":0,""viewing_time"":14452},{""page_index"":1,""viewing_time"":11534},{""page_index"":2,""viewing_time"":3034},{""page_index"":3,""viewing_time"":3096}]",60
,,,,,,,,,,,,,,,149563,,149563,,,instructions,"[{""page_index"":0,""viewing_time"":60381},{""page_index"":1,""viewing_time"":34871},{""page_index"":2,""viewing_time"":33952},{""page_index"":3,""viewing_time"":20358}]",61
,,,,,,,,,,,,,,,67240,,67242,,,instructions,"[{""page_index"":0,""viewing_time"":8478},{""page_index"":1,""viewing_time"":33273},{""page_index"":2,""viewing_time"":5615},{""page_index"":3,""viewing_time"":19871}]",62
,,,,,,,,,,,,,,,71617,,173862,,,instructions,"[{""page_index"":0,""viewing_time"":13319},{""page_index"":1,""viewing_time"":15185},{""page_index"":2,""viewing_time"":40183},{""page_index"":3,""viewing_time"":2928}]",62
,,,,,,,,,,,,,,,15701,,209855,,,instructions,"[{""page_index"":0,""viewing_time"":1394},{""page_index"":1,""viewing_time"":1048},{""page_index"":2,""viewing_time"":12009},{""page_index"":3,""viewing_time"":1248}]",62
,,,,,,,,,,,,,,,229910,,458981,,,instructions,"[{""page_index"":0,""viewing_time"":142612},{""page_index"":1,""viewing_time"":46486},{""page_index"":2,""viewing_time"":30652},{""page_index"":3,""viewing_time"":10159}]",62
,,,,,,,,,,,,,,,4159,,486621,,,instructions,"[{""page_index"":0,""viewing_time"":1021},{""page_index"":1,""viewing_time"":785},{""page_index"":2,""viewing_time"":1472},{""page_index"":3,""viewing_time"":879}]",62
,,,,,,,,,,,,,,,38053,,38053,,,instructions,"[{""page_index"":0,""viewing_time"":15885},{""page_index"":1,""viewing_time"":15967},{""page_index"":2,""viewing_time"":3489},{""page_index"":3,""viewing_time"":2712}]",63
,,,,,,,,,,,,,,,102029,,102030,,,instructions,"[{""page_index"":0,""viewing_time"":33051},{""page_index"":1,""viewing_time"":28487},{""page_index"":2,""viewing_time"":24581},{""page_index"":3,""viewing_time"":15909}]",64
,,,,,,,,,,,,,,,162037,,162039,,,instructions,"[{""page_index"":0,""viewing_time"":48143},{""page_index"":1,""viewing_time"":49389},{""page_index"":2,""viewing_time"":42304},{""page_index"":3,""viewing_time"":22199}]",65
,,,,,,,,,,,,,,,125067,,323308,,,instructions,"[{""page_index"":0,""viewing_time"":8155},{""page_index"":1,""viewing_time"":30040},{""page_index"":0,""viewing_time"":9551},{""page_index"":1,""viewing_time"":2112},{""page_index"":2,""viewing_time"":12888},{""page_index"":3,""viewing_time"":35190},{""page_index"":2,""viewing_time"":9011},{""page_index"":1,""viewing_time"":15695},{""page_index"":2,""viewing_time"":1456},{""page_index"":3,""viewing_time"":967}]",65
,,,,,,,,,,,,,,,31782,,380947,,,instructions,"[{""page_index"":0,""viewing_time"":13253},{""page_index"":1,""viewing_time"":15586},{""page_index"":2,""viewing_time"":2086},{""page_index"":3,""viewing_time"":855}]",65
,,,,,,,,,,,,,,,317553,,317555,,,instructions,"[{""page_index"":0,""viewing_time"":106648},{""page_index"":1,""viewing_time"":71972},{""page_index"":2,""viewing_time"":84016},{""page_index"":3,""viewing_time"":54916}]",66
,,,,,,,,,,,,,,,170549,,170552,,,instructions,"[{""page_index"":0,""viewing_time"":61787},{""page_index"":1,""viewing_time"":40928},{""page_index"":2,""viewing_time"":39602},{""page_index"":3,""viewing_time"":28226}]",67
,,,,,,,,,,,,,,,53273,,291603,,,instructions,"[{""page_index"":0,""viewing_time"":5118},{""page_index"":1,""viewing_time"":8792},{""page_index"":2,""viewing_time"":16704},{""page_index"":3,""viewing_time"":22657}]",67
,,,,,,,,,,,,,,,83220,,83222,,,instructions,"[{""page_index"":0,""viewing_time"":29104},{""page_index"":1,""viewing_time"":23521},{""page_index"":2,""viewing_time"":10345},{""page_index"":3,""viewing_time"":20249}]",68
,,,,,,,,,,,,,,,168189,,168191,,,instructions,"[{""page_index"":0,""viewing_time"":50037},{""page_index"":1,""viewing_time"":27406},{""page_index"":2,""viewing_time"":60552},{""page_index"":3,""viewing_time"":30192}]",69
,,,,,,,,,,,,,,,22389,,227494,,,instructions,"[{""page_index"":0,""viewing_time"":13364},{""page_index"":1,""viewing_time"":4631},{""page_index"":2,""viewing_time"":2705},{""page_index"":3,""viewing_time"":1688}]",69
,,,,,,,,,,,,,,,246552,,246554,,,instructions,"[{""page_index"":0,""viewing_time"":83508},{""page_index"":1,""viewing_time"":62792},{""page_index"":2,""viewing_time"":54920},{""page_index"":3,""viewing_time"":45330}]",70
,,,,,,,,,,,,,,,121250,,121251,,,instructions,"[{""page_index"":0,""viewing_time"":55364},{""page_index"":1,""viewing_time"":35861},{""page_index"":2,""viewing_time"":30024}]",71
,,,,,,,,,,,,,,,99266,,99272,,,instructions,"[{""page_index"":0,""viewing_time"":30620},{""page_index"":1,""viewing_time"":27679},{""page_index"":2,""viewing_time"":25367},{""page_index"":3,""viewing_time"":15600}]",72
,,,,,,,,,,,,,,,10352,,125265,,,instructions,"[{""page_index"":0,""viewing_time"":5322},{""page_index"":1,""viewing_time"":2475},{""page_index"":2,""viewing_time"":1927},{""page_index"":3,""viewing_time"":628}]",72
,,,,,,,,,,,,,,,177294,,177294,,,instructions,"[{""page_index"":0,""viewing_time"":21713},{""page_index"":1,""viewing_time"":124341},{""page_index"":2,""viewing_time"":22495},{""page_index"":3,""viewing_time"":8744}]",73
,,,,,,,,,,,,,,,86769,,86771,,,instructions,"[{""page_index"":0,""viewing_time"":31410},{""page_index"":1,""viewing_time"":21020},{""page_index"":2,""viewing_time"":15547},{""page_index"":3,""viewing_time"":18791}]",74
,,,,,,,,,,,,,,,35933,,153744,,,instructions,"[{""page_index"":0,""viewing_time"":19455},{""page_index"":1,""viewing_time"":9668},{""page_index"":2,""viewing_time"":5312},{""page_index"":3,""viewing_time"":1497}]",74
,,,,,,,,,,,,,,,134596,,134596,,,instructions,"[{""page_index"":0,""viewing_time"":38523},{""page_index"":1,""viewing_time"":31996},{""page_index"":2,""viewing_time"":41296},{""page_index"":3,""viewing_time"":22781}]",75
,,,,,,,,,,,,,,,67956,,67957,,,instructions,"[{""page_index"":0,""viewing_time"":42308},{""page_index"":1,""viewing_time"":23},{""page_index"":0,""viewing_time"":5287},{""page_index"":1,""viewing_time"":6804},{""page_index"":2,""viewing_time"":4858},{""page_index"":3,""viewing_time"":8672}]",76
,,,,,,,,,,,,,,,25676,,128399,,,instructions,"[{""page_index"":0,""viewing_time"":2686},{""page_index"":1,""viewing_time"":12409},{""page_index"":2,""viewing_time"":5572},{""page_index"":3,""viewing_time"":5008}]",76
,,,,,,,,,,,,,,,35741,,182186,,,instructions,"[{""page_index"":0,""viewing_time"":9368},{""page_index"":1,""viewing_time"":12188},{""page_index"":2,""viewing_time"":7408},{""page_index"":3,""viewing_time"":6776}]",76
,,,,,,,,,,,,,,,275925,,275925,,,instructions,"[{""page_index"":0,""viewing_time"":192723},{""page_index"":1,""viewing_time"":27417},{""page_index"":2,""viewing_time"":26827},{""page_index"":3,""viewing_time"":28957}]",77
,,,,,,,,,,,,,,,356971,,356972,,,instructions,"[{""page_index"":0,""viewing_time"":35486},{""page_index"":1,""viewing_time"":16988},{""page_index"":2,""viewing_time"":291175},{""page_index"":3,""viewing_time"":13321}]",78
,,,,,,,,,,,,,,,104927,,104928,,,instructions,"[{""page_index"":0,""viewing_time"":28676},{""page_index"":1,""viewing_time"":26180},{""page_index"":2,""viewing_time"":32834},{""page_index"":3,""viewing_time"":17237}]",79
,,,,,,,,,,,,,,,50419,,50419,,,instructions,"[{""page_index"":0,""viewing_time"":24897},{""page_index"":1,""viewing_time"":14880},{""page_index"":2,""viewing_time"":10640}]",80
,,,,,,,,,,,,,,,256777,,256777,,,instructions,"[{""page_index"":0,""viewing_time"":45895},{""page_index"":1,""viewing_time"":148450},{""page_index"":2,""viewing_time"":28462},{""page_index"":3,""viewing_time"":33969}]",81
,,,,,,,,,,,,,,,512968,,512969,,,instructions,"[{""page_index"":0,""viewing_time"":395730},{""page_index"":1,""viewing_time"":53286},{""page_index"":2,""viewing_time"":20128},{""page_index"":3,""viewing_time"":43823}]",82
,,,,,,,,,,,,,,,57731,,615652,,,instructions,"[{""page_index"":0,""viewing_time"":8628},{""page_index"":1,""viewing_time"":20887},{""page_index"":2,""viewing_time"":26143},{""page_index"":3,""viewing_time"":2073}]",82
,,,,,,,,,,,,,,,499270,,499271,,,instructions,"[{""page_index"":0,""viewing_time"":55739},{""page_index"":1,""viewing_time"":374356},{""page_index"":2,""viewing_time"":39970},{""page_index"":3,""viewing_time"":29204}]",83
,,,,,,,,,,,,,,,118260,,118261,,,instructions,"[{""page_index"":0,""viewing_time"":37721},{""page_index"":1,""viewing_time"":37482},{""page_index"":2,""viewing_time"":43053}]",84
,,,,,,,,,,,,,,,29853,,29853,,,instructions,"[{""page_index"":0,""viewing_time"":16902},{""page_index"":1,""viewing_time"":6993},{""page_index"":2,""viewing_time"":4555},{""page_index"":3,""viewing_time"":1402}]",85
,,,,,,,,,,,,,,,27532,,78523,,,instructions,"[{""page_index"":0,""viewing_time"":7564},{""page_index"":1,""viewing_time"":4001},{""page_index"":2,""viewing_time"":7381},{""page_index"":3,""viewing_time"":8586}]",85
,,,,,,,,,,,,,,,10536,,119657,,,instructions,"[{""page_index"":0,""viewing_time"":1784},{""page_index"":1,""viewing_time"":821},{""page_index"":2,""viewing_time"":6340},{""page_index"":3,""viewing_time"":1590}]",85
,,,,,,,,,,,,,,,5979,,145242,,,instructions,"[{""page_index"":0,""viewing_time"":1648},{""page_index"":1,""viewing_time"":874},{""page_index"":2,""viewing_time"":2303},{""page_index"":3,""viewing_time"":1153}]",85
,,,,,,,,,,,,,,,4635,,165782,,,instructions,"[{""page_index"":0,""viewing_time"":934},{""page_index"":1,""viewing_time"":818},{""page_index"":2,""viewing_time"":2053},{""page_index"":3,""viewing_time"":829}]",85
,,,,,,,,,,,,,,,15285,,194882,,,instructions,"[{""page_index"":0,""viewing_time"":5977},{""page_index"":1,""viewing_time"":6019},{""page_index"":2,""viewing_time"":2189},{""page_index"":3,""viewing_time"":1099}]",85
,,,,,,,,,,,,,,,19478,,229025,,,instructions,"[{""page_index"":0,""viewing_time"":2228},{""page_index"":1,""viewing_time"":3800},{""page_index"":2,""viewing_time"":7409},{""page_index"":3,""viewing_time"":6041}]",85
,,,,,,,,,,,,,,,4342,,252149,,,instructions,"[{""page_index"":0,""viewing_time"":928},{""page_index"":1,""viewing_time"":808},{""page_index"":2,""viewing_time"":1708},{""page_index"":3,""viewing_time"":897}]",85
,,,,,,,,,,,,,,,108295,,108299,,,instructions,"[{""page_index"":0,""viewing_time"":40770},{""page_index"":1,""viewing_time"":31797},{""page_index"":2,""viewing_time"":17757},{""page_index"":3,""viewing_time"":17967}]",86
,,,,,,,,,,,,,,,270700,,270703,,,instructions,"[{""page_index"":0,""viewing_time"":86667},{""page_index"":1,""viewing_time"":85833},{""page_index"":2,""viewing_time"":55970},{""page_index"":3,""viewing_time"":42221}]",87
,,,,,,,,,,,,,,,85332,,85334,,,instructions,"[{""page_index"":0,""viewing_time"":27034},{""page_index"":1,""viewing_time"":27692},{""page_index"":2,""viewing_time"":20069},{""page_index"":3,""viewing_time"":10536}]",88
,,,,,,,,,,,,,,,187206,,187210,,,instructions,"[{""page_index"":0,""viewing_time"":52441},{""page_index"":1,""viewing_time"":41223},{""page_index"":2,""viewing_time"":46275},{""page_index"":3,""viewing_time"":47264}]",89
,,,,,,,,,,,,,,,173606,,173606,,,instructions,"[{""page_index"":0,""viewing_time"":87627},{""page_index"":1,""viewing_time"":41677},{""page_index"":2,""viewing_time"":19230},{""page_index"":3,""viewing_time"":25071}]",90
,,,,,,,,,,,,,,,81494,,280747,,,instructions,"[{""page_index"":0,""viewing_time"":13085},{""page_index"":1,""viewing_time"":6428},{""page_index"":2,""viewing_time"":47174},{""page_index"":3,""viewing_time"":8467},{""page_index"":2,""viewing_time"":3123},{""page_index"":1,""viewing_time"":2469},{""page_index"":2,""viewing_time"":394},{""page_index"":3,""viewing_time"":353}]",90
,,,,,,,,,,,,,,,208321,,208326,,,instructions,"[{""page_index"":0,""viewing_time"":37166},{""page_index"":1,""viewing_time"":18223},{""page_index"":2,""viewing_time"":87987},{""page_index"":3,""viewing_time"":64941}]",91
,,,,,,,,,,,,,,,259440,,549099,,,instructions,"[{""page_index"":0,""viewing_time"":72899},{""page_index"":1,""viewing_time"":37642},{""page_index"":2,""viewing_time"":108819},{""page_index"":3,""viewing_time"":40078}]",91
,,,,,,,,,,,,,,,188744,,828578,,,instructions,"[{""page_index"":0,""viewing_time"":17862},{""page_index"":1,""viewing_time"":10179},{""page_index"":2,""viewing_time"":9119},{""page_index"":3,""viewing_time"":151581}]",91
,,,,,,,,,,,,,,,137670,,137671,,,instructions,"[{""page_index"":0,""viewing_time"":54277},{""page_index"":1,""viewing_time"":23108},{""page_index"":2,""viewing_time"":46876},{""page_index"":3,""viewing_time"":13408}]",92
,,,,,,,,,,,,,,,151612,,151613,,,instructions,"[{""page_index"":0,""viewing_time"":42581},{""page_index"":1,""viewing_time"":1169},{""page_index"":0,""viewing_time"":1696},{""page_index"":1,""viewing_time"":35862},{""page_index"":2,""viewing_time"":32995},{""page_index"":3,""viewing_time"":37308}]",93
,,,,,,,,,,,,,,,148085,,148086,,,instructions,"[{""page_index"":0,""viewing_time"":79546},{""page_index"":1,""viewing_time"":26707},{""page_index"":2,""viewing_time"":35119},{""page_index"":3,""viewing_time"":6712}]",94
,,,,,,,,,,,,,,,34013,,201483,,,instructions,"[{""page_index"":0,""viewing_time"":15452},{""page_index"":1,""viewing_time"":11104},{""page_index"":2,""viewing_time"":1904},{""page_index"":3,""viewing_time"":5553}]",94
,,,,,,,,,,,,,,,138970,,138970,,,instructions,"[{""page_index"":0,""viewing_time"":45571},{""page_index"":1,""viewing_time"":33514},{""page_index"":2,""viewing_time"":39465},{""page_index"":3,""viewing_time"":20419}]",95
,,,,,,,,,,,,,,,97575,,97575,,,instructions,"[{""page_index"":0,""viewing_time"":38492},{""page_index"":1,""viewing_time"":27311},{""page_index"":2,""viewing_time"":17816},{""page_index"":3,""viewing_time"":13952}]",96
,,,,,,,,,,,,,,,181102,,181103,,,instructions,"[{""page_index"":0,""viewing_time"":25606},{""page_index"":1,""viewing_time"":15431},{""page_index"":2,""viewing_time"":8840},{""page_index"":3,""viewing_time"":131224}]",97
,,,,,,,,,,,,,,,136075,,136077,,,instructions,"[{""page_index"":0,""viewing_time"":51895},{""page_index"":1,""viewing_time"":30827},{""page_index"":2,""viewing_time"":23519},{""page_index"":3,""viewing_time"":29832}]",98
,,,,,,,,,,,,,,,144689,,327276,,,instructions,"[{""page_index"":0,""viewing_time"":46661},{""page_index"":1,""viewing_time"":72725},{""page_index"":2,""viewing_time"":10582},{""page_index"":3,""viewing_time"":14720}]",98
,,,,,,,,,,,,,,,20949,,386980,,,instructions,"[{""page_index"":0,""viewing_time"":7667},{""page_index"":1,""viewing_time"":7327},{""page_index"":2,""viewing_time"":3233},{""page_index"":3,""viewing_time"":2721}]",98
,,,,,,,,,,,,,,,59073,,488106,,,instructions,"[{""page_index"":0,""viewing_time"":8730},{""page_index"":1,""viewing_time"":21656},{""page_index"":2,""viewing_time"":27116},{""page_index"":3,""viewing_time"":1570}]",98
,,,,,,,,,,,,,,,430262,,430262,,,instructions,"[{""page_index"":0,""viewing_time"":89124},{""page_index"":1,""viewing_time"":30849},{""page_index"":2,""viewing_time"":13808},{""page_index"":3,""viewing_time"":296480}]",99
,,,,,,,,,,,,,,,98614,,98616,,,instructions,"[{""page_index"":0,""viewing_time"":30459},{""page_index"":1,""viewing_time"":37669},{""page_index"":2,""viewing_time"":16664},{""page_index"":3,""viewing_time"":13821}]",100
,,,,,,,,,,,,,,,100630,,100632,,,instructions,"[{""page_index"":0,""viewing_time"":36523},{""page_index"":1,""viewing_time"":22090},{""page_index"":2,""viewing_time"":13484},{""page_index"":3,""viewing_time"":28531}]",101
,,,,,,,,,,,,,,,16368,,16369,,,instructions,"[{""page_index"":0,""viewing_time"":3419},{""page_index"":1,""viewing_time"":1812},{""page_index"":2,""viewing_time"":9066},{""page_index"":3,""viewing_time"":2070}]",102
,,,,,,,,,,,,,,,31949,,68456,,,instructions,"[{""page_index"":0,""viewing_time"":7817},{""page_index"":1,""viewing_time"":6199},{""page_index"":2,""viewing_time"":13567},{""page_index"":3,""viewing_time"":4365}]",102
,,,,,,,,,,,,,,,105474,,105476,,,instructions,"[{""page_index"":0,""viewing_time"":34680},{""page_index"":1,""viewing_time"":26920},{""page_index"":2,""viewing_time"":17843},{""page_index"":3,""viewing_time"":26031}]",103
,,,,,,,,,,,,,,,182168,,182168,,,instructions,"[{""page_index"":0,""viewing_time"":45841},{""page_index"":1,""viewing_time"":67515},{""page_index"":2,""viewing_time"":39090},{""page_index"":3,""viewing_time"":29721}]",104
,,,,,,,,,,,,,,,128768,,390946,,,instructions,"[{""page_index"":0,""viewing_time"":46835},{""page_index"":1,""viewing_time"":19537},{""page_index"":2,""viewing_time"":51291},{""page_index"":3,""viewing_time"":11105}]",104
,,,,,,,,,,,,,,,106963,,106964,,,instructions,"[{""page_index"":0,""viewing_time"":28671},{""page_index"":1,""viewing_time"":47521},{""page_index"":2,""viewing_time"":16882},{""page_index"":3,""viewing_time"":13888}]",105
,,,,,,,,,,,,,,,117138,,117139,,,instructions,"[{""page_index"":0,""viewing_time"":31391},{""page_index"":1,""viewing_time"":28846},{""page_index"":2,""viewing_time"":39262},{""page_index"":3,""viewing_time"":17638}]",106
,,,,,,,,,,,,,,,45963,,45964,,,instructions,"[{""page_index"":0,""viewing_time"":20946},{""page_index"":1,""viewing_time"":3878},{""page_index"":2,""viewing_time"":14242},{""page_index"":3,""viewing_time"":6896}]",107
,,,,,,,,,,,,,,,13741,,92069,,,instructions,"[{""page_index"":0,""viewing_time"":5405},{""page_index"":1,""viewing_time"":3299},{""page_index"":2,""viewing_time"":4105},{""page_index"":3,""viewing_time"":932}]",107
,,,,,,,,,,,,,,,84472,,84473,,,instructions,"[{""page_index"":0,""viewing_time"":37734},{""page_index"":1,""viewing_time"":15346},{""page_index"":2,""viewing_time"":16445},{""page_index"":3,""viewing_time"":14946}]",108
,,,,,,,,,,,,,,,50627,,50628,,,instructions,"[{""page_index"":0,""viewing_time"":13665},{""page_index"":1,""viewing_time"":19771},{""page_index"":2,""viewing_time"":11974},{""page_index"":3,""viewing_time"":5216}]",109
,,,,,,,,,,,,,,,68018,,68019,,,instructions,"[{""page_index"":0,""viewing_time"":16947},{""page_index"":1,""viewing_time"":17971},{""page_index"":2,""viewing_time"":22177},{""page_index"":3,""viewing_time"":10922}]",110
,,,,,,,,,,,,,,,63060,,162708,,,instructions,"[{""page_index"":0,""viewing_time"":18912},{""page_index"":1,""viewing_time"":1999},{""page_index"":0,""viewing_time"":3809},{""page_index"":1,""viewing_time"":16637},{""page_index"":2,""viewing_time"":15327},{""page_index"":3,""viewing_time"":6375}]",110
,,,,,,,,,,,,,,,182630,,182632,,,instructions,"[{""page_index"":0,""viewing_time"":60314},{""page_index"":1,""viewing_time"":51428},{""page_index"":2,""viewing_time"":38814},{""page_index"":3,""viewing_time"":32074}]",111
,,,,,,,,,,,,,,,156444,,156446,,,instructions,"[{""page_index"":0,""viewing_time"":67242},{""page_index"":1,""viewing_time"":36277},{""page_index"":2,""viewing_time"":38174},{""page_index"":3,""viewing_time"":14751}]",112
,,,,,,,,,,,,,,,202678,,202678,,,instructions,"[{""page_index"":0,""viewing_time"":104881},{""page_index"":1,""viewing_time"":59107},{""page_index"":2,""viewing_time"":38690}]",113
,,,,,,,,,,,,,,,111503,,111503,,,instructions,"[{""page_index"":0,""viewing_time"":48771},{""page_index"":1,""viewing_time"":19155},{""page_index"":2,""viewing_time"":28075},{""page_index"":3,""viewing_time"":15502}]",114
,,,,,,,,,,,,,,,118406,,118408,,,instructions,"[{""page_index"":0,""viewing_time"":29250},{""page_index"":1,""viewing_time"":57838},{""page_index"":2,""viewing_time"":17249},{""page_index"":3,""viewing_time"":14068}]",115
,,,,,,,,,,,,,,,223777,,223777,,,instructions,"[{""page_index"":0,""viewing_time"":91905},{""page_index"":1,""viewing_time"":71336},{""page_index"":2,""viewing_time"":35504},{""page_index"":3,""viewing_time"":25031}]",116
,,,,,,,,,,,,,,,102513,,102515,,,instructions,"[{""page_index"":0,""viewing_time"":53426},{""page_index"":1,""viewing_time"":18585},{""page_index"":2,""viewing_time"":15680},{""page_index"":3,""viewing_time"":14820}]",117
,,,,,,,,,,,,,,,148504,,148506,,,instructions,"[{""page_index"":0,""viewing_time"":29395},{""page_index"":1,""viewing_time"":28151},{""page_index"":2,""viewing_time"":25391},{""page_index"":3,""viewing_time"":31063},{""page_index"":2,""viewing_time"":1912},{""page_index"":1,""viewing_time"":1125},{""page_index"":0,""viewing_time"":8899},{""page_index"":1,""viewing_time"":2677},{""page_index"":2,""viewing_time"":3353},{""page_index"":3,""viewing_time"":16537}]",118
,,,,,,,,,,,,,,,58222,,58222,,,instructions,"[{""page_index"":0,""viewing_time"":25139},{""page_index"":1,""viewing_time"":21705},{""page_index"":2,""viewing_time"":11377}]",119
,,,,,,,,,,,,,,,42902,,42904,,,instructions,"[{""page_index"":0,""viewing_time"":8669},{""page_index"":1,""viewing_time"":7553},{""page_index"":0,""viewing_time"":1588},{""page_index"":1,""viewing_time"":12084},{""page_index"":2,""viewing_time"":6635},{""page_index"":3,""viewing_time"":6373}]",120
,,,,,,,,,,,,,,,37274,,107473,,,instructions,"[{""page_index"":0,""viewing_time"":5001},{""page_index"":1,""viewing_time"":7144},{""page_index"":2,""viewing_time"":8160},{""page_index"":1,""viewing_time"":8281},{""page_index"":2,""viewing_time"":1664},{""page_index"":3,""viewing_time"":7024}]",120
,,,,,,,,,,,,,,,7844,,128810,,,instructions,"[{""page_index"":0,""viewing_time"":5308},{""page_index"":1,""viewing_time"":760},{""page_index"":2,""viewing_time"":1176},{""page_index"":3,""viewing_time"":599}]",120
,,,,,,,,,,,,,,,121311,,121313,,,instructions,"[{""page_index"":0,""viewing_time"":41970},{""page_index"":1,""viewing_time"":36652},{""page_index"":2,""viewing_time"":17160},{""page_index"":3,""viewing_time"":25527}]",121
,,,,,,,,,,,,,,,174201,,337790,,,instructions,"[{""page_index"":0,""viewing_time"":149193},{""page_index"":1,""viewing_time"":5775},{""page_index"":2,""viewing_time"":17616},{""page_index"":3,""viewing_time"":1616}]",121
,,,,,,,,,,,,,,,110876,,110879,,,instructions,"[{""page_index"":0,""viewing_time"":43622},{""page_index"":1,""viewing_time"":23381},{""page_index"":2,""viewing_time"":21341},{""page_index"":3,""viewing_time"":22529}]",122
,,,,,,,,,,,,,,,17706,,149148,,,instructions,"[{""page_index"":0,""viewing_time"":10646},{""page_index"":1,""viewing_time"":4616},{""page_index"":2,""viewing_time"":1354},{""page_index"":3,""viewing_time"":1089}]",122
,,,,,,,,,,,,,,,174095,,174097,,,instructions,"[{""page_index"":0,""viewing_time"":35591},{""page_index"":1,""viewing_time"":63408},{""page_index"":0,""viewing_time"":16816},{""page_index"":1,""viewing_time"":3804},{""page_index"":0,""viewing_time"":1710},{""page_index"":1,""viewing_time"":7052},{""page_index"":2,""viewing_time"":23986},{""page_index"":3,""viewing_time"":21728}]",123
,,,,,,,,,,,,,,,15138,,220736,,,instructions,"[{""page_index"":0,""viewing_time"":5313},{""page_index"":1,""viewing_time"":1952},{""page_index"":2,""viewing_time"":3416},{""page_index"":3,""viewing_time"":4457}]",123
,,,,,,,,,,,,,,,41550,,276047,,,instructions,"[{""page_index"":0,""viewing_time"":35143},{""page_index"":1,""viewing_time"":1680},{""page_index"":2,""viewing_time"":1688},{""page_index"":3,""viewing_time"":3039}]",123
,,,,,,,,,,,,,,,23216,,343528,,,instructions,"[{""page_index"":0,""viewing_time"":8719},{""page_index"":1,""viewing_time"":3895},{""page_index"":2,""viewing_time"":4186},{""page_index"":3,""viewing_time"":6415}]",123
,,,,,,,,,,,,,,,16466,,379132,,,instructions,"[{""page_index"":0,""viewing_time"":11902},{""page_index"":1,""viewing_time"":1311},{""page_index"":2,""viewing_time"":1720},{""page_index"":3,""viewing_time"":1533}]",123
,,,,,,,,,,,,,,,43546,,454224,,,instructions,"[{""page_index"":0,""viewing_time"":11058},{""page_index"":1,""viewing_time"":2312},{""page_index"":0,""viewing_time"":8104},{""page_index"":1,""viewing_time"":10368},{""page_index"":2,""viewing_time"":4639},{""page_index"":3,""viewing_time"":7064}]",123
,,,,,,,,,,,,,,,5004,,474647,,,instructions,"[{""page_index"":0,""viewing_time"":1869},{""page_index"":1,""viewing_time"":742},{""page_index"":2,""viewing_time"":1306},{""page_index"":3,""viewing_time"":1087}]",123
,,,,,,,,,,,,,,,109851,,109852,,,instructions,"[{""page_index"":0,""viewing_time"":34834},{""page_index"":1,""viewing_time"":28864},{""page_index"":2,""viewing_time"":29719},{""page_index"":3,""viewing_time"":16433}]",124
,,,,,,,,,,,,,,,3236,,145930,,,instructions,"[{""page_index"":0,""viewing_time"":1628},{""page_index"":1,""viewing_time"":736},{""page_index"":2,""viewing_time"":359},{""page_index"":3,""viewing_time"":513}]",124
,,,,,,,,,,,,,,,139333,,139334,,,instructions,"[{""page_index"":0,""viewing_time"":47589},{""page_index"":1,""viewing_time"":53791},{""page_index"":2,""viewing_time"":19440},{""page_index"":3,""viewing_time"":18512}]",125
,,,,,,,,,,,,,,,162166,,162167,,,instructions,"[{""page_index"":0,""viewing_time"":42453},{""page_index"":1,""viewing_time"":61307},{""page_index"":2,""viewing_time"":33517},{""page_index"":3,""viewing_time"":24889}]",126
,,,,,,,,,,,,,,,43995,,245902,,,instructions,"[{""page_index"":0,""viewing_time"":4390},{""page_index"":1,""viewing_time"":1984},{""page_index"":2,""viewing_time"":32984},{""page_index"":3,""viewing_time"":4637}]",126
,,,,,,,,,,,,,,,226632,,226634,,,instructions,"[{""page_index"":0,""viewing_time"":47039},{""page_index"":1,""viewing_time"":32498},{""page_index"":2,""viewing_time"":44695},{""page_index"":3,""viewing_time"":102399}]",127
,,,,,,,,,,,,,,,152970,,152973,,,instructions,"[{""page_index"":0,""viewing_time"":82430},{""page_index"":1,""viewing_time"":3874},{""page_index"":0,""viewing_time"":4289},{""page_index"":1,""viewing_time"":49591},{""page_index"":2,""viewing_time"":12784}]",128
,,,,,,,,,,,,,,,153606,,153606,,,instructions,"[{""page_index"":0,""viewing_time"":39957},{""page_index"":1,""viewing_time"":33472},{""page_index"":2,""viewing_time"":51934},{""page_index"":3,""viewing_time"":28243}]",129
,,,,,,,,,,,,,,,23931,,212529,,,instructions,"[{""page_index"":0,""viewing_time"":11377},{""page_index"":1,""viewing_time"":7426},{""page_index"":2,""viewing_time"":3080},{""page_index"":3,""viewing_time"":2048}]",129
,,,,,,,,,,,,,,,273298,,273298,,,instructions,"[{""page_index"":0,""viewing_time"":76503},{""page_index"":1,""viewing_time"":65509},{""page_index"":0,""viewing_time"":23824},{""page_index"":1,""viewing_time"":17762},{""page_index"":0,""viewing_time"":7382},{""page_index"":1,""viewing_time"":16194},{""page_index"":0,""viewing_time"":3695},{""page_index"":1,""viewing_time"":908},{""page_index"":2,""viewing_time"":33990},{""page_index"":3,""viewing_time"":27530}]",130
,,,,,,,,,,,,,,,92404,,92405,,,instructions,"[{""page_index"":0,""viewing_time"":53083},{""page_index"":1,""viewing_time"":14612},{""page_index"":2,""viewing_time"":24709}]",131
,,,,,,,,,,,,,,,5217,,285531,,,instructions,"[{""page_index"":0,""viewing_time"":2394},{""page_index"":1,""viewing_time"":2064},{""page_index"":2,""viewing_time"":758}]",131
,,,,,,,,,,,,,,,173477,,173478,,,instructions,"[{""page_index"":0,""viewing_time"":47924},{""page_index"":1,""viewing_time"":53367},{""page_index"":2,""viewing_time"":49801},{""page_index"":3,""viewing_time"":22383}]",132
,,,,,,,,,,,,,,,143774,,143775,,,instructions,"[{""page_index"":0,""viewing_time"":36866},{""page_index"":1,""viewing_time"":56041},{""page_index"":2,""viewing_time"":30082},{""page_index"":3,""viewing_time"":20785}]",133
,,,,,,,,,,,,,,,164357,,164358,,,instructions,"[{""page_index"":0,""viewing_time"":61492},{""page_index"":1,""viewing_time"":38508},{""page_index"":2,""viewing_time"":42924},{""page_index"":3,""viewing_time"":21432}]",134
,,,,,,,,,,,,,,,121005,,121005,,,instructions,"[{""page_index"":0,""viewing_time"":42448},{""page_index"":1,""viewing_time"":32549},{""page_index"":2,""viewing_time"":40427},{""page_index"":3,""viewing_time"":5580}]",135
,,,,,,,,,,,,,,,172832,,172837,,,instructions,"[{""page_index"":0,""viewing_time"":58690},{""page_index"":1,""viewing_time"":45999},{""page_index"":2,""viewing_time"":39999},{""page_index"":3,""viewing_time"":28141}]",136
,,,,,,,,,,,,,,,93829,,93830,,,instructions,"[{""page_index"":0,""viewing_time"":52684},{""page_index"":1,""viewing_time"":21788},{""page_index"":2,""viewing_time"":19356}]",137
,,,,,,,,,,,,,,,34765,,151708,,,instructions,"[{""page_index"":0,""viewing_time"":29758},{""page_index"":1,""viewing_time"":3250},{""page_index"":2,""viewing_time"":1756}]",137
,,,,,,,,,,,,,,,63222,,253163,,,instructions,"[{""page_index"":0,""viewing_time"":21272},{""page_index"":1,""viewing_time"":31581},{""page_index"":2,""viewing_time"":10368}]",137
,,,,,,,,,,,,,,,138254,,138256,,,instructions,"[{""page_index"":0,""viewing_time"":43301},{""page_index"":1,""viewing_time"":33459},{""page_index"":2,""viewing_time"":40474},{""page_index"":3,""viewing_time"":21020}]",138
,,,,,,,,,,,,,,,15950,,191165,,,instructions,"[{""page_index"":0,""viewing_time"":7667},{""page_index"":1,""viewing_time"":2928},{""page_index"":2,""viewing_time"":2302},{""page_index"":3,""viewing_time"":3052}]",138
,,,,,,,,,,,,,,,41701,,41701,,,instructions,"[{""page_index"":0,""viewing_time"":17008},{""page_index"":1,""viewing_time"":14642},{""page_index"":2,""viewing_time"":3363},{""page_index"":3,""viewing_time"":6685}]",139
,,,,,,,,,,,,,,,41916,,118668,,,instructions,"[{""page_index"":0,""viewing_time"":6700},{""page_index"":1,""viewing_time"":5560},{""page_index"":2,""viewing_time"":23016},{""page_index"":3,""viewing_time"":6640}]",139
,,,,,,,,,,,,,,,4143,,141606,,,instructions,"[{""page_index"":0,""viewing_time"":1845},{""page_index"":1,""viewing_time"":785},{""page_index"":2,""viewing_time"":870},{""page_index"":3,""viewing_time"":640}]",139
,,,,,,,,,,,,,,,191173,,191173,,,instructions,"[{""page_index"":0,""viewing_time"":81168},{""page_index"":1,""viewing_time"":37117},{""page_index"":2,""viewing_time"":39003},{""page_index"":3,""viewing_time"":33883}]",140
,,,,,,,,,,,,,,,241591,,241592,,,instructions,"[{""page_index"":0,""viewing_time"":90863},{""page_index"":1,""viewing_time"":97375},{""page_index"":2,""viewing_time"":53353}]",141
,,,,,,,,,,,,,,,18802,,18803,,,instructions,"[{""page_index"":0,""viewing_time"":3891},{""page_index"":1,""viewing_time"":2405},{""page_index"":2,""viewing_time"":3773},{""page_index"":3,""viewing_time"":8731}]",142
,,,,,,,,,,,,,,,87521,,125152,,,instructions,"[{""page_index"":0,""viewing_time"":45689},{""page_index"":1,""viewing_time"":26329},{""page_index"":2,""viewing_time"":12521},{""page_index"":3,""viewing_time"":2981}]",142
,,,,,,,,,,,,,,,195746,,195747,,,instructions,"[{""page_index"":0,""viewing_time"":59342},{""page_index"":1,""viewing_time"":40927},{""page_index"":2,""viewing_time"":59460},{""page_index"":3,""viewing_time"":36016}]",143
,,,,,,,,,,,,,,,18142,,18143,,,instructions,"[{""page_index"":0,""viewing_time"":7002},{""page_index"":1,""viewing_time"":7251},{""page_index"":2,""viewing_time"":1678},{""page_index"":3,""viewing_time"":2210}]",144
,,,,,,,,,,,,,,,117330,,117330,,,instructions,"[{""page_index"":0,""viewing_time"":53771},{""page_index"":1,""viewing_time"":13665},{""page_index"":2,""viewing_time"":29422},{""page_index"":3,""viewing_time"":20471}]",145
,,,,,,,,,,,,,,,33188,,181818,,,instructions,"[{""page_index"":0,""viewing_time"":13162},{""page_index"":1,""viewing_time"":5804},{""page_index"":2,""viewing_time"":13028},{""page_index"":3,""viewing_time"":1194}]",145
,,,,,,,,,,,,,,,509203,,509203,,,instructions,"[{""page_index"":0,""viewing_time"":89441},{""page_index"":1,""viewing_time"":76517},{""page_index"":2,""viewing_time"":188634},{""page_index"":3,""viewing_time"":154610}]",146
,,,,,,,,,,,,,,,167530,,167530,,,instructions,"[{""page_index"":0,""viewing_time"":80761},{""page_index"":1,""viewing_time"":29439},{""page_index"":2,""viewing_time"":40491},{""page_index"":3,""viewing_time"":16838}]",147
,,,,,,,,,,,,,,,32424,,241511,,,instructions,"[{""page_index"":0,""viewing_time"":14760},{""page_index"":1,""viewing_time"":2861},{""page_index"":2,""viewing_time"":13267},{""page_index"":3,""viewing_time"":1536}]",147
,,,,,,,,,,,,,,,164823,,164824,,,instructions,"[{""page_index"":0,""viewing_time"":67267},{""page_index"":1,""viewing_time"":1775},{""page_index"":0,""viewing_time"":2687},{""page_index"":1,""viewing_time"":1744},{""page_index"":0,""viewing_time"":12515},{""page_index"":1,""viewing_time"":24286},{""page_index"":2,""viewing_time"":32348},{""page_index"":3,""viewing_time"":22200}]",148
,,,,,,,,,,,,,,,5200,,203110,,,instructions,"[{""page_index"":0,""viewing_time"":2080},{""page_index"":1,""viewing_time"":368},{""page_index"":2,""viewing_time"":1376},{""page_index"":3,""viewing_time"":1376}]",148
,,,,,,,,,,,,,,,9193,,235270,,,instructions,"[{""page_index"":0,""viewing_time"":5673},{""page_index"":1,""viewing_time"":1465},{""page_index"":2,""viewing_time"":55},{""page_index"":3,""viewing_time"":2000}]",148
,,,,,,,,,,,,,,,154284,,154285,,,instructions,"[{""page_index"":0,""viewing_time"":37480},{""page_index"":1,""viewing_time"":19355},{""page_index"":2,""viewing_time"":18313},{""page_index"":1,""viewing_time"":23843},{""page_index"":2,""viewing_time"":22489},{""page_index"":3,""viewing_time"":32801}]",149
,,,,,,,,,,,,,,,104136,,300162,,,instructions,"[{""page_index"":0,""viewing_time"":41444},{""page_index"":1,""viewing_time"":28780},{""page_index"":2,""viewing_time"":19822},{""page_index"":3,""viewing_time"":14088}]",149
,,,,,,,,,,,,,,,33057,,374431,,,instructions,"[{""page_index"":0,""viewing_time"":2524},{""page_index"":1,""viewing_time"":669},{""page_index"":0,""viewing_time"":514},{""page_index"":1,""viewing_time"":11128},{""page_index"":0,""viewing_time"":6708},{""page_index"":1,""viewing_time"":4345},{""page_index"":0,""viewing_time"":1156},{""page_index"":1,""viewing_time"":938},{""page_index"":0,""viewing_time"":848},{""page_index"":1,""viewing_time"":1028},{""page_index"":2,""viewing_time"":2468},{""page_index"":3,""viewing_time"":730}]",149
,,,,,,,,,,,,,,,171763,,171765,,,instructions,"[{""page_index"":0,""viewing_time"":66289},{""page_index"":1,""viewing_time"":46488},{""page_index"":2,""viewing_time"":31218},{""page_index"":3,""viewing_time"":27767}]",150
,,,,,,,,,,,,,,,215139,,215140,,,instructions,"[{""page_index"":0,""viewing_time"":105002},{""page_index"":1,""viewing_time"":60135},{""page_index"":2,""viewing_time"":29712},{""page_index"":3,""viewing_time"":20288}]",151
,,,,,,,,,,,,,,,74797,,360994,,,instructions,"[{""page_index"":0,""viewing_time"":16556},{""page_index"":1,""viewing_time"":21352},{""page_index"":2,""viewing_time"":23688},{""page_index"":3,""viewing_time"":13200}]",151
,,,,,,,,,,,,,,,27373,,27376,,,instructions,"[{""page_index"":0,""viewing_time"":8311},{""page_index"":1,""viewing_time"":6937},{""page_index"":2,""viewing_time"":4320},{""page_index"":3,""viewing_time"":7804}]",152
,,,,,,,,,,,,,,,39916,,104143,,,instructions,"[{""page_index"":0,""viewing_time"":18722},{""page_index"":1,""viewing_time"":6171},{""page_index"":2,""viewing_time"":9944},{""page_index"":3,""viewing_time"":5078}]",152
,,,,,,,,,,,,,,,77873,,77873,,,instructions,"[{""page_index"":0,""viewing_time"":43777},{""page_index"":1,""viewing_time"":21551},{""page_index"":2,""viewing_time"":12544}]",153
,,,,,,,,,,,,,,,551542,,551542,,,instructions,"[{""page_index"":0,""viewing_time"":106613},{""page_index"":1,""viewing_time"":96903},{""page_index"":2,""viewing_time"":60980},{""page_index"":3,""viewing_time"":40151},{""page_index"":2,""viewing_time"":1061},{""page_index"":1,""viewing_time"":3196},{""page_index"":0,""viewing_time"":85576},{""page_index"":1,""viewing_time"":53480},{""page_index"":2,""viewing_time"":60405},{""page_index"":3,""viewing_time"":43176}]",154
,,,,,,,,,,,,,,,134528,,134529,,,instructions,"[{""page_index"":0,""viewing_time"":43373},{""page_index"":1,""viewing_time"":31562},{""page_index"":2,""viewing_time"":32992},{""page_index"":3,""viewing_time"":26601}]",155
,,,,,,,,,,,,,,,242101,,242105,,,instructions,"[{""page_index"":0,""viewing_time"":117627},{""page_index"":1,""viewing_time"":58349},{""page_index"":2,""viewing_time"":41888},{""page_index"":3,""viewing_time"":24237}]",156
,,,,,,,,,,,,,,,66400,,357701,,,instructions,"[{""page_index"":0,""viewing_time"":21678},{""page_index"":1,""viewing_time"":18813},{""page_index"":2,""viewing_time"":15762},{""page_index"":3,""viewing_time"":10147}]",156
,,,,,,,,,,,,,,,51647,,51649,,,instructions,"[{""page_index"":0,""viewing_time"":20910},{""page_index"":1,""viewing_time"":10551},{""page_index"":2,""viewing_time"":16343},{""page_index"":3,""viewing_time"":3842}]",157
,,,,,,,,,,,,,,,110939,,196963,,,instructions,"[{""page_index"":0,""viewing_time"":31388},{""page_index"":1,""viewing_time"":23735},{""page_index"":2,""viewing_time"":34039},{""page_index"":3,""viewing_time"":21776}]",157
,,,,,,,,,,,,,,,231177,,231178,,,instructions,"[{""page_index"":0,""viewing_time"":103089},{""page_index"":1,""viewing_time"":64649},{""page_index"":2,""viewing_time"":26291},{""page_index"":3,""viewing_time"":37147}]",158
,,,,,,,,,,,,,,,121525,,121528,,,instructions,"[{""page_index"":0,""viewing_time"":29981},{""page_index"":1,""viewing_time"":26215},{""page_index"":2,""viewing_time"":43854},{""page_index"":3,""viewing_time"":21472}]",159
,,,,,,,,,,,,,,,30604,,189909,,,instructions,"[{""page_index"":0,""viewing_time"":7954},{""page_index"":1,""viewing_time"":5928},{""page_index"":2,""viewing_time"":13293},{""page_index"":3,""viewing_time"":3427}]",159
,,,,,,,,,,,,,,,303767,,303771,,,instructions,"[{""page_index"":0,""viewing_time"":94256},{""page_index"":1,""viewing_time"":84937},{""page_index"":2,""viewing_time"":72075},{""page_index"":3,""viewing_time"":52497}]",160
,,,,,,,,,,,,,,,80774,,80774,,,instructions,"[{""page_index"":0,""viewing_time"":24742},{""page_index"":1,""viewing_time"":12736},{""page_index"":2,""viewing_time"":24671},{""page_index"":3,""viewing_time"":18624}]",161
,,,,,,,,,,,,,,,37663,,37665,,,instructions,"[{""page_index"":0,""viewing_time"":2408},{""page_index"":1,""viewing_time"":3032},{""page_index"":2,""viewing_time"":26458},{""page_index"":3,""viewing_time"":5764}]",162
,,,,,,,,,,,,,,,167107,,167107,,,instructions,"[{""page_index"":0,""viewing_time"":76040},{""page_index"":1,""viewing_time"":72001},{""page_index"":2,""viewing_time"":19064}]",163
,,,,,,,,,,,,,,,89945,,89946,,,instructions,"[{""page_index"":0,""viewing_time"":30440},{""page_index"":1,""viewing_time"":31199},{""page_index"":2,""viewing_time"":14648},{""page_index"":3,""viewing_time"":13656}]",164
,,,,,,,,,,,,,,,106923,,106926,,,instructions,"[{""page_index"":0,""viewing_time"":34392},{""page_index"":1,""viewing_time"":30519},{""page_index"":2,""viewing_time"":23517},{""page_index"":3,""viewing_time"":18493}]",165
,,,,,,,,,,,,,,,60825,,200975,,,instructions,"[{""page_index"":0,""viewing_time"":30164},{""page_index"":1,""viewing_time"":19642},{""page_index"":2,""viewing_time"":4078},{""page_index"":3,""viewing_time"":6939}]",165
,,,,,,,,,,,,,,,27632,,27636,,,instructions,"[{""page_index"":0,""viewing_time"":8041},{""page_index"":1,""viewing_time"":14906},{""page_index"":2,""viewing_time"":4683}]",166
,,,,,,,,,,,,,,,83506,,143647,,,instructions,"[{""page_index"":0,""viewing_time"":36713},{""page_index"":1,""viewing_time"":23257},{""page_index"":2,""viewing_time"":23535}]",166
,,,,,,,,,,,,,,,35866,,199087,,,instructions,"[{""page_index"":0,""viewing_time"":34065},{""page_index"":1,""viewing_time"":1248},{""page_index"":2,""viewing_time"":552}]",166
,,,,,,,,,,,,,,,87778,,87779,,,instructions,"[{""page_index"":0,""viewing_time"":38368},{""page_index"":1,""viewing_time"":28872},{""page_index"":2,""viewing_time"":7137},{""page_index"":3,""viewing_time"":13399}]",167
,,,,,,,,,,,,,,,32152,,154148,,,instructions,"[{""page_index"":0,""viewing_time"":6783},{""page_index"":1,""viewing_time"":5512},{""page_index"":2,""viewing_time"":12513},{""page_index"":3,""viewing_time"":7343}]",167
,,,,,,,,,,,,,,,199437,,199439,,,instructions,"[{""page_index"":0,""viewing_time"":117593},{""page_index"":1,""viewing_time"":54820},{""page_index"":2,""viewing_time"":27023}]",168
,,,,,,,,,,,,,,,294761,,531107,,,instructions,"[{""page_index"":0,""viewing_time"":191558},{""page_index"":1,""viewing_time"":38830},{""page_index"":2,""viewing_time"":64372}]",168
,,,,,,,,,,,,,,,99669,,887016,,,instructions,"[{""page_index"":0,""viewing_time"":10880},{""page_index"":1,""viewing_time"":62309},{""page_index"":2,""viewing_time"":26479}]",168
,,,,,,,,,,,,,,,83025,,83025,,,instructions,"[{""page_index"":0,""viewing_time"":26105},{""page_index"":1,""viewing_time"":16991},{""page_index"":2,""viewing_time"":22185},{""page_index"":3,""viewing_time"":17743}]",169
,,,,,,,,,,,,,,,38894,,150953,,,instructions,"[{""page_index"":0,""viewing_time"":8069},{""page_index"":1,""viewing_time"":9552},{""page_index"":2,""viewing_time"":16568},{""page_index"":3,""viewing_time"":4705}]",169
,,,,,,,,,,,,,,,180895,,180895,,,instructions,"[{""page_index"":0,""viewing_time"":54130},{""page_index"":1,""viewing_time"":57520},{""page_index"":2,""viewing_time"":45507},{""page_index"":3,""viewing_time"":23737}]",170
,,,,,,,,,,,,,,,217014,,217018,,,instructions,"[{""page_index"":0,""viewing_time"":106155},{""page_index"":1,""viewing_time"":47319},{""page_index"":2,""viewing_time"":33871},{""page_index"":3,""viewing_time"":29665}]",171
,,,,,,,,,,,,,,,100429,,100431,,,instructions,"[{""page_index"":0,""viewing_time"":37868},{""page_index"":1,""viewing_time"":24637},{""page_index"":2,""viewing_time"":37922}]",172
,,,,,,,,,,,,,,,98427,,98429,,,instructions,"[{""page_index"":0,""viewing_time"":33874},{""page_index"":1,""viewing_time"":21091},{""page_index"":2,""viewing_time"":20458},{""page_index"":3,""viewing_time"":23003}]",173
,,,,,,,,,,,,,,,171880,,171881,,,instructions,"[{""page_index"":0,""viewing_time"":64561},{""page_index"":1,""viewing_time"":48461},{""page_index"":0,""viewing_time"":6642},{""page_index"":1,""viewing_time"":23512},{""page_index"":2,""viewing_time"":6036},{""page_index"":1,""viewing_time"":3068},{""page_index"":2,""viewing_time"":19600}]",174
,,,,,,,,,,,,,,,44428,,238303,,,instructions,"[{""page_index"":0,""viewing_time"":18269},{""page_index"":1,""viewing_time"":4952},{""page_index"":2,""viewing_time"":18326},{""page_index"":1,""viewing_time"":2009},{""page_index"":2,""viewing_time"":871}]",174
,,,,,,,,,,,,,,,12646,,272280,,,instructions,"[{""page_index"":0,""viewing_time"":6030},{""page_index"":1,""viewing_time"":5800},{""page_index"":2,""viewing_time"":816}]",174
,,,,,,,,,,,,,,,270812,,270812,,,instructions,"[{""page_index"":0,""viewing_time"":111915},{""page_index"":1,""viewing_time"":62192},{""page_index"":2,""viewing_time"":63760},{""page_index"":3,""viewing_time"":32945}]",175
,,,,,,,,,,,,,,,99270,,99272,,,instructions,"[{""page_index"":0,""viewing_time"":45273},{""page_index"":1,""viewing_time"":36340},{""page_index"":2,""viewing_time"":17656}]",176
,,,,,,,,,,,,,,,161174,,161175,,,instructions,"[{""page_index"":0,""viewing_time"":45020},{""page_index"":1,""viewing_time"":71527},{""page_index"":2,""viewing_time"":44626}]",177
,,,,,,,,,,,,,,,98290,,98291,,,instructions,"[{""page_index"":0,""viewing_time"":47894},{""page_index"":1,""viewing_time"":10469},{""page_index"":2,""viewing_time"":39926}]",178
,,,,,,,,,,,,,,,41191,,174702,,,instructions,"[{""page_index"":0,""viewing_time"":17094},{""page_index"":1,""viewing_time"":22044},{""page_index"":2,""viewing_time"":2053}]",178
,,,,,,,,,,,,,,,62718,,62719,,,instructions,"[{""page_index"":0,""viewing_time"":17360},{""page_index"":1,""viewing_time"":32401},{""page_index"":2,""viewing_time"":12956}]",179
,,,,,,,,,,,,,,,22396,,103278,,,instructions,"[{""page_index"":0,""viewing_time"":6925},{""page_index"":1,""viewing_time"":9052},{""page_index"":2,""viewing_time"":6419}]",179
,,,,,,,,,,,,,,,169381,,169382,,,instructions,"[{""page_index"":0,""viewing_time"":61349},{""page_index"":1,""viewing_time"":38769},{""page_index"":2,""viewing_time"":49380},{""page_index"":3,""viewing_time"":19882}]",180
,,,,,,,,,,,,,,,42278,,42279,,,instructions,"[{""page_index"":0,""viewing_time"":13564},{""page_index"":1,""viewing_time"":6808},{""page_index"":2,""viewing_time"":15852},{""page_index"":3,""viewing_time"":6054}]",181
,,,,,,,,,,,,,,,207254,,207256,,,instructions,"[{""page_index"":0,""viewing_time"":108375},{""page_index"":1,""viewing_time"":4779},{""page_index"":2,""viewing_time"":57432},{""page_index"":3,""viewing_time"":36667}]",182
,,,,,,,,,,,,,,,215908,,499599,,,instructions,"[{""page_index"":0,""viewing_time"":66753},{""page_index"":1,""viewing_time"":77997},{""page_index"":2,""viewing_time"":34564},{""page_index"":3,""viewing_time"":36593}]",182
,,,,,,,,,,,,,,,962336,,1535198,,,instructions,"[{""page_index"":0,""viewing_time"":96231},{""page_index"":1,""viewing_time"":669479},{""page_index"":2,""viewing_time"":5898},{""page_index"":1,""viewing_time"":26512},{""page_index"":0,""viewing_time"":40606},{""page_index"":1,""viewing_time"":20535},{""page_index"":2,""viewing_time"":48881},{""page_index"":3,""viewing_time"":54193}]",182
,,,,,,,,,,,,,,,153006,,153010,,,instructions,"[{""page_index"":0,""viewing_time"":93108},{""page_index"":1,""viewing_time"":36482},{""page_index"":2,""viewing_time"":23414}]",183
,,,,,,,,,,,,,,,33315,,227207,,,instructions,"[{""page_index"":0,""viewing_time"":11384},{""page_index"":1,""viewing_time"":17241},{""page_index"":2,""viewing_time"":4688}]",183
,,,,,,,,,,,,,,,97321,,97321,,,instructions,"[{""page_index"":0,""viewing_time"":42155},{""page_index"":1,""viewing_time"":23121},{""page_index"":2,""viewing_time"":18188},{""page_index"":3,""viewing_time"":13856}]",184
,,,,,,,,,,,,,,,35690,,300130,,,instructions,"[{""page_index"":0,""viewing_time"":27154},{""page_index"":1,""viewing_time"":5912},{""page_index"":2,""viewing_time"":1904},{""page_index"":3,""viewing_time"":720}]",184
,,,,,,,,,,,,,,,25093,,345228,,,instructions,"[{""page_index"":0,""viewing_time"":3943},{""page_index"":1,""viewing_time"":9026},{""page_index"":2,""viewing_time"":6322},{""page_index"":3,""viewing_time"":5802}]",184
,,,,,,,,,,,,,,,21919,,393582,,,instructions,"[{""page_index"":0,""viewing_time"":18955},{""page_index"":1,""viewing_time"":655},{""page_index"":2,""viewing_time"":1677},{""page_index"":3,""viewing_time"":632}]",184
,,,,,,,,,,,,,,,28866,,454426,,,instructions,"[{""page_index"":0,""viewing_time"":11521},{""page_index"":1,""viewing_time"":8022},{""page_index"":2,""viewing_time"":7276},{""page_index"":3,""viewing_time"":2046}]",184
,,,,,,,,,,,,,,,161219,,161221,,,instructions,"[{""page_index"":0,""viewing_time"":66986},{""page_index"":1,""viewing_time"":36171},{""page_index"":2,""viewing_time"":22793},{""page_index"":1,""viewing_time"":28377},{""page_index"":2,""viewing_time"":6891}]",185
,,,,,,,,,,,,,,,147636,,147640,,,instructions,"[{""page_index"":0,""viewing_time"":43875},{""page_index"":1,""viewing_time"":61629},{""page_index"":2,""viewing_time"":10320},{""page_index"":3,""viewing_time"":31807}]",186
,,,,,,,,,,,,,,,110524,,110525,,,instructions,"[{""page_index"":0,""viewing_time"":48355},{""page_index"":1,""viewing_time"":34856},{""page_index"":2,""viewing_time"":27311}]",187
,,,,,,,,,,,,,,,106331,,106334,,,instructions,"[{""page_index"":0,""viewing_time"":27838},{""page_index"":1,""viewing_time"":39314},{""page_index"":2,""viewing_time"":20891},{""page_index"":3,""viewing_time"":18286}]",188
,,,,,,,,,,,,,,,50406,,180119,,,instructions,"[{""page_index"":0,""viewing_time"":22544},{""page_index"":1,""viewing_time"":10560},{""page_index"":2,""viewing_time"":10933},{""page_index"":3,""viewing_time"":6367}]",188
,,,,,,,,,,,,,,,75887,,75898,,,instructions,"[{""page_index"":0,""viewing_time"":41160},{""page_index"":1,""viewing_time"":16613},{""page_index"":2,""viewing_time"":18112}]",189
,,,,,,,,,,,,,,,29997,,122495,,,instructions,"[{""page_index"":0,""viewing_time"":14750},{""page_index"":1,""viewing_time"":13091},{""page_index"":2,""viewing_time"":2155}]",189
,,,,,,,,,,,,,,,377153,,377157,,,instructions,"[{""page_index"":0,""viewing_time"":99457},{""page_index"":1,""viewing_time"":100259},{""page_index"":2,""viewing_time"":152203},{""page_index"":3,""viewing_time"":25233}]",190
,,,,,,,,,,,,,,,508899,,914501,,,instructions,"[{""page_index"":0,""viewing_time"":456177},{""page_index"":1,""viewing_time"":18871},{""page_index"":2,""viewing_time"":1960},{""page_index"":1,""viewing_time"":5970},{""page_index"":2,""viewing_time"":2535},{""page_index"":3,""viewing_time"":11184},{""page_index"":2,""viewing_time"":1192},{""page_index"":3,""viewing_time"":11009}]",190
,,,,,,,,,,,,,,,249917,,1208813,,,instructions,"[{""page_index"":0,""viewing_time"":168356},{""page_index"":1,""viewing_time"":75841},{""page_index"":2,""viewing_time"":1679},{""page_index"":3,""viewing_time"":4040}]",190
,,,,,,,,,,,,,,,173469,,173470,,,instructions,"[{""page_index"":0,""viewing_time"":82262},{""page_index"":1,""viewing_time"":54901},{""page_index"":2,""viewing_time"":36305}]",191
,,,,,,,,,,,,,,,63113,,63115,,,instructions,"[{""page_index"":0,""viewing_time"":17695},{""page_index"":1,""viewing_time"":7667},{""page_index"":2,""viewing_time"":22414},{""page_index"":3,""viewing_time"":15336}]",192
,,,,,,,,,,,,,,,14139,,112246,,,instructions,"[{""page_index"":0,""viewing_time"":3458},{""page_index"":1,""viewing_time"":6455},{""page_index"":2,""viewing_time"":3046},{""page_index"":3,""viewing_time"":1179}]",192
,,,,,,,,,,,,,,,181671,,181672,,,instructions,"[{""page_index"":0,""viewing_time"":86826},{""page_index"":1,""viewing_time"":85245},{""page_index"":2,""viewing_time"":9598}]",193
,,,,,,,,,,,,,,,156202,,383725,,,instructions,"[{""page_index"":0,""viewing_time"":4042},{""page_index"":1,""viewing_time"":30299},{""page_index"":2,""viewing_time"":38157},{""page_index"":1,""viewing_time"":79969},{""page_index"":2,""viewing_time"":3734}]",193
,,,,,,,,,,,,,,,5593,,416642,,,instructions,"[{""page_index"":0,""viewing_time"":3513},{""page_index"":1,""viewing_time"":953},{""page_index"":2,""viewing_time"":1127}]",193
,,,,,,,,,,,,,,,79905,,79906,,,instructions,"[{""page_index"":0,""viewing_time"":25111},{""page_index"":1,""viewing_time"":32254},{""page_index"":2,""viewing_time"":22539}]",194
,,,,,,,,,,,,,,,115393,,115393,,,instructions,"[{""page_index"":0,""viewing_time"":53946},{""page_index"":1,""viewing_time"":16291},{""page_index"":2,""viewing_time"":16251},{""page_index"":3,""viewing_time"":28904}]",195
,,,,,,,,,,,,,,,31026,,209089,,,instructions,"[{""page_index"":0,""viewing_time"":5794},{""page_index"":1,""viewing_time"":6166},{""page_index"":2,""viewing_time"":13037},{""page_index"":3,""viewing_time"":6028}]",195
,,,,,,,,,,,,,,,79216,,311047,,,instructions,"[{""page_index"":0,""viewing_time"":20400},{""page_index"":1,""viewing_time"":20378},{""page_index"":2,""viewing_time"":30109},{""page_index"":3,""viewing_time"":8328}]",195
,,,,,,,,,,,,,,,116288,,116289,,,instructions,"[{""page_index"":0,""viewing_time"":36795},{""page_index"":1,""viewing_time"":39282},{""page_index"":2,""viewing_time"":15672},{""page_index"":3,""viewing_time"":24539}]",196
,,,,,,,,,,,,,,,83617,,83618,,,instructions,"[{""page_index"":0,""viewing_time"":31935},{""page_index"":1,""viewing_time"":20614},{""page_index"":2,""viewing_time"":11176},{""page_index"":3,""viewing_time"":19891}]",197
,,,,,,,,,,,,,,,105265,,105267,,,instructions,"[{""page_index"":0,""viewing_time"":60385},{""page_index"":1,""viewing_time"":24659},{""page_index"":2,""viewing_time"":20221}]",198
,,,,,,,,,,,,,,,15588,,139710,,,instructions,"[{""page_index"":0,""viewing_time"":9586},{""page_index"":1,""viewing_time"":3686},{""page_index"":2,""viewing_time"":2316}]",198
,,,,,,,,,,,,,,,465114,,465117,,,instructions,"[{""page_index"":0,""viewing_time"":385206},{""page_index"":1,""viewing_time"":50572},{""page_index"":2,""viewing_time"":13863},{""page_index"":3,""viewing_time"":15472}]",199
,,,,,,,,,,,,,,,52323,,540619,,,instructions,"[{""page_index"":0,""viewing_time"":10886},{""page_index"":1,""viewing_time"":20714},{""page_index"":2,""viewing_time"":3981},{""page_index"":3,""viewing_time"":5807},{""page_index"":2,""viewing_time"":1098},{""page_index"":1,""viewing_time"":3100},{""page_index"":2,""viewing_time"":2878},{""page_index"":3,""viewing_time"":3858}]",199
,,,,,,,,,,,,,,,202936,,202938,,,instructions,"[{""page_index"":0,""viewing_time"":50444},{""page_index"":1,""viewing_time"":91851},{""page_index"":2,""viewing_time"":35210},{""page_index"":3,""viewing_time"":25418}]",200
,,,,,,,,,,,,,,,132630,,373838,,,instructions,"[{""page_index"":0,""viewing_time"":48325},{""page_index"":1,""viewing_time"":32216},{""page_index"":2,""viewing_time"":36313},{""page_index"":3,""viewing_time"":15776}]",200
,,,,,,,,,,,,,,,6282,,415375,,,instructions,"[{""page_index"":0,""viewing_time"":1795},{""page_index"":1,""viewing_time"":1428},{""page_index"":2,""viewing_time"":1120},{""page_index"":3,""viewing_time"":1938}]",200
,,,,,,,,,,,,,,,283887,,283888,,,instructions,"[{""page_index"":0,""viewing_time"":73541},{""page_index"":1,""viewing_time"":150128},{""page_index"":2,""viewing_time"":43082},{""page_index"":3,""viewing_time"":17135}]",201
,,,,,,,,,,,,,,,288140,,288143,,,instructions,"[{""page_index"":0,""viewing_time"":97710},{""page_index"":1,""viewing_time"":84146},{""page_index"":2,""viewing_time"":53626},{""page_index"":3,""viewing_time"":52639}]",202
,,,,,,,,,,,,,,,174414,,511469,,,instructions,"[{""page_index"":0,""viewing_time"":44345},{""page_index"":1,""viewing_time"":14416},{""page_index"":2,""viewing_time"":27968},{""page_index"":3,""viewing_time"":87684}]",202
,,,,,,,,,,,,,,,45896,,600014,,,instructions,"[{""page_index"":0,""viewing_time"":17574},{""page_index"":1,""viewing_time"":18833},{""page_index"":2,""viewing_time"":2945},{""page_index"":3,""viewing_time"":6543}]",202
,,,,,,,,,,,,,,,532192,,1161698,,,instructions,"[{""page_index"":0,""viewing_time"":480249},{""page_index"":1,""viewing_time"":16933},{""page_index"":2,""viewing_time"":26993},{""page_index"":3,""viewing_time"":8014}]",202
,,,,,,,,,,,,,,,77066,,1262605,,,instructions,"[{""page_index"":0,""viewing_time"":9862},{""page_index"":1,""viewing_time"":24032},{""page_index"":2,""viewing_time"":34745},{""page_index"":3,""viewing_time"":8425}]",202
,,,,,,,,,,,,,,,10714,,1300549,,,instructions,"[{""page_index"":0,""viewing_time"":2968},{""page_index"":1,""viewing_time"":802},{""page_index"":0,""viewing_time"":2407},{""page_index"":1,""viewing_time"":783},{""page_index"":2,""viewing_time"":2106},{""page_index"":3,""viewing_time"":1646}]",202
,,,,,,,,,,,,,,,6351,,1330854,,,instructions,"[{""page_index"":0,""viewing_time"":2909},{""page_index"":1,""viewing_time"":952},{""page_index"":2,""viewing_time"":1784},{""page_index"":3,""viewing_time"":705}]",202
,,,,,,,,,,,,,,,222090,,222092,,,instructions,"[{""page_index"":0,""viewing_time"":102834},{""page_index"":1,""viewing_time"":45544},{""page_index"":2,""viewing_time"":46357},{""page_index"":3,""viewing_time"":27353}]",203
,,,,,,,,,,,,,,,1071950,,1071952,,,instructions,"[{""page_index"":0,""viewing_time"":47002},{""page_index"":1,""viewing_time"":78300},{""page_index"":2,""viewing_time"":946646}]",204
,,,,,,,,,,,,,,,98633,,98635,,,instructions,"[{""page_index"":0,""viewing_time"":39410},{""page_index"":1,""viewing_time"":27920},{""page_index"":2,""viewing_time"":16280},{""page_index"":3,""viewing_time"":15022}]",205
,,,,,,,,,,,,,,,24054,,143026,,,instructions,"[{""page_index"":0,""viewing_time"":14613},{""page_index"":1,""viewing_time"":6057},{""page_index"":2,""viewing_time"":1839},{""page_index"":3,""viewing_time"":1544}]",205
,,,,,,,,,,,,,,,156155,,156156,,,instructions,"[{""page_index"":0,""viewing_time"":56873},{""page_index"":1,""viewing_time"":47265},{""page_index"":2,""viewing_time"":27358},{""page_index"":3,""viewing_time"":24658}]",206
,,,,,,,,,,,,,,,127043,,127045,,,instructions,"[{""page_index"":0,""viewing_time"":27646},{""page_index"":1,""viewing_time"":26845},{""page_index"":2,""viewing_time"":43462},{""page_index"":3,""viewing_time"":29086}]",207
,,,,,,,,,,,,,,,149743,,149745,,,instructions,"[{""page_index"":0,""viewing_time"":47989},{""page_index"":1,""viewing_time"":40665},{""page_index"":2,""viewing_time"":30085},{""page_index"":3,""viewing_time"":31003}]",208
,,,,,,,,,,,,,,,14461,,201840,,,instructions,"[{""page_index"":0,""viewing_time"":6970},{""page_index"":1,""viewing_time"":1939},{""page_index"":2,""viewing_time"":4328},{""page_index"":3,""viewing_time"":1224}]",208
,,,,,,,,,,,,,,,59179,,295727,,,instructions,"[{""page_index"":0,""viewing_time"":12260},{""page_index"":1,""viewing_time"":12132},{""page_index"":2,""viewing_time"":28595},{""page_index"":3,""viewing_time"":6191}]",208
,,,,,,,,,,,,,,,270683,,270688,,,instructions,"[{""page_index"":0,""viewing_time"":84370},{""page_index"":1,""viewing_time"":75617},{""page_index"":2,""viewing_time"":71450},{""page_index"":3,""viewing_time"":39242}]",209
,,,,,,,,,,,,,,,242195,,242196,,,instructions,"[{""page_index"":0,""viewing_time"":108567},{""page_index"":1,""viewing_time"":56023},{""page_index"":2,""viewing_time"":77604}]",210
,,,,,,,,,,,,,,,95797,,95797,,,instructions,"[{""page_index"":0,""viewing_time"":25114},{""page_index"":1,""viewing_time"":26683},{""page_index"":2,""viewing_time"":27224},{""page_index"":3,""viewing_time"":16775}]",211
,,,,,,,,,,,,,,,18957,,143591,,,instructions,"[{""page_index"":0,""viewing_time"":7485},{""page_index"":1,""viewing_time"":3248},{""page_index"":2,""viewing_time"":5935},{""page_index"":3,""viewing_time"":2288}]",211
,,,,,,,,,,,,,,,39645,,210274,,,instructions,"[{""page_index"":0,""viewing_time"":14893},{""page_index"":1,""viewing_time"":7640},{""page_index"":2,""viewing_time"":15760},{""page_index"":3,""viewing_time"":1352}]",211
,,,,,,,,,,,,,,,22302,,258739,,,instructions,"[{""page_index"":0,""viewing_time"":6014},{""page_index"":1,""viewing_time"":4752},{""page_index"":2,""viewing_time"":7679},{""page_index"":3,""viewing_time"":3857}]",211
,,,,,,,,,,,,,,,72377,,342965,,,instructions,"[{""page_index"":0,""viewing_time"":13718},{""page_index"":1,""viewing_time"":13803},{""page_index"":2,""viewing_time"":22176},{""page_index"":1,""viewing_time"":1128},{""page_index"":0,""viewing_time"":17952},{""page_index"":1,""viewing_time"":800},{""page_index"":2,""viewing_time"":1856},{""page_index"":3,""viewing_time"":944}]",211
,,,,,,,,,,,,,,,36231,,401280,,,instructions,"[{""page_index"":0,""viewing_time"":3614},{""page_index"":1,""viewing_time"":12928},{""page_index"":2,""viewing_time"":12783},{""page_index"":3,""viewing_time"":6905}]",211
,,,,,,,,,,,,,,,6295,,435802,,,instructions,"[{""page_index"":0,""viewing_time"":822},{""page_index"":1,""viewing_time"":985},{""page_index"":2,""viewing_time"":3488},{""page_index"":3,""viewing_time"":1000}]",211
,,,,,,,,,,,,,,,6735,,459194,,,instructions,"[{""page_index"":0,""viewing_time"":1494},{""page_index"":1,""viewing_time"":2224},{""page_index"":2,""viewing_time"":1896},{""page_index"":3,""viewing_time"":1120}]",211
,,,,,,,,,,,,,,,172483,,172485,,,instructions,"[{""page_index"":0,""viewing_time"":63528},{""page_index"":1,""viewing_time"":22542},{""page_index"":2,""viewing_time"":49648},{""page_index"":3,""viewing_time"":36765}]",212
,,,,,,,,,,,,,,,129383,,359670,,,instructions,"[{""page_index"":0,""viewing_time"":57858},{""page_index"":1,""viewing_time"":48300},{""page_index"":2,""viewing_time"":3603},{""page_index"":3,""viewing_time"":2994},{""page_index"":2,""viewing_time"":6040},{""page_index"":1,""viewing_time"":8166},{""page_index"":2,""viewing_time"":1642},{""page_index"":3,""viewing_time"":779}]",212
,,,,,,,,,,,,,,,90939,,90940,,,instructions,"[{""page_index"":0,""viewing_time"":43091},{""page_index"":1,""viewing_time"":17226},{""page_index"":2,""viewing_time"":30009},{""page_index"":3,""viewing_time"":612}]",213
,,,,,,,,,,,,,,,145064,,263299,,,instructions,"[{""page_index"":0,""viewing_time"":37840},{""page_index"":1,""viewing_time"":48869},{""page_index"":2,""viewing_time"":36716},{""page_index"":3,""viewing_time"":21639}]",213
,,,,,,,,,,,,,,,174110,,174111,,,instructions,"[{""page_index"":0,""viewing_time"":36060},{""page_index"":1,""viewing_time"":24874},{""page_index"":2,""viewing_time"":84479},{""page_index"":3,""viewing_time"":18821},{""page_index"":2,""viewing_time"":2493},{""page_index"":1,""viewing_time"":4460},{""page_index"":2,""viewing_time"":1421},{""page_index"":3,""viewing_time"":1501}]",214
,,,,,,,,,,,,,,,169439,,169440,,,instructions,"[{""page_index"":0,""viewing_time"":47951},{""page_index"":1,""viewing_time"":45386},{""page_index"":2,""viewing_time"":29912},{""page_index"":1,""viewing_time"":1080},{""page_index"":0,""viewing_time"":10661},{""page_index"":1,""viewing_time"":8433},{""page_index"":2,""viewing_time"":26015}]",215
,,,,,,,,,,,,,,,109972,,109974,,,instructions,"[{""page_index"":0,""viewing_time"":46373},{""page_index"":1,""viewing_time"":31295},{""page_index"":2,""viewing_time"":32302}]",216
,,,,,,,,,,,,,,,112287,,252782,,,instructions,"[{""page_index"":0,""viewing_time"":4610},{""page_index"":1,""viewing_time"":106652},{""page_index"":2,""viewing_time"":1024}]",216
,,,,,,,,,,,,,,,132734,,132739,,,instructions,"[{""page_index"":0,""viewing_time"":42948},{""page_index"":1,""viewing_time"":34273},{""page_index"":2,""viewing_time"":34815},{""page_index"":3,""viewing_time"":20694}]",217
,,,,,,,,,,,,,,,133381,,133382,,,instructions,"[{""page_index"":0,""viewing_time"":34695},{""page_index"":1,""viewing_time"":46672},{""page_index"":2,""viewing_time"":24397},{""page_index"":3,""viewing_time"":27616}]",218
,,,,,,,,,,,,,,,92990,,92992,,,instructions,"[{""page_index"":0,""viewing_time"":34268},{""page_index"":1,""viewing_time"":25279},{""page_index"":2,""viewing_time"":33439}]",219
,,,,,,,,,,,,,,,214666,,214666,,,instructions,"[{""page_index"":0,""viewing_time"":39619},{""page_index"":1,""viewing_time"":73919},{""page_index"":2,""viewing_time"":71280},{""page_index"":3,""viewing_time"":29847}]",220
,,,,,,,,,,,,,,,179363,,179367,,,instructions,"[{""page_index"":0,""viewing_time"":42379},{""page_index"":1,""viewing_time"":65137},{""page_index"":2,""viewing_time"":41681},{""page_index"":3,""viewing_time"":30160}]",221
,,,,,,,,,,,,,,,125925,,125927,,,instructions,"[{""page_index"":0,""viewing_time"":21631},{""page_index"":1,""viewing_time"":1340},{""page_index"":0,""viewing_time"":32219},{""page_index"":1,""viewing_time"":28977},{""page_index"":2,""viewing_time"":21617},{""page_index"":3,""viewing_time"":20140}]",222
,,,,,,,,,,,,,,,168850,,168852,,,instructions,"[{""page_index"":0,""viewing_time"":59688},{""page_index"":1,""viewing_time"":42183},{""page_index"":2,""viewing_time"":42456},{""page_index"":3,""viewing_time"":24521}]",223
,,,,,,,,,,,,,,,139650,,139651,,,instructions,"[{""page_index"":0,""viewing_time"":40262},{""page_index"":1,""viewing_time"":33375},{""page_index"":2,""viewing_time"":22763},{""page_index"":3,""viewing_time"":22793},{""page_index"":2,""viewing_time"":420},{""page_index"":1,""viewing_time"":1737},{""page_index"":0,""viewing_time"":11401},{""page_index"":1,""viewing_time"":1212},{""page_index"":2,""viewing_time"":2932},{""page_index"":3,""viewing_time"":2755}]",224
,,,,,,,,,,,,,,,28906,,193865,,,instructions,"[{""page_index"":0,""viewing_time"":16953},{""page_index"":1,""viewing_time"":4422},{""page_index"":0,""viewing_time"":3120},{""page_index"":1,""viewing_time"":944},{""page_index"":2,""viewing_time"":2198},{""page_index"":3,""viewing_time"":1268}]",224
,,,,,,,,,,,,,,,105812,,105815,,,instructions,"[{""page_index"":0,""viewing_time"":40156},{""page_index"":1,""viewing_time"":27136},{""page_index"":2,""viewing_time"":10882},{""page_index"":3,""viewing_time"":27634}]",225
,,,,,,,,,,,,,,,27502,,179512,,,instructions,"[{""page_index"":0,""viewing_time"":11943},{""page_index"":1,""viewing_time"":4704},{""page_index"":2,""viewing_time"":3727},{""page_index"":3,""viewing_time"":7126}]",225
,,,,,,,,,,,,,,,12854,,224621,,,instructions,"[{""page_index"":0,""viewing_time"":3809},{""page_index"":1,""viewing_time"":1489},{""page_index"":2,""viewing_time"":5931},{""page_index"":3,""viewing_time"":1623}]",225
,,,,,,,,,,,,,,,452421,,452422,,,instructions,"[{""page_index"":0,""viewing_time"":56366},{""page_index"":1,""viewing_time"":157195},{""page_index"":2,""viewing_time"":168941},{""page_index"":3,""viewing_time"":69918}]",226
,,,,,,,,,,,,,,,20617,,513532,,,instructions,"[{""page_index"":0,""viewing_time"":14238},{""page_index"":1,""viewing_time"":2974},{""page_index"":2,""viewing_time"":1406},{""page_index"":3,""viewing_time"":1998}]",226
,,,,,,,,,,,,,,,112046,,112047,,,instructions,"[{""page_index"":0,""viewing_time"":42529},{""page_index"":1,""viewing_time"":27536},{""page_index"":2,""viewing_time"":15955},{""page_index"":3,""viewing_time"":26024}]",227
,,,,,,,,,,,,,,,138872,,138874,,,instructions,"[{""page_index"":0,""viewing_time"":47747},{""page_index"":1,""viewing_time"":40271},{""page_index"":2,""viewing_time"":20050},{""page_index"":3,""viewing_time"":30802}]",228
,,,,,,,,,,,,,,,98142,,98144,,,instructions,"[{""page_index"":0,""viewing_time"":44144},{""page_index"":1,""viewing_time"":32439},{""page_index"":2,""viewing_time"":21557}]",229
,,,,,,,,,,,,,,,57419,,57419,,,instructions,"[{""page_index"":0,""viewing_time"":9628},{""page_index"":1,""viewing_time"":20612},{""page_index"":2,""viewing_time"":17314},{""page_index"":3,""viewing_time"":9864}]",230
,,,,,,,,,,,,,,,27537,,103386,,,instructions,"[{""page_index"":0,""viewing_time"":19062},{""page_index"":1,""viewing_time"":4403},{""page_index"":2,""viewing_time"":2520},{""page_index"":3,""viewing_time"":1552}]",230
,,,,,,,,,,,,,,,39934,,160012,,,instructions,"[{""page_index"":0,""viewing_time"":19185},{""page_index"":1,""viewing_time"":11427},{""page_index"":2,""viewing_time"":1734},{""page_index"":3,""viewing_time"":7588}]",230
,,,,,,,,,,,,,,,138232,,138233,,,instructions,"[{""page_index"":0,""viewing_time"":38568},{""page_index"":1,""viewing_time"":36393},{""page_index"":2,""viewing_time"":38280},{""page_index"":3,""viewing_time"":24990}]",231
,,,,,,,,,,,,,,,161223,,161224,,,instructions,"[{""page_index"":0,""viewing_time"":71493},{""page_index"":1,""viewing_time"":56392},{""page_index"":2,""viewing_time"":33334}]",232
,,,,,,,,,,,,,,,84216,,84217,,,instructions,"[{""page_index"":0,""viewing_time"":30959},{""page_index"":1,""viewing_time"":32355},{""page_index"":2,""viewing_time"":20901}]",233
,,,,,,,,,,,,,,,246965,,246969,,,instructions,"[{""page_index"":0,""viewing_time"":38228},{""page_index"":1,""viewing_time"":66813},{""page_index"":2,""viewing_time"":70168},{""page_index"":3,""viewing_time"":71753}]",234
,,,,,,,,,,,,,,,266136,,266136,,,instructions,"[{""page_index"":0,""viewing_time"":115061},{""page_index"":1,""viewing_time"":48443},{""page_index"":2,""viewing_time"":61775},{""page_index"":3,""viewing_time"":40856}]",235
,,,,,,,,,,,,,,,61768,,61770,,,instructions,"[{""page_index"":0,""viewing_time"":20928},{""page_index"":1,""viewing_time"":15704},{""page_index"":2,""viewing_time"":12632},{""page_index"":3,""viewing_time"":12504}]",236
,,,,,,,,,,,,,,,49006,,155648,,,instructions,"[{""page_index"":0,""viewing_time"":22806},{""page_index"":1,""viewing_time"":9504},{""page_index"":2,""viewing_time"":12584},{""page_index"":3,""viewing_time"":4112}]",236
,,,,,,,,,,,,,,,4911,,185536,,,instructions,"[{""page_index"":0,""viewing_time"":2294},{""page_index"":1,""viewing_time"":641},{""page_index"":2,""viewing_time"":1599},{""page_index"":3,""viewing_time"":377}]",236
,,,,,,,,,,,,,,,121138,,121140,,,instructions,"[{""page_index"":0,""viewing_time"":33786},{""page_index"":1,""viewing_time"":34046},{""page_index"":2,""viewing_time"":36223},{""page_index"":3,""viewing_time"":17079}]",237
,,,,,,,,,,,,,,,150566,,150566,,,instructions,"[{""page_index"":0,""viewing_time"":47832},{""page_index"":1,""viewing_time"":55775},{""page_index"":2,""viewing_time"":29451},{""page_index"":3,""viewing_time"":17507}]",238
,,,,,,,,,,,,,,,3764,,185775,,,instructions,"[{""page_index"":0,""viewing_time"":1829},{""page_index"":1,""viewing_time"":766},{""page_index"":2,""viewing_time"":663},{""page_index"":3,""viewing_time"":505}]",238
,,,,,,,,,,,,,,,127754,,127755,,,instructions,"[{""page_index"":0,""viewing_time"":60584},{""page_index"":1,""viewing_time"":23631},{""page_index"":2,""viewing_time"":28987},{""page_index"":1,""viewing_time"":13775},{""page_index"":2,""viewing_time"":776}]",239
,,,,,,,,,,,,,,,120048,,120049,,,instructions,"[{""page_index"":0,""viewing_time"":26896},{""page_index"":1,""viewing_time"":6080},{""page_index"":0,""viewing_time"":5461},{""page_index"":1,""viewing_time"":42673},{""page_index"":2,""viewing_time"":22248},{""page_index"":3,""viewing_time"":16689}]",240
,,,,,,,,,,,,,,,114860,,114862,,,instructions,"[{""page_index"":0,""viewing_time"":47171},{""page_index"":1,""viewing_time"":49828},{""page_index"":2,""viewing_time"":17860}]",241
,,,,,,,,,,,,,,,184785,,184785,,,instructions,"[{""page_index"":0,""viewing_time"":33001},{""page_index"":1,""viewing_time"":41061},{""page_index"":2,""viewing_time"":83914},{""page_index"":3,""viewing_time"":26809}]",242
,,,,,,,,,,,,,,,178550,,178553,,,instructions,"[{""page_index"":0,""viewing_time"":33348},{""page_index"":1,""viewing_time"":41007},{""page_index"":2,""viewing_time"":38569},{""page_index"":3,""viewing_time"":65625}]",243
,,,,,,,,,,,,,,,86778,,86782,,,instructions,"[{""page_index"":0,""viewing_time"":43655},{""page_index"":1,""viewing_time"":29356},{""page_index"":2,""viewing_time"":13765}]",244
,,,,,,,,,,,,,,,243228,,243230,,,instructions,"[{""page_index"":0,""viewing_time"":152658},{""page_index"":1,""viewing_time"":38342},{""page_index"":2,""viewing_time"":26714},{""page_index"":3,""viewing_time"":25512}]",245
,,,,,,,,,,,,,,,64591,,362578,,,instructions,"[{""page_index"":0,""viewing_time"":18052},{""page_index"":1,""viewing_time"":25578},{""page_index"":2,""viewing_time"":5080},{""page_index"":3,""viewing_time"":15880}]",245
,,,,,,,,,,,,,,,782147,,782149,,,instructions,"[{""page_index"":0,""viewing_time"":158289},{""page_index"":1,""viewing_time"":80420},{""page_index"":2,""viewing_time"":19280},{""page_index"":3,""viewing_time"":524158}]",246
,,,,,,,,,,,,,,,41058,,883372,,,instructions,"[{""page_index"":0,""viewing_time"":12541},{""page_index"":1,""viewing_time"":8218},{""page_index"":2,""viewing_time"":10330},{""page_index"":3,""viewing_time"":9968}]",246
,,,,,,,,,,,,,,,50310,,956837,,,instructions,"[{""page_index"":0,""viewing_time"":17454},{""page_index"":1,""viewing_time"":15137},{""page_index"":2,""viewing_time"":13315},{""page_index"":3,""viewing_time"":4404}]",246
,,,,,,,,,,,,,,,101805,,101805,,,instructions,"[{""page_index"":0,""viewing_time"":29439},{""page_index"":1,""viewing_time"":24268},{""page_index"":2,""viewing_time"":27921},{""page_index"":3,""viewing_time"":20176}]",247
,,,,,,,,,,,,,,,180910,,180911,,,instructions,"[{""page_index"":0,""viewing_time"":58130},{""page_index"":1,""viewing_time"":37104},{""page_index"":2,""viewing_time"":43394},{""page_index"":3,""viewing_time"":42281}]",248
,,,,,,,,,,,,,,,104347,,331687,,,instructions,"[{""page_index"":0,""viewing_time"":22230},{""page_index"":1,""viewing_time"":77999},{""page_index"":2,""viewing_time"":1951},{""page_index"":3,""viewing_time"":2166}]",248
,,,,,,,,,,,,,,,28112,,378500,,,instructions,"[{""page_index"":0,""viewing_time"":2571},{""page_index"":1,""viewing_time"":2749},{""page_index"":2,""viewing_time"":19089},{""page_index"":3,""viewing_time"":3702}]",248
,,,,,,,,,,,,,,,20554,,425595,,,instructions,"[{""page_index"":0,""viewing_time"":2515},{""page_index"":1,""viewing_time"":8518},{""page_index"":2,""viewing_time"":7882},{""page_index"":3,""viewing_time"":1639}]",248
,,,,,,,,,,,,,,,136767,,136769,,,instructions,"[{""page_index"":0,""viewing_time"":51578},{""page_index"":1,""viewing_time"":20989},{""page_index"":2,""viewing_time"":42815},{""page_index"":3,""viewing_time"":21384}]",249
,,,,,,,,,,,,,,,19903,,187383,,,instructions,"[{""page_index"":0,""viewing_time"":12503},{""page_index"":1,""viewing_time"":4696},{""page_index"":2,""viewing_time"":1560},{""page_index"":3,""viewing_time"":1144}]",249
,,,,,,,,,,,,,,,176043,,176045,,,instructions,"[{""page_index"":0,""viewing_time"":38477},{""page_index"":1,""viewing_time"":79354},{""page_index"":2,""viewing_time"":25256},{""page_index"":3,""viewing_time"":32954}]",250
,,,,,,,,,,,,,,,21993,,247557,,,instructions,"[{""page_index"":0,""viewing_time"":7760},{""page_index"":1,""viewing_time"":3496},{""page_index"":2,""viewing_time"":5344},{""page_index"":3,""viewing_time"":5392}]",250
,,,,,,,,,,,,,,,42229,,316288,,,instructions,"[{""page_index"":0,""viewing_time"":22652},{""page_index"":1,""viewing_time"":7256},{""page_index"":2,""viewing_time"":10584},{""page_index"":3,""viewing_time"":1736}]",250
,,,,,,,,,,,,,,,28429,,28431,,,instructions,"[{""page_index"":0,""viewing_time"":16266},{""page_index"":1,""viewing_time"":7530},{""page_index"":2,""viewing_time"":4632}]",251
,,,,,,,,,,,,,,,111098,,111099,,,instructions,"[{""page_index"":0,""viewing_time"":40874},{""page_index"":1,""viewing_time"":48824},{""page_index"":2,""viewing_time"":21399}]",252
,,,,,,,,,,,,,,,33460,,33460,,,instructions,"[{""page_index"":0,""viewing_time"":16207},{""page_index"":1,""viewing_time"":12145},{""page_index"":2,""viewing_time"":3759},{""page_index"":3,""viewing_time"":1348}]",253
,,,,,,,,,,,,,,,49333,,119673,,,instructions,"[{""page_index"":0,""viewing_time"":9829},{""page_index"":1,""viewing_time"":12486},{""page_index"":2,""viewing_time"":14163},{""page_index"":3,""viewing_time"":12855}]",253
,,,,,,,,,,,,,,,16869,,162908,,,instructions,"[{""page_index"":0,""viewing_time"":3934},{""page_index"":1,""viewing_time"":1962},{""page_index"":2,""viewing_time"":10034},{""page_index"":3,""viewing_time"":939}]",253
,,,,,,,,,,,,,,,210511,,210513,,,instructions,"[{""page_index"":0,""viewing_time"":48436},{""page_index"":1,""viewing_time"":33790},{""page_index"":2,""viewing_time"":128283}]",254
,,,,,,,,,,,,,,,16052,,16054,,,instructions,"[{""page_index"":0,""viewing_time"":3924},{""page_index"":1,""viewing_time"":1204},{""page_index"":2,""viewing_time"":7507},{""page_index"":3,""viewing_time"":3413}]",255
,,,,,,,,,,,,,,,25021,,68709,,,instructions,"[{""page_index"":0,""viewing_time"":3962},{""page_index"":1,""viewing_time"":8642},{""page_index"":2,""viewing_time"":3779},{""page_index"":3,""viewing_time"":8634}]",255
,,,,,,,,,,,,,,,124234,,124235,,,instructions,"[{""page_index"":0,""viewing_time"":46613},{""page_index"":1,""viewing_time"":25073},{""page_index"":2,""viewing_time"":32260},{""page_index"":3,""viewing_time"":20287}]",256
,,,,,,,,,,,,,,,104588,,104591,,,instructions,"[{""page_index"":0,""viewing_time"":38830},{""page_index"":1,""viewing_time"":43009},{""page_index"":2,""viewing_time"":22746}]",257
,,,,,,,,,,,,,,,9405,,157493,,,instructions,"[{""page_index"":0,""viewing_time"":4661},{""page_index"":1,""viewing_time"":2789},{""page_index"":2,""viewing_time"":1954}]",257
,,,,,,,,,,,,,,,153946,,153947,,,instructions,"[{""page_index"":0,""viewing_time"":79930},{""page_index"":1,""viewing_time"":19026},{""page_index"":0,""viewing_time"":20694},{""page_index"":1,""viewing_time"":6981},{""page_index"":0,""viewing_time"":3222},{""page_index"":1,""viewing_time"":4726},{""page_index"":2,""viewing_time"":12343},{""page_index"":3,""viewing_time"":7024}]",258
,,,,,,,,,,,,,,,73061,,251854,,,instructions,"[{""page_index"":0,""viewing_time"":10437},{""page_index"":1,""viewing_time"":10622},{""page_index"":0,""viewing_time"":8583},{""page_index"":1,""viewing_time"":10296},{""page_index"":2,""viewing_time"":18896},{""page_index"":3,""viewing_time"":14227}]",258
,,,,,,,,,,,,,,,17367,,286159,,,instructions,"[{""page_index"":0,""viewing_time"":12001},{""page_index"":1,""viewing_time"":4512},{""page_index"":2,""viewing_time"":463},{""page_index"":3,""viewing_time"":391}]",258
,,,,,,,,,,,,,,,113355,,113357,,,instructions,"[{""page_index"":0,""viewing_time"":29395},{""page_index"":1,""viewing_time"":42556},{""page_index"":2,""viewing_time"":36675},{""page_index"":3,""viewing_time"":4728}]",259
,,,,,,,,,,,,,,,45354,,256981,,,instructions,"[{""page_index"":0,""viewing_time"":12429},{""page_index"":1,""viewing_time"":7547},{""page_index"":2,""viewing_time"":15099},{""page_index"":3,""viewing_time"":10277}]",259
,,,,,,,,,,,,,,,35962,,336242,,,instructions,"[{""page_index"":0,""viewing_time"":5296},{""page_index"":1,""viewing_time"":4283},{""page_index"":2,""viewing_time"":25505},{""page_index"":3,""viewing_time"":877}]",259
,,,,,,,,,,,,,,,105183,,105185,,,instructions,"[{""page_index"":0,""viewing_time"":21734},{""page_index"":1,""viewing_time"":16901},{""page_index"":2,""viewing_time"":33861},{""page_index"":3,""viewing_time"":4239},{""page_index"":2,""viewing_time"":2812},{""page_index"":3,""viewing_time"":25635}]",260
,,,,,,,,,,,,,,,160144,,160146,,,instructions,"[{""page_index"":0,""viewing_time"":85038},{""page_index"":1,""viewing_time"":35221},{""page_index"":2,""viewing_time"":21468},{""page_index"":3,""viewing_time"":18416}]",261
