p_rdata,action_times,actions,beliefs,correct,delays,information_used_correctly,meta_actions,path,planned_too_little,planned_too_much,queries,questions,responses,rt,score,time_elapsed,trial_index,trial_id,trial_type,view_history,pid
,,,,,,,,,,,,,,79162,,79164,,,instructions,"[{""page_index"":0,""viewing_time"":27969},{""page_index"":1,""viewing_time"":36663},{""page_index"":2,""viewing_time"":14529}]",0
,,,,,,,,,,,,,,83289,,83290,,,instructions,"[{""page_index"":0,""viewing_time"":31922},{""page_index"":1,""viewing_time"":31247},{""page_index"":2,""viewing_time"":20120}]",1
,,,,,,,,,,,,,,92236,,92236,,,instructions,"[{""page_index"":0,""viewing_time"":29810},{""page_index"":1,""viewing_time"":46862},{""page_index"":2,""viewing_time"":15542}]",2
,,,,,,,,,,,,,,160605,,160606,,,instructions,"[{""page_index"":0,""viewing_time"":61587},{""page_index"":1,""viewing_time"":60981},{""page_index"":2,""viewing_time"":38036}]",3
,,,,,,,,,,,,,,139206,,139207,,,instructions,"[{""page_index"":0,""viewing_time"":69891},{""page_index"":1,""viewing_time"":47541},{""page_index"":2,""viewing_time"":21773}]",4
,,,,,,,,,,,,,,363483,,363485,,,instructions,"[{""page_index"":0,""viewing_time"":170864},{""page_index"":1,""viewing_time"":166385},{""page_index"":2,""viewing_time"":26232}]",5
,,,,,,,,,,,,,,23112,,23112,,,instructions,"[{""page_index"":0,""viewing_time"":6349},{""page_index"":1,""viewing_time"":6807},{""page_index"":2,""viewing_time"":9956}]",6
,,,,,,,,,,,,,,35531,,82128,,,instructions,"[{""page_index"":0,""viewing_time"":6716},{""page_index"":1,""viewing_time"":23925},{""page_index"":2,""viewing_time"":4889}]",6
,,,,,,,,,,,,,,204513,,204514,,,instructions,"[{""page_index"":0,""viewing_time"":95260},{""page_index"":1,""viewing_time"":73856},{""page_index"":2,""viewing_time"":35396}]",7
,,,,,,,,,,,,,,60648,,60649,,,instructions,"[{""page_index"":0,""viewing_time"":22499},{""page_index"":1,""viewing_time"":20810},{""page_index"":2,""viewing_time"":17339}]",8
,,,,,,,,,,,,,,45188,,137007,,,instructions,"[{""page_index"":0,""viewing_time"":20493},{""page_index"":1,""viewing_time"":17565},{""page_index"":2,""viewing_time"":7130}]",8
,,,,,,,,,,,,,,108906,,108907,,,instructions,"[{""page_index"":0,""viewing_time"":39487},{""page_index"":1,""viewing_time"":35377},{""page_index"":2,""viewing_time"":34041}]",9
,,,,,,,,,,,,,,114110,,114111,,,instructions,"[{""page_index"":0,""viewing_time"":48929},{""page_index"":1,""viewing_time"":37416},{""page_index"":2,""viewing_time"":27764}]",10
,,,,,,,,,,,,,,163463,,163464,,,instructions,"[{""page_index"":0,""viewing_time"":73335},{""page_index"":1,""viewing_time"":67599},{""page_index"":2,""viewing_time"":22528}]",11
,,,,,,,,,,,,,,152275,,152277,,,instructions,"[{""page_index"":0,""viewing_time"":55673},{""page_index"":1,""viewing_time"":64986},{""page_index"":2,""viewing_time"":31614}]",12
,,,,,,,,,,,,,,432321,,432322,,,instructions,"[{""page_index"":0,""viewing_time"":386723},{""page_index"":1,""viewing_time"":29091},{""page_index"":2,""viewing_time"":16506}]",13
,,,,,,,,,,,,,,135593,,135593,,,instructions,"[{""page_index"":0,""viewing_time"":52019},{""page_index"":1,""viewing_time"":62037},{""page_index"":2,""viewing_time"":21536}]",14
,,,,,,,,,,,,,,184497,,184498,,,instructions,"[{""page_index"":0,""viewing_time"":73875},{""page_index"":1,""viewing_time"":57904},{""page_index"":2,""viewing_time"":52717}]",15
,,,,,,,,,,,,,,64533,,64533,,,instructions,"[{""page_index"":0,""viewing_time"":27029},{""page_index"":1,""viewing_time"":22935},{""page_index"":2,""viewing_time"":14568}]",16
,,,,,,,,,,,,,,118518,,214844,,,instructions,"[{""page_index"":0,""viewing_time"":49077},{""page_index"":1,""viewing_time"":40144},{""page_index"":0,""viewing_time"":2944},{""page_index"":1,""viewing_time"":4368},{""page_index"":2,""viewing_time"":21985}]",16
,,,,,,,,,,,,,,212114,,212116,,,instructions,"[{""page_index"":0,""viewing_time"":54132},{""page_index"":1,""viewing_time"":116919},{""page_index"":2,""viewing_time"":41061}]",17
,,,,,,,,,,,,,,61743,,61744,,,instructions,"[{""page_index"":0,""viewing_time"":21858},{""page_index"":1,""viewing_time"":20082},{""page_index"":2,""viewing_time"":19800}]",18
,,,,,,,,,,,,,,21502,,107159,,,instructions,"[{""page_index"":0,""viewing_time"":16152},{""page_index"":1,""viewing_time"":3422},{""page_index"":2,""viewing_time"":1928}]",18
,,,,,,,,,,,,,,76086,,76086,,,instructions,"[{""page_index"":0,""viewing_time"":43978},{""page_index"":1,""viewing_time"":19991},{""page_index"":2,""viewing_time"":12117}]",19
,,,,,,,,,,,,,,329876,,329878,,,instructions,"[{""page_index"":0,""viewing_time"":161759},{""page_index"":1,""viewing_time"":118166},{""page_index"":2,""viewing_time"":49950}]",20
,,,,,,,,,,,,,,38755,,38755,,,instructions,"[{""page_index"":0,""viewing_time"":10780},{""page_index"":1,""viewing_time"":15460},{""page_index"":2,""viewing_time"":12514}]",21
,,,,,,,,,,,,,,81892,,81894,,,instructions,"[{""page_index"":0,""viewing_time"":40622},{""page_index"":1,""viewing_time"":25641},{""page_index"":2,""viewing_time"":15628}]",22
,,,,,,,,,,,,,,101079,,101081,,,instructions,"[{""page_index"":0,""viewing_time"":41405},{""page_index"":1,""viewing_time"":35892},{""page_index"":2,""viewing_time"":23781}]",23
,,,,,,,,,,,,,,94223,,94226,,,instructions,"[{""page_index"":0,""viewing_time"":38434},{""page_index"":1,""viewing_time"":33251},{""page_index"":2,""viewing_time"":22534}]",24
,,,,,,,,,,,,,,47134,,47136,,,instructions,"[{""page_index"":0,""viewing_time"":33206},{""page_index"":1,""viewing_time"":7959},{""page_index"":2,""viewing_time"":5969}]",25
,,,,,,,,,,,,,,23669,,90031,,,instructions,"[{""page_index"":0,""viewing_time"":6556},{""page_index"":1,""viewing_time"":7064},{""page_index"":2,""viewing_time"":10049}]",25
,,,,,,,,,,,,,,122330,,122332,,,instructions,"[{""page_index"":0,""viewing_time"":54559},{""page_index"":1,""viewing_time"":48027},{""page_index"":2,""viewing_time"":19744}]",26
,,,,,,,,,,,,,,55136,,55138,,,instructions,"[{""page_index"":0,""viewing_time"":13499},{""page_index"":1,""viewing_time"":25836},{""page_index"":2,""viewing_time"":15799}]",27
,,,,,,,,,,,,,,149013,,149015,,,instructions,"[{""page_index"":0,""viewing_time"":28806},{""page_index"":1,""viewing_time"":5687},{""page_index"":0,""viewing_time"":27200},{""page_index"":1,""viewing_time"":45416},{""page_index"":2,""viewing_time"":41904}]",28
,,,,,,,,,,,,,,47097,,47101,,,instructions,"[{""page_index"":0,""viewing_time"":13219},{""page_index"":1,""viewing_time"":25627},{""page_index"":2,""viewing_time"":8250}]",29
,,,,,,,,,,,,,,156891,,156895,,,instructions,"[{""page_index"":0,""viewing_time"":77064},{""page_index"":1,""viewing_time"":21124},{""page_index"":2,""viewing_time"":58698}]",30
,,,,,,,,,,,,,,167207,,399343,,,instructions,"[{""page_index"":0,""viewing_time"":46402},{""page_index"":1,""viewing_time"":90552},{""page_index"":2,""viewing_time"":13801},{""page_index"":1,""viewing_time"":10040},{""page_index"":2,""viewing_time"":6410}]",30
,,,,,,,,,,,,,,16413,,464755,,,instructions,"[{""page_index"":0,""viewing_time"":4266},{""page_index"":1,""viewing_time"":8929},{""page_index"":2,""viewing_time"":3217}]",30
,,,,,,,,,,,,,,11259,,496207,,,instructions,"[{""page_index"":0,""viewing_time"":2928},{""page_index"":1,""viewing_time"":6375},{""page_index"":2,""viewing_time"":1954}]",30
,,,,,,,,,,,,,,96921,,96922,,,instructions,"[{""page_index"":0,""viewing_time"":47680},{""page_index"":1,""viewing_time"":32469},{""page_index"":2,""viewing_time"":16772}]",31
,,,,,,,,,,,,,,99798,,99799,,,instructions,"[{""page_index"":0,""viewing_time"":39936},{""page_index"":1,""viewing_time"":10019},{""page_index"":0,""viewing_time"":13702},{""page_index"":1,""viewing_time"":5470},{""page_index"":2,""viewing_time"":30670}]",32
,,,,,,,,,,,,,,59012,,195111,,,instructions,"[{""page_index"":0,""viewing_time"":27066},{""page_index"":1,""viewing_time"":27842},{""page_index"":2,""viewing_time"":4103}]",32
,,,,,,,,,,,,,,46051,,46053,,,instructions,"[{""page_index"":0,""viewing_time"":19184},{""page_index"":1,""viewing_time"":17068},{""page_index"":2,""viewing_time"":9798}]",33
,,,,,,,,,,,,,,119616,,119618,,,instructions,"[{""page_index"":0,""viewing_time"":62308},{""page_index"":1,""viewing_time"":34031},{""page_index"":2,""viewing_time"":23276}]",34
,,,,,,,,,,,,,,105553,,105553,,,instructions,"[{""page_index"":0,""viewing_time"":38294},{""page_index"":1,""viewing_time"":48628},{""page_index"":2,""viewing_time"":18631}]",35
,,,,,,,,,,,,,,45451,,45453,,,instructions,"[{""page_index"":0,""viewing_time"":18058},{""page_index"":1,""viewing_time"":14496},{""page_index"":2,""viewing_time"":12896}]",36
,,,,,,,,,,,,,,169659,,169661,,,instructions,"[{""page_index"":0,""viewing_time"":40933},{""page_index"":1,""viewing_time"":75446},{""page_index"":2,""viewing_time"":40018},{""page_index"":1,""viewing_time"":11485},{""page_index"":2,""viewing_time"":1776}]",37
,,,,,,,,,,,,,,100398,,100399,,,instructions,"[{""page_index"":0,""viewing_time"":39366},{""page_index"":1,""viewing_time"":36714},{""page_index"":2,""viewing_time"":24316}]",38
,,,,,,,,,,,,,,68178,,68178,,,instructions,"[{""page_index"":0,""viewing_time"":27225},{""page_index"":1,""viewing_time"":26110},{""page_index"":2,""viewing_time"":14842}]",39
,,,,,,,,,,,,,,119277,,119279,,,instructions,"[{""page_index"":0,""viewing_time"":49474},{""page_index"":1,""viewing_time"":44736},{""page_index"":2,""viewing_time"":25067}]",40
,,,,,,,,,,,,,,95884,,95886,,,instructions,"[{""page_index"":0,""viewing_time"":64226},{""page_index"":1,""viewing_time"":23214},{""page_index"":2,""viewing_time"":8443}]",41
,,,,,,,,,,,,,,77881,,203224,,,instructions,"[{""page_index"":0,""viewing_time"":21793},{""page_index"":1,""viewing_time"":27754},{""page_index"":2,""viewing_time"":28333}]",41
,,,,,,,,,,,,,,109495,,109497,,,instructions,"[{""page_index"":0,""viewing_time"":60368},{""page_index"":1,""viewing_time"":29258},{""page_index"":2,""viewing_time"":19868}]",42
,,,,,,,,,,,,,,23801,,153690,,,instructions,"[{""page_index"":0,""viewing_time"":11108},{""page_index"":1,""viewing_time"":1153},{""page_index"":0,""viewing_time"":9352},{""page_index"":1,""viewing_time"":1530},{""page_index"":2,""viewing_time"":658}]",42
,,,,,,,,,,,,,,9397,,187098,,,instructions,"[{""page_index"":0,""viewing_time"":2997},{""page_index"":1,""viewing_time"":2400},{""page_index"":0,""viewing_time"":708},{""page_index"":1,""viewing_time"":580},{""page_index"":0,""viewing_time"":697},{""page_index"":1,""viewing_time"":1375},{""page_index"":2,""viewing_time"":640}]",42
,,,,,,,,,,,,,,167120,,167120,,,instructions,"[{""page_index"":0,""viewing_time"":111077},{""page_index"":1,""viewing_time"":36838},{""page_index"":2,""viewing_time"":19204}]",43
,,,,,,,,,,,,,,22579,,22579,,,instructions,"[{""page_index"":0,""viewing_time"":8788},{""page_index"":1,""viewing_time"":4944},{""page_index"":2,""viewing_time"":8846}]",44
,,,,,,,,,,,,,,23774,,64306,,,instructions,"[{""page_index"":0,""viewing_time"":6620},{""page_index"":1,""viewing_time"":10126},{""page_index"":2,""viewing_time"":7028}]",44
,,,,,,,,,,,,,,60782,,60783,,,instructions,"[{""page_index"":0,""viewing_time"":32473},{""page_index"":1,""viewing_time"":9716},{""page_index"":2,""viewing_time"":18592}]",45
,,,,,,,,,,,,,,59145,,153175,,,instructions,"[{""page_index"":0,""viewing_time"":23065},{""page_index"":1,""viewing_time"":21672},{""page_index"":2,""viewing_time"":14407}]",45
,,,,,,,,,,,,,,52540,,52542,,,instructions,"[{""page_index"":0,""viewing_time"":22934},{""page_index"":1,""viewing_time"":19974},{""page_index"":2,""viewing_time"":9631}]",46
,,,,,,,,,,,,,,65396,,65398,,,instructions,"[{""page_index"":0,""viewing_time"":24725},{""page_index"":1,""viewing_time"":30890},{""page_index"":2,""viewing_time"":9780}]",47
,,,,,,,,,,,,,,107309,,107310,,,instructions,"[{""page_index"":0,""viewing_time"":42671},{""page_index"":1,""viewing_time"":42426},{""page_index"":2,""viewing_time"":22209}]",48
,,,,,,,,,,,,,,9871,,153201,,,instructions,"[{""page_index"":0,""viewing_time"":3991},{""page_index"":1,""viewing_time"":5307},{""page_index"":2,""viewing_time"":572}]",48
,,,,,,,,,,,,,,38953,,38953,,,instructions,"[{""page_index"":0,""viewing_time"":12296},{""page_index"":1,""viewing_time"":13976},{""page_index"":2,""viewing_time"":12680}]",49
,,,,,,,,,,,,,,67658,,132533,,,instructions,"[{""page_index"":0,""viewing_time"":10077},{""page_index"":1,""viewing_time"":21400},{""page_index"":2,""viewing_time"":9532},{""page_index"":1,""viewing_time"":525},{""page_index"":0,""viewing_time"":19203},{""page_index"":1,""viewing_time"":4916},{""page_index"":2,""viewing_time"":2004}]",49
,,,,,,,,,,,,,,281595,,281596,,,instructions,"[{""page_index"":0,""viewing_time"":147666},{""page_index"":1,""viewing_time"":95151},{""page_index"":2,""viewing_time"":16451},{""page_index"":1,""viewing_time"":14177},{""page_index"":2,""viewing_time"":8149}]",50
,,,,,,,,,,,,,,76572,,384710,,,instructions,"[{""page_index"":0,""viewing_time"":34104},{""page_index"":1,""viewing_time"":26866},{""page_index"":2,""viewing_time"":15601}]",50
,,,,,,,,,,,,,,73897,,73898,,,instructions,"[{""page_index"":0,""viewing_time"":27448},{""page_index"":1,""viewing_time"":22311},{""page_index"":2,""viewing_time"":24136}]",51
,,,,,,,,,,,,,,152048,,258816,,,instructions,"[{""page_index"":0,""viewing_time"":68155},{""page_index"":1,""viewing_time"":73592},{""page_index"":2,""viewing_time"":10299}]",51
,,,,,,,,,,,,,,31975,,308183,,,instructions,"[{""page_index"":0,""viewing_time"":20057},{""page_index"":1,""viewing_time"":8247},{""page_index"":2,""viewing_time"":3670}]",51
,,,,,,,,,,,,,,111415,,111417,,,instructions,"[{""page_index"":0,""viewing_time"":52145},{""page_index"":1,""viewing_time"":42556},{""page_index"":2,""viewing_time"":16713}]",52
,,,,,,,,,,,,,,55482,,55488,,,instructions,"[{""page_index"":0,""viewing_time"":35637},{""page_index"":1,""viewing_time"":9492},{""page_index"":2,""viewing_time"":10344}]",53
,,,,,,,,,,,,,,63982,,159579,,,instructions,"[{""page_index"":0,""viewing_time"":21275},{""page_index"":1,""viewing_time"":25066},{""page_index"":2,""viewing_time"":17640}]",53
,,,,,,,,,,,,,,27086,,223293,,,instructions,"[{""page_index"":0,""viewing_time"":5508},{""page_index"":1,""viewing_time"":18348},{""page_index"":2,""viewing_time"":3229}]",53
,,,,,,,,,,,,,,119145,,356184,,,instructions,"[{""page_index"":0,""viewing_time"":62963},{""page_index"":1,""viewing_time"":33548},{""page_index"":2,""viewing_time"":22631}]",53
,,,,,,,,,,,,,,131921,,131923,,,instructions,"[{""page_index"":0,""viewing_time"":63374},{""page_index"":1,""viewing_time"":47432},{""page_index"":2,""viewing_time"":21113}]",54
,,,,,,,,,,,,,,144299,,144301,,,instructions,"[{""page_index"":0,""viewing_time"":58894},{""page_index"":1,""viewing_time"":51181},{""page_index"":2,""viewing_time"":34223}]",55
,,,,,,,,,,,,,,144930,,353914,,,instructions,"[{""page_index"":0,""viewing_time"":63252},{""page_index"":1,""viewing_time"":35888},{""page_index"":0,""viewing_time"":24025},{""page_index"":1,""viewing_time"":9308},{""page_index"":2,""viewing_time"":12456}]",55
,,,,,,,,,,,,,,86683,,86685,,,instructions,"[{""page_index"":0,""viewing_time"":31564},{""page_index"":1,""viewing_time"":32924},{""page_index"":2,""viewing_time"":22195}]",56
,,,,,,,,,,,,,,49616,,49618,,,instructions,"[{""page_index"":0,""viewing_time"":20641},{""page_index"":1,""viewing_time"":15207},{""page_index"":2,""viewing_time"":13766}]",57
,,,,,,,,,,,,,,149926,,149926,,,instructions,"[{""page_index"":0,""viewing_time"":71729},{""page_index"":1,""viewing_time"":43294},{""page_index"":2,""viewing_time"":34902}]",58
,,,,,,,,,,,,,,165559,,165560,,,instructions,"[{""page_index"":0,""viewing_time"":82096},{""page_index"":1,""viewing_time"":51310},{""page_index"":2,""viewing_time"":32149}]",59
,,,,,,,,,,,,,,227888,,227890,,,instructions,"[{""page_index"":0,""viewing_time"":92679},{""page_index"":1,""viewing_time"":98648},{""page_index"":2,""viewing_time"":36561}]",60
,,,,,,,,,,,,,,79694,,79695,,,instructions,"[{""page_index"":0,""viewing_time"":33660},{""page_index"":1,""viewing_time"":29239},{""page_index"":2,""viewing_time"":16794}]",61
,,,,,,,,,,,,,,43439,,43439,,,instructions,"[{""page_index"":0,""viewing_time"":17020},{""page_index"":1,""viewing_time"":15987},{""page_index"":2,""viewing_time"":10431}]",62
,,,,,,,,,,,,,,128407,,128409,,,instructions,"[{""page_index"":0,""viewing_time"":49588},{""page_index"":1,""viewing_time"":49651},{""page_index"":2,""viewing_time"":29167}]",63
,,,,,,,,,,,,,,64494,,225224,,,instructions,"[{""page_index"":0,""viewing_time"":4248},{""page_index"":1,""viewing_time"":9993},{""page_index"":2,""viewing_time"":11369},{""page_index"":1,""viewing_time"":1228},{""page_index"":0,""viewing_time"":9757},{""page_index"":1,""viewing_time"":17149},{""page_index"":2,""viewing_time"":10749}]",63
,,,,,,,,,,,,,,61319,,61322,,,instructions,"[{""page_index"":0,""viewing_time"":23593},{""page_index"":1,""viewing_time"":29011},{""page_index"":2,""viewing_time"":8713}]",64
,,,,,,,,,,,,,,127545,,127547,,,instructions,"[{""page_index"":0,""viewing_time"":50723},{""page_index"":1,""viewing_time"":46695},{""page_index"":2,""viewing_time"":30127}]",65
,,,,,,,,,,,,,,121484,,295923,,,instructions,"[{""page_index"":0,""viewing_time"":34740},{""page_index"":1,""viewing_time"":62663},{""page_index"":2,""viewing_time"":24080}]",65
,,,,,,,,,,,,,,169684,,169685,,,instructions,"[{""page_index"":0,""viewing_time"":81836},{""page_index"":1,""viewing_time"":56479},{""page_index"":2,""viewing_time"":31368}]",66
,,,,,,,,,,,,,,144286,,144292,,,instructions,"[{""page_index"":0,""viewing_time"":66949},{""page_index"":1,""viewing_time"":44690},{""page_index"":2,""viewing_time"":32642}]",67
,,,,,,,,,,,,,,113280,,113281,,,instructions,"[{""page_index"":0,""viewing_time"":69247},{""page_index"":1,""viewing_time"":29208},{""page_index"":2,""viewing_time"":14824}]",68
,,,,,,,,,,,,,,147053,,147055,,,instructions,"[{""page_index"":0,""viewing_time"":63541},{""page_index"":1,""viewing_time"":55839},{""page_index"":2,""viewing_time"":27672}]",69
,,,,,,,,,,,,,,45785,,45786,,,instructions,"[{""page_index"":0,""viewing_time"":20585},{""page_index"":1,""viewing_time"":9160},{""page_index"":2,""viewing_time"":16040}]",70
,,,,,,,,,,,,,,77415,,77418,,,instructions,"[{""page_index"":0,""viewing_time"":29751},{""page_index"":1,""viewing_time"":28495},{""page_index"":2,""viewing_time"":19167}]",71
,,,,,,,,,,,,,,58983,,58985,,,instructions,"[{""page_index"":0,""viewing_time"":40641},{""page_index"":1,""viewing_time"":9404},{""page_index"":2,""viewing_time"":8937}]",72
,,,,,,,,,,,,,,29917,,119260,,,instructions,"[{""page_index"":0,""viewing_time"":6757},{""page_index"":1,""viewing_time"":17095},{""page_index"":2,""viewing_time"":6065}]",72
,,,,,,,,,,,,,,181622,,181624,,,instructions,"[{""page_index"":0,""viewing_time"":161923},{""page_index"":1,""viewing_time"":11419},{""page_index"":2,""viewing_time"":8278}]",73
,,,,,,,,,,,,,,45787,,257482,,,instructions,"[{""page_index"":0,""viewing_time"":13424},{""page_index"":1,""viewing_time"":14470},{""page_index"":2,""viewing_time"":17892}]",73
,,,,,,,,,,,,,,145621,,145622,,,instructions,"[{""page_index"":0,""viewing_time"":57538},{""page_index"":1,""viewing_time"":59065},{""page_index"":2,""viewing_time"":29015}]",74
,,,,,,,,,,,,,,208514,,208515,,,instructions,"[{""page_index"":0,""viewing_time"":67937},{""page_index"":1,""viewing_time"":47128},{""page_index"":0,""viewing_time"":28094},{""page_index"":1,""viewing_time"":37304},{""page_index"":2,""viewing_time"":28050}]",75
,,,,,,,,,,,,,,173885,,173886,,,instructions,"[{""page_index"":0,""viewing_time"":72510},{""page_index"":1,""viewing_time"":68646},{""page_index"":2,""viewing_time"":32727}]",76
,,,,,,,,,,,,,,537225,,537227,,,instructions,"[{""page_index"":0,""viewing_time"":242832},{""page_index"":1,""viewing_time"":219261},{""page_index"":2,""viewing_time"":75132}]",77
,,,,,,,,,,,,,,34063,,609488,,,instructions,"[{""page_index"":0,""viewing_time"":25381},{""page_index"":1,""viewing_time"":6998},{""page_index"":2,""viewing_time"":1684}]",77
,,,,,,,,,,,,,,110886,,110888,,,instructions,"[{""page_index"":0,""viewing_time"":40443},{""page_index"":1,""viewing_time"":37450},{""page_index"":2,""viewing_time"":32992}]",78
,,,,,,,,,,,,,,191277,,191277,,,instructions,"[{""page_index"":0,""viewing_time"":89801},{""page_index"":1,""viewing_time"":81751},{""page_index"":2,""viewing_time"":19724}]",79
,,,,,,,,,,,,,,61334,,61335,,,instructions,"[{""page_index"":0,""viewing_time"":25793},{""page_index"":1,""viewing_time"":22448},{""page_index"":2,""viewing_time"":13091}]",80
,,,,,,,,,,,,,,282956,,282960,,,instructions,"[{""page_index"":0,""viewing_time"":107652},{""page_index"":1,""viewing_time"":66882},{""page_index"":2,""viewing_time"":108415}]",81
,,,,,,,,,,,,,,110296,,110297,,,instructions,"[{""page_index"":0,""viewing_time"":50313},{""page_index"":1,""viewing_time"":40677},{""page_index"":2,""viewing_time"":19305}]",82
,,,,,,,,,,,,,,131548,,131551,,,instructions,"[{""page_index"":0,""viewing_time"":64467},{""page_index"":1,""viewing_time"":45174},{""page_index"":2,""viewing_time"":21904}]",83
,,,,,,,,,,,,,,134001,,134002,,,instructions,"[{""page_index"":0,""viewing_time"":47742},{""page_index"":1,""viewing_time"":55411},{""page_index"":2,""viewing_time"":30847}]",84
,,,,,,,,,,,,,,9981,,172383,,,instructions,"[{""page_index"":0,""viewing_time"":2171},{""page_index"":1,""viewing_time"":6457},{""page_index"":2,""viewing_time"":1352}]",84
,,,,,,,,,,,,,,114379,,114379,,,instructions,"[{""page_index"":0,""viewing_time"":56827},{""page_index"":1,""viewing_time"":34969},{""page_index"":2,""viewing_time"":22583}]",85
,,,,,,,,,,,,,,19449,,162748,,,instructions,"[{""page_index"":0,""viewing_time"":12931},{""page_index"":1,""viewing_time"":4598},{""page_index"":2,""viewing_time"":1917}]",85
,,,,,,,,,,,,,,98605,,98606,,,instructions,"[{""page_index"":0,""viewing_time"":41716},{""page_index"":1,""viewing_time"":37424},{""page_index"":2,""viewing_time"":19464}]",86
,,,,,,,,,,,,,,100044,,100048,,,instructions,"[{""page_index"":0,""viewing_time"":39169},{""page_index"":1,""viewing_time"":34331},{""page_index"":2,""viewing_time"":26538}]",87
,,,,,,,,,,,,,,83129,,83129,,,instructions,"[{""page_index"":0,""viewing_time"":14299},{""page_index"":1,""viewing_time"":54603},{""page_index"":2,""viewing_time"":14227}]",88
,,,,,,,,,,,,,,77050,,77052,,,instructions,"[{""page_index"":0,""viewing_time"":30489},{""page_index"":1,""viewing_time"":22992},{""page_index"":2,""viewing_time"":23568}]",89
,,,,,,,,,,,,,,251154,,251154,,,instructions,"[{""page_index"":0,""viewing_time"":152153},{""page_index"":1,""viewing_time"":37185},{""page_index"":2,""viewing_time"":19567},{""page_index"":1,""viewing_time"":41513},{""page_index"":2,""viewing_time"":735}]",90
,,,,,,,,,,,,,,119603,,119605,,,instructions,"[{""page_index"":0,""viewing_time"":49032},{""page_index"":1,""viewing_time"":42041},{""page_index"":2,""viewing_time"":28529}]",91
,,,,,,,,,,,,,,133653,,133656,,,instructions,"[{""page_index"":0,""viewing_time"":58937},{""page_index"":1,""viewing_time"":50606},{""page_index"":2,""viewing_time"":24108}]",92
,,,,,,,,,,,,,,87141,,87143,,,instructions,"[{""page_index"":0,""viewing_time"":33026},{""page_index"":1,""viewing_time"":37243},{""page_index"":2,""viewing_time"":16871}]",93
,,,,,,,,,,,,,,196570,,196572,,,instructions,"[{""page_index"":0,""viewing_time"":107112},{""page_index"":1,""viewing_time"":58421},{""page_index"":2,""viewing_time"":31036}]",94
,,,,,,,,,,,,,,77056,,77057,,,instructions,"[{""page_index"":0,""viewing_time"":25191},{""page_index"":1,""viewing_time"":30719},{""page_index"":2,""viewing_time"":21143}]",95
,,,,,,,,,,,,,,93744,,93745,,,instructions,"[{""page_index"":0,""viewing_time"":25094},{""page_index"":1,""viewing_time"":45933},{""page_index"":2,""viewing_time"":22713}]",96
,,,,,,,,,,,,,,254173,,254174,,,instructions,"[{""page_index"":0,""viewing_time"":190642},{""page_index"":1,""viewing_time"":32243},{""page_index"":2,""viewing_time"":31286}]",97
,,,,,,,,,,,,,,5255,,5256,,,instructions,"[{""page_index"":0,""viewing_time"":2023},{""page_index"":1,""viewing_time"":1688},{""page_index"":2,""viewing_time"":1544}]",98
,,,,,,,,,,,,,,28894,,65600,,,instructions,"[{""page_index"":0,""viewing_time"":11782},{""page_index"":1,""viewing_time"":12008},{""page_index"":2,""viewing_time"":5104}]",98
,,,,,,,,,,,,,,108507,,108507,,,instructions,"[{""page_index"":0,""viewing_time"":49569},{""page_index"":1,""viewing_time"":37396},{""page_index"":2,""viewing_time"":21541}]",99
,,,,,,,,,,,,,,51196,,51196,,,instructions,"[{""page_index"":0,""viewing_time"":17523},{""page_index"":1,""viewing_time"":19921},{""page_index"":2,""viewing_time"":13751}]",100
,,,,,,,,,,,,,,20417,,94739,,,instructions,"[{""page_index"":0,""viewing_time"":8605},{""page_index"":1,""viewing_time"":8629},{""page_index"":2,""viewing_time"":3183}]",100
,,,,,,,,,,,,,,78212,,78212,,,instructions,"[{""page_index"":0,""viewing_time"":33835},{""page_index"":1,""viewing_time"":33296},{""page_index"":2,""viewing_time"":11080}]",101
,,,,,,,,,,,,,,147746,,147748,,,instructions,"[{""page_index"":0,""viewing_time"":57708},{""page_index"":1,""viewing_time"":56073},{""page_index"":2,""viewing_time"":33964}]",102
,,,,,,,,,,,,,,119190,,119191,,,instructions,"[{""page_index"":0,""viewing_time"":55961},{""page_index"":1,""viewing_time"":40628},{""page_index"":2,""viewing_time"":22601}]",103
,,,,,,,,,,,,,,113003,,113011,,,instructions,"[{""page_index"":0,""viewing_time"":21219},{""page_index"":1,""viewing_time"":6596},{""page_index"":2,""viewing_time"":3075},{""page_index"":1,""viewing_time"":25331},{""page_index"":0,""viewing_time"":14551},{""page_index"":1,""viewing_time"":1952},{""page_index"":0,""viewing_time"":3203},{""page_index"":1,""viewing_time"":16318},{""page_index"":0,""viewing_time"":17937},{""page_index"":1,""viewing_time"":1141},{""page_index"":2,""viewing_time"":1668}]",104
,,,,,,,,,,,,,,39610,,39623,,,instructions,"[{""page_index"":0,""viewing_time"":17832},{""page_index"":1,""viewing_time"":11167},{""page_index"":2,""viewing_time"":10599}]",105
,,,,,,,,,,,,,,35331,,100357,,,instructions,"[{""page_index"":0,""viewing_time"":8361},{""page_index"":1,""viewing_time"":16776},{""page_index"":2,""viewing_time"":10193}]",105
,,,,,,,,,,,,,,125740,,125742,,,instructions,"[{""page_index"":0,""viewing_time"":45668},{""page_index"":1,""viewing_time"":52167},{""page_index"":2,""viewing_time"":27904}]",106
,,,,,,,,,,,,,,129854,,129856,,,instructions,"[{""page_index"":0,""viewing_time"":55316},{""page_index"":1,""viewing_time"":50016},{""page_index"":2,""viewing_time"":24520}]",107
,,,,,,,,,,,,,,94421,,94423,,,instructions,"[{""page_index"":0,""viewing_time"":73908},{""page_index"":1,""viewing_time"":13821},{""page_index"":2,""viewing_time"":6692}]",108
,,,,,,,,,,,,,,37046,,149740,,,instructions,"[{""page_index"":0,""viewing_time"":8973},{""page_index"":1,""viewing_time"":7474},{""page_index"":2,""viewing_time"":4177},{""page_index"":1,""viewing_time"":11601},{""page_index"":0,""viewing_time"":3804},{""page_index"":1,""viewing_time"":633},{""page_index"":2,""viewing_time"":383}]",108
,,,,,,,,,,,,,,93527,,93527,,,instructions,"[{""page_index"":0,""viewing_time"":39553},{""page_index"":1,""viewing_time"":33318},{""page_index"":2,""viewing_time"":20655}]",109
,,,,,,,,,,,,,,84929,,84931,,,instructions,"[{""page_index"":0,""viewing_time"":31689},{""page_index"":1,""viewing_time"":1508},{""page_index"":2,""viewing_time"":1292},{""page_index"":1,""viewing_time"":3816},{""page_index"":2,""viewing_time"":22106},{""page_index"":1,""viewing_time"":565},{""page_index"":0,""viewing_time"":4764},{""page_index"":1,""viewing_time"":17709},{""page_index"":2,""viewing_time"":1477}]",110
,,,,,,,,,,,,,,13606,,121167,,,instructions,"[{""page_index"":0,""viewing_time"":9531},{""page_index"":1,""viewing_time"":409},{""page_index"":0,""viewing_time"":736},{""page_index"":1,""viewing_time"":619},{""page_index"":0,""viewing_time"":849},{""page_index"":1,""viewing_time"":903},{""page_index"":2,""viewing_time"":558}]",110
,,,,,,,,,,,,,,251349,,251351,,,instructions,"[{""page_index"":0,""viewing_time"":68173},{""page_index"":1,""viewing_time"":50510},{""page_index"":2,""viewing_time"":35328},{""page_index"":1,""viewing_time"":3237},{""page_index"":0,""viewing_time"":85444},{""page_index"":1,""viewing_time"":4188},{""page_index"":2,""viewing_time"":4468}]",111
,,,,,,,,,,,,,,65945,,65947,,,instructions,"[{""page_index"":0,""viewing_time"":23233},{""page_index"":1,""viewing_time"":23108},{""page_index"":2,""viewing_time"":19603}]",112
,,,,,,,,,,,,,,288333,,288335,,,instructions,"[{""page_index"":0,""viewing_time"":50563},{""page_index"":1,""viewing_time"":210360},{""page_index"":2,""viewing_time"":27408}]",113
,,,,,,,,,,,,,,7552,,7554,,,instructions,"[{""page_index"":0,""viewing_time"":3680},{""page_index"":1,""viewing_time"":2808},{""page_index"":2,""viewing_time"":1064}]",114
,,,,,,,,,,,,,,68247,,68247,,,instructions,"[{""page_index"":0,""viewing_time"":26228},{""page_index"":1,""viewing_time"":35370},{""page_index"":2,""viewing_time"":6648}]",115
,,,,,,,,,,,,,,17484,,110481,,,instructions,"[{""page_index"":0,""viewing_time"":1158},{""page_index"":1,""viewing_time"":4851},{""page_index"":2,""viewing_time"":11475}]",115
,,,,,,,,,,,,,,122956,,122963,,,instructions,"[{""page_index"":0,""viewing_time"":52548},{""page_index"":1,""viewing_time"":63744},{""page_index"":2,""viewing_time"":6662}]",116
,,,,,,,,,,,,,,47675,,204586,,,instructions,"[{""page_index"":0,""viewing_time"":17603},{""page_index"":1,""viewing_time"":8000},{""page_index"":2,""viewing_time"":22071}]",116
,,,,,,,,,,,,,,117206,,370725,,,instructions,"[{""page_index"":0,""viewing_time"":21073},{""page_index"":1,""viewing_time"":87648},{""page_index"":2,""viewing_time"":8484}]",116
,,,,,,,,,,,,,,57013,,57014,,,instructions,"[{""page_index"":0,""viewing_time"":18901},{""page_index"":1,""viewing_time"":24559},{""page_index"":2,""viewing_time"":13552}]",117
,,,,,,,,,,,,,,30278,,108989,,,instructions,"[{""page_index"":0,""viewing_time"":14781},{""page_index"":1,""viewing_time"":13440},{""page_index"":2,""viewing_time"":2056}]",117
,,,,,,,,,,,,,,219311,,219314,,,instructions,"[{""page_index"":0,""viewing_time"":179286},{""page_index"":1,""viewing_time"":23334},{""page_index"":2,""viewing_time"":16690}]",118
,,,,,,,,,,,,,,142828,,489665,,,instructions,"[{""page_index"":0,""viewing_time"":39563},{""page_index"":1,""viewing_time"":48681},{""page_index"":2,""viewing_time"":54583}]",118
,,,,,,,,,,,,,,99331,,99333,,,instructions,"[{""page_index"":0,""viewing_time"":51797},{""page_index"":1,""viewing_time"":33997},{""page_index"":2,""viewing_time"":13533}]",119
,,,,,,,,,,,,,,90968,,90968,,,instructions,"[{""page_index"":0,""viewing_time"":26217},{""page_index"":1,""viewing_time"":42009},{""page_index"":2,""viewing_time"":22741}]",120
,,,,,,,,,,,,,,39800,,157959,,,instructions,"[{""page_index"":0,""viewing_time"":25733},{""page_index"":1,""viewing_time"":11916},{""page_index"":2,""viewing_time"":2150}]",120
,,,,,,,,,,,,,,269504,,269510,,,instructions,"[{""page_index"":0,""viewing_time"":115568},{""page_index"":1,""viewing_time"":31917},{""page_index"":0,""viewing_time"":23309},{""page_index"":1,""viewing_time"":66027},{""page_index"":2,""viewing_time"":32678}]",121
,,,,,,,,,,,,,,109227,,109228,,,instructions,"[{""page_index"":0,""viewing_time"":25725},{""page_index"":1,""viewing_time"":68228},{""page_index"":2,""viewing_time"":15273}]",122
,,,,,,,,,,,,,,172963,,172965,,,instructions,"[{""page_index"":0,""viewing_time"":35334},{""page_index"":1,""viewing_time"":116528},{""page_index"":2,""viewing_time"":21098}]",123
,,,,,,,,,,,,,,121177,,121179,,,instructions,"[{""page_index"":0,""viewing_time"":59817},{""page_index"":1,""viewing_time"":37045},{""page_index"":2,""viewing_time"":24312}]",124
,,,,,,,,,,,,,,22192,,167394,,,instructions,"[{""page_index"":0,""viewing_time"":7192},{""page_index"":1,""viewing_time"":11252},{""page_index"":2,""viewing_time"":3747}]",124
,,,,,,,,,,,,,,120337,,120339,,,instructions,"[{""page_index"":0,""viewing_time"":60548},{""page_index"":1,""viewing_time"":22191},{""page_index"":2,""viewing_time"":12726},{""page_index"":1,""viewing_time"":12969},{""page_index"":2,""viewing_time"":11902}]",125
,,,,,,,,,,,,,,42973,,42974,,,instructions,"[{""page_index"":0,""viewing_time"":12512},{""page_index"":1,""viewing_time"":11596},{""page_index"":2,""viewing_time"":18864}]",126
,,,,,,,,,,,,,,96306,,96308,,,instructions,"[{""page_index"":0,""viewing_time"":38758},{""page_index"":1,""viewing_time"":40718},{""page_index"":2,""viewing_time"":16828}]",127
,,,,,,,,,,,,,,83274,,83277,,,instructions,"[{""page_index"":0,""viewing_time"":13724},{""page_index"":1,""viewing_time"":34475},{""page_index"":2,""viewing_time"":13819},{""page_index"":1,""viewing_time"":14254},{""page_index"":2,""viewing_time"":7000}]",128
,,,,,,,,,,,,,,76142,,76144,,,instructions,"[{""page_index"":0,""viewing_time"":30706},{""page_index"":1,""viewing_time"":35629},{""page_index"":2,""viewing_time"":9806}]",129
,,,,,,,,,,,,,,98403,,98404,,,instructions,"[{""page_index"":0,""viewing_time"":61757},{""page_index"":1,""viewing_time"":25118},{""page_index"":2,""viewing_time"":11528}]",130
,,,,,,,,,,,,,,198661,,339538,,,instructions,"[{""page_index"":0,""viewing_time"":98904},{""page_index"":1,""viewing_time"":57729},{""page_index"":2,""viewing_time"":42028}]",130
,,,,,,,,,,,,,,40475,,40475,,,instructions,"[{""page_index"":0,""viewing_time"":20171},{""page_index"":1,""viewing_time"":8415},{""page_index"":2,""viewing_time"":11888}]",131
,,,,,,,,,,,,,,11542,,66777,,,instructions,"[{""page_index"":0,""viewing_time"":6654},{""page_index"":1,""viewing_time"":3736},{""page_index"":2,""viewing_time"":1152}]",131
,,,,,,,,,,,,,,38178,,38179,,,instructions,"[{""page_index"":0,""viewing_time"":3585},{""page_index"":1,""viewing_time"":965},{""page_index"":2,""viewing_time"":6283},{""page_index"":1,""viewing_time"":4578},{""page_index"":0,""viewing_time"":1937},{""page_index"":1,""viewing_time"":10220},{""page_index"":2,""viewing_time"":10608}]",132
,,,,,,,,,,,,,,144991,,144993,,,instructions,"[{""page_index"":0,""viewing_time"":75845},{""page_index"":1,""viewing_time"":38334},{""page_index"":2,""viewing_time"":30806}]",133
,,,,,,,,,,,,,,88448,,88449,,,instructions,"[{""page_index"":0,""viewing_time"":48803},{""page_index"":1,""viewing_time"":26477},{""page_index"":2,""viewing_time"":13167}]",134
,,,,,,,,,,,,,,79685,,79687,,,instructions,"[{""page_index"":0,""viewing_time"":12834},{""page_index"":1,""viewing_time"":24927},{""page_index"":2,""viewing_time"":41923}]",135
,,,,,,,,,,,,,,69060,,69061,,,instructions,"[{""page_index"":0,""viewing_time"":31807},{""page_index"":1,""viewing_time"":12221},{""page_index"":2,""viewing_time"":25031}]",136
,,,,,,,,,,,,,,68190,,171222,,,instructions,"[{""page_index"":0,""viewing_time"":7768},{""page_index"":1,""viewing_time"":9949},{""page_index"":2,""viewing_time"":16069},{""page_index"":1,""viewing_time"":427},{""page_index"":0,""viewing_time"":15179},{""page_index"":1,""viewing_time"":16011},{""page_index"":2,""viewing_time"":2786}]",136
,,,,,,,,,,,,,,61001,,252318,,,instructions,"[{""page_index"":0,""viewing_time"":57178},{""page_index"":1,""viewing_time"":3011},{""page_index"":2,""viewing_time"":811}]",136
,,,,,,,,,,,,,,106872,,106875,,,instructions,"[{""page_index"":0,""viewing_time"":46997},{""page_index"":1,""viewing_time"":33628},{""page_index"":2,""viewing_time"":26243}]",137
,,,,,,,,,,,,,,44668,,182528,,,instructions,"[{""page_index"":0,""viewing_time"":21590},{""page_index"":1,""viewing_time"":14396},{""page_index"":2,""viewing_time"":8680}]",137
,,,,,,,,,,,,,,304267,,304270,,,instructions,"[{""page_index"":0,""viewing_time"":125466},{""page_index"":1,""viewing_time"":168496},{""page_index"":2,""viewing_time"":10303}]",138
,,,,,,,,,,,,,,22083,,346532,,,instructions,"[{""page_index"":0,""viewing_time"":5098},{""page_index"":1,""viewing_time"":9015},{""page_index"":2,""viewing_time"":7968}]",138
,,,,,,,,,,,,,,32225,,32231,,,instructions,"[{""page_index"":0,""viewing_time"":12238},{""page_index"":1,""viewing_time"":10420},{""page_index"":2,""viewing_time"":9565}]",139
,,,,,,,,,,,,,,62409,,62411,,,instructions,"[{""page_index"":0,""viewing_time"":42161},{""page_index"":1,""viewing_time"":14568},{""page_index"":2,""viewing_time"":5679}]",140
,,,,,,,,,,,,,,62956,,155328,,,instructions,"[{""page_index"":0,""viewing_time"":7565},{""page_index"":1,""viewing_time"":33959},{""page_index"":2,""viewing_time"":21431}]",140
,,,,,,,,,,,,,,61371,,61373,,,instructions,"[{""page_index"":0,""viewing_time"":25886},{""page_index"":1,""viewing_time"":15027},{""page_index"":2,""viewing_time"":20457}]",141
,,,,,,,,,,,,,,36019,,126011,,,instructions,"[{""page_index"":0,""viewing_time"":10995},{""page_index"":1,""viewing_time"":17600},{""page_index"":2,""viewing_time"":7424}]",141
,,,,,,,,,,,,,,23117,,172260,,,instructions,"[{""page_index"":0,""viewing_time"":16135},{""page_index"":1,""viewing_time"":5124},{""page_index"":2,""viewing_time"":1858}]",141
,,,,,,,,,,,,,,4945,,188546,,,instructions,"[{""page_index"":0,""viewing_time"":2769},{""page_index"":1,""viewing_time"":782},{""page_index"":2,""viewing_time"":1394}]",141
,,,,,,,,,,,,,,4039,,227006,,,instructions,"[{""page_index"":0,""viewing_time"":1732},{""page_index"":1,""viewing_time"":958},{""page_index"":2,""viewing_time"":1348}]",141
,,,,,,,,,,,,,,25720,,25721,,,instructions,"[{""page_index"":0,""viewing_time"":12743},{""page_index"":1,""viewing_time"":7938},{""page_index"":2,""viewing_time"":5038}]",142
,,,,,,,,,,,,,,33466,,89932,,,instructions,"[{""page_index"":0,""viewing_time"":4754},{""page_index"":1,""viewing_time"":13463},{""page_index"":2,""viewing_time"":15248}]",142
,,,,,,,,,,,,,,106290,,106291,,,instructions,"[{""page_index"":0,""viewing_time"":32204},{""page_index"":1,""viewing_time"":50559},{""page_index"":2,""viewing_time"":23526}]",143
,,,,,,,,,,,,,,48908,,48909,,,instructions,"[{""page_index"":0,""viewing_time"":13428},{""page_index"":1,""viewing_time"":22792},{""page_index"":2,""viewing_time"":12687}]",144
,,,,,,,,,,,,,,137010,,137013,,,instructions,"[{""page_index"":0,""viewing_time"":73294},{""page_index"":1,""viewing_time"":9608},{""page_index"":2,""viewing_time"":54106}]",145
,,,,,,,,,,,,,,96132,,262229,,,instructions,"[{""page_index"":0,""viewing_time"":29909},{""page_index"":1,""viewing_time"":55769},{""page_index"":2,""viewing_time"":10453}]",145
,,,,,,,,,,,,,,56913,,56914,,,instructions,"[{""page_index"":0,""viewing_time"":19456},{""page_index"":1,""viewing_time"":29952},{""page_index"":2,""viewing_time"":7504}]",146
,,,,,,,,,,,,,,92502,,92505,,,instructions,"[{""page_index"":0,""viewing_time"":45067},{""page_index"":1,""viewing_time"":30835},{""page_index"":2,""viewing_time"":16598}]",147
,,,,,,,,,,,,,,143774,,143774,,,instructions,"[{""page_index"":0,""viewing_time"":59757},{""page_index"":1,""viewing_time"":43005},{""page_index"":2,""viewing_time"":27750},{""page_index"":1,""viewing_time"":11941},{""page_index"":2,""viewing_time"":1320}]",148
,,,,,,,,,,,,,,267633,,267634,,,instructions,"[{""page_index"":0,""viewing_time"":74685},{""page_index"":1,""viewing_time"":55209},{""page_index"":0,""viewing_time"":57263},{""page_index"":1,""viewing_time"":40305},{""page_index"":2,""viewing_time"":40170}]",149
,,,,,,,,,,,,,,115325,,115326,,,instructions,"[{""page_index"":0,""viewing_time"":47227},{""page_index"":1,""viewing_time"":3799},{""page_index"":0,""viewing_time"":8630},{""page_index"":1,""viewing_time"":35928},{""page_index"":2,""viewing_time"":19740}]",150
,,,,,,,,,,,,,,22602,,163157,,,instructions,"[{""page_index"":0,""viewing_time"":4293},{""page_index"":1,""viewing_time"":12949},{""page_index"":2,""viewing_time"":5359}]",150
,,,,,,,,,,,,,,158024,,158026,,,instructions,"[{""page_index"":0,""viewing_time"":58285},{""page_index"":1,""viewing_time"":67480},{""page_index"":2,""viewing_time"":32257}]",151
,,,,,,,,,,,,,,66849,,66851,,,instructions,"[{""page_index"":0,""viewing_time"":47009},{""page_index"":1,""viewing_time"":11376},{""page_index"":2,""viewing_time"":8463}]",152
,,,,,,,,,,,,,,73401,,73403,,,instructions,"[{""page_index"":0,""viewing_time"":34532},{""page_index"":1,""viewing_time"":23601},{""page_index"":2,""viewing_time"":15267}]",153
,,,,,,,,,,,,,,19319,,125515,,,instructions,"[{""page_index"":0,""viewing_time"":13731},{""page_index"":1,""viewing_time"":4027},{""page_index"":2,""viewing_time"":1560}]",153
,,,,,,,,,,,,,,57122,,57122,,,instructions,"[{""page_index"":0,""viewing_time"":21752},{""page_index"":1,""viewing_time"":19208},{""page_index"":2,""viewing_time"":16161}]",154
,,,,,,,,,,,,,,516413,,596832,,,instructions,"[{""page_index"":0,""viewing_time"":468781},{""page_index"":1,""viewing_time"":36236},{""page_index"":2,""viewing_time"":11396}]",154
,,,,,,,,,,,,,,155943,,772473,,,instructions,"[{""page_index"":0,""viewing_time"":135123},{""page_index"":1,""viewing_time"":8440},{""page_index"":2,""viewing_time"":12380}]",154
,,,,,,,,,,,,,,272104,,272104,,,instructions,"[{""page_index"":0,""viewing_time"":117056},{""page_index"":1,""viewing_time"":113518},{""page_index"":2,""viewing_time"":10062},{""page_index"":1,""viewing_time"":1711},{""page_index"":2,""viewing_time"":29756}]",155
,,,,,,,,,,,,,,85298,,85307,,,instructions,"[{""page_index"":0,""viewing_time"":37407},{""page_index"":1,""viewing_time"":22571},{""page_index"":2,""viewing_time"":25309}]",156
,,,,,,,,,,,,,,32691,,150170,,,instructions,"[{""page_index"":0,""viewing_time"":11965},{""page_index"":1,""viewing_time"":2010},{""page_index"":0,""viewing_time"":3730},{""page_index"":1,""viewing_time"":13840},{""page_index"":2,""viewing_time"":1140}]",156
