p_rdata,action_times,actions,beliefs,correct,delays,information_used_correctly,meta_actions,path,planned_too_little,planned_too_much,queries,questions,responses,rt,score,time_elapsed,trial_index,trial_id,trial_type,view_history,pid
"[{u'Q': 36, u'action': u'__TERM_ACTION__', u'Qs': {u'1': 28, u'9': 36, u'13': -4, u'5': 20}, u'state': [0, u'__', u'__', u'__', u'__', u'__', u'__', u'__', u'__', u'__', u'__', u'__', u'__', u'__', u'__', u'__', u'__'], u'V': 36}]","[11110, 21589, 24404]","[u'2', u'2', u'3']","[[0, u'__', u'__', u'__', u'__', u'__', u'__', u'__', u'__', u'__', u'__', u'__', u'__', u'__', u'__', u'__', u'__']]",,[5],[True],[u'__TERM_ACTION__'],"[9, 10, 11]",[False],[False],"{u'mouseover': {u'state': {u'target': [], u'time': []}, u'edge': {u'target': [], u'time': []}}, u'click': {u'state': {u'target': [], u'time': []}, u'edge': {u'target': [], u'time': []}}, u'mouseout': {u'state': {u'target': [], u'time': []}, u'edge': {u'target': [], u'time': []}}}",,,"[11109, 4956, 2323]",20.0,145041,1.0,2.0,mouselab-mdp,,0
"[{u'Q': 4, u'action': u'__TERM_ACTION__', u'Qs': {u'1': -28, u'9': -4, u'13': 12, u'5': 4}, u'state': [0, u'__', u'__', u'__', u'__', u'__', u'__', u'__', u'__', u'__', u'__', u'__', u'__', u'__', u'__', u'__', u'__'], u'V': 12}]","[6056, 12264, 13543]","[u'1', u'1', u'0']","[[0, u'__', u'__', u'__', u'__', u'__', u'__', u'__', u'__', u'__', u'__', u'__', u'__', u'__', u'__', u'__', u'__']]",,[5],[True],[u'__TERM_ACTION__'],"[5, 6, 8]",[True],[False],"{u'mouseover': {u'state': {u'target': [], u'time': []}, u'edge': {u'target': [], u'time': []}}, u'click': {u'state': {u'target': [], u'time': []}, u'edge': {u'target': [], u'time': []}}, u'mouseout': {u'state': {u'target': [], u'time': []}, u'edge': {u'target': [], u'time': []}}}",,,"[6056, 703, 790]",4.0,194209,2.0,9.0,mouselab-mdp,,0
"[{u'Q': 28, u'action': u'__TERM_ACTION__', u'Qs': {u'1': 20, u'9': -44, u'13': 28, u'5': 20}, u'state': [0, u'__', u'__', u'__', u'__', u'__', u'__', u'__', u'__', u'__', u'__', u'__', u'__', u'__', u'__', u'__', u'__'], u'V': 28}]","[3214, 9344, 10734]","[u'3', u'3', u'2']","[[0, u'__', u'__', u'__', u'__', u'__', u'__', u'__', u'__', u'__', u'__', u'__', u'__', u'__', u'__', u'__', u'__']]",,[5],[True],[u'__TERM_ACTION__'],"[13, 14, 16]",[False],[False],"{u'mouseover': {u'state': {u'target': [], u'time': []}, u'edge': {u'target': [], u'time': []}}, u'click': {u'state': {u'target': [], u'time': []}, u'edge': {u'target': [], u'time': []}}, u'mouseout': {u'state': {u'target': [], u'time': []}, u'edge': {u'target': [], u'time': []}}}",,,"[3213, 633, 896]",28.0,242991,3.0,7.0,mouselab-mdp,,0
"[{u'Q': 20, u'action': u'__TERM_ACTION__', u'Qs': {u'1': 20, u'9': 28, u'13': -4, u'5': 28}, u'state': [0, 12, u'__', u'__', u'__', u'__', u'__', u'__', u'__', u'__', u'__', u'__', u'__', u'__', u'__', u'__', u'__'], u'V': 28}]","[4350, 10383, 12382]","[u'0', u'0', u'1']","[[0, u'__', u'__', u'__', u'__', u'__', u'__', u'__', u'__', u'__', u'__', u'__', u'__', u'__', u'__', u'__', u'__'], [0, 12, u'__', u'__', u'__', u'__', u'__', u'__', u'__', u'__', u'__', u'__', u'__', u'__', u'__', u'__', u'__']]",,[5],[True],"[1, u'__TERM_ACTION__']","[1, 2, 3]",[True],[False],"{u'mouseover': {u'state': {u'target': [], u'time': []}, u'edge': {u'target': [], u'time': []}}, u'click': {u'state': {u'target': [1], u'time': [2880]}, u'edge': {u'target': [], u'time': []}}, u'mouseout': {u'state': {u'target': [], u'time': []}, u'edge': {u'target': [], u'time': []}}}",,,"[4350, 526, 1499]",17.05,290880,4.0,5.0,mouselab-mdp,,0
"[{u'Q': 28, u'action': u'__TERM_ACTION__', u'Qs': {u'1': 20, u'9': 28, u'13': 12, u'5': 12}, u'state': [0, u'__', u'__', u'__', u'__', u'__', u'__', u'__', u'__', u'__', u'__', u'__', u'__', u'__', u'__', u'__', u'__'], u'V': 28}]","[618, 6618, 7722]","[u'2', u'2', u'3']","[[0, u'__', u'__', u'__', u'__', u'__', u'__', u'__', u'__', u'__', u'__', u'__', u'__', u'__', u'__', u'__', u'__']]",,[5],[True],[u'__TERM_ACTION__'],"[9, 10, 11]",[False],[False],"{u'mouseover': {u'state': {u'target': [], u'time': []}, u'edge': {u'target': [], u'time': []}}, u'click': {u'state': {u'target': [], u'time': []}, u'edge': {u'target': [], u'time': []}}, u'mouseout': {u'state': {u'target': [], u'time': []}, u'edge': {u'target': [], u'time': []}}}",,,"[618, 501, 613]",-4.0,338783,5.0,6.0,mouselab-mdp,,0
"[{u'Q': 20, u'action': u'__TERM_ACTION__', u'Qs': {u'1': 20, u'9': 12, u'13': -4, u'5': 28}, u'state': [0, u'__', u'__', u'__', u'__', u'__', u'__', u'__', u'__', u'__', u'__', u'__', u'__', u'__', u'__', u'__', u'__'], u'V': 28}]","[2444, 8219, 10410]","[u'0', u'0', u'1']","[[0, u'__', u'__', u'__', u'__', u'__', u'__', u'__', u'__', u'__', u'__', u'__', u'__', u'__', u'__', u'__', u'__']]",,[5],[True],[u'__TERM_ACTION__'],"[1, 2, 3]",[True],[False],"{u'mouseover': {u'state': {u'target': [], u'time': []}, u'edge': {u'target': [], u'time': []}}, u'click': {u'state': {u'target': [], u'time': []}, u'edge': {u'target': [], u'time': []}}, u'mouseout': {u'state': {u'target': [], u'time': []}, u'edge': {u'target': [], u'time': []}}}",,,"[2444, 275, 1690]",12.0,387023,6.0,14.0,mouselab-mdp,,0
"[{u'Q': 36, u'action': u'__TERM_ACTION__', u'Qs': {u'1': -12, u'9': 12, u'13': -4, u'5': 36}, u'state': [0, u'__', u'__', u'__', u'__', u'__', u'__', u'__', u'__', u'__', u'__', u'__', u'__', u'__', u'__', u'__', u'__'], u'V': 36}]","[419, 6260, 7909]","[u'1', u'1', u'2']","[[0, u'__', u'__', u'__', u'__', u'__', u'__', u'__', u'__', u'__', u'__', u'__', u'__', u'__', u'__', u'__', u'__']]",,[5],[True],[u'__TERM_ACTION__'],"[5, 6, 7]",[False],[False],"{u'mouseover': {u'state': {u'target': [], u'time': []}, u'edge': {u'target': [], u'time': []}}, u'click': {u'state': {u'target': [], u'time': []}, u'edge': {u'target': [], u'time': []}}, u'mouseout': {u'state': {u'target': [], u'time': []}, u'edge': {u'target': [], u'time': []}}}",,,"[419, 341, 1147]",28.0,438270,7.0,1.0,mouselab-mdp,,0
"[{u'Q': -4, u'action': u'__TERM_ACTION__', u'Qs': {u'1': -4, u'9': 4, u'13': 4, u'5': -28}, u'state': [0, u'__', u'__', u'__', u'__', u'__', u'__', u'__', u'__', u'__', u'__', u'__', u'__', u'__', u'__', u'__', u'__'], u'V': 4}]","[973, 11165, 13341]","[u'0', u'0', u'3']","[[0, u'__', u'__', u'__', u'__', u'__', u'__', u'__', u'__', u'__', u'__', u'__', u'__', u'__', u'__', u'__', u'__']]",,[5],[True],[u'__TERM_ACTION__'],"[1, 2, 4]",[True],[False],"{u'mouseover': {u'state': {u'target': [], u'time': []}, u'edge': {u'target': [], u'time': []}}, u'click': {u'state': {u'target': [], u'time': []}, u'edge': {u'target': [], u'time': []}}, u'mouseout': {u'state': {u'target': [], u'time': []}, u'edge': {u'target': [], u'time': []}}}",,,"[973, 4698, 1675]",-4.0,502896,8.0,0.0,mouselab-mdp,,0
"[{u'Q': -4, u'action': u'__TERM_ACTION__', u'Qs': {u'1': 20, u'9': 36, u'13': -4, u'5': -4}, u'state': [0, u'__', u'__', u'__', u'__', u'__', u'__', u'__', u'__', u'__', u'__', u'__', u'__', u'__', u'__', u'__', u'__'], u'V': 36}]","[1950, 8109, 9839]","[u'3', u'3', u'2']","[[0, u'__', u'__', u'__', u'__', u'__', u'__', u'__', u'__', u'__', u'__', u'__', u'__', u'__', u'__', u'__', u'__']]",,[5],[True],[u'__TERM_ACTION__'],"[13, 14, 16]",[True],[False],"{u'mouseover': {u'state': {u'target': [], u'time': []}, u'edge': {u'target': [], u'time': []}}, u'click': {u'state': {u'target': [], u'time': []}, u'edge': {u'target': [], u'time': []}}, u'mouseout': {u'state': {u'target': [], u'time': []}, u'edge': {u'target': [], u'time': []}}}",,,"[1950, 658, 1227]",-4.0,548877,9.0,12.0,mouselab-mdp,,0
"[{u'Q': 4, u'action': u'__TERM_ACTION__', u'Qs': {u'1': 12, u'9': 36, u'13': 28, u'5': 4}, u'state': [0, u'__', u'__', u'__', u'__', u'__', u'__', u'__', u'__', u'__', u'__', u'__', u'__', u'__', u'__', u'__', u'__'], u'V': 36}]","[1864, 7912, 9111]","[u'1', u'1', u'0']","[[0, u'__', u'__', u'__', u'__', u'__', u'__', u'__', u'__', u'__', u'__', u'__', u'__', u'__', u'__', u'__', u'__']]",,[5],[True],[u'__TERM_ACTION__'],"[5, 6, 8]",[True],[False],"{u'mouseover': {u'state': {u'target': [], u'time': []}, u'edge': {u'target': [], u'time': []}}, u'click': {u'state': {u'target': [], u'time': []}, u'edge': {u'target': [], u'time': []}}, u'mouseout': {u'state': {u'target': [], u'time': []}, u'edge': {u'target': [], u'time': []}}}",,,"[1864, 548, 702]",4.0,598751,10.0,15.0,mouselab-mdp,,0
,"[1520, 3393, 5729]","[u'2', u'2', u'3']","[[0, u'__', u'__', u'__', u'__', u'__', u'__', u'__', u'__', u'__', u'__', u'__', u'__', u'__', u'__', u'__', u'__']]",,[],[],[u'__TERM_ACTION__'],"[9, 10, 11]",[],[],"{u'mouseover': {u'state': {u'target': [], u'time': []}, u'edge': {u'target': [], u'time': []}}, u'click': {u'state': {u'target': [], u'time': []}, u'edge': {u'target': [], u'time': []}}, u'mouseout': {u'state': {u'target': [], u'time': []}, u'edge': {u'target': [], u'time': []}}}",,,"[1520, 1380, 1845]",4.0,639886,11.0,10.0,mouselab-mdp,,0
,"[2366, 4237, 5966]","[u'2', u'2', u'1']","[[0, u'__', u'__', u'__', u'__', u'__', u'__', u'__', u'__', u'__', u'__', u'__', u'__', u'__', u'__', u'__', u'__']]",,[],[],[u'__TERM_ACTION__'],"[9, 10, 12]",[],[],"{u'mouseover': {u'state': {u'target': [], u'time': []}, u'edge': {u'target': [], u'time': []}}, u'click': {u'state': {u'target': [], u'time': []}, u'edge': {u'target': [], u'time': []}}, u'mouseout': {u'state': {u'target': [], u'time': []}, u'edge': {u'target': [], u'time': []}}}",,,"[2366, 1380, 1242]",-20.0,702076,12.0,13.0,mouselab-mdp,,0
,"[371, 1588, 2532]","[u'3', u'3', u'0']","[[0, u'__', u'__', u'__', u'__', u'__', u'__', u'__', u'__', u'__', u'__', u'__', u'__', u'__', u'__', u'__', u'__']]",,[],[],[u'__TERM_ACTION__'],"[13, 14, 15]",[],[],"{u'mouseover': {u'state': {u'target': [], u'time': []}, u'edge': {u'target': [], u'time': []}}, u'click': {u'state': {u'target': [], u'time': []}, u'edge': {u'target': [], u'time': []}}, u'mouseout': {u'state': {u'target': [], u'time': []}, u'edge': {u'target': [], u'time': []}}}",,,"[371, 719, 444]",-12.0,755933,13.0,3.0,mouselab-mdp,,0
,"[1090, 2353, 3731]","[u'0', u'0', u'1']","[[0, u'__', u'__', u'__', u'__', u'__', u'__', u'__', u'__', u'__', u'__', u'__', u'__', u'__', u'__', u'__', u'__']]",,[],[],[u'__TERM_ACTION__'],"[1, 2, 3]",[],[],"{u'mouseover': {u'state': {u'target': [], u'time': []}, u'edge': {u'target': [], u'time': []}}, u'click': {u'state': {u'target': [], u'time': []}, u'edge': {u'target': [], u'time': []}}, u'mouseout': {u'state': {u'target': [], u'time': []}, u'edge': {u'target': [], u'time': []}}}",,,"[1088, 770, 878]",-12.0,797372,14.0,11.0,mouselab-mdp,,0
,"[6445, 8077, 9420]","[u'2', u'2', u'1']","[[0, u'__', u'__', u'__', u'__', u'__', u'__', u'__', u'__', u'__', u'__', u'__', u'__', u'__', u'__', u'__', u'__'], [0, u'__', u'__', u'__', u'__', 4, u'__', u'__', u'__', u'__', u'__', u'__', u'__', u'__', u'__', u'__', u'__'], [0, u'__', u'__', u'__', u'__', 4, u'__', u'__', u'__', u'__', u'__', u'__', u'__', 4, u'__', u'__', u'__'], [0, -12, u'__', u'__', u'__', 4, u'__', u'__', u'__', u'__', u'__', u'__', u'__', 4, u'__', u'__', u'__'], [0, -12, u'__', u'__', u'__', 4, u'__', u'__', u'__', 12, u'__', u'__', u'__', 4, u'__', u'__', u'__']]",,[],[],"[5, 13, 1, 9, u'__TERM_ACTION__']","[9, 10, 12]",[],[],"{u'mouseover': {u'state': {u'target': [], u'time': []}, u'edge': {u'target': [], u'time': []}}, u'click': {u'state': {u'target': [5, 13, 1, 9], u'time': [2671, 4159, 4767, 5446]}, u'edge': {u'target': [], u'time': []}}, u'mouseout': {u'state': {u'target': [], u'time': []}, u'edge': {u'target': [], u'time': []}}}",,,"[6445, 1132, 855]",0.2,842507,15.0,8.0,mouselab-mdp,,0
,"[1603, 2963, 4564]","[u'1', u'1', u'0']","[[0, u'__', u'__', u'__', u'__', u'__', u'__', u'__', u'__', u'__', u'__', u'__', u'__', u'__', u'__', u'__', u'__']]",,[],[],[u'__TERM_ACTION__'],"[5, 6, 8]",[],[],"{u'mouseover': {u'state': {u'target': [], u'time': []}, u'edge': {u'target': [], u'time': []}}, u'click': {u'state': {u'target': [], u'time': []}, u'edge': {u'target': [], u'time': []}}, u'mouseout': {u'state': {u'target': [], u'time': []}, u'edge': {u'target': [], u'time': []}}}",,,"[1602, 869, 1101]",4.0,885196,16.0,4.0,mouselab-mdp,,0
"[{u'Q': 28, u'action': u'__TERM_ACTION__', u'Qs': {u'1': 20, u'9': -44, u'13': 28, u'5': 20}, u'state': [0, u'__', u'__', -12, u'__', u'__', u'__', u'__', -12, u'__', u'__', u'__', u'__', u'__', u'__', u'__', 12], u'V': 28}]","[15888, 22255, 26046]","[u'3', u'3', u'2']","[[0, u'__', u'__', u'__', u'__', u'__', u'__', u'__', u'__', u'__', u'__', u'__', u'__', u'__', u'__', u'__', u'__'], [0, u'__', u'__', u'__', u'__', u'__', u'__', u'__', -12, u'__', u'__', u'__', u'__', u'__', u'__', u'__', u'__'], [0, u'__', u'__', -12, u'__', u'__', u'__', u'__', -12, u'__', u'__', u'__', u'__', u'__', u'__', u'__', u'__'], [0, u'__', u'__', -12, u'__', u'__', u'__', u'__', -12, u'__', u'__', u'__', u'__', u'__', u'__', u'__', 12]]",,[5],[True],"[8, 3, 16, u'__TERM_ACTION__']","[13, 14, 16]",[False],[False],"{u'mouseover': {u'state': {u'target': [], u'time': []}, u'edge': {u'target': [], u'time': []}}, u'click': {u'state': {u'target': [8, 3, 16], u'time': [9361, 10817, 12456]}, u'edge': {u'target': [], u'time': []}}, u'mouseout': {u'state': {u'target': [], u'time': []}, u'edge': {u'target': [], u'time': []}}}",,,"[15887, 862, 3290]",19.15,149786,1.0,7.0,mouselab-mdp,,1
"[{u'Q': 28, u'action': u'__TERM_ACTION__', u'Qs': {u'1': 20, u'9': 12, u'13': -4, u'5': 28}, u'state': [0, u'__', u'__', u'__', u'__', 12, 12, -4, 4, u'__', u'__', u'__', u'__', u'__', u'__', u'__', u'__'], u'V': 28}]","[8255, 14463, 17584]","[u'1', u'1', u'0']","[[0, u'__', u'__', u'__', u'__', u'__', u'__', u'__', u'__', u'__', u'__', u'__', u'__', u'__', u'__', u'__', u'__'], [0, u'__', u'__', u'__', u'__', 12, u'__', u'__', u'__', u'__', u'__', u'__', u'__', u'__', u'__', u'__', u'__'], [0, u'__', u'__', u'__', u'__', 12, 12, u'__', u'__', u'__', u'__', u'__', u'__', u'__', u'__', u'__', u'__'], [0, u'__', u'__', u'__', u'__', 12, 12, -4, u'__', u'__', u'__', u'__', u'__', u'__', u'__', u'__', u'__'], [0, u'__', u'__', u'__', u'__', 12, 12, -4, 4, u'__', u'__', u'__', u'__', u'__', u'__', u'__', u'__']]",,[5],[True],"[5, 6, 7, 8, u'__TERM_ACTION__']","[5, 6, 8]",[False],[False],"{u'mouseover': {u'state': {u'target': [], u'time': []}, u'edge': {u'target': [], u'time': []}}, u'click': {u'state': {u'target': [5, 6, 7, 8], u'time': [2472, 3568, 4704, 5712]}, u'edge': {u'target': [], u'time': []}}, u'mouseout': {u'state': {u'target': [], u'time': []}, u'edge': {u'target': [], u'time': []}}}",,,"[8255, 698, 2604]",16.2,197092,2.0,14.0,mouselab-mdp,,1
"[{u'Q': 44, u'action': u'__TERM_ACTION__', u'Qs': {u'1': 44, u'9': 12, u'13': -4, u'5': -20}, u'state': [0, 12, 12, u'__', 20, u'__', u'__', u'__', u'__', -20, 20, u'__', -20, u'__', u'__', u'__', u'__'], u'V': 44}]","[9676, 15684, 16492]","[u'0', u'0', u'3']","[[0, u'__', u'__', u'__', u'__', u'__', u'__', u'__', u'__', u'__', u'__', u'__', u'__', u'__', u'__', u'__', u'__'], [0, u'__', u'__', u'__', u'__', u'__', u'__', u'__', u'__', -20, u'__', u'__', u'__', u'__', u'__', u'__', u'__'], [0, u'__', u'__', u'__', u'__', u'__', u'__', u'__', u'__', -20, 20, u'__', u'__', u'__', u'__', u'__', u'__'], [0, u'__', u'__', u'__', u'__', u'__', u'__', u'__', u'__', -20, 20, u'__', -20, u'__', u'__', u'__', u'__'], [0, 12, u'__', u'__', u'__', u'__', u'__', u'__', u'__', -20, 20, u'__', -20, u'__', u'__', u'__', u'__'], [0, 12, 12, u'__', u'__', u'__', u'__', u'__', u'__', -20, 20, u'__', -20, u'__', u'__', u'__', u'__'], [0, 12, 12, u'__', 20, u'__', u'__', u'__', u'__', -20, 20, u'__', -20, u'__', u'__', u'__', u'__']]",,[5],[True],"[9, 10, 12, 1, 2, 4, u'__TERM_ACTION__']","[1, 2, 4]",[False],[False],"{u'mouseover': {u'state': {u'target': [], u'time': []}, u'edge': {u'target': [], u'time': []}}, u'click': {u'state': {u'target': [9, 10, 12, 1, 2, 4], u'time': [1789, 2638, 3669, 5597, 6285, 7070]}, u'edge': {u'target': [], u'time': []}}, u'mouseout': {u'state': {u'target': [], u'time': []}, u'edge': {u'target': [], u'time': []}}}",,,"[9676, 501, 294]",26.3,244756,3.0,13.0,mouselab-mdp,,1
"[{u'Q': 28, u'action': u'__TERM_ACTION__', u'Qs': {u'1': -12, u'9': -4, u'13': 12, u'5': 28}, u'state': [0, u'__', u'__', u'__', u'__', 12, 4, 12, -12, u'__', u'__', u'__', u'__', 12, -4, 4, 4], u'V': 28}]","[22556, 28548, 30259]","[u'1', u'1', u'2']","[[0, u'__', u'__', u'__', u'__', u'__', u'__', u'__', u'__', u'__', u'__', u'__', u'__', u'__', u'__', u'__', u'__'], [0, u'__', u'__', u'__', u'__', u'__', u'__', u'__', u'__', u'__', u'__', u'__', u'__', 12, u'__', u'__', u'__'], [0, u'__', u'__', u'__', u'__', u'__', u'__', u'__', u'__', u'__', u'__', u'__', u'__', 12, -4, u'__', u'__'], [0, u'__', u'__', u'__', u'__', u'__', u'__', u'__', u'__', u'__', u'__', u'__', u'__', 12, -4, 4, u'__'], [0, u'__', u'__', u'__', u'__', u'__', u'__', u'__', u'__', u'__', u'__', u'__', u'__', 12, -4, 4, 4], [0, u'__', u'__', u'__', u'__', 12, u'__', u'__', u'__', u'__', u'__', u'__', u'__', 12, -4, 4, 4], [0, u'__', u'__', u'__', u'__', 12, 4, u'__', u'__', u'__', u'__', u'__', u'__', 12, -4, 4, 4], [0, u'__', u'__', u'__', u'__', 12, 4, u'__', -12, u'__', u'__', u'__', u'__', 12, -4, 4, 4], [0, u'__', u'__', u'__', u'__', 12, 4, 12, -12, u'__', u'__', u'__', u'__', 12, -4, 4, 4]]",,[5],[True],"[13, 14, 15, 16, 5, 6, 8, 7, u'__TERM_ACTION__']","[5, 6, 7]",[False],[False],"{u'mouseover': {u'state': {u'target': [], u'time': []}, u'edge': {u'target': [], u'time': []}}, u'click': {u'state': {u'target': [13, 14, 15, 16, 5, 6, 8, 7], u'time': [5631, 6677, 7381, 8376, 14031, 14990, 15909, 16886]}, u'edge': {u'target': [], u'time': []}}, u'mouseout': {u'state': {u'target': [], u'time': []}, u'edge': {u'target': [], u'time': []}}}",,,"[22556, 478, 1207]",4.4,292026,4.0,4.0,mouselab-mdp,,1
"[{u'Q': 36, u'action': u'__TERM_ACTION__', u'Qs': {u'1': 28, u'9': 36, u'13': -4, u'5': 20}, u'state': [0, u'__', u'__', u'__', u'__', u'__', u'__', u'__', u'__', 20, 4, -4, 12, u'__', u'__', u'__', u'__'], u'V': 36}]","[6538, 12474, 13642]","[u'2', u'2', u'1']","[[0, u'__', u'__', u'__', u'__', u'__', u'__', u'__', u'__', u'__', u'__', u'__', u'__', u'__', u'__', u'__', u'__'], [0, u'__', u'__', u'__', u'__', u'__', u'__', u'__', u'__', 20, u'__', u'__', u'__', u'__', u'__', u'__', u'__'], [0, u'__', u'__', u'__', u'__', u'__', u'__', u'__', u'__', 20, 4, u'__', u'__', u'__', u'__', u'__', u'__'], [0, u'__', u'__', u'__', u'__', u'__', u'__', u'__', u'__', 20, 4, u'__', 12, u'__', u'__', u'__', u'__'], [0, u'__', u'__', u'__', u'__', u'__', u'__', u'__', u'__', 20, 4, -4, 12, u'__', u'__', u'__', u'__']]",,[5],[True],"[9, 10, 12, 11, u'__TERM_ACTION__']","[9, 10, 12]",[False],[False],"{u'mouseover': {u'state': {u'target': [], u'time': []}, u'edge': {u'target': [], u'time': []}}, u'click': {u'state': {u'target': [9, 10, 12, 11], u'time': [1683, 2604, 3626, 4987]}, u'edge': {u'target': [], u'time': []}}, u'mouseout': {u'state': {u'target': [], u'time': []}, u'edge': {u'target': [], u'time': []}}}",,,"[6538, 419, 655]",24.2,339299,5.0,2.0,mouselab-mdp,,1
"[{u'Q': 20, u'action': u'__TERM_ACTION__', u'Qs': {u'1': 20, u'9': 28, u'13': 12, u'5': 12}, u'state': [0, 12, 4, -20, 4, -4, u'__', u'__', u'__', u'__', u'__', u'__', u'__', 4, u'__', u'__', u'__'], u'V': 28}]","[13589, 19613, 21772]","[u'0', u'0', u'3']","[[0, u'__', u'__', u'__', u'__', u'__', u'__', u'__', u'__', u'__', u'__', u'__', u'__', u'__', u'__', u'__', u'__'], [0, u'__', u'__', u'__', u'__', -4, u'__', u'__', u'__', u'__', u'__', u'__', u'__', u'__', u'__', u'__', u'__'], [0, 12, u'__', u'__', u'__', -4, u'__', u'__', u'__', u'__', u'__', u'__', u'__', u'__', u'__', u'__', u'__'], [0, 12, 4, u'__', u'__', -4, u'__', u'__', u'__', u'__', u'__', u'__', u'__', u'__', u'__', u'__', u'__'], [0, 12, 4, -20, u'__', -4, u'__', u'__', u'__', u'__', u'__', u'__', u'__', u'__', u'__', u'__', u'__'], [0, 12, 4, -20, 4, -4, u'__', u'__', u'__', u'__', u'__', u'__', u'__', u'__', u'__', u'__', u'__'], [0, 12, 4, -20, 4, -4, u'__', u'__', u'__', u'__', u'__', u'__', u'__', 4, u'__', u'__', u'__']]",,[5],[True],"[5, 1, 2, 3, 4, 13, u'__TERM_ACTION__']","[1, 2, 4]",[True],[False],"{u'mouseover': {u'state': {u'target': [], u'time': []}, u'edge': {u'target': [], u'time': []}}, u'click': {u'state': {u'target': [5, 1, 2, 3, 4, 13], u'time': [2918, 3709, 5079, 6134, 7102, 10728]}, u'edge': {u'target': [], u'time': []}}, u'mouseout': {u'state': {u'target': [], u'time': []}, u'edge': {u'target': [], u'time': []}}}",,,"[13589, 510, 1653]",2.3,386202,6.0,6.0,mouselab-mdp,,1
"[{u'Q': 36, u'action': u'__TERM_ACTION__', u'Qs': {u'1': -12, u'9': 12, u'13': -4, u'5': 36}, u'state': [0, u'__', u'__', u'__', u'__', 12, 20, u'__', 4, u'__', u'__', u'__', u'__', u'__', u'__', u'__', u'__'], u'V': 36}]","[10577, 16760, 19936]","[u'1', u'1', u'0']","[[0, u'__', u'__', u'__', u'__', u'__', u'__', u'__', u'__', u'__', u'__', u'__', u'__', u'__', u'__', u'__', u'__'], [0, u'__', u'__', u'__', u'__', 12, u'__', u'__', u'__', u'__', u'__', u'__', u'__', u'__', u'__', u'__', u'__'], [0, u'__', u'__', u'__', u'__', 12, 20, u'__', u'__', u'__', u'__', u'__', u'__', u'__', u'__', u'__', u'__'], [0, u'__', u'__', u'__', u'__', 12, 20, u'__', 4, u'__', u'__', u'__', u'__', u'__', u'__', u'__', u'__']]",,[5],[True],"[5, 6, 8, u'__TERM_ACTION__']","[5, 6, 8]",[False],[False],"{u'mouseover': {u'state': {u'target': [], u'time': []}, u'edge': {u'target': [], u'time': []}}, u'click': {u'state': {u'target': [5, 6, 8], u'time': [4553, 5424, 8200]}, u'edge': {u'target': [], u'time': []}}, u'mouseout': {u'state': {u'target': [], u'time': []}, u'edge': {u'target': [], u'time': []}}}",,,"[10577, 680, 2676]",27.15,433010,7.0,1.0,mouselab-mdp,,1
"[{u'Q': 36, u'action': u'__TERM_ACTION__', u'Qs': {u'1': 20, u'9': 36, u'13': -4, u'5': -4}, u'state': [0, u'__', u'__', u'__', u'__', u'__', u'__', u'__', u'__', 20, 4, u'__', 4, u'__', u'__', u'__', u'__'], u'V': 36}]","[7752, 13721, 15753]","[u'2', u'2', u'1']","[[0, u'__', u'__', u'__', u'__', u'__', u'__', u'__', u'__', u'__', u'__', u'__', u'__', u'__', u'__', u'__', u'__'], [0, u'__', u'__', u'__', u'__', u'__', u'__', u'__', u'__', 20, u'__', u'__', u'__', u'__', u'__', u'__', u'__'], [0, u'__', u'__', u'__', u'__', u'__', u'__', u'__', u'__', 20, 4, u'__', u'__', u'__', u'__', u'__', u'__'], [0, u'__', u'__', u'__', u'__', u'__', u'__', u'__', u'__', 20, 4, u'__', 4, u'__', u'__', u'__', u'__']]",,[5],[True],"[9, 10, 12, u'__TERM_ACTION__']","[9, 10, 12]",[False],[False],"{u'mouseover': {u'state': {u'target': [], u'time': []}, u'edge': {u'target': [], u'time': []}}, u'click': {u'state': {u'target': [9, 10, 12], u'time': [4578, 5425, 6226]}, u'edge': {u'target': [], u'time': []}}, u'mouseout': {u'state': {u'target': [], u'time': []}, u'edge': {u'target': [], u'time': []}}}",,,"[7752, 466, 1531]",19.15,478458,8.0,12.0,mouselab-mdp,,1
"[{u'Q': -4, u'action': u'__TERM_ACTION__', u'Qs': {u'1': -12, u'9': -4, u'13': -12, u'5': -20}, u'state': [0, -4, -12, -20, u'__', -12, u'__', u'__', u'__', 4, -12, u'__', 4, -12, u'__', u'__', u'__'], u'V': -4}]","[12137, 18193, 19905]","[u'2', u'2', u'1']","[[0, u'__', u'__', u'__', u'__', u'__', u'__', u'__', u'__', u'__', u'__', u'__', u'__', u'__', u'__', u'__', u'__'], [0, u'__', u'__', u'__', u'__', u'__', u'__', u'__', u'__', u'__', u'__', u'__', u'__', -12, u'__', u'__', u'__'], [0, -4, u'__', u'__', u'__', u'__', u'__', u'__', u'__', u'__', u'__', u'__', u'__', -12, u'__', u'__', u'__'], [0, -4, u'__', u'__', u'__', -12, u'__', u'__', u'__', u'__', u'__', u'__', u'__', -12, u'__', u'__', u'__'], [0, -4, u'__', u'__', u'__', -12, u'__', u'__', u'__', 4, u'__', u'__', u'__', -12, u'__', u'__', u'__'], [0, -4, u'__', u'__', u'__', -12, u'__', u'__', u'__', 4, -12, u'__', u'__', -12, u'__', u'__', u'__'], [0, -4, u'__', u'__', u'__', -12, u'__', u'__', u'__', 4, -12, u'__', 4, -12, u'__', u'__', u'__'], [0, -4, -12, u'__', u'__', -12, u'__', u'__', u'__', 4, -12, u'__', 4, -12, u'__', u'__', u'__'], [0, -4, -12, -20, u'__', -12, u'__', u'__', u'__', 4, -12, u'__', 4, -12, u'__', u'__', u'__']]",,[5],[True],"[13, 1, 5, 9, 10, 12, 2, 3, u'__TERM_ACTION__']","[9, 10, 12]",[False],[False],"{u'mouseover': {u'state': {u'target': [], u'time': []}, u'edge': {u'target': [], u'time': []}}, u'click': {u'state': {u'target': [13, 1, 5, 9, 10, 12, 2, 3], u'time': [2930, 3698, 4402, 5138, 6210, 6937, 9754, 10403]}, u'edge': {u'target': [], u'time': []}}, u'mouseout': {u'state': {u'target': [], u'time': []}, u'edge': {u'target': [], u'time': []}}}",,,"[12137, 551, 1198]",-27.6,524234,9.0,3.0,mouselab-mdp,,1
"[{u'Q': 4, u'action': u'__TERM_ACTION__', u'Qs': {u'1': -4, u'9': 4, u'13': 4, u'5': -28}, u'state': [0, -4, u'__', u'__', u'__', -12, u'__', u'__', u'__', -4, u'__', u'__', u'__', -12, 12, u'__', 4], u'V': 4}]","[8172, 14134, 15685]","[u'3', u'3', u'2']","[[0, u'__', u'__', u'__', u'__', u'__', u'__', u'__', u'__', u'__', u'__', u'__', u'__', u'__', u'__', u'__', u'__'], [0, u'__', u'__', u'__', u'__', -12, u'__', u'__', u'__', u'__', u'__', u'__', u'__', u'__', u'__', u'__', u'__'], [0, -4, u'__', u'__', u'__', -12, u'__', u'__', u'__', u'__', u'__', u'__', u'__', u'__', u'__', u'__', u'__'], [0, -4, u'__', u'__', u'__', -12, u'__', u'__', u'__', u'__', u'__', u'__', u'__', -12, u'__', u'__', u'__'], [0, -4, u'__', u'__', u'__', -12, u'__', u'__', u'__', -4, u'__', u'__', u'__', -12, u'__', u'__', u'__'], [0, -4, u'__', u'__', u'__', -12, u'__', u'__', u'__', -4, u'__', u'__', u'__', -12, 12, u'__', u'__'], [0, -4, u'__', u'__', u'__', -12, u'__', u'__', u'__', -4, u'__', u'__', u'__', -12, 12, u'__', 4]]",,[5],[True],"[5, 1, 13, 9, 14, 16, u'__TERM_ACTION__']","[13, 14, 16]",[False],[False],"{u'mouseover': {u'state': {u'target': [], u'time': []}, u'edge': {u'target': [], u'time': []}}, u'click': {u'state': {u'target': [5, 1, 13, 9, 14, 16], u'time': [2078, 2973, 3686, 4230, 4854, 5575]}, u'edge': {u'target': [], u'time': []}}, u'mouseout': {u'state': {u'target': [], u'time': []}, u'edge': {u'target': [], u'time': []}}}",,,"[8172, 446, 1049]",-13.7,571530,10.0,0.0,mouselab-mdp,,1
,"[11426, 13123, 14354]","[u'2', u'2', u'1']","[[0, u'__', u'__', u'__', u'__', u'__', u'__', u'__', u'__', u'__', u'__', u'__', u'__', u'__', u'__', u'__', u'__'], [0, u'__', u'__', u'__', u'__', 4, u'__', u'__', u'__', u'__', u'__', u'__', u'__', u'__', u'__', u'__', u'__'], [0, u'__', u'__', u'__', u'__', 4, -20, u'__', u'__', u'__', u'__', u'__', u'__', u'__', u'__', u'__', u'__'], [0, u'__', u'__', u'__', u'__', 4, -20, u'__', -4, u'__', u'__', u'__', u'__', u'__', u'__', u'__', u'__'], [0, -12, u'__', u'__', u'__', 4, -20, u'__', -4, u'__', u'__', u'__', u'__', u'__', u'__', u'__', u'__'], [0, -12, u'__', u'__', u'__', 4, -20, u'__', -4, u'__', u'__', u'__', u'__', 4, u'__', u'__', u'__'], [0, -12, u'__', u'__', u'__', 4, -20, u'__', -4, 12, u'__', u'__', u'__', 4, u'__', u'__', u'__'], [0, -12, u'__', u'__', u'__', 4, -20, u'__', -4, 12, -4, u'__', u'__', 4, u'__', u'__', u'__'], [0, -12, u'__', u'__', u'__', 4, -20, u'__', -4, 12, -4, u'__', 4, 4, u'__', u'__', u'__']]",,[],[],"[5, 6, 8, 1, 13, 9, 10, 12, u'__TERM_ACTION__']","[9, 10, 12]",[],[],"{u'mouseover': {u'state': {u'target': [], u'time': []}, u'edge': {u'target': [], u'time': []}}, u'click': {u'state': {u'target': [5, 6, 8, 1, 13, 9, 10, 12], u'time': [3710, 4699, 5559, 6451, 7372, 8075, 9156, 9780]}, u'edge': {u'target': [], u'time': []}}, u'mouseout': {u'state': {u'target': [], u'time': []}, u'edge': {u'target': [], u'time': []}}}",,,"[11426, 1184, 717]",-11.6,612466,11.0,8.0,mouselab-mdp,,1
,"[13684, 15211, 16404]","[u'2', u'2', u'1']","[[0, u'__', u'__', u'__', u'__', u'__', u'__', u'__', u'__', u'__', u'__', u'__', u'__', u'__', u'__', u'__', u'__'], [0, u'__', u'__', u'__', u'__', u'__', u'__', u'__', u'__', u'__', u'__', u'__', u'__', -12, u'__', u'__', u'__'], [0, -20, u'__', u'__', u'__', u'__', u'__', u'__', u'__', u'__', u'__', u'__', u'__', -12, u'__', u'__', u'__'], [0, -20, u'__', u'__', u'__', 4, u'__', u'__', u'__', u'__', u'__', u'__', u'__', -12, u'__', u'__', u'__'], [0, -20, u'__', u'__', u'__', 4, -20, u'__', u'__', u'__', u'__', u'__', u'__', -12, u'__', u'__', u'__'], [0, -20, -12, u'__', u'__', 4, -20, u'__', u'__', u'__', u'__', u'__', u'__', -12, u'__', u'__', u'__'], [0, -20, -12, -4, u'__', 4, -20, u'__', u'__', u'__', u'__', u'__', u'__', -12, u'__', u'__', u'__'], [0, -20, -12, -4, u'__', 4, -20, u'__', u'__', 4, u'__', u'__', u'__', -12, u'__', u'__', u'__'], [0, -20, -12, -4, u'__', 4, -20, u'__', u'__', 4, -12, u'__', u'__', -12, u'__', u'__', u'__'], [0, -20, -12, -4, u'__', 4, -20, u'__', u'__', 4, -12, u'__', 4, -12, u'__', u'__', u'__']]",,[],[],"[13, 1, 5, 6, 2, 3, 9, 10, 12, u'__TERM_ACTION__']","[9, 10, 12]",[],[],"{u'mouseover': {u'state': {u'target': [], u'time': []}, u'edge': {u'target': [], u'time': []}}, u'click': {u'state': {u'target': [13, 1, 5, 6, 2, 3, 9, 10, 12], u'time': [3285, 4228, 5030, 6292, 8188, 9085, 10781, 11413, 12052]}, u'edge': {u'target': [], u'time': []}}, u'mouseout': {u'state': {u'target': [], u'time': []}, u'edge': {u'target': [], u'time': []}}}",,,"[13684, 1023, 682]",-30.55,653074,12.0,9.0,mouselab-mdp,,1
,"[5704, 6872, 8656]","[u'2', u'2', u'1']","[[0, u'__', u'__', u'__', u'__', u'__', u'__', u'__', u'__', u'__', u'__', u'__', u'__', u'__', u'__', u'__', u'__'], [0, u'__', u'__', u'__', u'__', u'__', u'__', u'__', u'__', -4, u'__', u'__', u'__', u'__', u'__', u'__', u'__'], [0, u'__', u'__', u'__', u'__', u'__', u'__', u'__', u'__', -4, 12, u'__', u'__', u'__', u'__', u'__', u'__'], [0, u'__', u'__', u'__', u'__', u'__', u'__', u'__', u'__', -4, 12, u'__', 4, u'__', u'__', u'__', u'__']]",,[],[],"[9, 10, 12, u'__TERM_ACTION__']","[9, 10, 12]",[],[],"{u'mouseover': {u'state': {u'target': [], u'time': []}, u'edge': {u'target': [], u'time': []}}, u'click': {u'state': {u'target': [9, 10, 12], u'time': [2531, 3593, 4273]}, u'edge': {u'target': [], u'time': []}}, u'mouseout': {u'state': {u'target': [], u'time': []}, u'edge': {u'target': [], u'time': []}}}",,,"[5704, 662, 1278]",3.15,697818,13.0,11.0,mouselab-mdp,,1
,"[6005, 7020, 8181]","[u'0', u'0', u'1']","[[0, u'__', u'__', u'__', u'__', u'__', u'__', u'__', u'__', u'__', u'__', u'__', u'__', u'__', u'__', u'__', u'__'], [0, -4, u'__', u'__', u'__', u'__', u'__', u'__', u'__', u'__', u'__', u'__', u'__', u'__', u'__', u'__', u'__'], [0, -4, 12, u'__', u'__', u'__', u'__', u'__', u'__', u'__', u'__', u'__', u'__', u'__', u'__', u'__', u'__'], [0, -4, 12, 4, u'__', u'__', u'__', u'__', u'__', u'__', u'__', u'__', u'__', u'__', u'__', u'__', u'__']]",,[],[],"[1, 2, 3, u'__TERM_ACTION__']","[1, 2, 3]",[],[],"{u'mouseover': {u'state': {u'target': [], u'time': []}, u'edge': {u'target': [], u'time': []}}, u'click': {u'state': {u'target': [1, 2, 3], u'time': [2423, 3671, 4535]}, u'edge': {u'target': [], u'time': []}}, u'mouseout': {u'state': {u'target': [], u'time': []}, u'edge': {u'target': [], u'time': []}}}",,,"[6005, 499, 657]",3.15,741674,14.0,15.0,mouselab-mdp,,1
,"[11682, 12865, 13936]","[u'3', u'3', u'2']","[[0, u'__', u'__', u'__', u'__', u'__', u'__', u'__', u'__', u'__', u'__', u'__', u'__', u'__', u'__', u'__', u'__'], [0, u'__', u'__', u'__', u'__', u'__', u'__', u'__', u'__', u'__', u'__', u'__', u'__', 4, u'__', u'__', u'__'], [0, u'__', u'__', u'__', u'__', u'__', u'__', u'__', u'__', u'__', u'__', u'__', u'__', 4, -4, u'__', u'__'], [0, u'__', u'__', u'__', u'__', u'__', u'__', u'__', u'__', u'__', u'__', u'__', u'__', 4, -4, u'__', 4]]",,[],[],"[13, 14, 16, u'__TERM_ACTION__']","[13, 14, 16]",[],[],"{u'mouseover': {u'state': {u'target': [], u'time': []}, u'edge': {u'target': [], u'time': []}}, u'click': {u'state': {u'target': [13, 14, 16], u'time': [4635, 5379, 6419]}, u'edge': {u'target': [], u'time': []}}, u'mouseout': {u'state': {u'target': [], u'time': []}, u'edge': {u'target': [], u'time': []}}}",,,"[11682, 671, 558]",-4.85,785466,15.0,10.0,mouselab-mdp,,1
,"[4697, 5761, 6713]","[u'1', u'1', u'0']","[[0, u'__', u'__', u'__', u'__', u'__', u'__', u'__', u'__', u'__', u'__', u'__', u'__', u'__', u'__', u'__', u'__'], [0, u'__', u'__', u'__', u'__', -4, u'__', u'__', u'__', u'__', u'__', u'__', u'__', u'__', u'__', u'__', u'__'], [0, u'__', u'__', u'__', u'__', -4, 12, u'__', u'__', u'__', u'__', u'__', u'__', u'__', u'__', u'__', u'__'], [0, u'__', u'__', u'__', u'__', -4, 12, u'__', 20, u'__', u'__', u'__', u'__', u'__', u'__', u'__', u'__']]",,[],[],"[5, 6, 8, u'__TERM_ACTION__']","[5, 6, 8]",[],[],"{u'mouseover': {u'state': {u'target': [], u'time': []}, u'edge': {u'target': [], u'time': []}}, u'click': {u'state': {u'target': [5, 6, 8], u'time': [1406, 2331, 3122]}, u'edge': {u'target': [], u'time': []}}, u'mouseout': {u'state': {u'target': [], u'time': []}, u'edge': {u'target': [], u'time': []}}}",,,"[4697, 564, 451]",19.15,828905,16.0,5.0,mouselab-mdp,,1
"[{u'Q': -4, u'action': u'__TERM_ACTION__', u'Qs': {u'1': -4, u'9': 12, u'13': 12, u'5': -4}, u'state': [0, 4, u'__', u'__', u'__', 4, u'__', u'__', u'__', -4, u'__', u'__', u'__', 4, u'__', u'__', u'__'], u'V': 12}]","[11722, 18225, 21634]","[u'0', u'0', u'1']","[[0, u'__', u'__', u'__', u'__', u'__', u'__', u'__', u'__', u'__', u'__', u'__', u'__', u'__', u'__', u'__', u'__'], [0, u'__', u'__', u'__', u'__', u'__', u'__', u'__', u'__', -4, u'__', u'__', u'__', u'__', u'__', u'__', u'__'], [0, u'__', u'__', u'__', u'__', 4, u'__', u'__', u'__', -4, u'__', u'__', u'__', u'__', u'__', u'__', u'__'], [0, 4, u'__', u'__', u'__', 4, u'__', u'__', u'__', -4, u'__', u'__', u'__', u'__', u'__', u'__', u'__'], [0, 4, u'__', u'__', u'__', 4, u'__', u'__', u'__', -4, u'__', u'__', u'__', 4, u'__', u'__', u'__']]",,[5],[True],"[9, 5, 1, 13, u'__TERM_ACTION__']","[1, 2, 3]",[True],[False],"{u'mouseover': {u'state': {u'target': [], u'time': []}, u'edge': {u'target': [], u'time': []}}, u'click': {u'state': {u'target': [9, 5, 1, 13], u'time': [2892, 3526, 4123, 4996]}, u'edge': {u'target': [], u'time': []}}, u'mouseout': {u'state': {u'target': [], u'time': []}, u'edge': {u'target': [], u'time': []}}}",,,"[11721, 986, 2893]",-23.8,165235,1.0,11.0,mouselab-mdp,,2
"[{u'Q': 20, u'action': u'__TERM_ACTION__', u'Qs': {u'1': 4, u'9': 20, u'13': -20, u'5': -4}, u'state': [0, -12, u'__', u'__', u'__', u'__', u'__', u'__', u'__', 12, u'__', u'__', 4, u'__', u'__', u'__', u'__'], u'V': 20}]","[7231, 13095, 14543]","[u'2', u'2', u'1']","[[0, u'__', u'__', u'__', u'__', u'__', u'__', u'__', u'__', u'__', u'__', u'__', u'__', u'__', u'__', u'__', u'__'], [0, -12, u'__', u'__', u'__', u'__', u'__', u'__', u'__', u'__', u'__', u'__', u'__', u'__', u'__', u'__', u'__'], [0, -12, u'__', u'__', u'__', u'__', u'__', u'__', u'__', 12, u'__', u'__', u'__', u'__', u'__', u'__', u'__'], [0, -12, u'__', u'__', u'__', u'__', u'__', u'__', u'__', 12, u'__', u'__', 4, u'__', u'__', u'__', u'__']]",,[5],[True],"[1, 9, 12, u'__TERM_ACTION__']","[9, 10, 12]",[False],[False],"{u'mouseover': {u'state': {u'target': [], u'time': []}, u'edge': {u'target': [], u'time': []}}, u'click': {u'state': {u'target': [1, 9, 12], u'time': [2274, 3645, 5158]}, u'edge': {u'target': [], u'time': []}}, u'mouseout': {u'state': {u'target': [], u'time': []}, u'edge': {u'target': [], u'time': []}}}",,,"[7231, 359, 932]",3.15,213923,2.0,8.0,mouselab-mdp,,2
"[{u'Q': 20, u'action': u'__TERM_ACTION__', u'Qs': {u'1': 20, u'9': -44, u'13': 28, u'5': 20}, u'state': [0, 12, u'__', -12, 4, u'__', u'__', u'__', u'__', u'__', u'__', u'__', u'__', u'__', u'__', u'__', u'__'], u'V': 28}]","[5028, 11012, 12284]","[u'0', u'0', u'3']","[[0, u'__', u'__', u'__', u'__', u'__', u'__', u'__', u'__', u'__', u'__', u'__', u'__', u'__', u'__', u'__', u'__'], [0, 12, u'__', u'__', u'__', u'__', u'__', u'__', u'__', u'__', u'__', u'__', u'__', u'__', u'__', u'__', u'__'], [0, 12, u'__', -12, u'__', u'__', u'__', u'__', u'__', u'__', u'__', u'__', u'__', u'__', u'__', u'__', u'__'], [0, 12, u'__', -12, 4, u'__', u'__', u'__', u'__', u'__', u'__', u'__', u'__', u'__', u'__', u'__', u'__']]",,[5],[True],"[1, 3, 4, u'__TERM_ACTION__']","[1, 2, 4]",[True],[False],"{u'mouseover': {u'state': {u'target': [], u'time': []}, u'edge': {u'target': [], u'time': []}}, u'click': {u'state': {u'target': [1, 3, 4], u'time': [1539, 2744, 3553]}, u'edge': {u'target': [], u'time': []}}, u'mouseout': {u'state': {u'target': [], u'time': []}, u'edge': {u'target': [], u'time': []}}}",,,"[5027, 456, 760]",11.15,261291,3.0,7.0,mouselab-mdp,,2
"[{u'Q': -4, u'action': u'__TERM_ACTION__', u'Qs': {u'1': -12, u'9': -4, u'13': -12, u'5': -20}, u'state': [0, -4, u'__', u'__', u'__', -12, u'__', u'__', u'__', 4, u'__', u'__', 4, u'__', u'__', u'__', u'__'], u'V': -4}]","[7072, 13049, 14032]","[u'2', u'2', u'1']","[[0, u'__', u'__', u'__', u'__', u'__', u'__', u'__', u'__', u'__', u'__', u'__', u'__', u'__', u'__', u'__', u'__'], [0, u'__', u'__', u'__', u'__', -12, u'__', u'__', u'__', u'__', u'__', u'__', u'__', u'__', u'__', u'__', u'__'], [0, -4, u'__', u'__', u'__', -12, u'__', u'__', u'__', u'__', u'__', u'__', u'__', u'__', u'__', u'__', u'__'], [0, -4, u'__', u'__', u'__', -12, u'__', u'__', u'__', 4, u'__', u'__', u'__', u'__', u'__', u'__', u'__'], [0, -4, u'__', u'__', u'__', -12, u'__', u'__', u'__', 4, u'__', u'__', 4, u'__', u'__', u'__', u'__']]",,[5],[True],"[5, 1, 9, 12, u'__TERM_ACTION__']","[9, 10, 12]",[False],[False],"{u'mouseover': {u'state': {u'target': [], u'time': []}, u'edge': {u'target': [], u'time': []}}, u'click': {u'state': {u'target': [5, 1, 9, 12], u'time': [1910, 2877, 3862, 4733]}, u'edge': {u'target': [], u'time': []}}, u'mouseout': {u'state': {u'target': [], u'time': []}, u'edge': {u'target': [], u'time': []}}}",,,"[7072, 457, 469]",-15.8,307667,4.0,3.0,mouselab-mdp,,2
"[{u'Q': 20, u'action': u'__TERM_ACTION__', u'Qs': {u'1': 20, u'9': 36, u'13': -4, u'5': -4}, u'state': [0, 4, u'__', u'__', 12, u'__', u'__', u'__', u'__', u'__', u'__', u'__', u'__', u'__', u'__', u'__', u'__'], u'V': 36}]","[2643, 9275, 10299]","[u'0', u'0', u'3']","[[0, u'__', u'__', u'__', u'__', u'__', u'__', u'__', u'__', u'__', u'__', u'__', u'__', u'__', u'__', u'__', u'__'], [0, 4, u'__', u'__', u'__', u'__', u'__', u'__', u'__', u'__', u'__', u'__', u'__', u'__', u'__', u'__', u'__'], [0, 4, u'__', u'__', 12, u'__', u'__', u'__', u'__', u'__', u'__', u'__', u'__', u'__', u'__', u'__', u'__']]",,[5],[True],"[1, 4, u'__TERM_ACTION__']","[1, 2, 4]",[True],[False],"{u'mouseover': {u'state': {u'target': [], u'time': []}, u'edge': {u'target': [], u'time': []}}, u'click': {u'state': {u'target': [1, 4], u'time': [534, 1636]}, u'edge': {u'target': [], u'time': []}}, u'mouseout': {u'state': {u'target': [], u'time': []}, u'edge': {u'target': [], u'time': []}}}",,,"[2642, 1101, 512]",14.1,354547,5.0,12.0,mouselab-mdp,,2
"[{u'Q': 20, u'action': u'__TERM_ACTION__', u'Qs': {u'1': 20, u'9': 28, u'13': -4, u'5': 28}, u'state': [0, 12, u'__', u'__', -4, u'__', u'__', u'__', u'__', u'__', u'__', u'__', u'__', u'__', u'__', u'__', u'__'], u'V': 28}]","[4086, 9974, 10838]","[u'0', u'0', u'1']","[[0, u'__', u'__', u'__', u'__', u'__', u'__', u'__', u'__', u'__', u'__', u'__', u'__', u'__', u'__', u'__', u'__'], [0, 12, u'__', u'__', u'__', u'__', u'__', u'__', u'__', u'__', u'__', u'__', u'__', u'__', u'__', u'__', u'__'], [0, 12, u'__', u'__', -4, u'__', u'__', u'__', u'__', u'__', u'__', u'__', u'__', u'__', u'__', u'__', u'__']]",,[5],[True],"[1, 4, u'__TERM_ACTION__']","[1, 2, 3]",[True],[False],"{u'mouseover': {u'state': {u'target': [], u'time': []}, u'edge': {u'target': [], u'time': []}}, u'click': {u'state': {u'target': [1, 4], u'time': [1387, 2449]}, u'edge': {u'target': [], u'time': []}}, u'mouseout': {u'state': {u'target': [], u'time': []}, u'edge': {u'target': [], u'time': []}}}",,,"[4086, 374, 347]",14.1,401938,6.0,5.0,mouselab-mdp,,2
"[{u'Q': 36, u'action': u'__TERM_ACTION__', u'Qs': {u'1': -12, u'9': 12, u'13': -4, u'5': 36}, u'state': [0, -4, u'__', u'__', u'__', u'__', u'__', -4, u'__', u'__', u'__', u'__', u'__', -12, u'__', u'__', u'__'], u'V': 36}]","[5905, 11881, 12705]","[u'1', u'1', u'0']","[[0, u'__', u'__', u'__', u'__', u'__', u'__', u'__', u'__', u'__', u'__', u'__', u'__', u'__', u'__', u'__', u'__'], [0, -4, u'__', u'__', u'__', u'__', u'__', u'__', u'__', u'__', u'__', u'__', u'__', u'__', u'__', u'__', u'__'], [0, -4, u'__', u'__', u'__', u'__', u'__', u'__', u'__', u'__', u'__', u'__', u'__', -12, u'__', u'__', u'__'], [0, -4, u'__', u'__', u'__', u'__', u'__', -4, u'__', u'__', u'__', u'__', u'__', -12, u'__', u'__', u'__']]",,[5],[True],"[1, 13, 7, u'__TERM_ACTION__']","[5, 6, 8]",[False],[False],"{u'mouseover': {u'state': {u'target': [], u'time': []}, u'edge': {u'target': [], u'time': []}}, u'click': {u'state': {u'target': [1, 13, 7], u'time': [1721, 2462, 4639]}, u'edge': {u'target': [], u'time': []}}, u'mouseout': {u'state': {u'target': [], u'time': []}, u'edge': {u'target': [], u'time': []}}}",,,"[5905, 461, 309]",27.15,449082,7.0,1.0,mouselab-mdp,,2
"[{u'Q': 4, u'action': u'__TERM_ACTION__', u'Qs': {u'1': -4, u'9': 4, u'13': 4, u'5': -28}, u'state': [0, -4, u'__', u'__', u'__', -12, u'__', u'__', u'__', u'__', u'__', u'__', u'__', u'__', u'__', u'__', 4], u'V': 4}]","[4868, 10829, 13317]","[u'3', u'3', u'2']","[[0, u'__', u'__', u'__', u'__', u'__', u'__', u'__', u'__', u'__', u'__', u'__', u'__', u'__', u'__', u'__', u'__'], [0, u'__', u'__', u'__', u'__', -12, u'__', u'__', u'__', u'__', u'__', u'__', u'__', u'__', u'__', u'__', u'__'], [0, -4, u'__', u'__', u'__', -12, u'__', u'__', u'__', u'__', u'__', u'__', u'__', u'__', u'__', u'__', u'__'], [0, -4, u'__', u'__', u'__', -12, u'__', u'__', u'__', u'__', u'__', u'__', u'__', u'__', u'__', u'__', 4]]",,[5],[True],"[5, 1, 16, u'__TERM_ACTION__']","[13, 14, 16]",[False],[False],"{u'mouseover': {u'state': {u'target': [], u'time': []}, u'edge': {u'target': [], u'time': []}}, u'click': {u'state': {u'target': [5, 1, 16], u'time': [1122, 2563, 3848]}, u'edge': {u'target': [], u'time': []}}, u'mouseout': {u'state': {u'target': [], u'time': []}, u'edge': {u'target': [], u'time': []}}}",,,"[4868, 436, 1972]",-4.85,496282,8.0,0.0,mouselab-mdp,,2
"[{u'Q': 36, u'action': u'__TERM_ACTION__', u'Qs': {u'1': 12, u'9': 36, u'13': 28, u'5': 4}, u'state': [0, -4, u'__', u'__', u'__', u'__', u'__', u'__', u'__', 4, u'__', u'__', 20, u'__', u'__', u'__', u'__'], u'V': 36}]","[5207, 11127, 12128]","[u'2', u'2', u'1']","[[0, u'__', u'__', u'__', u'__', u'__', u'__', u'__', u'__', u'__', u'__', u'__', u'__', u'__', u'__', u'__', u'__'], [0, -4, u'__', u'__', u'__', u'__', u'__', u'__', u'__', u'__', u'__', u'__', u'__', u'__', u'__', u'__', u'__'], [0, -4, u'__', u'__', u'__', u'__', u'__', u'__', u'__', 4, u'__', u'__', u'__', u'__', u'__', u'__', u'__'], [0, -4, u'__', u'__', u'__', u'__', u'__', u'__', u'__', 4, u'__', u'__', 20, u'__', u'__', u'__', u'__']]",,[5],[True],"[1, 9, 12, u'__TERM_ACTION__']","[9, 10, 12]",[False],[False],"{u'mouseover': {u'state': {u'target': [], u'time': []}, u'edge': {u'target': [], u'time': []}}, u'click': {u'state': {u'target': [1, 9, 12], u'time': [472, 1487, 4231]}, u'edge': {u'target': [], u'time': []}}, u'mouseout': {u'state': {u'target': [], u'time': []}, u'edge': {u'target': [], u'time': []}}}",,,"[5207, 398, 498]",27.15,543033,9.0,15.0,mouselab-mdp,,2
"[{u'Q': 20, u'action': u'__TERM_ACTION__', u'Qs': {u'1': 20, u'9': 28, u'13': 12, u'5': 12}, u'state': [0, 12, u'__', u'__', 4, u'__', u'__', u'__', u'__', u'__', u'__', u'__', u'__', u'__', u'__', u'__', u'__'], u'V': 28}]","[3694, 9582, 10550]","[u'0', u'0', u'3']","[[0, u'__', u'__', u'__', u'__', u'__', u'__', u'__', u'__', u'__', u'__', u'__', u'__', u'__', u'__', u'__', u'__'], [0, 12, u'__', u'__', u'__', u'__', u'__', u'__', u'__', u'__', u'__', u'__', u'__', u'__', u'__', u'__', u'__'], [0, 12, u'__', u'__', 4, u'__', u'__', u'__', u'__', u'__', u'__', u'__', u'__', u'__', u'__', u'__', u'__']]",,[5],[True],"[1, 4, u'__TERM_ACTION__']","[1, 2, 4]",[True],[False],"{u'mouseover': {u'state': {u'target': [], u'time': []}, u'edge': {u'target': [], u'time': []}}, u'click': {u'state': {u'target': [1, 4], u'time': [1287, 2649]}, u'edge': {u'target': [], u'time': []}}, u'mouseout': {u'state': {u'target': [], u'time': []}, u'edge': {u'target': [], u'time': []}}}",,,"[3694, 359, 464]",14.1,590050,10.0,6.0,mouselab-mdp,,2
,"[8527, 9575, 10527]","[u'2', u'2', u'1']","[[0, u'__', u'__', u'__', u'__', u'__', u'__', u'__', u'__', u'__', u'__', u'__', u'__', u'__', u'__', u'__', u'__'], [0, -4, u'__', u'__', u'__', u'__', u'__', u'__', u'__', u'__', u'__', u'__', u'__', u'__', u'__', u'__', u'__'], [0, -4, u'__', 4, u'__', u'__', u'__', u'__', u'__', u'__', u'__', u'__', u'__', u'__', u'__', u'__', u'__'], [0, -4, u'__', 4, u'__', -12, u'__', u'__', u'__', u'__', u'__', u'__', u'__', u'__', u'__', u'__', u'__'], [0, -4, u'__', 4, u'__', -12, u'__', u'__', u'__', u'__', u'__', -4, u'__', u'__', u'__', u'__', u'__']]",,[],[],"[1, 3, 5, 11, u'__TERM_ACTION__']","[9, 10, 12]",[],[],"{u'mouseover': {u'state': {u'target': [], u'time': []}, u'edge': {u'target': [], u'time': []}}, u'click': {u'state': {u'target': [1, 3, 5, 11], u'time': [3414, 4010, 5212, 6636]}, u'edge': {u'target': [], u'time': []}}, u'mouseout': {u'state': {u'target': [], u'time': []}, u'edge': {u'target': [], u'time': []}}}",,,"[8527, 532, 449]",16.2,631401,11.0,10.0,mouselab-mdp,,2
,"[3705, 4658, 6425]","[u'2', u'2', u'3']","[[0, u'__', u'__', u'__', u'__', u'__', u'__', u'__', u'__', u'__', u'__', u'__', u'__', u'__', u'__', u'__', u'__'], [0, -20, u'__', u'__', u'__', u'__', u'__', u'__', u'__', u'__', u'__', u'__', u'__', u'__', u'__', u'__', u'__'], [0, -20, u'__', u'__', u'__', u'__', u'__', u'__', u'__', 4, u'__', u'__', u'__', u'__', u'__', u'__', u'__'], [0, -20, u'__', u'__', u'__', u'__', u'__', u'__', u'__', 4, u'__', u'__', 4, u'__', u'__', u'__', u'__']]",,[],[],"[1, 9, 12, u'__TERM_ACTION__']","[9, 10, 11]",[],[],"{u'mouseover': {u'state': {u'target': [], u'time': []}, u'edge': {u'target': [], u'time': []}}, u'click': {u'state': {u'target': [1, 9, 12], u'time': [1112, 2262, 3074]}, u'edge': {u'target': [], u'time': []}}, u'mouseout': {u'state': {u'target': [], u'time': []}, u'edge': {u'target': [], u'time': []}}}",,,"[3705, 445, 1261]",-20.85,673017,12.0,9.0,mouselab-mdp,,2
,"[2056, 3008, 4039]","[u'1', u'1', u'0']","[[0, u'__', u'__', u'__', u'__', u'__', u'__', u'__', u'__', u'__', u'__', u'__', u'__', u'__', u'__', u'__', u'__'], [0, u'__', u'__', u'__', u'__', 12, u'__', u'__', u'__', u'__', u'__', u'__', u'__', u'__', u'__', u'__', u'__'], [0, u'__', u'__', u'__', u'__', 12, u'__', u'__', 4, u'__', u'__', u'__', u'__', u'__', u'__', u'__', u'__']]",,[],[],"[5, 8, u'__TERM_ACTION__']","[5, 6, 8]",[],[],"{u'mouseover': {u'state': {u'target': [], u'time': []}, u'edge': {u'target': [], u'time': []}}, u'click': {u'state': {u'target': [5, 8], u'time': [617, 1469]}, u'edge': {u'target': [], u'time': []}}, u'mouseout': {u'state': {u'target': [], u'time': []}, u'edge': {u'target': [], u'time': []}}}",,,"[2055, 446, 525]",22.1,714225,13.0,14.0,mouselab-mdp,,2
,"[5354, 6410, 7306]","[u'0', u'0', u'3']","[[0, u'__', u'__', u'__', u'__', u'__', u'__', u'__', u'__', u'__', u'__', u'__', u'__', u'__', u'__', u'__', u'__'], [0, u'__', u'__', u'__', u'__', -12, u'__', u'__', u'__', u'__', u'__', u'__', u'__', u'__', u'__', u'__', u'__'], [0, u'__', u'__', u'__', u'__', -12, u'__', u'__', u'__', u'__', u'__', u'__', u'__', -12, u'__', u'__', u'__'], [0, u'__', u'__', u'__', 20, -12, u'__', u'__', u'__', u'__', u'__', u'__', u'__', -12, u'__', u'__', u'__']]",,[],[],"[5, 13, 4, u'__TERM_ACTION__']","[1, 2, 4]",[],[],"{u'mouseover': {u'state': {u'target': [], u'time': []}, u'edge': {u'target': [], u'time': []}}, u'click': {u'state': {u'target': [5, 13, 4], u'time': [1843, 3516, 4818]}, u'edge': {u'target': [], u'time': []}}, u'mouseout': {u'state': {u'target': [], u'time': []}, u'edge': {u'target': [], u'time': []}}}",,,"[5354, 551, 380]",35.15,755432,14.0,13.0,mouselab-mdp,,2
,"[3306, 4386, 5258]","[u'1', u'1', u'2']","[[0, u'__', u'__', u'__', u'__', u'__', u'__', u'__', u'__', u'__', u'__', u'__', u'__', u'__', u'__', u'__', u'__'], [0, u'__', u'__', u'__', u'__', 12, u'__', u'__', u'__', u'__', u'__', u'__', u'__', u'__', u'__', u'__', u'__'], [0, u'__', u'__', u'__', u'__', 12, u'__', u'__', -12, u'__', u'__', u'__', u'__', u'__', u'__', u'__', u'__']]",,[],[],"[5, 8, u'__TERM_ACTION__']","[5, 6, 7]",[],[],"{u'mouseover': {u'state': {u'target': [], u'time': []}, u'edge': {u'target': [], u'time': []}}, u'click': {u'state': {u'target': [5, 8], u'time': [1701, 2371]}, u'edge': {u'target': [], u'time': []}}, u'mouseout': {u'state': {u'target': [], u'time': []}, u'edge': {u'target': [], u'time': []}}}",,,"[3306, 571, 357]",22.1,798216,15.0,4.0,mouselab-mdp,,2
,"[2523, 3635, 4555]","[u'0', u'0', u'1']","[[0, u'__', u'__', u'__', u'__', u'__', u'__', u'__', u'__', u'__', u'__', u'__', u'__', u'__', u'__', u'__', u'__'], [0, 20, u'__', u'__', u'__', u'__', u'__', u'__', u'__', u'__', u'__', u'__', u'__', u'__', u'__', u'__', u'__'], [0, 20, u'__', 4, u'__', u'__', u'__', u'__', u'__', u'__', u'__', u'__', u'__', u'__', u'__', u'__', u'__']]",,[],[],"[1, 3, u'__TERM_ACTION__']","[1, 2, 3]",[],[],"{u'mouseover': {u'state': {u'target': [], u'time': []}, u'edge': {u'target': [], u'time': []}}, u'click': {u'state': {u'target': [1, 3], u'time': [771, 1625]}, u'edge': {u'target': [], u'time': []}}, u'mouseout': {u'state': {u'target': [], u'time': []}, u'edge': {u'target': [], u'time': []}}}",,,"[2523, 597, 415]",22.1,842800,16.0,2.0,mouselab-mdp,,2
"[{u'Q': 20, u'action': u'__TERM_ACTION__', u'Qs': {u'1': 20, u'9': -44, u'13': 28, u'5': 20}, u'state': [0, u'__', u'__', u'__', u'__', u'__', u'__', u'__', u'__', u'__', u'__', u'__', u'__', u'__', u'__', u'__', u'__'], u'V': 28}]","[7484, 28187, 33538]","[u'1', u'1', u'0']","[[0, u'__', u'__', u'__', u'__', u'__', u'__', u'__', u'__', u'__', u'__', u'__', u'__', u'__', u'__', u'__', u'__']]",,[5],[True],[u'__TERM_ACTION__'],"[5, 6, 8]",[True],[False],"{u'mouseover': {u'state': {u'target': [], u'time': []}, u'edge': {u'target': [], u'time': []}}, u'click': {u'state': {u'target': [], u'time': []}, u'edge': {u'target': [], u'time': []}}, u'mouseout': {u'state': {u'target': [], u'time': []}, u'edge': {u'target': [], u'time': []}}}",,,"[7484, 15194, 4853]",4.0,238110,1.0,7.0,mouselab-mdp,,3
"[{u'Q': -4, u'action': u'__TERM_ACTION__', u'Qs': {u'1': -12, u'9': -4, u'13': -12, u'5': -20}, u'state': [0, u'__', u'__', u'__', u'__', u'__', u'__', u'__', -20, u'__', u'__', u'__', u'__', u'__', u'__', u'__', u'__'], u'V': -4}]","[5906, 17002, 21151]","[u'2', u'2', u'3']","[[0, u'__', u'__', u'__', u'__', u'__', u'__', u'__', u'__', u'__', u'__', u'__', u'__', u'__', u'__', u'__', u'__'], [0, u'__', u'__', u'__', u'__', u'__', u'__', u'__', -20, u'__', u'__', u'__', u'__', u'__', u'__', u'__', u'__']]",,[5],[True],"[8, u'__TERM_ACTION__']","[9, 10, 11]",[False],[False],"{u'mouseover': {u'state': {u'target': [], u'time': []}, u'edge': {u'target': [], u'time': []}}, u'click': {u'state': {u'target': [8], u'time': [2757]}, u'edge': {u'target': [], u'time': []}}, u'mouseout': {u'state': {u'target': [], u'time': []}, u'edge': {u'target': [], u'time': []}}}",,,"[5906, 5601, 3635]",-6.5,285994,2.0,3.0,mouselab-mdp,,3
"[{u'Q': 12, u'action': u'__TERM_ACTION__', u'Qs': {u'1': -4, u'9': 12, u'13': 12, u'5': -4}, u'state': [0, u'__', u'__', u'__', u'__', u'__', u'__', u'__', u'__', u'__', u'__', u'__', u'__', u'__', u'__', u'__', u'__'], u'V': 12}]","[4587, 19681, 59857]","[u'3', u'3', u'0']","[[0, u'__', u'__', u'__', u'__', u'__', u'__', u'__', u'__', u'__', u'__', u'__', u'__', u'__', u'__', u'__', u'__']]",,[5],[True],[u'__TERM_ACTION__'],"[13, 14, 15]",[False],[False],"{u'mouseover': {u'state': {u'target': [], u'time': []}, u'edge': {u'target': [], u'time': []}}, u'click': {u'state': {u'target': [], u'time': []}, u'edge': {u'target': [], u'time': []}}, u'mouseout': {u'state': {u'target': [], u'time': []}, u'edge': {u'target': [], u'time': []}}}",,,"[4587, 9585, 39674]",12.0,354289,3.0,11.0,mouselab-mdp,,3
"[{u'Q': 28, u'action': u'__TERM_ACTION__', u'Qs': {u'1': 20, u'9': 28, u'13': -4, u'5': 28}, u'state': [0, u'__', u'__', u'__', u'__', u'__', u'__', u'__', u'__', u'__', u'__', u'__', u'__', u'__', u'__', u'__', u'__'], u'V': 28}]","[5652, 11818, 14945]","[u'1', u'1', u'2']","[[0, u'__', u'__', u'__', u'__', u'__', u'__', u'__', u'__', u'__', u'__', u'__', u'__', u'__', u'__', u'__', u'__']]",,[5],[True],[u'__TERM_ACTION__'],"[5, 6, 7]",[False],[False],"{u'mouseover': {u'state': {u'target': [], u'time': []}, u'edge': {u'target': [], u'time': []}}, u'click': {u'state': {u'target': [], u'time': []}, u'edge': {u'target': [], u'time': []}}, u'mouseout': {u'state': {u'target': [], u'time': []}, u'edge': {u'target': [], u'time': []}}}",,,"[5652, 671, 2623]",4.0,400764,4.0,5.0,mouselab-mdp,,3
"[{u'Q': -4, u'action': u'__TERM_ACTION__', u'Qs': {u'1': -4, u'9': 4, u'13': 4, u'5': -28}, u'state': [0, u'__', u'__', u'__', u'__', u'__', u'__', u'__', u'__', u'__', u'__', u'__', u'__', u'__', u'__', u'__', u'__'], u'V': 4}]","[4424, 13273, 17617]","[u'0', u'0', u'3']","[[0, u'__', u'__', u'__', u'__', u'__', u'__', u'__', u'__', u'__', u'__', u'__', u'__', u'__', u'__', u'__', u'__']]",,[5],[True],[u'__TERM_ACTION__'],"[1, 2, 4]",[True],[False],"{u'mouseover': {u'state': {u'target': [], u'time': []}, u'edge': {u'target': [], u'time': []}}, u'click': {u'state': {u'target': [], u'time': []}, u'edge': {u'target': [], u'time': []}}, u'mouseout': {u'state': {u'target': [], u'time': []}, u'edge': {u'target': [], u'time': []}}}",,,"[4424, 3355, 3855]",-4.0,447857,5.0,0.0,mouselab-mdp,,3
"[{u'Q': 12, u'action': u'__TERM_ACTION__', u'Qs': {u'1': 44, u'9': 12, u'13': -4, u'5': -20}, u'state': [0, u'__', u'__', u'__', u'__', u'__', u'__', u'__', u'__', u'__', u'__', u'__', u'__', u'__', u'__', u'__', u'__'], u'V': 44}]","[5997, 19334, 22677]","[u'2', u'2', u'1']","[[0, u'__', u'__', u'__', u'__', u'__', u'__', u'__', u'__', u'__', u'__', u'__', u'__', u'__', u'__', u'__', u'__']]",,[5],[True],[u'__TERM_ACTION__'],"[9, 10, 12]",[True],[False],"{u'mouseover': {u'state': {u'target': [], u'time': []}, u'edge': {u'target': [], u'time': []}}, u'click': {u'state': {u'target': [], u'time': []}, u'edge': {u'target': [], u'time': []}}, u'mouseout': {u'state': {u'target': [], u'time': []}, u'edge': {u'target': [], u'time': []}}}",,,"[5997, 7841, 2850]",-20.0,495159,6.0,13.0,mouselab-mdp,,3
"[{u'Q': -4, u'action': u'__TERM_ACTION__', u'Qs': {u'1': 28, u'9': 36, u'13': -4, u'5': 20}, u'state': [0, u'__', u'__', u'__', u'__', u'__', u'__', u'__', u'__', u'__', u'__', u'__', u'__', u'__', u'__', u'__', u'__'], u'V': 36}]","[3158, 10104, 13086]","[u'3', u'3', u'2']","[[0, u'__', u'__', u'__', u'__', u'__', u'__', u'__', u'__', u'__', u'__', u'__', u'__', u'__', u'__', u'__', u'__']]",,[5],[True],[u'__TERM_ACTION__'],"[13, 14, 16]",[True],[False],"{u'mouseover': {u'state': {u'target': [], u'time': []}, u'edge': {u'target': [], u'time': []}}, u'click': {u'state': {u'target': [], u'time': []}, u'edge': {u'target': [], u'time': []}}, u'mouseout': {u'state': {u'target': [], u'time': []}, u'edge': {u'target': [], u'time': []}}}",,,"[3158, 1443, 2485]",-20.0,541551,7.0,2.0,mouselab-mdp,,3
"[{u'Q': 36, u'action': u'__TERM_ACTION__', u'Qs': {u'1': 20, u'9': 36, u'13': -4, u'5': -4}, u'state': [0, u'__', u'__', u'__', u'__', u'__', u'__', u'__', u'__', u'__', u'__', u'__', u'__', u'__', u'__', u'__', u'__'], u'V': 36}]","[6286, 13174, 18134]","[u'2', u'2', u'1']","[[0, u'__', u'__', u'__', u'__', u'__', u'__', u'__', u'__', u'__', u'__', u'__', u'__', u'__', u'__', u'__', u'__']]",,[5],[True],[u'__TERM_ACTION__'],"[9, 10, 12]",[False],[False],"{u'mouseover': {u'state': {u'target': [], u'time': []}, u'edge': {u'target': [], u'time': []}}, u'click': {u'state': {u'target': [], u'time': []}, u'edge': {u'target': [], u'time': []}}, u'mouseout': {u'state': {u'target': [], u'time': []}, u'edge': {u'target': [], u'time': []}}}",,,"[6286, 1386, 4456]",28.0,588224,8.0,12.0,mouselab-mdp,,3
"[{u'Q': 20, u'action': u'__TERM_ACTION__', u'Qs': {u'1': 20, u'9': 28, u'13': 12, u'5': 12}, u'state': [0, u'__', u'__', u'__', u'__', u'__', u'__', u'__', u'__', u'__', u'__', u'__', u'__', u'__', u'__', u'__', u'__'], u'V': 28}]","[5987, 14316, 19939]","[u'0', u'0', u'3']","[[0, u'__', u'__', u'__', u'__', u'__', u'__', u'__', u'__', u'__', u'__', u'__', u'__', u'__', u'__', u'__', u'__']]",,[5],[True],[u'__TERM_ACTION__'],"[1, 2, 4]",[True],[False],"{u'mouseover': {u'state': {u'target': [], u'time': []}, u'edge': {u'target': [], u'time': []}}, u'click': {u'state': {u'target': [], u'time': []}, u'edge': {u'target': [], u'time': []}}, u'mouseout': {u'state': {u'target': [], u'time': []}, u'edge': {u'target': [], u'time': []}}}",,,"[5987, 2825, 5123]",20.0,636661,9.0,6.0,mouselab-mdp,,3
"[{u'Q': 28, u'action': u'__TERM_ACTION__', u'Qs': {u'1': 20, u'9': 12, u'13': -4, u'5': 28}, u'state': [0, u'__', u'__', u'__', u'__', u'__', u'__', u'__', u'__', u'__', u'__', u'__', u'__', u'__', u'__', u'__', u'__'], u'V': 28}]","[6704, 12791, 19621]","[u'1', u'1', u'0']","[[0, u'__', u'__', u'__', u'__', u'__', u'__', u'__', u'__', u'__', u'__', u'__', u'__', u'__', u'__', u'__', u'__']]",,[5],[True],[u'__TERM_ACTION__'],"[5, 6, 8]",[False],[False],"{u'mouseover': {u'state': {u'target': [], u'time': []}, u'edge': {u'target': [], u'time': []}}, u'click': {u'state': {u'target': [], u'time': []}, u'edge': {u'target': [], u'time': []}}, u'mouseout': {u'state': {u'target': [], u'time': []}, u'edge': {u'target': [], u'time': []}}}",,,"[6704, 585, 6338]",28.0,684887,10.0,14.0,mouselab-mdp,,3
,"[5484, 8548, 11878]","[u'0', u'0', u'1']","[[0, u'__', u'__', u'__', u'__', u'__', u'__', u'__', u'__', u'__', u'__', u'__', u'__', u'__', u'__', u'__', u'__']]",,[],[],[u'__TERM_ACTION__'],"[1, 2, 3]",[],[],"{u'mouseover': {u'state': {u'target': [], u'time': []}, u'edge': {u'target': [], u'time': []}}, u'click': {u'state': {u'target': [], u'time': []}, u'edge': {u'target': [], u'time': []}}, u'mouseout': {u'state': {u'target': [], u'time': []}, u'edge': {u'target': [], u'time': []}}}",,,"[5483, 2559, 2837]",-36.0,726324,11.0,9.0,mouselab-mdp,,3
,"[2143, 4774, 8334]","[u'3', u'3', u'2']","[[0, u'__', u'__', u'__', u'__', u'__', u'__', u'__', u'__', u'__', u'__', u'__', u'__', u'__', u'__', u'__', u'__']]",,[],[],[u'__TERM_ACTION__'],"[13, 14, 16]",[],[],"{u'mouseover': {u'state': {u'target': [], u'time': []}, u'edge': {u'target': [], u'time': []}}, u'click': {u'state': {u'target': [], u'time': []}, u'edge': {u'target': [], u'time': []}}, u'mouseout': {u'state': {u'target': [], u'time': []}, u'edge': {u'target': [], u'time': []}}}",,,"[2143, 2129, 3069]",-20.0,767909,12.0,8.0,mouselab-mdp,,3
,"[3722, 5745, 8753]","[u'2', u'2', u'1']","[[0, u'__', u'__', u'__', u'__', u'__', u'__', u'__', u'__', u'__', u'__', u'__', u'__', u'__', u'__', u'__', u'__']]",,[],[],[u'__TERM_ACTION__'],"[9, 10, 12]",[],[],"{u'mouseover': {u'state': {u'target': [], u'time': []}, u'edge': {u'target': [], u'time': []}}, u'click': {u'state': {u'target': [], u'time': []}, u'edge': {u'target': [], u'time': []}}, u'mouseout': {u'state': {u'target': [], u'time': []}, u'edge': {u'target': [], u'time': []}}}",,,"[3722, 1521, 2507]",4.0,810346,13.0,1.0,mouselab-mdp,,3
,"[3814, 5815, 8142]","[u'3', u'3', u'0']","[[0, u'__', u'__', u'__', u'__', u'__', u'__', u'__', u'__', u'__', u'__', u'__', u'__', u'__', u'__', u'__', u'__']]",,[],[],[u'__TERM_ACTION__'],"[13, 14, 15]",[],[],"{u'mouseover': {u'state': {u'target': [], u'time': []}, u'edge': {u'target': [], u'time': []}}, u'click': {u'state': {u'target': [], u'time': []}, u'edge': {u'target': [], u'time': []}}, u'mouseout': {u'state': {u'target': [], u'time': []}, u'edge': {u'target': [], u'time': []}}}",,,"[3814, 1501, 1824]",20.0,851874,14.0,15.0,mouselab-mdp,,3
,"[4664, 6688, 9473]","[u'2', u'2', u'3']","[[0, u'__', u'__', u'__', u'__', u'__', u'__', u'__', u'__', u'__', u'__', u'__', u'__', u'__', u'__', u'__', u'__']]",,[],[],[u'__TERM_ACTION__'],"[9, 10, 11]",[],[],"{u'mouseover': {u'state': {u'target': [], u'time': []}, u'edge': {u'target': [], u'time': []}}, u'click': {u'state': {u'target': [], u'time': []}, u'edge': {u'target': [], u'time': []}}, u'mouseout': {u'state': {u'target': [], u'time': []}, u'edge': {u'target': [], u'time': []}}}",,,"[4664, 1530, 2295]",-4.0,893192,15.0,4.0,mouselab-mdp,,3
,"[1903, 3422, 5527]","[u'0', u'0', u'1']","[[0, u'__', u'__', u'__', u'__', u'__', u'__', u'__', u'__', u'__', u'__', u'__', u'__', u'__', u'__', u'__', u'__']]",,[],[],[u'__TERM_ACTION__'],"[1, 2, 3]",[],[],"{u'mouseover': {u'state': {u'target': [], u'time': []}, u'edge': {u'target': [], u'time': []}}, u'click': {u'state': {u'target': [], u'time': []}, u'edge': {u'target': [], u'time': []}}, u'mouseout': {u'state': {u'target': [], u'time': []}, u'edge': {u'target': [], u'time': []}}}",,,"[1903, 1021, 1608]",-4.0,936112,16.0,10.0,mouselab-mdp,,3
"[{u'Q': -4, u'action': u'__TERM_ACTION__', u'Qs': {u'1': -4, u'9': 12, u'13': 12, u'5': -4}, u'state': [0, u'__', u'__', u'__', u'__', u'__', u'__', u'__', u'__', u'__', u'__', u'__', u'__', u'__', u'__', u'__', u'__'], u'V': 12}]","[3103, 13498, 15923]","[u'1', u'1', u'0']","[[0, u'__', u'__', u'__', u'__', u'__', u'__', u'__', u'__', u'__', u'__', u'__', u'__', u'__', u'__', u'__', u'__']]",,[5],[True],[u'__TERM_ACTION__'],"[5, 6, 8]",[True],[False],"{u'mouseover': {u'state': {u'target': [], u'time': []}, u'edge': {u'target': [], u'time': []}}, u'click': {u'state': {u'target': [], u'time': []}, u'edge': {u'target': [], u'time': []}}, u'mouseout': {u'state': {u'target': [], u'time': []}, u'edge': {u'target': [], u'time': []}}}",,,"[3103, 4865, 1904]",-20.0,203719,1.0,11.0,mouselab-mdp,,4
"[{u'Q': 20, u'action': u'__TERM_ACTION__', u'Qs': {u'1': 20, u'9': 36, u'13': -4, u'5': -4}, u'state': [0, u'__', u'__', u'__', u'__', u'__', u'__', u'__', u'__', u'__', u'__', u'__', u'__', u'__', u'__', u'__', u'__'], u'V': 36}]","[1433, 17146, 19591]","[u'0', u'0', u'3']","[[0, u'__', u'__', u'__', u'__', u'__', u'__', u'__', u'__', u'__', u'__', u'__', u'__', u'__', u'__', u'__', u'__']]",,[5],[True],[u'__TERM_ACTION__'],"[1, 2, 4]",[True],[False],"{u'mouseover': {u'state': {u'target': [], u'time': []}, u'edge': {u'target': [], u'time': []}}, u'click': {u'state': {u'target': [], u'time': []}, u'edge': {u'target': [], u'time': []}}, u'mouseout': {u'state': {u'target': [], u'time': []}, u'edge': {u'target': [], u'time': []}}}",,,"[1433, 10199, 1936]",20.0,254535,2.0,12.0,mouselab-mdp,,4
"[{u'Q': 4, u'action': u'__TERM_ACTION__', u'Qs': {u'1': 4, u'9': 28, u'13': 4, u'5': -36}, u'state': [0, u'__', u'__', u'__', u'__', u'__', u'__', u'__', u'__', u'__', u'__', u'__', u'__', 4, u'__', u'__', 4], u'V': 28}]","[9032, 15567, 17592]","[u'3', u'3', u'2']","[[0, u'__', u'__', u'__', u'__', u'__', u'__', u'__', u'__', u'__', u'__', u'__', u'__', u'__', u'__', u'__', u'__'], [0, u'__', u'__', u'__', u'__', u'__', u'__', u'__', u'__', u'__', u'__', u'__', u'__', 4, u'__', u'__', u'__'], [0, u'__', u'__', u'__', u'__', u'__', u'__', u'__', u'__', u'__', u'__', u'__', u'__', 4, u'__', u'__', 4]]",,[5],[True],"[13, 16, u'__TERM_ACTION__']","[13, 14, 16]",[True],[False],"{u'mouseover': {u'state': {u'target': [], u'time': []}, u'edge': {u'target': [], u'time': []}}, u'click': {u'state': {u'target': [13, 16], u'time': [3812, 6977]}, u'edge': {u'target': [], u'time': []}}, u'mouseout': {u'state': {u'target': [], u'time': []}, u'edge': {u'target': [], u'time': []}}}",,,"[9032, 1019, 1513]",-1.9,301207,3.0,10.0,mouselab-mdp,,4
"[{u'Q': 20, u'action': u'__TERM_ACTION__', u'Qs': {u'1': 4, u'9': 20, u'13': -20, u'5': -4}, u'state': [0, u'__', u'__', u'__', u'__', u'__', u'__', u'__', u'__', 12, u'__', 12, 4, u'__', u'__', u'__', u'__'], u'V': 20}]","[7410, 13563, 15235]","[u'2', u'2', u'3']","[[0, u'__', u'__', u'__', u'__', u'__', u'__', u'__', u'__', u'__', u'__', u'__', u'__', u'__', u'__', u'__', u'__'], [0, u'__', u'__', u'__', u'__', u'__', u'__', u'__', u'__', 12, u'__', u'__', u'__', u'__', u'__', u'__', u'__'], [0, u'__', u'__', u'__', u'__', u'__', u'__', u'__', u'__', 12, u'__', u'__', 4, u'__', u'__', u'__', u'__'], [0, u'__', u'__', u'__', u'__', u'__', u'__', u'__', u'__', 12, u'__', 12, 4, u'__', u'__', u'__', u'__']]",,[5],[True],"[9, 12, 11, u'__TERM_ACTION__']","[9, 10, 11]",[False],[False],"{u'mouseover': {u'state': {u'target': [], u'time': []}, u'edge': {u'target': [], u'time': []}}, u'click': {u'state': {u'target': [9, 12, 11], u'time': [2428, 4904, 6243]}, u'edge': {u'target': [], u'time': []}}, u'mouseout': {u'state': {u'target': [], u'time': []}, u'edge': {u'target': [], u'time': []}}}",,,"[7410, 635, 1164]",11.15,367646,4.0,8.0,mouselab-mdp,,4
"[{u'Q': 44, u'action': u'__TERM_ACTION__', u'Qs': {u'1': 44, u'9': 12, u'13': -4, u'5': -20}, u'state': [0, 12, u'__', -4, 20, u'__', u'__', u'__', u'__', u'__', u'__', u'__', u'__', u'__', u'__', u'__', u'__'], u'V': 44}]","[9500, 15672, 17361]","[u'0', u'0', u'3']","[[0, u'__', u'__', u'__', u'__', u'__', u'__', u'__', u'__', u'__', u'__', u'__', u'__', u'__', u'__', u'__', u'__'], [0, 12, u'__', u'__', u'__', u'__', u'__', u'__', u'__', u'__', u'__', u'__', u'__', u'__', u'__', u'__', u'__'], [0, 12, u'__', -4, u'__', u'__', u'__', u'__', u'__', u'__', u'__', u'__', u'__', u'__', u'__', u'__', u'__'], [0, 12, u'__', -4, 20, u'__', u'__', u'__', u'__', u'__', u'__', u'__', u'__', u'__', u'__', u'__', u'__']]",,[5],[True],"[1, 3, 4, u'__TERM_ACTION__']","[1, 2, 4]",[False],[False],"{u'mouseover': {u'state': {u'target': [], u'time': []}, u'edge': {u'target': [], u'time': []}}, u'click': {u'state': {u'target': [1, 3, 4], u'time': [4258, 5930, 7548]}, u'edge': {u'target': [], u'time': []}}, u'mouseout': {u'state': {u'target': [], u'time': []}, u'edge': {u'target': [], u'time': []}}}",,,"[9500, 656, 1182]",35.15,416145,5.0,13.0,mouselab-mdp,,4
"[{u'Q': -4, u'action': u'__TERM_ACTION__', u'Qs': {u'1': -12, u'9': -4, u'13': -12, u'5': -20}, u'state': [0, -4, u'__', u'__', u'__', -12, u'__', u'__', u'__', 4, u'__', 4, 4, -12, u'__', u'__', u'__'], u'V': -4}]","[18665, 24808, 26465]","[u'2', u'2', u'1']","[[0, u'__', u'__', u'__', u'__', u'__', u'__', u'__', u'__', u'__', u'__', u'__', u'__', u'__', u'__', u'__', u'__'], [0, u'__', u'__', u'__', u'__', u'__', u'__', u'__', u'__', 4, u'__', u'__', u'__', u'__', u'__', u'__', u'__'], [0, -4, u'__', u'__', u'__', u'__', u'__', u'__', u'__', 4, u'__', u'__', u'__', u'__', u'__', u'__', u'__'], [0, -4, u'__', u'__', u'__', u'__', u'__', u'__', u'__', 4, u'__', u'__', u'__', -12, u'__', u'__', u'__'], [0, -4, u'__', u'__', u'__', -12, u'__', u'__', u'__', 4, u'__', u'__', u'__', -12, u'__', u'__', u'__'], [0, -4, u'__', u'__', u'__', -12, u'__', u'__', u'__', 4, u'__', 4, u'__', -12, u'__', u'__', u'__'], [0, -4, u'__', u'__', u'__', -12, u'__', u'__', u'__', 4, u'__', 4, 4, -12, u'__', u'__', u'__']]",,[5],[True],"[9, 1, 13, 5, 11, 12, u'__TERM_ACTION__']","[9, 10, 12]",[False],[False],"{u'mouseover': {u'state': {u'target': [], u'time': []}, u'edge': {u'target': [], u'time': []}}, u'click': {u'state': {u'target': [9, 1, 13, 5, 11, 12], u'time': [2283, 7859, 9607, 10514, 12272, 13517]}, u'edge': {u'target': [], u'time': []}}, u'mouseout': {u'state': {u'target': [], u'time': []}, u'edge': {u'target': [], u'time': []}}}",,,"[18664, 621, 1151]",-21.7,465094,6.0,3.0,mouselab-mdp,,4
"[{u'Q': 28, u'action': u'__TERM_ACTION__', u'Qs': {u'1': 20, u'9': -44, u'13': 28, u'5': 20}, u'state': [0, u'__', u'__', u'__', u'__', 4, u'__', 4, u'__', u'__', u'__', u'__', u'__', 12, u'__', 4, 12], u'V': 28}]","[11459, 19361, 21762]","[u'3', u'3', u'2']","[[0, u'__', u'__', u'__', u'__', u'__', u'__', u'__', u'__', u'__', u'__', u'__', u'__', u'__', u'__', u'__', u'__'], [0, u'__', u'__', u'__', u'__', 4, u'__', u'__', u'__', u'__', u'__', u'__', u'__', u'__', u'__', u'__', u'__'], [0, u'__', u'__', u'__', u'__', 4, u'__', 4, u'__', u'__', u'__', u'__', u'__', u'__', u'__', u'__', u'__'], [0, u'__', u'__', u'__', u'__', 4, u'__', 4, u'__', u'__', u'__', u'__', u'__', 12, u'__', u'__', u'__'], [0, u'__', u'__', u'__', u'__', 4, u'__', 4, u'__', u'__', u'__', u'__', u'__', 12, u'__', 4, u'__'], [0, u'__', u'__', u'__', u'__', 4, u'__', 4, u'__', u'__', u'__', u'__', u'__', 12, u'__', 4, 12]]",,[5],[True],"[5, 7, 13, 15, 16, u'__TERM_ACTION__']","[13, 14, 16]",[False],[False],"{u'mouseover': {u'state': {u'target': [], u'time': []}, u'edge': {u'target': [], u'time': []}}, u'click': {u'state': {u'target': [5, 7, 13, 15, 16], u'time': [4196, 5347, 7239, 8215, 10243]}, u'edge': {u'target': [], u'time': []}}, u'mouseout': {u'state': {u'target': [], u'time': []}, u'edge': {u'target': [], u'time': []}}}",,,"[11459, 2387, 1880]",13.25,515327,7.0,7.0,mouselab-mdp,,4
"[{u'Q': 4, u'action': u'__TERM_ACTION__', u'Qs': {u'1': -28, u'9': -4, u'13': 12, u'5': 4}, u'state': [0, -20, u'__', u'__', u'__', 4, u'__', -12, 20, 4, u'__', -4, 4, -12, u'__', u'__', u'__'], u'V': 12}]","[18684, 24717, 26508]","[u'1', u'1', u'0']","[[0, u'__', u'__', u'__', u'__', u'__', u'__', u'__', u'__', u'__', u'__', u'__', u'__', u'__', u'__', u'__', u'__'], [0, -20, u'__', u'__', u'__', u'__', u'__', u'__', u'__', u'__', u'__', u'__', u'__', u'__', u'__', u'__', u'__'], [0, -20, u'__', u'__', u'__', u'__', u'__', u'__', u'__', 4, u'__', u'__', u'__', u'__', u'__', u'__', u'__'], [0, -20, u'__', u'__', u'__', 4, u'__', u'__', u'__', 4, u'__', u'__', u'__', u'__', u'__', u'__', u'__'], [0, -20, u'__', u'__', u'__', 4, u'__', u'__', u'__', 4, u'__', u'__', u'__', -12, u'__', u'__', u'__'], [0, -20, u'__', u'__', u'__', 4, u'__', -12, u'__', 4, u'__', u'__', u'__', -12, u'__', u'__', u'__'], [0, -20, u'__', u'__', u'__', 4, u'__', -12, u'__', 4, u'__', u'__', 4, -12, u'__', u'__', u'__'], [0, -20, u'__', u'__', u'__', 4, u'__', -12, u'__', 4, u'__', -4, 4, -12, u'__', u'__', u'__'], [0, -20, u'__', u'__', u'__', 4, u'__', -12, 20, 4, u'__', -4, 4, -12, u'__', u'__', u'__']]",,[5],[True],"[1, 9, 5, 13, 7, 12, 11, 8, u'__TERM_ACTION__']","[5, 6, 8]",[True],[False],"{u'mouseover': {u'state': {u'target': [], u'time': []}, u'edge': {u'target': [], u'time': []}}, u'click': {u'state': {u'target': [1, 9, 5, 13, 7, 12, 11, 8], u'time': [7671, 10173, 11481, 12280, 14742, 15876, 16620, 17344]}, u'edge': {u'target': [], u'time': []}}, u'mouseout': {u'state': {u'target': [], u'time': []}, u'edge': {u'target': [], u'time': []}}}",,,"[18684, 520, 1282]",-19.6,561671,8.0,9.0,mouselab-mdp,,4
"[{u'Q': 4, u'action': u'__TERM_ACTION__', u'Qs': {u'1': -4, u'9': 4, u'13': 4, u'5': -28}, u'state': [0, -4, 4, -20, -4, -12, -12, -12, -4, -4, 4, -4, 4, -12, 12, -20, 4], u'V': 4}]","[33984, 39951, 40596]","[u'3', u'3', u'2']","[[0, u'__', u'__', u'__', u'__', u'__', u'__', u'__', u'__', u'__', u'__', u'__', u'__', u'__', u'__', u'__', u'__'], [0, -4, u'__', u'__', u'__', u'__', u'__', u'__', u'__', u'__', u'__', u'__', u'__', u'__', u'__', u'__', u'__'], [0, -4, u'__', u'__', u'__', u'__', u'__', u'__', u'__', u'__', u'__', u'__', u'__', -12, u'__', u'__', u'__'], [0, -4, u'__', u'__', u'__', u'__', u'__', u'__', u'__', -4, u'__', u'__', u'__', -12, u'__', u'__', u'__'], [0, -4, u'__', u'__', u'__', -12, u'__', u'__', u'__', -4, u'__', u'__', u'__', -12, u'__', u'__', u'__'], [0, -4, u'__', u'__', u'__', -12, u'__', u'__', u'__', -4, u'__', u'__', 4, -12, u'__', u'__', u'__'], [0, -4, u'__', u'__', u'__', -12, u'__', u'__', u'__', -4, u'__', -4, 4, -12, u'__', u'__', u'__'], [0, -4, u'__', -20, u'__', -12, u'__', u'__', u'__', -4, u'__', -4, 4, -12, u'__', u'__', u'__'], [0, -4, u'__', -20, -4, -12, u'__', u'__', u'__', -4, u'__', -4, 4, -12, u'__', u'__', u'__'], [0, -4, u'__', -20, -4, -12, u'__', u'__', u'__', -4, u'__', -4, 4, -12, u'__', u'__', 4], [0, -4, u'__', -20, -4, -12, u'__', u'__', u'__', -4, u'__', -4, 4, -12, u'__', -20, 4], [0, -4, u'__', -20, -4, -12, u'__', u'__', -4, -4, u'__', -4, 4, -12, u'__', -20, 4], [0, -4, u'__', -20, -4, -12, u'__', -12, -4, -4, u'__', -4, 4, -12, u'__', -20, 4], [0, -4, 4, -20, -4, -12, u'__', -12, -4, -4, u'__', -4, 4, -12, u'__', -20, 4], [0, -4, 4, -20, -4, -12, u'__', -12, -4, -4, u'__', -4, 4, -12, 12, -20, 4], [0, -4, 4, -20, -4, -12, u'__', -12, -4, -4, 4, -4, 4, -12, 12, -20, 4], [0, -4, 4, -20, -4, -12, -12, -12, -4, -4, 4, -4, 4, -12, 12, -20, 4]]",,[5],[True],"[1, 13, 9, 5, 12, 11, 3, 4, 16, 15, 8, 7, 2, 14, 10, 6, u'__TERM_ACTION__']","[13, 14, 16]",[False],[False],"{u'mouseover': {u'state': {u'target': [], u'time': []}, u'edge': {u'target': [], u'time': []}}, u'click': {u'state': {u'target': [1, 13, 9, 5, 12, 11, 3, 4, 16, 15, 8, 7, 2, 14, 10, 6], u'time': [4475, 6331, 7528, 8246, 9962, 11031, 11727, 12299, 16635, 17361, 18043, 18520, 19372, 20115, 20653, 21320]}, u'edge': {u'target': [], u'time': []}}, u'mouseout': {u'state': {u'target': [], u'time': []}, u'edge': {u'target': [], u'time': []}}}",,,"[33983, 450, 133]",-43.2,608022,9.0,0.0,mouselab-mdp,,4
"[{u'Q': 28, u'action': u'__TERM_ACTION__', u'Qs': {u'1': 20, u'9': 28, u'13': 12, u'5': 12}, u'state': [0, 12, u'__', -20, 4, -4, u'__', u'__', u'__', 12, u'__', -20, 12, 4, u'__', u'__', u'__'], u'V': 28}]","[10523, 16393, 18146]","[u'2', u'2', u'1']","[[0, u'__', u'__', u'__', u'__', u'__', u'__', u'__', u'__', u'__', u'__', u'__', u'__', u'__', u'__', u'__', u'__'], [0, u'__', u'__', u'__', u'__', -4, u'__', u'__', u'__', u'__', u'__', u'__', u'__', u'__', u'__', u'__', u'__'], [0, u'__', u'__', u'__', u'__', -4, u'__', u'__', u'__', u'__', u'__', u'__', u'__', 4, u'__', u'__', u'__'], [0, u'__', u'__', u'__', u'__', -4, u'__', u'__', u'__', 12, u'__', u'__', u'__', 4, u'__', u'__', u'__'], [0, 12, u'__', u'__', u'__', -4, u'__', u'__', u'__', 12, u'__', u'__', u'__', 4, u'__', u'__', u'__'], [0, 12, u'__', u'__', 4, -4, u'__', u'__', u'__', 12, u'__', u'__', u'__', 4, u'__', u'__', u'__'], [0, 12, u'__', -20, 4, -4, u'__', u'__', u'__', 12, u'__', u'__', u'__', 4, u'__', u'__', u'__'], [0, 12, u'__', -20, 4, -4, u'__', u'__', u'__', 12, u'__', -20, u'__', 4, u'__', u'__', u'__'], [0, 12, u'__', -20, 4, -4, u'__', u'__', u'__', 12, u'__', -20, 12, 4, u'__', u'__', u'__']]",,[5],[True],"[5, 13, 9, 1, 4, 3, 11, 12, u'__TERM_ACTION__']","[9, 10, 12]",[False],[False],"{u'mouseover': {u'state': {u'target': [], u'time': []}, u'edge': {u'target': [], u'time': []}}, u'click': {u'state': {u'target': [5, 13, 9, 1, 4, 3, 11, 12], u'time': [2905, 3812, 4641, 5320, 6670, 7391, 8261, 8780]}, u'edge': {u'target': [], u'time': []}}, u'mouseout': {u'state': {u'target': [], u'time': []}, u'edge': {u'target': [], u'time': []}}}",,,"[10523, 359, 1247]",4.4,654415,10.0,6.0,mouselab-mdp,,4
,"[11750, 13092, 14269]","[u'2', u'2', u'1']","[[0, u'__', u'__', u'__', u'__', u'__', u'__', u'__', u'__', u'__', u'__', u'__', u'__', u'__', u'__', u'__', u'__'], [0, u'__', u'__', u'__', u'__', u'__', u'__', u'__', u'__', u'__', u'__', u'__', 4, u'__', u'__', u'__', u'__'], [0, u'__', u'__', u'__', u'__', u'__', u'__', u'__', u'__', 12, u'__', u'__', 4, u'__', u'__', u'__', u'__'], [0, u'__', u'__', u'__', u'__', u'__', u'__', u'__', u'__', 12, u'__', -4, 4, u'__', u'__', u'__', u'__']]",,[],[],"[12, 9, 11, u'__TERM_ACTION__']","[9, 10, 12]",[],[],"{u'mouseover': {u'state': {u'target': [], u'time': []}, u'edge': {u'target': [], u'time': []}}, u'click': {u'state': {u'target': [12, 9, 11], u'time': [7758, 9178, 10745]}, u'edge': {u'target': [], u'time': []}}, u'mouseout': {u'state': {u'target': [], u'time': []}, u'edge': {u'target': [], u'time': []}}}",,,"[11750, 821, 666]",3.15,788934,11.0,14.0,mouselab-mdp,,4
,"[3492, 4580, 5555]","[u'1', u'1', u'2']","[[0, u'__', u'__', u'__', u'__', u'__', u'__', u'__', u'__', u'__', u'__', u'__', u'__', u'__', u'__', u'__', u'__'], [0, u'__', u'__', u'__', u'__', 12, u'__', u'__', u'__', u'__', u'__', u'__', u'__', u'__', u'__', u'__', u'__'], [0, u'__', u'__', u'__', u'__', 12, u'__', 12, u'__', u'__', u'__', u'__', u'__', u'__', u'__', u'__', u'__']]",,[],[],"[5, 7, u'__TERM_ACTION__']","[5, 6, 7]",[],[],"{u'mouseover': {u'state': {u'target': [], u'time': []}, u'edge': {u'target': [], u'time': []}}, u'click': {u'state': {u'target': [5, 7], u'time': [1279, 2333]}, u'edge': {u'target': [], u'time': []}}, u'mouseout': {u'state': {u'target': [], u'time': []}, u'edge': {u'target': [], u'time': []}}}",,,"[3492, 565, 457]",22.1,879311,12.0,4.0,mouselab-mdp,,4
,"[1720, 7002, 9263]","[u'0', u'0', u'3']","[[0, u'__', u'__', u'__', u'__', u'__', u'__', u'__', u'__', u'__', u'__', u'__', u'__', u'__', u'__', u'__', u'__']]",,[],[],[u'__TERM_ACTION__'],"[1, 2, 4]",[],[],"{u'mouseover': {u'state': {u'target': [], u'time': []}, u'edge': {u'target': [], u'time': []}}, u'click': {u'state': {u'target': [], u'time': []}, u'edge': {u'target': [], u'time': []}}, u'mouseout': {u'state': {u'target': [], u'time': []}, u'edge': {u'target': [], u'time': []}}}",,,"[1720, 4787, 1751]",-12.0,920383,13.0,1.0,mouselab-mdp,,4
,"[5977, 6824, 7841]","[u'2', u'2', u'1']","[[0, u'__', u'__', u'__', u'__', u'__', u'__', u'__', u'__', u'__', u'__', u'__', u'__', u'__', u'__', u'__', u'__'], [0, u'__', u'__', u'__', u'__', u'__', u'__', u'__', u'__', 20, u'__', u'__', u'__', u'__', u'__', u'__', u'__'], [0, u'__', u'__', u'__', u'__', u'__', u'__', u'__', u'__', 20, u'__', u'__', 12, u'__', u'__', u'__', u'__'], [0, u'__', u'__', u'__', u'__', u'__', u'__', u'__', u'__', 20, u'__', -4, 12, u'__', u'__', u'__', u'__']]",,[],[],"[9, 12, 11, u'__TERM_ACTION__']","[9, 10, 12]",[],[],"{u'mouseover': {u'state': {u'target': [], u'time': []}, u'edge': {u'target': [], u'time': []}}, u'click': {u'state': {u'target': [9, 12, 11], u'time': [2910, 4202, 4921]}, u'edge': {u'target': [], u'time': []}}, u'mouseout': {u'state': {u'target': [], u'time': []}, u'edge': {u'target': [], u'time': []}}}",,,"[5977, 338, 505]",27.15,1629012,14.0,2.0,mouselab-mdp,,4
,"[11429, 12428, 13364]","[u'2', u'2', u'1']","[[0, u'__', u'__', u'__', u'__', u'__', u'__', u'__', u'__', u'__', u'__', u'__', u'__', u'__', u'__', u'__', u'__'], [0, u'__', u'__', u'__', u'__', 4, u'__', u'__', u'__', u'__', u'__', u'__', u'__', u'__', u'__', u'__', u'__'], [0, u'__', u'__', u'__', u'__', 4, u'__', u'__', u'__', u'__', u'__', u'__', u'__', -4, u'__', u'__', u'__'], [0, -4, u'__', u'__', u'__', 4, u'__', u'__', u'__', u'__', u'__', u'__', u'__', -4, u'__', u'__', u'__'], [0, -4, u'__', u'__', u'__', 4, u'__', u'__', u'__', 4, u'__', u'__', u'__', -4, u'__', u'__', u'__'], [0, -4, u'__', u'__', u'__', 4, u'__', -20, u'__', 4, u'__', u'__', u'__', -4, u'__', u'__', u'__'], [0, -4, u'__', u'__', u'__', 4, u'__', -20, -4, 4, u'__', u'__', u'__', -4, u'__', u'__', u'__'], [0, -4, u'__', u'__', u'__', 4, u'__', -20, -4, 4, u'__', u'__', 20, -4, u'__', u'__', u'__']]",,[],[],"[5, 13, 1, 9, 7, 8, 12, u'__TERM_ACTION__']","[9, 10, 12]",[],[],"{u'mouseover': {u'state': {u'target': [], u'time': []}, u'edge': {u'target': [], u'time': []}}, u'click': {u'state': {u'target': [5, 13, 1, 9, 7, 8, 12], u'time': [5202, 6408, 7051, 7600, 8619, 9461, 10219]}, u'edge': {u'target': [], u'time': []}}, u'mouseout': {u'state': {u'target': [], u'time': []}, u'edge': {u'target': [], u'time': []}}}",,,"[11429, 486, 425]",15.35,1671485,15.0,15.0,mouselab-mdp,,4
,"[9607, 10576, 11205]","[u'0', u'0', u'1']","[[0, u'__', u'__', u'__', u'__', u'__', u'__', u'__', u'__', u'__', u'__', u'__', u'__', u'__', u'__', u'__', u'__'], [0, u'__', u'__', u'__', u'__', u'__', u'__', u'__', u'__', 4, u'__', u'__', u'__', u'__', u'__', u'__', u'__'], [0, 12, u'__', u'__', u'__', u'__', u'__', u'__', u'__', 4, u'__', u'__', u'__', u'__', u'__', u'__', u'__'], [0, 12, u'__', 4, u'__', u'__', u'__', u'__', u'__', 4, u'__', u'__', u'__', u'__', u'__', u'__', u'__'], [0, 12, u'__', 4, -4, u'__', u'__', u'__', u'__', 4, u'__', u'__', u'__', u'__', u'__', u'__', u'__']]",,[],[],"[9, 1, 3, 4, u'__TERM_ACTION__']","[1, 2, 3]",[],[],"{u'mouseover': {u'state': {u'target': [], u'time': []}, u'edge': {u'target': [], u'time': []}}, u'click': {u'state': {u'target': [9, 1, 3, 4], u'time': [4592, 5838, 7316, 8102]}, u'edge': {u'target': [], u'time': []}}, u'mouseout': {u'state': {u'target': [], u'time': []}, u'edge': {u'target': [], u'time': []}}}",,,"[9607, 447, 113]",8.2,1712798,16.0,5.0,mouselab-mdp,,4
"[{u'Q': 28, u'action': u'__TERM_ACTION__', u'Qs': {u'1': 20, u'9': 28, u'13': -4, u'5': 28}, u'state': [0, u'__', u'__', u'__', u'__', u'__', u'__', u'__', u'__', u'__', u'__', u'__', u'__', u'__', u'__', u'__', u'__'], u'V': 28}]","[3813, 10662, 19125]","[u'1', u'1', u'2']","[[0, u'__', u'__', u'__', u'__', u'__', u'__', u'__', u'__', u'__', u'__', u'__', u'__', u'__', u'__', u'__', u'__']]",,[5],[True],[u'__TERM_ACTION__'],"[5, 6, 7]",[False],[False],"{u'mouseover': {u'state': {u'target': [], u'time': []}, u'edge': {u'target': [], u'time': []}}, u'click': {u'state': {u'target': [], u'time': []}, u'edge': {u'target': [], u'time': []}}, u'mouseout': {u'state': {u'target': [], u'time': []}, u'edge': {u'target': [], u'time': []}}}",,,"[3812, 1329, 7948]",4.0,431362,1.0,5.0,mouselab-mdp,,5
"[{u'Q': -4, u'action': u'__TERM_ACTION__', u'Qs': {u'1': 44, u'9': 12, u'13': -4, u'5': -20}, u'state': [0, u'__', u'__', u'__', u'__', u'__', u'__', u'__', u'__', u'__', u'__', u'__', u'__', u'__', u'__', u'__', u'__'], u'V': 44}]","[3949, 10115, 14015]","[u'3', u'3', u'2']","[[0, u'__', u'__', u'__', u'__', u'__', u'__', u'__', u'__', u'__', u'__', u'__', u'__', u'__', u'__', u'__', u'__']]",,[5],[True],[u'__TERM_ACTION__'],"[13, 14, 16]",[True],[False],"{u'mouseover': {u'state': {u'target': [], u'time': []}, u'edge': {u'target': [], u'time': []}}, u'click': {u'state': {u'target': [], u'time': []}, u'edge': {u'target': [], u'time': []}}, u'mouseout': {u'state': {u'target': [], u'time': []}, u'edge': {u'target': [], u'time': []}}}",,,"[3949, 643, 3377]",-4.0,505836,2.0,13.0,mouselab-mdp,,5
"[{u'Q': 36, u'action': u'__TERM_ACTION__', u'Qs': {u'1': 12, u'9': 36, u'13': 28, u'5': 4}, u'state': [0, -4, u'__', u'__', u'__', u'__', u'__', u'__', u'__', 4, 12, u'__', 20, -4, u'__', u'__', u'__'], u'V': 36}]","[6491, 12443, 14191]","[u'2', u'2', u'1']","[[0, u'__', u'__', u'__', u'__', u'__', u'__', u'__', u'__', u'__', u'__', u'__', u'__', u'__', u'__', u'__', u'__'], [0, u'__', u'__', u'__', u'__', u'__', u'__', u'__', u'__', u'__', u'__', u'__', u'__', -4, u'__', u'__', u'__'], [0, u'__', u'__', u'__', u'__', u'__', u'__', u'__', u'__', 4, u'__', u'__', u'__', -4, u'__', u'__', u'__'], [0, -4, u'__', u'__', u'__', u'__', u'__', u'__', u'__', 4, u'__', u'__', u'__', -4, u'__', u'__', u'__'], [0, -4, u'__', u'__', u'__', u'__', u'__', u'__', u'__', 4, 12, u'__', u'__', -4, u'__', u'__', u'__'], [0, -4, u'__', u'__', u'__', u'__', u'__', u'__', u'__', 4, 12, u'__', 20, -4, u'__', u'__', u'__']]",,[5],[True],"[13, 9, 1, 10, 12, u'__TERM_ACTION__']","[9, 10, 12]",[False],[False],"{u'mouseover': {u'state': {u'target': [], u'time': []}, u'edge': {u'target': [], u'time': []}}, u'click': {u'state': {u'target': [13, 9, 1, 10, 12], u'time': [922, 1807, 2678, 3534, 4326]}, u'edge': {u'target': [], u'time': []}}, u'mouseout': {u'state': {u'target': [], u'time': []}, u'edge': {u'target': [], u'time': []}}}",,,"[6491, 428, 1226]",21.25,574286,3.0,15.0,mouselab-mdp,,5
"[{u'Q': 12, u'action': u'__TERM_ACTION__', u'Qs': {u'1': -4, u'9': 12, u'13': 12, u'5': -4}, u'state': [0, 4, -4, -12, -4, 4, -12, u'__', u'__', -4, u'__', u'__', u'__', 4, 12, u'__', u'__'], u'V': 12}]","[9251, 15319, 51431]","[u'3', u'3', u'2']","[[0, u'__', u'__', u'__', u'__', u'__', u'__', u'__', u'__', u'__', u'__', u'__', u'__', u'__', u'__', u'__', u'__'], [0, 4, u'__', u'__', u'__', u'__', u'__', u'__', u'__', u'__', u'__', u'__', u'__', u'__', u'__', u'__', u'__'], [0, 4, -4, u'__', u'__', u'__', u'__', u'__', u'__', u'__', u'__', u'__', u'__', u'__', u'__', u'__', u'__'], [0, 4, -4, u'__', -4, u'__', u'__', u'__', u'__', u'__', u'__', u'__', u'__', u'__', u'__', u'__', u'__'], [0, 4, -4, -12, -4, u'__', u'__', u'__', u'__', u'__', u'__', u'__', u'__', u'__', u'__', u'__', u'__'], [0, 4, -4, -12, -4, u'__', u'__', u'__', u'__', -4, u'__', u'__', u'__', u'__', u'__', u'__', u'__'], [0, 4, -4, -12, -4, u'__', u'__', u'__', u'__', -4, u'__', u'__', u'__', 4, u'__', u'__', u'__'], [0, 4, -4, -12, -4, 4, u'__', u'__', u'__', -4, u'__', u'__', u'__', 4, u'__', u'__', u'__'], [0, 4, -4, -12, -4, 4, u'__', u'__', u'__', -4, u'__', u'__', u'__', 4, 12, u'__', u'__'], [0, 4, -4, -12, -4, 4, -12, u'__', u'__', -4, u'__', u'__', u'__', 4, 12, u'__', u'__']]",,[5],[True],"[1, 2, 4, 3, 9, 13, 5, 14, 6, u'__TERM_ACTION__']","[13, 14, 16]",[False],[False],"{u'mouseover': {u'state': {u'target': [], u'time': []}, u'edge': {u'target': [], u'time': []}}, u'click': {u'state': {u'target': [1, 2, 4, 3, 9, 13, 5, 14, 6], u'time': [1682, 2425, 3521, 4122, 5417, 6138, 6714, 7505, 8178]}, u'edge': {u'target': [], u'time': []}}, u'mouseout': {u'state': {u'target': [], u'time': []}, u'edge': {u'target': [], u'time': []}}}",,,"[9251, 542, 35590]",-22.55,628540,4.0,11.0,mouselab-mdp,,5
"[{u'Q': 28, u'action': u'__TERM_ACTION__', u'Qs': {u'1': 20, u'9': -44, u'13': 28, u'5': 20}, u'state': [0, u'__', u'__', u'__', u'__', u'__', u'__', u'__', u'__', u'__', u'__', u'__', u'__', 12, u'__', u'__', u'__'], u'V': 28}]","[4053, 10002, 19411]","[u'3', u'3', u'0']","[[0, u'__', u'__', u'__', u'__', u'__', u'__', u'__', u'__', u'__', u'__', u'__', u'__', u'__', u'__', u'__', u'__'], [0, u'__', u'__', u'__', u'__', u'__', u'__', u'__', u'__', u'__', u'__', u'__', u'__', 12, u'__', u'__', u'__']]",,[5],[True],"[13, u'__TERM_ACTION__']","[13, 14, 15]",[False],[False],"{u'mouseover': {u'state': {u'target': [], u'time': []}, u'edge': {u'target': [], u'time': []}}, u'click': {u'state': {u'target': [13], u'time': [2820]}, u'edge': {u'target': [], u'time': []}}, u'mouseout': {u'state': {u'target': [], u'time': []}, u'edge': {u'target': [], u'time': []}}}",,,"[4053, 430, 8891]",17.05,674887,5.0,7.0,mouselab-mdp,,5
"[{u'Q': 20, u'action': u'__TERM_ACTION__', u'Qs': {u'1': 4, u'9': 20, u'13': -20, u'5': -4}, u'state': [0, u'__', u'__', u'__', u'__', u'__', u'__', u'__', u'__', 12, u'__', u'__', u'__', u'__', u'__', u'__', u'__'], u'V': 20}]","[4109, 10269, 12615]","[u'2', u'2', u'3']","[[0, u'__', u'__', u'__', u'__', u'__', u'__', u'__', u'__', u'__', u'__', u'__', u'__', u'__', u'__', u'__', u'__'], [0, u'__', u'__', u'__', u'__', u'__', u'__', u'__', u'__', 12, u'__', u'__', u'__', u'__', u'__', u'__', u'__']]",,[5],[True],"[9, u'__TERM_ACTION__']","[9, 10, 11]",[False],[False],"{u'mouseover': {u'state': {u'target': [], u'time': []}, u'edge': {u'target': [], u'time': []}}, u'click': {u'state': {u'target': [9], u'time': [3005]}, u'edge': {u'target': [], u'time': []}}, u'mouseout': {u'state': {u'target': [], u'time': []}, u'edge': {u'target': [], u'time': []}}}",,,"[4109, 635, 1832]",17.05,728204,6.0,8.0,mouselab-mdp,,5
"[{u'Q': 28, u'action': u'__TERM_ACTION__', u'Qs': {u'1': 20, u'9': 28, u'13': 12, u'5': 12}, u'state': [0, 12, u'__', u'__', u'__', -4, u'__', u'__', u'__', u'__', u'__', u'__', u'__', 4, u'__', u'__', u'__'], u'V': 28}]","[7454, 14749, 16494]","[u'2', u'2', u'3']","[[0, u'__', u'__', u'__', u'__', u'__', u'__', u'__', u'__', u'__', u'__', u'__', u'__', u'__', u'__', u'__', u'__'], [0, u'__', u'__', u'__', u'__', -4, u'__', u'__', u'__', u'__', u'__', u'__', u'__', u'__', u'__', u'__', u'__'], [0, u'__', u'__', u'__', u'__', -4, u'__', u'__', u'__', u'__', u'__', u'__', u'__', 4, u'__', u'__', u'__'], [0, 12, u'__', u'__', u'__', -4, u'__', u'__', u'__', u'__', u'__', u'__', u'__', 4, u'__', u'__', u'__']]",,[5],[False],"[5, 13, 1, u'__TERM_ACTION__']","[9, 10, 11]",[False],[False],"{u'mouseover': {u'state': {u'target': [], u'time': []}, u'edge': {u'target': [], u'time': []}}, u'click': {u'state': {u'target': [5, 13, 1], u'time': [4300, 5524, 6372]}, u'edge': {u'target': [], u'time': []}}, u'mouseout': {u'state': {u'target': [], u'time': []}, u'edge': {u'target': [], u'time': []}}}",,,"[7454, 1770, 1234]",-12.85,778237,7.0,6.0,mouselab-mdp,,5
"[{u'Q': 12, u'action': u'__TERM_ACTION__', u'Qs': {u'1': -12, u'9': 12, u'13': -4, u'5': 36}, u'state': [0, -4, u'__', u'__', u'__', u'__', u'__', u'__', u'__', 12, u'__', u'__', u'__', u'__', u'__', u'__', u'__'], u'V': 36}]","[5800, 13062, 58681]","[u'2', u'2', u'1']","[[0, u'__', u'__', u'__', u'__', u'__', u'__', u'__', u'__', u'__', u'__', u'__', u'__', u'__', u'__', u'__', u'__'], [0, -4, u'__', u'__', u'__', u'__', u'__', u'__', u'__', u'__', u'__', u'__', u'__', u'__', u'__', u'__', u'__'], [0, -4, u'__', u'__', u'__', u'__', u'__', u'__', u'__', 12, u'__', u'__', u'__', u'__', u'__', u'__', u'__']]",,[5],[True],"[1, 9, u'__TERM_ACTION__']","[9, 10, 12]",[True],[False],"{u'mouseover': {u'state': {u'target': [], u'time': []}, u'edge': {u'target': [], u'time': []}}, u'click': {u'state': {u'target': [1, 9], u'time': [4014, 4734]}, u'edge': {u'target': [], u'time': []}}, u'mouseout': {u'state': {u'target': [], u'time': []}, u'edge': {u'target': [], u'time': []}}}",,,"[5800, 1750, 45102]",-1.9,839711,8.0,1.0,mouselab-mdp,,5
"[{u'Q': -4, u'action': u'__TERM_ACTION__', u'Qs': {u'1': -12, u'9': -4, u'13': -12, u'5': -20}, u'state': [0, -4, u'__', u'__', u'__', -12, u'__', u'__', u'__', 4, u'__', u'__', u'__', -12, u'__', u'__', u'__'], u'V': -4}]","[6477, 13146, 15162]","[u'2', u'2', u'1']","[[0, u'__', u'__', u'__', u'__', u'__', u'__', u'__', u'__', u'__', u'__', u'__', u'__', u'__', u'__', u'__', u'__'], [0, u'__', u'__', u'__', u'__', u'__', u'__', u'__', u'__', u'__', u'__', u'__', u'__', -12, u'__', u'__', u'__'], [0, u'__', u'__', u'__', u'__', -12, u'__', u'__', u'__', u'__', u'__', u'__', u'__', -12, u'__', u'__', u'__'], [0, -4, u'__', u'__', u'__', -12, u'__', u'__', u'__', u'__', u'__', u'__', u'__', -12, u'__', u'__', u'__'], [0, -4, u'__', u'__', u'__', -12, u'__', u'__', u'__', 4, u'__', u'__', u'__', -12, u'__', u'__', u'__']]",,[5],[True],"[13, 5, 1, 9, u'__TERM_ACTION__']","[9, 10, 12]",[False],[False],"{u'mouseover': {u'state': {u'target': [], u'time': []}, u'edge': {u'target': [], u'time': []}}, u'click': {u'state': {u'target': [13, 5, 1, 9], u'time': [3235, 4121, 4761, 5321]}, u'edge': {u'target': [], u'time': []}}, u'mouseout': {u'state': {u'target': [], u'time': []}, u'edge': {u'target': [], u'time': []}}}",,,"[6476, 1144, 1496]",-15.8,888966,9.0,3.0,mouselab-mdp,,5
"[{u'Q': 4, u'action': u'__TERM_ACTION__', u'Qs': {u'1': -4, u'9': 4, u'13': 4, u'5': -28}, u'state': [0, u'__', u'__', u'__', u'__', u'__', u'__', u'__', u'__', u'__', u'__', u'__', u'__', u'__', u'__', u'__', u'__'], u'V': 4}]","[6394, 12375, 13937]","[u'2', u'2', u'3']","[[0, u'__', u'__', u'__', u'__', u'__', u'__', u'__', u'__', u'__', u'__', u'__', u'__', u'__', u'__', u'__', u'__']]",,[5],[True],[u'__TERM_ACTION__'],"[9, 10, 11]",[False],[False],"{u'mouseover': {u'state': {u'target': [], u'time': []}, u'edge': {u'target': [], u'time': []}}, u'click': {u'state': {u'target': [], u'time': []}, u'edge': {u'target': [], u'time': []}}, u'mouseout': {u'state': {u'target': [], u'time': []}, u'edge': {u'target': [], u'time': []}}}",,,"[6394, 468, 1048]",-4.0,935906,10.0,0.0,mouselab-mdp,,5
"[{u'Q': 36, u'action': u'__TERM_ACTION__', u'Qs': {u'1': -12, u'9': 12, u'13': -4, u'5': 36}, u'state': [0, u'__', u'__', u'__', u'__', u'__', u'__', u'__', u'__', u'__', u'__', u'__', u'__', u'__', u'__', u'__', u'__'], u'V': 36}]","[3358, 50224, 52108]","[u'1', u'1', u'2']","[[0, u'__', u'__', u'__', u'__', u'__', u'__', u'__', u'__', u'__', u'__', u'__', u'__', u'__', u'__', u'__', u'__']]",,[5],[True],[u'__TERM_ACTION__'],"[5, 6, 7]",[False],[False],"{u'mouseover': {u'state': {u'target': [], u'time': []}, u'edge': {u'target': [], u'time': []}}, u'click': {u'state': {u'target': [], u'time': []}, u'edge': {u'target': [], u'time': []}}, u'mouseout': {u'state': {u'target': [], u'time': []}, u'edge': {u'target': [], u'time': []}}}",,,"[3358, 41373, 1392]",28.0,159988,1.0,1.0,mouselab-mdp,,6
"[{u'Q': 12, u'action': u'__TERM_ACTION__', u'Qs': {u'1': 44, u'9': 12, u'13': -4, u'5': -20}, u'state': [0, u'__', u'__', u'__', u'__', u'__', u'__', u'__', u'__', u'__', u'__', u'__', u'__', u'__', u'__', u'__', u'__'], u'V': 44}]","[2272, 11406, 13596]","[u'2', u'2', u'3']","[[0, u'__', u'__', u'__', u'__', u'__', u'__', u'__', u'__', u'__', u'__', u'__', u'__', u'__', u'__', u'__', u'__']]",,[5],[True],[u'__TERM_ACTION__'],"[9, 10, 11]",[True],[False],"{u'mouseover': {u'state': {u'target': [], u'time': []}, u'edge': {u'target': [], u'time': []}}, u'click': {u'state': {u'target': [], u'time': []}, u'edge': {u'target': [], u'time': []}}, u'mouseout': {u'state': {u'target': [], u'time': []}, u'edge': {u'target': [], u'time': []}}}",,,"[2272, 3635, 1700]",12.0,206982,2.0,13.0,mouselab-mdp,,6
"[{u'Q': -4, u'action': u'__TERM_ACTION__', u'Qs': {u'1': -4, u'9': 4, u'13': 4, u'5': -28}, u'state': [0, u'__', u'__', u'__', u'__', u'__', u'__', u'__', u'__', u'__', u'__', u'__', u'__', u'__', u'__', u'__', u'__'], u'V': 4}]","[1743, 8466, 10398]","[u'0', u'0', u'1']","[[0, u'__', u'__', u'__', u'__', u'__', u'__', u'__', u'__', u'__', u'__', u'__', u'__', u'__', u'__', u'__', u'__']]",,[5],[True],[u'__TERM_ACTION__'],"[1, 2, 3]",[True],[False],"{u'mouseover': {u'state': {u'target': [], u'time': []}, u'edge': {u'target': [], u'time': []}}, u'click': {u'state': {u'target': [], u'time': []}, u'edge': {u'target': [], u'time': []}}, u'mouseout': {u'state': {u'target': [], u'time': []}, u'edge': {u'target': [], u'time': []}}}",,,"[1743, 1224, 1435]",-20.0,253854,3.0,0.0,mouselab-mdp,,6
"[{u'Q': 28, u'action': u'__TERM_ACTION__', u'Qs': {u'1': 20, u'9': 12, u'13': -4, u'5': 28}, u'state': [0, u'__', u'__', u'__', u'__', u'__', u'__', u'__', u'__', u'__', u'__', u'__', u'__', u'__', u'__', u'__', u'__'], u'V': 28}]","[3766, 12209, 14603]","[u'1', u'1', u'2']","[[0, u'__', u'__', u'__', u'__', u'__', u'__', u'__', u'__', u'__', u'__', u'__', u'__', u'__', u'__', u'__', u'__']]",,[5],[True],[u'__TERM_ACTION__'],"[5, 6, 7]",[False],[False],"{u'mouseover': {u'state': {u'target': [], u'time': []}, u'edge': {u'target': [], u'time': []}}, u'click': {u'state': {u'target': [], u'time': []}, u'edge': {u'target': [], u'time': []}}, u'mouseout': {u'state': {u'target': [], u'time': []}, u'edge': {u'target': [], u'time': []}}}",,,"[3766, 2946, 1899]",20.0,300895,4.0,14.0,mouselab-mdp,,6
"[{u'Q': -4, u'action': u'__TERM_ACTION__', u'Qs': {u'1': 20, u'9': 36, u'13': -4, u'5': -4}, u'state': [0, u'__', u'__', u'__', u'__', u'__', u'__', u'__', u'__', u'__', u'__', u'__', u'__', u'__', u'__', u'__', u'__'], u'V': 36}]","[3586, 9721, 11195]","[u'1', u'1', u'2']","[[0, u'__', u'__', u'__', u'__', u'__', u'__', u'__', u'__', u'__', u'__', u'__', u'__', u'__', u'__', u'__', u'__']]",,[5],[True],[u'__TERM_ACTION__'],"[5, 6, 7]",[True],[False],"{u'mouseover': {u'state': {u'target': [], u'time': []}, u'edge': {u'target': [], u'time': []}}, u'click': {u'state': {u'target': [], u'time': []}, u'edge': {u'target': [], u'time': []}}, u'mouseout': {u'state': {u'target': [], u'time': []}, u'edge': {u'target': [], u'time': []}}}",,,"[3586, 642, 978]",-20.0,347529,5.0,12.0,mouselab-mdp,,6
"[{u'Q': 12, u'action': u'__TERM_ACTION__', u'Qs': {u'1': -4, u'9': 12, u'13': 12, u'5': -4}, u'state': [0, u'__', u'__', u'__', u'__', u'__', u'__', u'__', u'__', u'__', u'__', u'__', u'__', u'__', u'__', u'__', u'__'], u'V': 12}]","[1425, 12873, 105799]","[u'3', u'3', u'0']","[[0, u'__', u'__', u'__', u'__', u'__', u'__', u'__', u'__', u'__', u'__', u'__', u'__', u'__', u'__', u'__', u'__']]",,[5],[True],[u'__TERM_ACTION__'],"[13, 14, 15]",[False],[False],"{u'mouseover': {u'state': {u'target': [], u'time': []}, u'edge': {u'target': [], u'time': []}}, u'click': {u'state': {u'target': [], u'time': []}, u'edge': {u'target': [], u'time': []}}, u'mouseout': {u'state': {u'target': [], u'time': []}, u'edge': {u'target': [], u'time': []}}}",,,"[1425, 5948, 92430]",12.0,456616,6.0,11.0,mouselab-mdp,,6
"[{u'Q': 28, u'action': u'__TERM_ACTION__', u'Qs': {u'1': 4, u'9': 28, u'13': 4, u'5': -36}, u'state': [0, u'__', u'__', u'__', u'__', u'__', u'__', u'__', u'__', u'__', u'__', u'__', u'__', u'__', u'__', u'__', u'__'], u'V': 28}]","[2302, 17090, 19041]","[u'2', u'2', u'1']","[[0, u'__', u'__', u'__', u'__', u'__', u'__', u'__', u'__', u'__', u'__', u'__', u'__', u'__', u'__', u'__', u'__']]",,[5],[True],[u'__TERM_ACTION__'],"[9, 10, 12]",[False],[False],"{u'mouseover': {u'state': {u'target': [], u'time': []}, u'edge': {u'target': [], u'time': []}}, u'click': {u'state': {u'target': [], u'time': []}, u'edge': {u'target': [], u'time': []}}, u'mouseout': {u'state': {u'target': [], u'time': []}, u'edge': {u'target': [], u'time': []}}}",,,"[2302, 9293, 1462]",28.0,506901,7.0,10.0,mouselab-mdp,,6
"[{u'Q': 12, u'action': u'__TERM_ACTION__', u'Qs': {u'1': 20, u'9': 28, u'13': 12, u'5': 12}, u'state': [0, u'__', u'__', u'__', u'__', u'__', u'__', u'__', u'__', u'__', u'__', u'__', u'__', u'__', u'__', u'__', u'__'], u'V': 28}]","[5987, 13606, 15363]","[u'1', u'1', u'2']","[[0, u'__', u'__', u'__', u'__', u'__', u'__', u'__', u'__', u'__', u'__', u'__', u'__', u'__', u'__', u'__', u'__']]",,[5],[True],[u'__TERM_ACTION__'],"[5, 6, 7]",[True],[False],"{u'mouseover': {u'state': {u'target': [], u'time': []}, u'edge': {u'target': [], u'time': []}}, u'click': {u'state': {u'target': [], u'time': []}, u'edge': {u'target': [], u'time': []}}, u'mouseout': {u'state': {u'target': [], u'time': []}, u'edge': {u'target': [], u'time': []}}}",,,"[5986, 2123, 1254]",12.0,553708,8.0,6.0,mouselab-mdp,,6
"[{u'Q': 28, u'action': u'__TERM_ACTION__', u'Qs': {u'1': 20, u'9': 28, u'13': -4, u'5': 28}, u'state': [0, u'__', u'__', u'__', u'__', u'__', u'__', u'__', u'__', u'__', u'__', u'__', u'__', u'__', u'__', u'__', u'__'], u'V': 28}]","[1920, 7855, 10021]","[u'1', u'1', u'0']","[[0, u'__', u'__', u'__', u'__', u'__', u'__', u'__', u'__', u'__', u'__', u'__', u'__', u'__', u'__', u'__', u'__']]",,[5],[True],[u'__TERM_ACTION__'],"[5, 6, 8]",[False],[False],"{u'mouseover': {u'state': {u'target': [], u'time': []}, u'edge': {u'target': [], u'time': []}}, u'click': {u'state': {u'target': [], u'time': []}, u'edge': {u'target': [], u'time': []}}, u'mouseout': {u'state': {u'target': [], u'time': []}, u'edge': {u'target': [], u'time': []}}}",,,"[1920, 432, 1676]",28.0,600083,9.0,5.0,mouselab-mdp,,6
"[{u'Q': -4, u'action': u'__TERM_ACTION__', u'Qs': {u'1': -12, u'9': -4, u'13': 12, u'5': 28}, u'state': [0, u'__', u'__', u'__', u'__', u'__', u'__', u'__', u'__', u'__', u'__', u'__', u'__', u'__', u'__', u'__', u'__'], u'V': 28}]","[3046, 12143, 14087]","[u'2', u'2', u'1']","[[0, u'__', u'__', u'__', u'__', u'__', u'__', u'__', u'__', u'__', u'__', u'__', u'__', u'__', u'__', u'__', u'__']]",,[5],[True],[u'__TERM_ACTION__'],"[9, 10, 12]",[True],[False],"{u'mouseover': {u'state': {u'target': [], u'time': []}, u'edge': {u'target': [], u'time': []}}, u'click': {u'state': {u'target': [], u'time': []}, u'edge': {u'target': [], u'time': []}}, u'mouseout': {u'state': {u'target': [], u'time': []}, u'edge': {u'target': [], u'time': []}}}",,,"[3046, 3594, 1447]",-12.0,647046,10.0,4.0,mouselab-mdp,,6
,"[4142, 6669, 7948]","[u'1', u'1', u'2']","[[0, u'__', u'__', u'__', u'__', u'__', u'__', u'__', u'__', u'__', u'__', u'__', u'__', u'__', u'__', u'__', u'__']]",,[],[],[u'__TERM_ACTION__'],"[5, 6, 7]",[],[],"{u'mouseover': {u'state': {u'target': [], u'time': []}, u'edge': {u'target': [], u'time': []}}, u'click': {u'state': {u'target': [], u'time': []}, u'edge': {u'target': [], u'time': []}}, u'mouseout': {u'state': {u'target': [], u'time': []}, u'edge': {u'target': [], u'time': []}}}",,,"[4142, 2031, 790]",20.0,688463,11.0,7.0,mouselab-mdp,,6
