p_rdata,action_times,actions,beliefs,correct,delays,information_used_correctly,meta_actions,path,planned_too_little,planned_too_much,queries,questions,responses,rt,score,time_elapsed,trial_index,trial_id,trial_type,view_history,pid
,,,,,,,,,,,,,"{""Q0"":""Just a gut feeling whenever the round started"",""Q1"":""no"",""Q2"":""27"",""Q3"":""Female""}",126637,,1012860,,,survey-text,,0
,,,,,,,,,,,,,"{""Q0"":""At first I tried to maximize gain but towards the end I tried to minimize loss."",""Q1"":""not really"",""Q2"":""42"",""Q3"":""female""}",38480,,868394,,,survey-text,,1
,,,,,,,,,,,,,"{""Q0"":""I would only check routes where I had a choice (the initial 4 choices, and then the end choice, never the middle of the T) and I would do my best to check as few routes as possible by following the first positive numbers I could find."",""Q1"":""The only thing I learned was that I shouldn't gamble blank numbers hoping they will be higher positives than a small known positive (choosing a blank over a $4)."",""Q2"":""27"",""Q3"":""Female""}",159198,,1003018,,,survey-text,,2
,,,,,,,,,,,,,"{""Q0"":""Just random."",""Q1"":""No"",""Q2"":""60"",""Q3"":""female""}",30342,,967474,,,survey-text,,3
,,,,,,,,,,,,,"{""Q0"":""I checked the immediate values, then the destination values. "",""Q1"":""Yes, my strategy improved by the end"",""Q2"":""23"",""Q3"":""Female""}",45359,,1759194,,,survey-text,,4
,,,,,,,,,,,,,"{""Q0"":""I just guessed"",""Q1"":""No"",""Q2"":""33"",""Q3"":""female""}",18623,,1105861,,,survey-text,,6
,,,,,,,,,,,,,"{""Q0"":""I tried to find spots that didn't take money away.  I clicked two spots and avoided the red spots"",""Q1"":""I think so."",""Q2"":""41"",""Q3"":""male""}",72827,,1125119,,,survey-text,,7
,,,,,,,,,,,,,"{""Q0"":""Treated it as a gamble most rounds but in the others I'd click one or two of the inner most rings to avoid that big -$20"",""Q1"":""How to avoid that -20 was the only thing everything else felt to random."",""Q2"":""27"",""Q3"":""Male""}",46425,,1153607,,,survey-text,,8
,,,,,,,,,,,,,"{""Q0"":""Check inner ring, don't bother with checking second step, check one of the final positions following it. go to highest values."",""Q1"":""I think it would have been better if I went randomly, I would have taken a few big hits, but I would't have wasted money checking."",""Q2"":""23"",""Q3"":""male""}",76800,,1011256,,,survey-text,,9
,,,,,,,,,,,,,"{""Q0"":""It actually seemed like flying blind was the best option. The (bad) strategy I had was to test the initial points on the path. If a path looked good, I would check the endmost destinations."",""Q1"":""Revealing adds up quickly. Maybe don't do so much of it."",""Q2"":""33"",""Q3"":""male""}",75146,,936502,,,survey-text,,10
,,,,,,,,,,,,,"{""Q0"":""bad"",""Q1"":""bad"",""Q2"":""24"",""Q3"":""male""}",13102,,974480,,,survey-text,,11
,,,,,,,,,,,,,"{""Q0"":""At first I was trying to be more methodical by just revealing the closest destinations, then revealing further destinations based on which first spots paid most.  After I lost any chance at bonuses I started revealing as much as I felt necessary to avoid losing too much money once I started flying."",""Q1"":""Not really.  I just got stressed out."",""Q2"":""26"",""Q3"":""nonbinary, assigned female at birth""}",148305,,1078745,,,survey-text,,12
,,,,,,,,,,,,,"{""Q0"":""I focused on the end points to see which ones would pay out the most. "",""Q1"":""If I clicked on a lot of negative values, I stopped and guessed that I should go a different direction."",""Q2"":""30"",""Q3"":""Female""}",34881,,968119,,,survey-text,,14
,,,,,,,,,,,,,"{""Q0"":""I did try to alternate the direction I was planning to go."",""Q1"":""I did not look up any of the amounts beforehand. I just wanted to take my chances with whatever came next"",""Q2"":""45"",""Q3"":""female""}",160475,,1204090,,,survey-text,,15
,,,,,,,,,,,,,"{""Q0"":""random"",""Q1"":""no"",""Q2"":""42"",""Q3"":""female""}",16270,,1006636,,,survey-text,,16
,,,,,,,,,,,,,"{""Q0"":""At first I uncovered the 'end squares' but realized that ate too much into my score."",""Q1"":""I learned that you have to make minimal 'uncovering' to minimize damage to your score. I learned to just uncover the first profitable square next to my plane and then uncover a profitable end square linked to that one. Sort of reminded me of minesweeper."",""Q2"":""42"",""Q3"":""male""}",242556,,1265870,,,survey-text,,17
,,,,,,,,,,,,,"{""Q0"":""I originally just guessed each time. When I did choose to reveal at least one route, I usually did better."",""Q1"":""It was worth spending money to reveal a route."",""Q2"":""35"",""Q3"":""Male""}",60798,,941108,,,survey-text,,18
,,,,,,,,,,,,,"{""Q0"":""chance"",""Q1"":""no"",""Q2"":""26"",""Q3"":""male""}",21635,,872230,,,survey-text,,19
,,,,,,,,,,,,,"{""Q0"":""I guessed."",""Q1"":""No."",""Q2"":""38"",""Q3"":""Female""}",30988,,1168861,,,survey-text,,20
,,,,,,,,,,,,,"{""Q0"":""I checked the first spot away and then checked a few past it."",""Q1"":""I decided later it was better to see what was positive/negative after the first choice."",""Q2"":""30"",""Q3"":""Female""}",28401,,951530,,,survey-text,,21
,,,,,,,,,,,,,"{""Q0"":""I tried to find a path that would give me a positive value for as much of it as possible without making too many clicks, but that wasn't always possible."",""Q1"":""Not really."",""Q2"":""33"",""Q3"":""Male""}",45719,,1062891,,,survey-text,,23
,,,,,,,,,,,,,"{""Q0"":""I looked at the end destinations"",""Q1"":""no"",""Q2"":""21"",""Q3"":""female""}",27523,,898117,,,survey-text,,24
,,,,,,,,,,,,,"{""Q0"":""tried to find the money!"",""Q1"":""no, actually"",""Q2"":""38"",""Q3"":""male""}",15512,,1541597,,,survey-text,,25
,,,,,,,,,,,,,"{""Q0"":""I tried to preview a rewarding end plan."",""Q1"":""The numbers seemed to be random. Didn't really seem as if anyone could win a bonus from this."",""Q2"":""35"",""Q3"":""Male""}",51012,,985730,,,survey-text,,26
,,,,,,,,,,,,,"{""Q0"":""I chose one point and based on the value decided whether to pursue that route or avoid it."",""Q1"":""I used the same tactic the whole time"",""Q2"":""22"",""Q3"":""Female""}",41554,,1629723,,,survey-text,,27
,,,,,,,,,,,,,"{""Q0"":""I chose what felt best"",""Q1"":""Not at all"",""Q2"":""27"",""Q3"":""Female""}",31112,,929048,,,survey-text,,28
,,,,,,,,,,,,,"{""Q0"":""Just randomly, had no idea where to go to earn the most"",""Q1"":""Nope"",""Q2"":""27"",""Q3"":""Male""}",19994,,1233762,,,survey-text,,29
,,,,,,,,,,,,,"{""Q0"":""At first I didn't preview any rates before moving because I thought it cost too much. Then, when I realized it's too hard to earn money that way I previewed the cost until I got a positive rate for the first move. Then I previewed one of the rates for the last move and selected that one if it was a positive value."",""Q1"":""Preview the rates! You earn WAY more than just a random guess."",""Q2"":""32"",""Q3"":""female""}",163371,,1846159,,,survey-text,,30
,,,,,,,,,,,,,"{""Q0"":""I just tried to guess my way through. Sometimes I would check to see which one would give me money outright."",""Q1"":""Not really, no."",""Q2"":""59"",""Q3"":""Female""}",46750,,1207119,,,survey-text,,31
,,,,,,,,,,,,,"{""Q0"":""no plan"",""Q1"":""not a thing"",""Q2"":""35"",""Q3"":""male""}",21041,,1109187,,,survey-text,,32
,,,,,,,,,,,,,"{""Q0"":""I started by uncovering the first 4 paths and go from there."",""Q1"":""I ended up feeling random chance was the best approach and to use the same path over and over. Uncovering paths was expensive."",""Q2"":""49"",""Q3"":""Male""}",94920,,1112341,,,survey-text,,33
,,,,,,,,,,,,,"{""Q0"":""I tried to pick a starting point and end destination that would produce a profit"",""Q1"":""I tried different strategies, but found it was mostly luck driven"",""Q2"":""48"",""Q3"":""male""}",53226,,913911,,,survey-text,,34
,,,,,,,,,,,,,"{""Q0"":""I tried to spend as little as possible on information. Found the first profitable space and went with it."",""Q1"":""Not really. Information was just so expensive."",""Q2"":""24"",""Q3"":""Male""}",39767,,1072671,,,survey-text,,35
,,,,,,,,,,,,,"{""Q0"":""I just chose a way."",""Q1"":""No."",""Q2"":""41"",""Q3"":""female""}",18953,,1074215,,,survey-text,,36
,,,,,,,,,,,,,"{""Q0"":""Random"",""Q1"":""Unfortunately, no"",""Q2"":""52"",""Q3"":""female""}",40782,,1000746,,,survey-text,,37
,,,,,,,,,,,,,"{""Q0"":""Randomly. "",""Q1"":""Not really--except that if you start with a negative balance (by clicking to see the values in advance) there is no way to profit. "",""Q2"":""41"",""Q3"":""Female""}",41162,,1362578,,,survey-text,,38
,,,,,,,,,,,,,"{""Q0"":""I did it randomly"",""Q1"":""i was trying to recognize pattern"",""Q2"":""27"",""Q3"":""female""}",23511,,857857,,,survey-text,,39
,,,,,,,,,,,,,"{""Q0"":""I viewed the last possible location"",""Q1"":""yes"",""Q2"":""29"",""Q3"":""female""}",30205,,980056,,,survey-text,,40
,,,,,,,,,,,,,"{""Q0"":""Sometimes I guessed and sometimes I checked one circle and based my decision on what that one was."",""Q1"":""Is the risk worth the reward?"",""Q2"":""32"",""Q3"":""female""}",44908,,1792708,,,survey-text,,41
,,,,,,,,,,,,,"{""Q0"":""I tried to find a path that started out positively."",""Q1"":""I started uncovering more tiles later in the game so that I could have more information."",""Q2"":""25"",""Q3"":""Male""}",36386,,1030173,,,survey-text,,43
,,,,,,,,,,,,,"{""Q0"":""I tried to see if there was a correlation about which direction to go that was good."",""Q1"":""No"",""Q2"":""26"",""Q3"":""Female""}",23128,,950218,,,survey-text,,44
,,,,,,,,,,,,,"{""Q0"":""At times I did try to analyze the patterns. However, I mostly just randomly used the arrow keys."",""Q1"":""I did not learn anything on how to plan better."",""Q2"":""18"",""Q3"":""female""}",32814,,842968,,,survey-text,,46
,,,,,,,,,,,,,"{""Q0"":""Some of the time, I tried clicking to learn where the positive values were, but mostly I just randomly chose because it didn't seem like there was any rhyme or reason to where the positive values were."",""Q1"":""No."",""Q2"":""31"",""Q3"":""Female""}",60883,,915660,,,survey-text,,47
,,,,,,,,,,,,,"{""Q0"":""random"",""Q1"":""no"",""Q2"":""38"",""Q3"":""female""}",18892,,1101577,,,survey-text,,48
,,,,,,,,,,,,,"{""Q0"":""RANDOM"",""Q1"":""NO"",""Q2"":""38"",""Q3"":""FEMALE""}",21975,,971315,,,survey-text,,49
,,,,,,,,,,,,,"{""Q0"":""I didn't. I thought it might be going in a pattern but nothing seemed to work."",""Q1"":""No."",""Q2"":""25"",""Q3"":""trans ftm""}",129434,,1391550,,,survey-text,,50
,,,,,,,,,,,,,"{""Q0"":""I tried to find the ways that would pay the best without spending too much."",""Q1"":""I became willing to spend more for more info."",""Q2"":""37"",""Q3"":""female""}",117986,,1001568,,,survey-text,,52
,,,,,,,,,,,,,"{""Q0"":""i didnt have a plan i just went with what i thought was a good way."",""Q1"":""yes next time i would check the price before going "",""Q2"":""24"",""Q3"":""female""}",115924,,1349939,,,survey-text,,53
,,,,,,,,,,,,,"{""Q0"":""first was random, then I risked the cost of checking on the circle values."",""Q1"":""no."",""Q2"":""48"",""Q3"":""F""}",36149,,957644,,,survey-text,,54
,,,,,,,,,,,,,"{""Q0"":""At first i guessed and then i started to pay to reveal the amount of my destination options."",""Q1"":""not rely it seemed the more i went on playing the more negative amount for each stop"",""Q2"":""22"",""Q3"":""female""}",186863,,1335645,,,survey-text,,55
,,,,,,,,,,,,,"{""Q0"":""At first I tried to check everything, but ended up losing so I just went with my gut."",""Q1"":""Not really"",""Q2"":""46"",""Q3"":""Female""}",31040,,858120,,,survey-text,,56
,,,,,,,,,,,,,"{""Q0"":""I tried to find routes that cost least"",""Q1"":""No, it seemed like I did worse and worse the harder I tried"",""Q2"":""36"",""Q3"":""female""}",44572,,1021180,,,survey-text,,57
,,,,,,,,,,,,,"{""Q0"":""Guessing"",""Q1"":""No"",""Q2"":""31"",""Q3"":""male""}",50061,,1379194,,,survey-text,,58
,,,,,,,,,,,,,"{""Q0"":""I started looking for routes with a positive total value, but I ended up incurring too much cost for the preview of the values."",""Q1"":""There seemed to be a plurality of routes which contained +4 and -4 values. To mitigate the cost of previewing the cells, as soon as I found a +12 cell, I chose that path."",""Q2"":""39"",""Q3"":""Male""}",928710,,2171670,,,survey-text,,59
,,,,,,,,,,,,,"{""Q0"":""I was just guessing at the beginning with no plan at all."",""Q1"":""I tried to unhide as few spaces as possible to waste less money, but trying to figured out a safe path."",""Q2"":""40"",""Q3"":""Male""}",169091,,1264833,,,survey-text,,60
,,,,,,,,,,,,,"{""Q0"":""At first, I clicked on every option and chose the path that made me the most money, but I eventually realized that I was paying so much to see each option that I was never earning a bonus. I then just clicked until I saw a profitable route and I took it."",""Q1"":""Yes, I started to realize that earning a bonus was not likely possible if I clicked on each path, so I just clicked until I found a profitable route and I took it."",""Q2"":""33"",""Q3"":""Female""}",70396,,885406,,,survey-text,,61
,,,,,,,,,,,,,"{""Q0"":""no plan in place. decided on the fly where i wanted to go"",""Q1"":""not really"",""Q2"":""42"",""Q3"":""male""}",26730,,925578,,,survey-text,,62
,,,,,,,,,,,,,"{""Q0"":""Chaos"",""Q1"":""Chaos"",""Q2"":""32"",""Q3"":""Human""}",47673,,1077689,,,survey-text,,63
,,,,,,,,,,,,,"{""Q0"":""Started with the closest stops and then explored the areas that seemed more lucrative"",""Q1"":""It's not necessary to check out every single option"",""Q2"":""32"",""Q3"":""F""}",43816,,889213,,,survey-text,,64
,,,,,,,,,,,,,"{""Q0"":""By choosing an arrow key"",""Q1"":""Nothing at all"",""Q2"":""50"",""Q3"":""Female""}",33656,,1247197,,,survey-text,,65
,,,,,,,,,,,,,"{""Q0"":""picked the route that paid the highest amount and the route that deducted least amount."",""Q1"":""Try to click on the least amount of circle to avoid paying fees. Always click on the circle closest to the airplane first to save the clicks."",""Q2"":""32"",""Q3"":""Female""}",178521,,1687772,,,survey-text,,66
,,,,,,,,,,,,,"{""Q0"":""I just took guesses"",""Q1"":""No I did not.  But after the first round I didn't want to spend money knowing ahead of time, I figured just fly blind, and that didn't work too well."",""Q2"":""34"",""Q3"":""female""}",63286,,1007664,,,survey-text,,67
,,,,,,,,,,,,,"{""Q0"":"""",""Q1"":""Yes."",""Q2"":""45"",""Q3"":""Male""}",39023,,934707,,,survey-text,,68
,,,,,,,,,,,,,"{""Q0"":""I couldn't develop a good strategy, it seemed like a crapshoot."",""Q1"":""no"",""Q2"":""29"",""Q3"":""male""}",28254,,950983,,,survey-text,,69
,,,,,,,,,,,,,"{""Q0"":""I chose based on the money. I also actually made close to $20 and you are giving me a bonus of 0 even though it clearly stated that I would receive a portion of said earning as a bonus."",""Q1"":""No"",""Q2"":""27"",""Q3"":""Male""}",70507,,1129364,,,survey-text,,70
,,,,,,,,,,,,,"{""Q0"":""I did not go the same route back to back"",""Q1"":""Not really"",""Q2"":""27"",""Q3"":""female""}",22727,,1107829,,,survey-text,,71
,,,,,,,,,,,,,"{""Q0"":""most of it was guessing"",""Q1"":""tried to see if which first move wasnt a negative"",""Q2"":""60"",""Q3"":""female""}",34128,,1198869,,,survey-text,,72
,,,,,,,,,,,,,"{""Q0"":""I did my best at guessing."",""Q1"":""Not really no."",""Q2"":""31"",""Q3"":""female""}",31563,,1202949,,,survey-text,,73
,,,,,,,,,,,,,"{""Q0"":""Sometimes I'd guess and other times I'd click a route circle to see if I'd be losing too much money."",""Q1"":""Clicking on the route circles seemed to help me plan better."",""Q2"":""49"",""Q3"":""Female""}",85523,,1016581,,,survey-text,,74
,,,,,,,,,,,,,"{""Q0"":""I wasn't sure because it changed all the time."",""Q1"":""Maybe. It still seemed to change so planning didn't help."",""Q2"":""63"",""Q3"":""Woman""}",72984,,1029170,,,survey-text,,75
,,,,,,,,,,,,,"{""Q0"":""I didn't want to spent more than $10 to start, so I picked a landing spot and checked there.  if $20. went to that.  if $12, checked a second.  After 4 checks, went to the highest value green and hoped for the best."",""Q1"":""I overchecked in a early round and lost big and it rattled me."",""Q2"":""43"",""Q3"":""female""}",173712,,1113909,,,survey-text,,76
,,,,,,,,,,,,,"{""Q0"":""guess"",""Q1"":""nope"",""Q2"":""28"",""Q3"":""female""}",14120,,1962578,,,survey-text,,77
,,,,,,,,,,,,,"{""Q0"":""I picked the first one randomly. If it was green, no matter what the amount, I proceeded to the next one. If the 2nd one was red then I changed route. If the 2nd was green I would stay in the same route no matter the amount, usually. The 3rd one was always random too. If it was green I'd stay. If it was red I'd try the next one."",""Q1"":""No, at one point I felt like I was gambling and just went on not caring how much I won or lost, I just wanted to see if there were any worth $20."",""Q2"":""47"",""Q3"":""female""}",190215,,1279196,,,survey-text,,78
,,,,,,,,,,,,,"{""Q0"":""Guessed based on limited reveals of costs"",""Q1"":""No, you end up screwed in the end"",""Q2"":""36"",""Q3"":""Male""}",39875,,966936,,,survey-text,,79
,,,,,,,,,,,,,"{""Q0"":""I tried to find positive ones, and then check further down that path."",""Q1"":""Not really, it seemed like luck."",""Q2"":""33"",""Q3"":""Female""}",24262,,1660526,,,survey-text,,80
,,,,,,,,,,,,,"{""Q0"":""it was hard. I didn't do a good job"",""Q1"":""no"",""Q2"":""66"",""Q3"":""male""}",25784,,897351,,,survey-text,,82
,,,,,,,,,,,,,"{""Q0"":""At first I thought it was a waste to spend the money on reveals but then I realized It was worth it to uncover the $12 path. Once I found the positive value, 4, 12, 20 then I moved in that direction."",""Q1"":""It seemed there were patterns to the final move based on the previous but I didn't have enough trials to make a definitive solution by the time I figured that out."",""Q2"":""57"",""Q3"":""Male""}",148200,,1060729,,,survey-text,,83
,,,,,,,,,,,,,"{""Q0"":""try to find a good start and end and not worry about the middle"",""Q1"":""click less and trust your gut"",""Q2"":""23"",""Q3"":""male""}",42065,,1703462,,,survey-text,,85
,,,,,,,,,,,,,"{""Q0"":""I guessed"",""Q1"":""No, it was all a lottery."",""Q2"":""39"",""Q3"":""Female""}",29064,,904660,,,survey-text,,86
,,,,,,,,,,,,,"{""Q0"":""At first I just choose randomly because I didn't want to waste money on revealing the amounts, but after several turns I began uncovering all of the first nodes and chose the one without a negative amount. "",""Q1"":""Not really. Just because you have a positive amount for the first node doesn't mean you will have a positive outcome once all the nodes have been revealed. "",""Q2"":""50"",""Q3"":""female""}",122408,,1043583,,,survey-text,,87
,,,,,,,,,,,,,"{""Q0"":""just went with my gut"",""Q1"":""not really"",""Q2"":""25"",""Q3"":""Male""}",10964,,2255581,,,survey-text,,88
,,,,,,,,,,,,,"{""Q0"":""i tried to figure out if there was a method to it. couldnt figure it out"",""Q1"":""tried to do the opposite on the previous paln"",""Q2"":""25"",""Q3"":""f""}",50610,,1289810,,,survey-text,,89
,,,,,,,,,,,,,"{""Q0"":""It was random."",""Q1"":""no"",""Q2"":""36"",""Q3"":""female""}",24707,,1245484,,,survey-text,,90
,,,,,,,,,,,,,"{""Q0"":""Just went any way"",""Q1"":""no"",""Q2"":""58"",""Q3"":""female""}",49212,,928345,,,survey-text,,91
,,,,,,,,,,,,,"{""Q0"":""At the end I felt clicking was not worth the money and did it randomly."",""Q1"":""No"",""Q2"":""27"",""Q3"":""Male""}",27989,,1133634,,,survey-text,,92
,,,,,,,,,,,,,"{""Q0"":""Partly hoping I wouldn't get whammy'd, while trying to spend as little as possible on intel"",""Q1"":""Not really"",""Q2"":""25"",""Q3"":""Male""}",53336,,1046394,,,survey-text,,93
,,,,,,,,,,,,,"{""Q0"":""taking each route around and then started looking at beginning values"",""Q1"":""yes"",""Q2"":""39"",""Q3"":""female""}",48248,,1196998,,,survey-text,,94
,,,,,,,,,,,,,"{""Q0"":""just guessed"",""Q1"":""not really"",""Q2"":""40"",""Q3"":""female""}",15847,,1870594,,,survey-text,,95
,,,,,,,,,,,,,"{""Q0"":""i would see the first route ahead of me and then check out the last route to make sure that I wasn't losing money on the last route."",""Q1"":""no, the game made me angry because it seemed like most of the places had negative amount of money anyways."",""Q2"":""23"",""Q3"":""female""}",58861,,1067630,,,survey-text,,96
,,,,,,,,,,,,,"{""Q0"":""I just picked a route randomly."",""Q1"":""I didn't I thought it was pretty random."",""Q2"":""30"",""Q3"":""male""}",46799,,1476139,,,survey-text,,97
,,,,,,,,,,,,,"{""Q0"":""Trying to find if there was a pattern"",""Q1"":""going right is usually better"",""Q2"":""27"",""Q3"":""male""}",24837,,1064884,,,survey-text,,98
,,,,,,,,,,,,,"{""Q0"":""It was random. I didn't understand for the first couple rounds and wasted them. "",""Q1"":""No"",""Q2"":""26"",""Q3"":""female""}",46288,,1045551,,,survey-text,,99
,,,,,,,,,,,,,"{""Q0"":""I didn't"",""Q1"":""No"",""Q2"":""22"",""Q3"":""Male""}",7682,,873714,,,survey-text,,100
,,,,,,,,,,,,,"{""Q0"":""By checking what route will give the highest amount."",""Q1"":""No"",""Q2"":""32"",""Q3"":""Male""}",87869,,1021959,,,survey-text,,102
,,,,,,,,,,,,,"{""Q0"":""I looked for best payouts"",""Q1"":""not really--there was no discernible pattern or regularity"",""Q2"":""51"",""Q3"":""male""}",34901,,954018,,,survey-text,,103
,,,,,,,,,,,,,"{""Q0"":""Just my gut feeling."",""Q1"":""Yes it seemed like going up or down was better."",""Q2"":""36"",""Q3"":""female""}",59432,,1225372,,,survey-text,,104
,,,,,,,,,,,,,"{""Q0"":""I just tried to see which path led to the best profit, but I failed for the most part."",""Q1"":""No."",""Q2"":""26"",""Q3"":""Male""}",40776,,934999,,,survey-text,,107
,,,,,,,,,,,,,"{""Q0"":""I tested out at least one first stop to find one that was in the positive, then tested out a third stop that was after the positive.  If that third stop was in the negative, I went with the opposite third stop.  If that third stop was $4, I sometimes did the opposite, betting that the opposite stop was worth $20."",""Q1"":""At first I didn't have a logical strategy, but by the end I had a coherent strategy that I was using.  It didn't always help me, though.  Some of the routes seemed to be negative no matter what."",""Q2"":""35"",""Q3"":""female""}",160473,,989055,,,survey-text,,109
,,,,,,,,,,,,,"{""Q0"":""If I made money in a direction once, I liked to go back to that route."",""Q1"":""No, it seemed by chance. I tried to avoid the 'lose money' path."",""Q2"":""39"",""Q3"":""female""}",48796,,1047964,,,survey-text,,110
,,,,,,,,,,,,,"{""Q0"":""I tried not clicking on my chosen path and ended up losing.  \n\nI tried clicking on path and was gaining money.\n\nI should have been clicking to see the path before i took the path I chosen"",""Q1"":""I should look first before I leap"",""Q2"":""37"",""Q3"":""female""}",90984,,1155783,,,survey-text,,111
,,,,,,,,,,,,,"{""Q0"":""I chose randomly once I learned the game was unfair."",""Q1"":""Nope. Game seemed rigged."",""Q2"":""39"",""Q3"":""male""}",59108,,943567,,,survey-text,,112
,,,,,,,,,,,,,"{""Q0"":""Just went with gut feelings."",""Q1"":""No.. How the hell is my bonus 0.00 thought. I earned more + dollars than -dollars. ??? 20 minutes for 0.75 is basically robbery at less than 3 dollars an hour. Totally underpaid."",""Q2"":""34"",""Q3"":""Male""}",66772,,841474,,,survey-text,,114
,,,,,,,,,,,,,"{""Q0"":""Tried to find at least one + money stop"",""Q1"":""don't check too many first, gets too expensive"",""Q2"":""43"",""Q3"":""female""}",46857,,971837,,,survey-text,,115
,,,,,,,,,,,,,"{""Q0"":""just changed it up"",""Q1"":""not really"",""Q2"":""43"",""Q3"":""F""}",32940,,1225377,,,survey-text,,116
,,,,,,,,,,,,,"{""Q0"":""I picked a direction and decided how far i went by the score of the first one."",""Q1"":""Not really"",""Q2"":""27"",""Q3"":""male""}",19487,,1015520,,,survey-text,,117
,,,,,,,,,,,,,"{""Q0"":""I took the way that seemed to make the most money and had the most promise. If I seen a high amount I took that route."",""Q1"":""I tried not to click too much as that seemed to dig a deeper hole and lose more money. Not sure if that was the best strategy."",""Q2"":""60"",""Q3"":""Male""}",151809,,1645977,,,survey-text,,118
,,,,,,,,,,,,,"{""Q0"":""I tried to look but it cost too much money so I just went with that I  felt"",""Q1"":""no"",""Q2"":""34"",""Q3"":""male""}",30835,,896991,,,survey-text,,119
,,,,,,,,,,,,,"{""Q0"":""I just tried to choose the best route."",""Q1"":""no"",""Q2"":""68"",""Q3"":""Female""}",27724,,1021482,,,survey-text,,120
,,,,,,,,,,,,,"{""Q0"":""I didnt.  I just guessed where to go next"",""Q1"":""No"",""Q2"":""38"",""Q3"":""Female""}",54907,,1175827,,,survey-text,,121
,,,,,,,,,,,,,"{""Q0"":""I tried to select based on routes that were already green."",""Q1"":""I learned not to bother clicking on too many nodes"",""Q2"":""28"",""Q3"":""F""}",58591,,957569,,,survey-text,,122
,,,,,,,,,,,,,"{""Q0"":""I started out testing the waters but i never really grasped a good strategy, as the cost to look was too expensive to make really decisions "",""Q1"":""Nope"",""Q2"":""32"",""Q3"":""Male""}",110545,,1112877,,,survey-text,,123
,,,,,,,,,,,,,"{""Q0"":""I initially started by clicking on the paths to see what I could earn the most, but ended up blindly selecting to avoid paying 2.95 each."",""Q1"":""No, I think I managed to actually get worse once I got frustrated."",""Q2"":""29"",""Q3"":""Male""}",56994,,1138684,,,survey-text,,124
,,,,,,,,,,,,,"{""Q0"":""I tried to randomize it a bit because I figured the reward would change each time around."",""Q1"":""I tried to time my movements with the timer and it seemed to work better in terms of rewards."",""Q2"":""29"",""Q3"":""Male""}",320744,,1339150,,,survey-text,,125
,,,,,,,,,,,,,"{""Q0"":""Guessing"",""Q1"":""Not really."",""Q2"":""31"",""Q3"":""male""}",16762,,841724,,,survey-text,,126
,,,,,,,,,,,,,"{""Q0"":""I tried to pick a few of the closest locations to see the amounts, then go from there. "",""Q1"":""I learned to reveal less locations, but I'm not sure if that helped me improve"",""Q2"":""25"",""Q3"":""female""}",83370,,1015925,,,survey-text,,127
,,,,,,,,,,,,,"{""Q0"":""Guessing and past results."",""Q1"":""I eventually realized it was worth it to expose sections for a fee."",""Q2"":""27"",""Q3"":""male""}",37667,,1098032,,,survey-text,,128
,,,,,,,,,,,,,"{""Q0"":""I tried to click the first paths and see a positive."",""Q1"":""Not really, it was sort of randomized."",""Q2"":""25"",""Q3"":""Male""}",35971,,948955,,,survey-text,,129
,,,,,,,,,,,,,"{""Q0"":""I guessed/"",""Q1"":""No"",""Q2"":""54"",""Q3"":""Male""}",29435,,1486236,,,survey-text,,130
,,,,,,,,,,,,,"{""Q0"":""I went with my gut."",""Q1"":""No."",""Q2"":""25"",""Q3"":""Female""}",10879,,963646,,,survey-text,,131
,,,,,,,,,,,,,"{""Q0"":""Guessed"",""Q1"":""No"",""Q2"":""26"",""Q3"":""Male""}",8319,,991390,,,survey-text,,132
,,,,,,,,,,,,,"{""Q0"":""I tried different directions every time."",""Q1"":""I figured that the same destination wouldn't go into the negative back to back. "",""Q2"":""30"",""Q3"":""female""}",89628,,1009383,,,survey-text,,133
,,,,,,,,,,,,,"{""Q0"":""It was random as I could not activate seeing which values were ahead of me"",""Q1"":""No I had technical difficulties and could not see which route was best"",""Q2"":""28"",""Q3"":""Male""}",45034,,1024061,,,survey-text,,135
,,,,,,,,,,,,,"{""Q0"":""I just guessed alot,"",""Q1"":""Not really."",""Q2"":""40"",""Q3"":""male""}",36187,,1327493,,,survey-text,,136
,,,,,,,,,,,,,"{""Q0"":""I tried to eliminate as many negative values from my first move. Once I decided on a first move, if I had a positive value, I'd reveal one of the final options to see if it was positive or negative. If my first choice was positive, I'd choose that or I'd go the opposite direction if it was negative."",""Q1"":""Don't waste all of your bonus revealing circles, and focus on avoiding negative values."",""Q2"":""36"",""Q3"":""male""}",216387,,1158713,,,survey-text,,137
,,,,,,,,,,,,,"{""Q0"":""went with the route that paid the most. tried to click on as little grey circles as possible."",""Q1"":""clicking on the first circle helped decide the next path. "",""Q2"":""32"",""Q3"":""Male""}",102018,,1498352,,,survey-text,,138
,,,,,,,,,,,,,"{""Q0"":""Just guessed, honestly. I tried to use the option to click but then it used up too much money for not enough information."",""Q1"":""No."",""Q2"":""30"",""Q3"":""female""}",34833,,966753,,,survey-text,,139
,,,,,,,,,,,,,"{""Q0"":""I looked for patterns"",""Q1"":""going up and to the right was the most money i, but it only came up every few times, some mazes were designed specifically to loose money because the paths all resulted in a loss"",""Q2"":""37"",""Q3"":""Female""}",70149,,1003379,,,survey-text,,140
,,,,,,,,,,,,,"{""Q0"":""Randomly "",""Q1"":""To take risks by checking the clicking more."",""Q2"":""27"",""Q3"":""male""}",48973,,900983,,,survey-text,,142
,,,,,,,,,,,,,"{""Q0"":""Just randomly picked.  I did tend to retry routes that took money away, hoping for a better outcome the second time around."",""Q1"":""no, unfortunately"",""Q2"":""38"",""Q3"":""female""}",49900,,928144,,,survey-text,,143
,,,,,,,,,,,,,"{""Q0"":""I tried to see if a certain path would give me more money but I often waste money checking the prices."",""Q1"":""I couldn't get a good grasp on how to profity"",""Q2"":""26"",""Q3"":""Male""}",852643,,3067671,,,survey-text,,144
,,,,,,,,,,,,,"{""Q0"":""It was pretty random."",""Q1"":""No"",""Q2"":""41"",""Q3"":""Female""}",29829,,1236999,,,survey-text,,145
,,,,,,,,,,,,,"{""Q0"":"""",""Q1"":"""",""Q2"":""22"",""Q3"":""male""}",8830,,836450,,,survey-text,,146
,,,,,,,,,,,,,"{""Q0"":""Randomly...trying to without spending any money."",""Q1"":""Not really."",""Q2"":""35"",""Q3"":""female""}",30607,,1059174,,,survey-text,,147
,,,,,,,,,,,,,"{""Q0"":""At first I found the highest mid-point values, then from there looked for the highest end point values.  That worked well for the first 10, but then it just didn't work."",""Q1"":""No.  It got worse at the game went on."",""Q2"":""34"",""Q3"":""Female""}",79923,,1033867,,,survey-text,,148
,,,,,,,,,,,,,"{""Q0"":""I did not find an effective way of planning the route."",""Q1"":""Not really."",""Q2"":""48"",""Q3"":""F""}",80070,,1143905,,,survey-text,,149
,,,,,,,,,,,,,"{""Q0"":""random choices since I couldn't see my options."",""Q1"":""no because it changed every time without showing me what was there, "",""Q2"":""31"",""Q3"":""female""}",43447,,1110753,,,survey-text,,150
,,,,,,,,,,,,,"{""Q0"":""Would click on the closest spots first and usually just guess from there on.  "",""Q1"":""Clicking on the closest spots was a good way to pick an initial direction. "",""Q2"":""30"",""Q3"":""male""}",99787,,1178675,,,survey-text,,151
,,,,,,,,,,,,,"{""Q0"":""Random"",""Q1"":""I should follow the green numbers"",""Q2"":""25"",""Q3"":""male""}",27218,,1157019,,,survey-text,,152
,,,,,,,,,,,,,"{""Q0"":""Checked the destination then decided from there"",""Q1"":""I needed to look at the full potential route."",""Q2"":""30"",""Q3"":""Female""}",36838,,1021902,,,survey-text,,153
,,,,,,,,,,,,,"{""Q0"":""I just tried to pick the biggest bonus without picking many spots."",""Q1"":""No not really"",""Q2"":""34"",""Q3"":""male""}",22956,,1700422,,,survey-text,,154
,,,,,,,,,,,,,"{""Q0"":""I tried to find the destination with the highest payoff."",""Q1"":""Not really. It was still a guessing game based on the end result and a high fee to find it."",""Q2"":""37"",""Q3"":""Male""}",46370,,1872821,,,survey-text,,155
