p_rdata,action_times,actions,beliefs,correct,delays,information_used_correctly,meta_actions,path,planned_too_little,planned_too_much,queries,questions,responses,rt,score,time_elapsed,trial_index,trial_id,trial_type,view_history,pid
,,,,"[True, True, True, True]",,,,,,,,"[""True or false: The hidden values will change each time I start a new round."",""How much does it cost to observe each hidden value?"",""How many hidden values am I allowed to observe in each round?"",""How is your bonus determined?""]","[""True"",""$2.95"",""As many or as few as I wish"",""1 cent for every $1 I earn in each round""]",14789,,94989,,,survey-multi-choice,,0
,,,,"[True, True, True, True]",,,,,,,,"[""True or false: The hidden values will change each time I start a new round."",""How much does it cost to observe each hidden value?"",""How many hidden values am I allowed to observe in each round?"",""How is your bonus determined?""]","[""True"",""$2.95"",""As many or as few as I wish"",""1 cent for every $1 I earn in each round""]",17717,,102020,,,survey-multi-choice,,1
,,,,"[True, True, True, True]",,,,,,,,"[""True or false: The hidden values will change each time I start a new round."",""How much does it cost to observe each hidden value?"",""How many hidden values am I allowed to observe in each round?"",""How is your bonus determined?""]","[""True"",""$2.95"",""As many or as few as I wish"",""1 cent for every $1 I earn in each round""]",22366,,115625,,,survey-multi-choice,,2
,,,,"[True, True, True, True]",,,,,,,,"[""True or false: The hidden values will change each time I start a new round."",""How much does it cost to observe each hidden value?"",""How many hidden values am I allowed to observe in each round?"",""How is your bonus determined?""]","[""True"",""$2.50"",""As many or as few as I wish"",""1 cent for every $1 I earn in each round""]",24299,,185931,,,survey-multi-choice,,3
,,,,"[True, True, True, True]",,,,,,,,"[""True or false: The hidden values will change each time I start a new round."",""How much does it cost to observe each hidden value?"",""How many hidden values am I allowed to observe in each round?"",""How is your bonus determined?""]","[""True"",""$2.95"",""As many or as few as I wish"",""1 cent for every $1 I earn in each round""]",16285,,156564,,,survey-multi-choice,,4
,,,,"[True, True, True, True]",,,,,,,,"[""True or false: The hidden values will change each time I start a new round."",""How much does it cost to observe each hidden value?"",""How many hidden values am I allowed to observe in each round?"",""How is your bonus determined?""]","[""True"",""$2.95"",""As many or as few as I wish"",""1 cent for every $1 I earn in each round""]",14259,,378777,,,survey-multi-choice,,5
,,,,"[False, True, False, True]",,,,,,,,"[""True or false: The hidden values will change each time I start a new round."",""How much does it cost to observe each hidden value?"",""How many hidden values am I allowed to observe in each round?"",""How is your bonus determined?""]","[""False"",""$3.50"",""At most 5"",""1 cent for every $1 I earn in each round""]",19358,,45596,,,survey-multi-choice,,6
,,,,"[True, True, True, True]",,,,,,,,"[""True or false: The hidden values will change each time I start a new round."",""How much does it cost to observe each hidden value?"",""How many hidden values am I allowed to observe in each round?"",""How is your bonus determined?""]","[""True"",""$3.50"",""As many or as few as I wish"",""1 cent for every $1 I earn in each round""]",19986,,103120,,,survey-multi-choice,,6
,,,,"[True, True, True, True]",,,,,,,,"[""True or false: The hidden values will change each time I start a new round."",""How much does it cost to observe each hidden value?"",""How many hidden values am I allowed to observe in each round?"",""How is your bonus determined?""]","[""True"",""$2.50"",""As many or as few as I wish"",""1 cent for every $1 I earn in each round""]",21841,,227390,,,survey-multi-choice,,7
,,,,"[True, False, True, True]",,,,,,,,"[""True or false: The hidden values will change each time I start a new round."",""How much does it cost to observe each hidden value?"",""How many hidden values am I allowed to observe in each round?"",""How is your bonus determined?""]","[""True"",""$0.25"",""As many or as few as I wish"",""1 cent for every $1 I earn in each round""]",26846,,90818,,,survey-multi-choice,,8
,,,,"[True, True, True, True]",,,,,,,,"[""True or false: The hidden values will change each time I start a new round."",""How much does it cost to observe each hidden value?"",""How many hidden values am I allowed to observe in each round?"",""How is your bonus determined?""]","[""True"",""$2.95"",""As many or as few as I wish"",""1 cent for every $1 I earn in each round""]",8251,,146269,,,survey-multi-choice,,8
,,,,"[True, True, True, True]",,,,,,,,"[""True or false: The hidden values will change each time I start a new round."",""How much does it cost to observe each hidden value?"",""How many hidden values am I allowed to observe in each round?"",""How is your bonus determined?""]","[""True"",""$2.50"",""As many or as few as I wish"",""1 cent for every $1 I earn in each round""]",18963,,128923,,,survey-multi-choice,,9
,,,,"[True, True, True, True]",,,,,,,,"[""True or false: The hidden values will change each time I start a new round."",""How much does it cost to observe each hidden value?"",""How many hidden values am I allowed to observe in each round?"",""How is your bonus determined?""]","[""True"",""$2.50"",""As many or as few as I wish"",""1 cent for every $1 I earn in each round""]",16725,,131859,,,survey-multi-choice,,10
,,,,"[True, True, True, True]",,,,,,,,"[""True or false: The hidden values will change each time I start a new round."",""How much does it cost to observe each hidden value?"",""How many hidden values am I allowed to observe in each round?"",""How is your bonus determined?""]","[""True"",""$3.50"",""As many or as few as I wish"",""1 cent for every $1 I earn in each round""]",15512,,179994,,,survey-multi-choice,,11
,,,,"[True, True, True, True]",,,,,,,,"[""True or false: The hidden values will change each time I start a new round."",""How much does it cost to observe each hidden value?"",""How many hidden values am I allowed to observe in each round?"",""How is your bonus determined?""]","[""True"",""$3.50"",""As many or as few as I wish"",""1 cent for every $1 I earn in each round""]",24872,,178199,,,survey-multi-choice,,12
,,,,"[True, True, True, True]",,,,,,,,"[""True or false: The hidden values will change each time I start a new round."",""How much does it cost to observe each hidden value?"",""How many hidden values am I allowed to observe in each round?"",""How is your bonus determined?""]","[""True"",""$3.50"",""As many or as few as I wish"",""1 cent for every $1 I earn in each round""]",14930,,448275,,,survey-multi-choice,,13
,,,,"[True, True, True, True]",,,,,,,,"[""True or false: The hidden values will change each time I start a new round."",""How much does it cost to observe each hidden value?"",""How many hidden values am I allowed to observe in each round?"",""How is your bonus determined?""]","[""True"",""$3.50"",""As many or as few as I wish"",""1 cent for every $1 I earn in each round""]",13351,,149962,,,survey-multi-choice,,14
,,,,"[True, True, True, True]",,,,,,,,"[""True or false: The hidden values will change each time I start a new round."",""How much does it cost to observe each hidden value?"",""How many hidden values am I allowed to observe in each round?"",""How is your bonus determined?""]","[""True"",""$2.50"",""As many or as few as I wish"",""1 cent for every $1 I earn in each round""]",33450,,218969,,,survey-multi-choice,,15
,,,,"[True, False, False, True]",,,,,,,,"[""True or false: The hidden values will change each time I start a new round."",""How much does it cost to observe each hidden value?"",""How many hidden values am I allowed to observe in each round?"",""How is your bonus determined?""]","[""True"",""$0.01"",""At most 1"",""1 cent for every $1 I earn in each round""]",24666,,95325,,,survey-multi-choice,,16
,,,,"[True, True, True, True]",,,,,,,,"[""True or false: The hidden values will change each time I start a new round."",""How much does it cost to observe each hidden value?"",""How many hidden values am I allowed to observe in each round?"",""How is your bonus determined?""]","[""True"",""$3.50"",""As many or as few as I wish"",""1 cent for every $1 I earn in each round""]",37446,,253325,,,survey-multi-choice,,16
,,,,"[True, True, True, True]",,,,,,,,"[""True or false: The hidden values will change each time I start a new round."",""How much does it cost to observe each hidden value?"",""How many hidden values am I allowed to observe in each round?"",""How is your bonus determined?""]","[""True"",""$2.50"",""As many or as few as I wish"",""1 cent for every $1 I earn in each round""]",18449,,231623,,,survey-multi-choice,,17
,,,,"[True, False, True, True]",,,,,,,,"[""True or false: The hidden values will change each time I start a new round."",""How much does it cost to observe each hidden value?"",""How many hidden values am I allowed to observe in each round?"",""How is your bonus determined?""]","[""True"",""$0.25"",""As many or as few as I wish"",""1 cent for every $1 I earn in each round""]",18571,,84654,,,survey-multi-choice,,18
,,,,"[True, True, True, True]",,,,,,,,"[""True or false: The hidden values will change each time I start a new round."",""How much does it cost to observe each hidden value?"",""How many hidden values am I allowed to observe in each round?"",""How is your bonus determined?""]","[""True"",""$2.95"",""As many or as few as I wish"",""1 cent for every $1 I earn in each round""]",9890,,118065,,,survey-multi-choice,,18
,,,,"[True, True, True, True]",,,,,,,,"[""True or false: The hidden values will change each time I start a new round."",""How much does it cost to observe each hidden value?"",""How many hidden values am I allowed to observe in each round?"",""How is your bonus determined?""]","[""True"",""$3.95"",""As many or as few as I wish"",""1 cent for every $1 I earn in each round""]",17550,,94684,,,survey-multi-choice,,19
,,,,"[True, True, True, True]",,,,,,,,"[""True or false: The hidden values will change each time I start a new round."",""How much does it cost to observe each hidden value?"",""How many hidden values am I allowed to observe in each round?"",""How is your bonus determined?""]","[""True"",""$2.50"",""As many or as few as I wish"",""1 cent for every $1 I earn in each round""]",26603,,357504,,,survey-multi-choice,,20
,,,,"[True, True, True, True]",,,,,,,,"[""True or false: The hidden values will change each time I start a new round."",""How much does it cost to observe each hidden value?"",""How many hidden values am I allowed to observe in each round?"",""How is your bonus determined?""]","[""True"",""$2.50"",""As many or as few as I wish"",""1 cent for every $1 I earn in each round""]",10239,,50011,,,survey-multi-choice,,21
,,,,"[True, True, True, True]",,,,,,,,"[""True or false: The hidden values will change each time I start a new round."",""How much does it cost to observe each hidden value?"",""How many hidden values am I allowed to observe in each round?"",""How is your bonus determined?""]","[""True"",""$2.95"",""As many or as few as I wish"",""1 cent for every $1 I earn in each round""]",13264,,96197,,,survey-multi-choice,,22
,,,,"[True, True, True, True]",,,,,,,,"[""True or false: The hidden values will change each time I start a new round."",""How much does it cost to observe each hidden value?"",""How many hidden values am I allowed to observe in each round?"",""How is your bonus determined?""]","[""True"",""$2.50"",""As many or as few as I wish"",""1 cent for every $1 I earn in each round""]",17179,,119296,,,survey-multi-choice,,23
,,,,"[True, True, True, True]",,,,,,,,"[""True or false: The hidden values will change each time I start a new round."",""How much does it cost to observe each hidden value?"",""How many hidden values am I allowed to observe in each round?"",""How is your bonus determined?""]","[""True"",""$2.50"",""As many or as few as I wish"",""1 cent for every $1 I earn in each round""]",15300,,110678,,,survey-multi-choice,,24
,,,,"[True, False, True, True]",,,,,,,,"[""True or false: The hidden values will change each time I start a new round."",""How much does it cost to observe each hidden value?"",""How many hidden values am I allowed to observe in each round?"",""How is your bonus determined?""]","[""True"",""$0.05"",""As many or as few as I wish"",""1 cent for every $1 I earn in each round""]",15263,,65360,,,survey-multi-choice,,25
,,,,"[True, True, True, True]",,,,,,,,"[""True or false: The hidden values will change each time I start a new round."",""How much does it cost to observe each hidden value?"",""How many hidden values am I allowed to observe in each round?"",""How is your bonus determined?""]","[""True"",""$3.95"",""As many or as few as I wish"",""1 cent for every $1 I earn in each round""]",8491,,99560,,,survey-multi-choice,,25
,,,,"[True, True, True, True]",,,,,,,,"[""True or false: The hidden values will change each time I start a new round."",""How much does it cost to observe each hidden value?"",""How many hidden values am I allowed to observe in each round?"",""How is your bonus determined?""]","[""True"",""$2.50"",""As many or as few as I wish"",""1 cent for every $1 I earn in each round""]",19371,,142722,,,survey-multi-choice,,26
,,,,"[True, True, True, True]",,,,,,,,"[""True or false: The hidden values will change each time I start a new round."",""How much does it cost to observe each hidden value?"",""How many hidden values am I allowed to observe in each round?"",""How is your bonus determined?""]","[""True"",""$3.50"",""As many or as few as I wish"",""1 cent for every $1 I earn in each round""]",17908,,74093,,,survey-multi-choice,,27
,,,,"[True, True, True, True]",,,,,,,,"[""True or false: The hidden values will change each time I start a new round."",""How much does it cost to observe each hidden value?"",""How many hidden values am I allowed to observe in each round?"",""How is your bonus determined?""]","[""True"",""$2.50"",""As many or as few as I wish"",""1 cent for every $1 I earn in each round""]",14742,,164792,,,survey-multi-choice,,28
,,,,"[True, True, True, True]",,,,,,,,"[""True or false: The hidden values will change each time I start a new round."",""How much does it cost to observe each hidden value?"",""How many hidden values am I allowed to observe in each round?"",""How is your bonus determined?""]","[""True"",""$2.95"",""As many or as few as I wish"",""1 cent for every $1 I earn in each round""]",15669,,63806,,,survey-multi-choice,,29
,,,,"[False, False, True, False]",,,,,,,,"[""True or false: The hidden values will change each time I start a new round."",""How much does it cost to observe each hidden value?"",""How many hidden values am I allowed to observe in each round?"",""How is your bonus determined?""]","[""False"",""$0.25"",""As many or as few as I wish"",""10% of my score on a random round""]",69537,,231123,,,survey-multi-choice,,30
,,,,"[True, True, True, False]",,,,,,,,"[""True or false: The hidden values will change each time I start a new round."",""How much does it cost to observe each hidden value?"",""How many hidden values am I allowed to observe in each round?"",""How is your bonus determined?""]","[""True"",""$3.50"",""As many or as few as I wish"",""1% of my best score on any round""]",44623,,447333,,,survey-multi-choice,,30
,,,,"[True, True, True, False]",,,,,,,,"[""True or false: The hidden values will change each time I start a new round."",""How much does it cost to observe each hidden value?"",""How many hidden values am I allowed to observe in each round?"",""How is your bonus determined?""]","[""True"",""$3.50"",""As many or as few as I wish"",""10% of my score on a random round""]",15752,,483944,,,survey-multi-choice,,30
,,,,"[True, True, True, True]",,,,,,,,"[""True or false: The hidden values will change each time I start a new round."",""How much does it cost to observe each hidden value?"",""How many hidden values am I allowed to observe in each round?"",""How is your bonus determined?""]","[""True"",""$3.50"",""As many or as few as I wish"",""1 cent for every $1 I earn in each round""]",15163,,512457,,,survey-multi-choice,,30
,,,,"[True, True, True, True]",,,,,,,,"[""True or false: The hidden values will change each time I start a new round."",""How much does it cost to observe each hidden value?"",""How many hidden values am I allowed to observe in each round?"",""How is your bonus determined?""]","[""True"",""$3.95"",""As many or as few as I wish"",""1 cent for every $1 I earn in each round""]",62627,,160575,,,survey-multi-choice,,31
,,,,"[True, False, True, True]",,,,,,,,"[""True or false: The hidden values will change each time I start a new round."",""How much does it cost to observe each hidden value?"",""How many hidden values am I allowed to observe in each round?"",""How is your bonus determined?""]","[""True"",""$0.01"",""As many or as few as I wish"",""1 cent for every $1 I earn in each round""]",31159,,135097,,,survey-multi-choice,,32
,,,,"[True, True, True, True]",,,,,,,,"[""True or false: The hidden values will change each time I start a new round."",""How much does it cost to observe each hidden value?"",""How many hidden values am I allowed to observe in each round?"",""How is your bonus determined?""]","[""True"",""$3.50"",""As many or as few as I wish"",""1 cent for every $1 I earn in each round""]",16776,,212904,,,survey-multi-choice,,32
,,,,"[True, True, True, True]",,,,,,,,"[""True or false: The hidden values will change each time I start a new round."",""How much does it cost to observe each hidden value?"",""How many hidden values am I allowed to observe in each round?"",""How is your bonus determined?""]","[""True"",""$3.50"",""As many or as few as I wish"",""1 cent for every $1 I earn in each round""]",164996,,212087,,,survey-multi-choice,,33
,,,,"[True, True, True, True]",,,,,,,,"[""True or false: The hidden values will change each time I start a new round."",""How much does it cost to observe each hidden value?"",""How many hidden values am I allowed to observe in each round?"",""How is your bonus determined?""]","[""True"",""$3.95"",""As many or as few as I wish"",""1 cent for every $1 I earn in each round""]",11621,,132271,,,survey-multi-choice,,34
,,,,"[True, True, True, True]",,,,,,,,"[""True or false: The hidden values will change each time I start a new round."",""How much does it cost to observe each hidden value?"",""How many hidden values am I allowed to observe in each round?"",""How is your bonus determined?""]","[""True"",""$3.95"",""As many or as few as I wish"",""1 cent for every $1 I earn in each round""]",11387,,117984,,,survey-multi-choice,,35
,,,,"[True, True, True, True]",,,,,,,,"[""True or false: The hidden values will change each time I start a new round."",""How much does it cost to observe each hidden value?"",""How many hidden values am I allowed to observe in each round?"",""How is your bonus determined?""]","[""True"",""$3.95"",""As many or as few as I wish"",""1 cent for every $1 I earn in each round""]",10339,,56825,,,survey-multi-choice,,36
,,,,"[True, True, True, True]",,,,,,,,"[""True or false: The hidden values will change each time I start a new round."",""How much does it cost to observe each hidden value?"",""How many hidden values am I allowed to observe in each round?"",""How is your bonus determined?""]","[""True"",""$3.95"",""As many or as few as I wish"",""1 cent for every $1 I earn in each round""]",18528,,189219,,,survey-multi-choice,,37
,,,,"[True, True, True, True]",,,,,,,,"[""True or false: The hidden values will change each time I start a new round."",""How much does it cost to observe each hidden value?"",""How many hidden values am I allowed to observe in each round?"",""How is your bonus determined?""]","[""True"",""$3.50"",""As many or as few as I wish"",""1 cent for every $1 I earn in each round""]",19484,,120918,,,survey-multi-choice,,38
,,,,"[True, True, True, True]",,,,,,,,"[""True or false: The hidden values will change each time I start a new round."",""How much does it cost to observe each hidden value?"",""How many hidden values am I allowed to observe in each round?"",""How is your bonus determined?""]","[""True"",""$2.95"",""As many or as few as I wish"",""1 cent for every $1 I earn in each round""]",14605,,83807,,,survey-multi-choice,,39
,,,,"[True, True, True, True]",,,,,,,,"[""True or false: The hidden values will change each time I start a new round."",""How much does it cost to observe each hidden value?"",""How many hidden values am I allowed to observe in each round?"",""How is your bonus determined?""]","[""True"",""$2.95"",""As many or as few as I wish"",""1 cent for every $1 I earn in each round""]",24459,,144784,,,survey-multi-choice,,40
,,,,"[True, False, True, False]",,,,,,,,"[""True or false: The hidden values will change each time I start a new round."",""How much does it cost to observe each hidden value?"",""How many hidden values am I allowed to observe in each round?"",""How is your bonus determined?""]","[""True"",""$1.00"",""As many or as few as I wish"",""10% of my best score on any round""]",26091,,124341,,,survey-multi-choice,,41
,,,,"[True, True, True, True]",,,,,,,,"[""True or false: The hidden values will change each time I start a new round."",""How much does it cost to observe each hidden value?"",""How many hidden values am I allowed to observe in each round?"",""How is your bonus determined?""]","[""True"",""$3.50"",""As many or as few as I wish"",""1 cent for every $1 I earn in each round""]",31325,,235560,,,survey-multi-choice,,41
,,,,"[True, False, True, True]",,,,,,,,"[""True or false: The hidden values will change each time I start a new round."",""How much does it cost to observe each hidden value?"",""How many hidden values am I allowed to observe in each round?"",""How is your bonus determined?""]","[""True"",""$4.00"",""As many or as few as I wish"",""1 cent for every $1 I earn in each round""]",15508,,128888,,,survey-multi-choice,,42
,,,,"[True, False, True, True]",,,,,,,,"[""True or false: The hidden values will change each time I start a new round."",""How much does it cost to observe each hidden value?"",""How many hidden values am I allowed to observe in each round?"",""How is your bonus determined?""]","[""True"",""$3.50"",""As many or as few as I wish"",""1 cent for every $1 I earn in each round""]",19799,,176701,,,survey-multi-choice,,42
,,,,"[True, True, True, True]",,,,,,,,"[""True or false: The hidden values will change each time I start a new round."",""How much does it cost to observe each hidden value?"",""How many hidden values am I allowed to observe in each round?"",""How is your bonus determined?""]","[""True"",""$3.95"",""As many or as few as I wish"",""1 cent for every $1 I earn in each round""]",8628,,196751,,,survey-multi-choice,,42
,,,,"[True, True, True, True]",,,,,,,,"[""True or false: The hidden values will change each time I start a new round."",""How much does it cost to observe each hidden value?"",""How many hidden values am I allowed to observe in each round?"",""How is your bonus determined?""]","[""True"",""$3.95"",""As many or as few as I wish"",""1 cent for every $1 I earn in each round""]",12103,,180240,,,survey-multi-choice,,43
,,,,"[True, False, True, True]",,,,,,,,"[""True or false: The hidden values will change each time I start a new round."",""How much does it cost to observe each hidden value?"",""How many hidden values am I allowed to observe in each round?"",""How is your bonus determined?""]","[""True"",""$1.00"",""As many or as few as I wish"",""1 cent for every $1 I earn in each round""]",13257,,39528,,,survey-multi-choice,,44
,,,,"[True, True, True, True]",,,,,,,,"[""True or false: The hidden values will change each time I start a new round."",""How much does it cost to observe each hidden value?"",""How many hidden values am I allowed to observe in each round?"",""How is your bonus determined?""]","[""True"",""$2.50"",""As many or as few as I wish"",""1 cent for every $1 I earn in each round""]",8746,,74068,,,survey-multi-choice,,44
,,,,"[True, False, False, True]",,,,,,,,"[""True or false: The hidden values will change each time I start a new round."",""How much does it cost to observe each hidden value?"",""How many hidden values am I allowed to observe in each round?"",""How is your bonus determined?""]","[""True"",""$0.01"",""At most 10"",""1 cent for every $1 I earn in each round""]",27695,,93028,,,survey-multi-choice,,45
,,,,"[True, True, True, True]",,,,,,,,"[""True or false: The hidden values will change each time I start a new round."",""How much does it cost to observe each hidden value?"",""How many hidden values am I allowed to observe in each round?"",""How is your bonus determined?""]","[""True"",""$2.95"",""As many or as few as I wish"",""1 cent for every $1 I earn in each round""]",94737,,248936,,,survey-multi-choice,,45
,,,,"[True, True, True, True]",,,,,,,,"[""True or false: The hidden values will change each time I start a new round."",""How much does it cost to observe each hidden value?"",""How many hidden values am I allowed to observe in each round?"",""How is your bonus determined?""]","[""True"",""$2.95"",""As many or as few as I wish"",""1 cent for every $1 I earn in each round""]",11510,,65084,,,survey-multi-choice,,46
,,,,"[True, True, True, True]",,,,,,,,"[""True or false: The hidden values will change each time I start a new round."",""How much does it cost to observe each hidden value?"",""How many hidden values am I allowed to observe in each round?"",""How is your bonus determined?""]","[""True"",""$3.50"",""As many or as few as I wish"",""1 cent for every $1 I earn in each round""]",16780,,83205,,,survey-multi-choice,,47
,,,,"[True, False, True, True]",,,,,,,,"[""True or false: The hidden values will change each time I start a new round."",""How much does it cost to observe each hidden value?"",""How many hidden values am I allowed to observe in each round?"",""How is your bonus determined?""]","[""True"",""$1.00"",""As many or as few as I wish"",""1 cent for every $1 I earn in each round""]",32699,,142324,,,survey-multi-choice,,48
,,,,"[True, True, True, True]",,,,,,,,"[""True or false: The hidden values will change each time I start a new round."",""How much does it cost to observe each hidden value?"",""How many hidden values am I allowed to observe in each round?"",""How is your bonus determined?""]","[""True"",""$2.95"",""As many or as few as I wish"",""1 cent for every $1 I earn in each round""]",7229,,161481,,,survey-multi-choice,,48
,,,,"[True, True, False, True]",,,,,,,,"[""True or false: The hidden values will change each time I start a new round."",""How much does it cost to observe each hidden value?"",""How many hidden values am I allowed to observe in each round?"",""How is your bonus determined?""]","[""True"",""$3.50"",""At most 5"",""1 cent for every $1 I earn in each round""]",21613,,63873,,,survey-multi-choice,,49
,,,,"[True, True, True, True]",,,,,,,,"[""True or false: The hidden values will change each time I start a new round."",""How much does it cost to observe each hidden value?"",""How many hidden values am I allowed to observe in each round?"",""How is your bonus determined?""]","[""True"",""$3.50"",""As many or as few as I wish"",""1 cent for every $1 I earn in each round""]",13705,,147246,,,survey-multi-choice,,49
,,,,"[True, True, False, True]",,,,,,,,"[""True or false: The hidden values will change each time I start a new round."",""How much does it cost to observe each hidden value?"",""How many hidden values am I allowed to observe in each round?"",""How is your bonus determined?""]","[""True"",""$3.50"",""At most 1"",""1 cent for every $1 I earn in each round""]",21962,,307137,,,survey-multi-choice,,50
,,,,"[True, True, True, True]",,,,,,,,"[""True or false: The hidden values will change each time I start a new round."",""How much does it cost to observe each hidden value?"",""How many hidden values am I allowed to observe in each round?"",""How is your bonus determined?""]","[""True"",""$3.50"",""As many or as few as I wish"",""1 cent for every $1 I earn in each round""]",13464,,399181,,,survey-multi-choice,,50
,,,,"[False, False, True, True]",,,,,,,,"[""True or false: The hidden values will change each time I start a new round."",""How much does it cost to observe each hidden value?"",""How many hidden values am I allowed to observe in each round?"",""How is your bonus determined?""]","[""False"",""$1.00"",""As many or as few as I wish"",""1 cent for every $1 I earn in each round""]",28403,,105766,,,survey-multi-choice,,51
,,,,"[False, True, True, True]",,,,,,,,"[""True or false: The hidden values will change each time I start a new round."",""How much does it cost to observe each hidden value?"",""How many hidden values am I allowed to observe in each round?"",""How is your bonus determined?""]","[""False"",""$2.50"",""As many or as few as I wish"",""1 cent for every $1 I earn in each round""]",13679,,275205,,,survey-multi-choice,,51
,,,,"[True, True, True, True]",,,,,,,,"[""True or false: The hidden values will change each time I start a new round."",""How much does it cost to observe each hidden value?"",""How many hidden values am I allowed to observe in each round?"",""How is your bonus determined?""]","[""True"",""$2.50"",""As many or as few as I wish"",""1 cent for every $1 I earn in each round""]",12739,,321952,,,survey-multi-choice,,51
,,,,"[True, True, True, True]",,,,,,,,"[""True or false: The hidden values will change each time I start a new round."",""How much does it cost to observe each hidden value?"",""How many hidden values am I allowed to observe in each round?"",""How is your bonus determined?""]","[""True"",""$2.50"",""As many or as few as I wish"",""1 cent for every $1 I earn in each round""]",13164,,125640,,,survey-multi-choice,,52
,,,,"[False, True, False, False]",,,,,,,,"[""True or false: The hidden values will change each time I start a new round."",""How much does it cost to observe each hidden value?"",""How many hidden values am I allowed to observe in each round?"",""How is your bonus determined?""]","[""False"",""$3.50"",""At most 10"",""10% of my score on a random round""]",31079,,94593,,,survey-multi-choice,,53
,,,,"[False, True, True, True]",,,,,,,,"[""True or false: The hidden values will change each time I start a new round."",""How much does it cost to observe each hidden value?"",""How many hidden values am I allowed to observe in each round?"",""How is your bonus determined?""]","[""False"",""$3.50"",""As many or as few as I wish"",""1 cent for every $1 I earn in each round""]",31902,,195204,,,survey-multi-choice,,53
,,,,"[False, True, True, True]",,,,,,,,"[""True or false: The hidden values will change each time I start a new round."",""How much does it cost to observe each hidden value?"",""How many hidden values am I allowed to observe in each round?"",""How is your bonus determined?""]","[""False"",""$3.50"",""As many or as few as I wish"",""1 cent for every $1 I earn in each round""]",8897,,236037,,,survey-multi-choice,,53
,,,,"[True, True, True, True]",,,,,,,,"[""True or false: The hidden values will change each time I start a new round."",""How much does it cost to observe each hidden value?"",""How many hidden values am I allowed to observe in each round?"",""How is your bonus determined?""]","[""True"",""$3.50"",""As many or as few as I wish"",""1 cent for every $1 I earn in each round""]",24530,,381816,,,survey-multi-choice,,53
,,,,"[True, True, True, True]",,,,,,,,"[""True or false: The hidden values will change each time I start a new round."",""How much does it cost to observe each hidden value?"",""How many hidden values am I allowed to observe in each round?"",""How is your bonus determined?""]","[""True"",""$2.95"",""As many or as few as I wish"",""1 cent for every $1 I earn in each round""]",17274,,150252,,,survey-multi-choice,,54
,,,,"[False, True, True, True]",,,,,,,,"[""True or false: The hidden values will change each time I start a new round."",""How much does it cost to observe each hidden value?"",""How many hidden values am I allowed to observe in each round?"",""How is your bonus determined?""]","[""False"",""$2.50"",""As many or as few as I wish"",""1 cent for every $1 I earn in each round""]",56306,,207982,,,survey-multi-choice,,55
,,,,"[True, True, True, True]",,,,,,,,"[""True or false: The hidden values will change each time I start a new round."",""How much does it cost to observe each hidden value?"",""How many hidden values am I allowed to observe in each round?"",""How is your bonus determined?""]","[""True"",""$2.50"",""As many or as few as I wish"",""1 cent for every $1 I earn in each round""]",25852,,380790,,,survey-multi-choice,,55
,,,,"[True, True, True, True]",,,,,,,,"[""True or false: The hidden values will change each time I start a new round."",""How much does it cost to observe each hidden value?"",""How many hidden values am I allowed to observe in each round?"",""How is your bonus determined?""]","[""True"",""$3.95"",""As many or as few as I wish"",""1 cent for every $1 I earn in each round""]",22335,,110039,,,survey-multi-choice,,56
,,,,"[True, True, True, True]",,,,,,,,"[""True or false: The hidden values will change each time I start a new round."",""How much does it cost to observe each hidden value?"",""How many hidden values am I allowed to observe in each round?"",""How is your bonus determined?""]","[""True"",""$2.50"",""As many or as few as I wish"",""1 cent for every $1 I earn in each round""]",18073,,68747,,,survey-multi-choice,,57
,,,,"[True, True, True, True]",,,,,,,,"[""True or false: The hidden values will change each time I start a new round."",""How much does it cost to observe each hidden value?"",""How many hidden values am I allowed to observe in each round?"",""How is your bonus determined?""]","[""True"",""$3.50"",""As many or as few as I wish"",""1 cent for every $1 I earn in each round""]",25915,,176862,,,survey-multi-choice,,58
,,,,"[True, True, True, True]",,,,,,,,"[""True or false: The hidden values will change each time I start a new round."",""How much does it cost to observe each hidden value?"",""How many hidden values am I allowed to observe in each round?"",""How is your bonus determined?""]","[""True"",""$3.50"",""As many or as few as I wish"",""1 cent for every $1 I earn in each round""]",29922,,196522,,,survey-multi-choice,,59
,,,,"[True, True, True, True]",,,,,,,,"[""True or false: The hidden values will change each time I start a new round."",""How much does it cost to observe each hidden value?"",""How many hidden values am I allowed to observe in each round?"",""How is your bonus determined?""]","[""True"",""$2.95"",""As many or as few as I wish"",""1 cent for every $1 I earn in each round""]",23780,,252692,,,survey-multi-choice,,60
,,,,"[True, True, True, True]",,,,,,,,"[""True or false: The hidden values will change each time I start a new round."",""How much does it cost to observe each hidden value?"",""How many hidden values am I allowed to observe in each round?"",""How is your bonus determined?""]","[""True"",""$2.95"",""As many or as few as I wish"",""1 cent for every $1 I earn in each round""]",10282,,90995,,,survey-multi-choice,,61
,,,,"[True, True, True, True]",,,,,,,,"[""True or false: The hidden values will change each time I start a new round."",""How much does it cost to observe each hidden value?"",""How many hidden values am I allowed to observe in each round?"",""How is your bonus determined?""]","[""True"",""$3.50"",""As many or as few as I wish"",""1 cent for every $1 I earn in each round""]",29057,,73513,,,survey-multi-choice,,62
,,,,"[True, True, False, True]",,,,,,,,"[""True or false: The hidden values will change each time I start a new round."",""How much does it cost to observe each hidden value?"",""How many hidden values am I allowed to observe in each round?"",""How is your bonus determined?""]","[""True"",""$3.50"",""At most 5"",""1 cent for every $1 I earn in each round""]",26889,,159724,,,survey-multi-choice,,63
,,,,"[True, True, True, True]",,,,,,,,"[""True or false: The hidden values will change each time I start a new round."",""How much does it cost to observe each hidden value?"",""How many hidden values am I allowed to observe in each round?"",""How is your bonus determined?""]","[""True"",""$3.50"",""As many or as few as I wish"",""1 cent for every $1 I earn in each round""]",10143,,236416,,,survey-multi-choice,,63
,,,,"[True, True, True, True]",,,,,,,,"[""True or false: The hidden values will change each time I start a new round."",""How much does it cost to observe each hidden value?"",""How many hidden values am I allowed to observe in each round?"",""How is your bonus determined?""]","[""True"",""$2.50"",""As many or as few as I wish"",""1 cent for every $1 I earn in each round""]",10915,,73324,,,survey-multi-choice,,64
,,,,"[True, False, True, True]",,,,,,,,"[""True or false: The hidden values will change each time I start a new round."",""How much does it cost to observe each hidden value?"",""How many hidden values am I allowed to observe in each round?"",""How is your bonus determined?""]","[""True"",""$1.00"",""As many or as few as I wish"",""1 cent for every $1 I earn in each round""]",36248,,173436,,,survey-multi-choice,,65
,,,,"[True, True, True, True]",,,,,,,,"[""True or false: The hidden values will change each time I start a new round."",""How much does it cost to observe each hidden value?"",""How many hidden values am I allowed to observe in each round?"",""How is your bonus determined?""]","[""True"",""$2.50"",""As many or as few as I wish"",""1 cent for every $1 I earn in each round""]",26828,,323773,,,survey-multi-choice,,65
,,,,"[True, True, True, True]",,,,,,,,"[""True or false: The hidden values will change each time I start a new round."",""How much does it cost to observe each hidden value?"",""How many hidden values am I allowed to observe in each round?"",""How is your bonus determined?""]","[""True"",""$2.95"",""As many or as few as I wish"",""1 cent for every $1 I earn in each round""]",28965,,199672,,,survey-multi-choice,,66
,,,,"[True, True, True, True]",,,,,,,,"[""True or false: The hidden values will change each time I start a new round."",""How much does it cost to observe each hidden value?"",""How many hidden values am I allowed to observe in each round?"",""How is your bonus determined?""]","[""True"",""$3.95"",""As many or as few as I wish"",""1 cent for every $1 I earn in each round""]",28512,,173986,,,survey-multi-choice,,67
,,,,"[True, True, True, True]",,,,,,,,"[""True or false: The hidden values will change each time I start a new round."",""How much does it cost to observe each hidden value?"",""How many hidden values am I allowed to observe in each round?"",""How is your bonus determined?""]","[""True"",""$2.50"",""As many or as few as I wish"",""1 cent for every $1 I earn in each round""]",14475,,128804,,,survey-multi-choice,,68
,,,,"[True, True, True, True]",,,,,,,,"[""True or false: The hidden values will change each time I start a new round."",""How much does it cost to observe each hidden value?"",""How many hidden values am I allowed to observe in each round?"",""How is your bonus determined?""]","[""True"",""$2.95"",""As many or as few as I wish"",""1 cent for every $1 I earn in each round""]",13696,,161795,,,survey-multi-choice,,69
,,,,"[True, True, True, True]",,,,,,,,"[""True or false: The hidden values will change each time I start a new round."",""How much does it cost to observe each hidden value?"",""How many hidden values am I allowed to observe in each round?"",""How is your bonus determined?""]","[""True"",""$2.95"",""As many or as few as I wish"",""1 cent for every $1 I earn in each round""]",11947,,58747,,,survey-multi-choice,,70
,,,,"[True, True, True, True]",,,,,,,,"[""True or false: The hidden values will change each time I start a new round."",""How much does it cost to observe each hidden value?"",""How many hidden values am I allowed to observe in each round?"",""How is your bonus determined?""]","[""True"",""$2.50"",""As many or as few as I wish"",""1 cent for every $1 I earn in each round""]",19406,,97882,,,survey-multi-choice,,71
,,,,"[True, False, False, True]",,,,,,,,"[""True or false: The hidden values will change each time I start a new round."",""How much does it cost to observe each hidden value?"",""How many hidden values am I allowed to observe in each round?"",""How is your bonus determined?""]","[""True"",""$1.00"",""At most 5"",""1 cent for every $1 I earn in each round""]",26098,,88341,,,survey-multi-choice,,72
,,,,"[True, True, True, True]",,,,,,,,"[""True or false: The hidden values will change each time I start a new round."",""How much does it cost to observe each hidden value?"",""How many hidden values am I allowed to observe in each round?"",""How is your bonus determined?""]","[""True"",""$2.50"",""As many or as few as I wish"",""1 cent for every $1 I earn in each round""]",12870,,133142,,,survey-multi-choice,,72
,,,,"[True, False, True, False]",,,,,,,,"[""True or false: The hidden values will change each time I start a new round."",""How much does it cost to observe each hidden value?"",""How many hidden values am I allowed to observe in each round?"",""How is your bonus determined?""]","[""True"",""$0.01"",""As many or as few as I wish"",""10% of my best score on any round""]",24406,,210691,,,survey-multi-choice,,73
,,,,"[True, True, True, True]",,,,,,,,"[""True or false: The hidden values will change each time I start a new round."",""How much does it cost to observe each hidden value?"",""How many hidden values am I allowed to observe in each round?"",""How is your bonus determined?""]","[""True"",""$3.50"",""As many or as few as I wish"",""1 cent for every $1 I earn in each round""]",21823,,280360,,,survey-multi-choice,,73
,,,,"[True, True, True, True]",,,,,,,,"[""True or false: The hidden values will change each time I start a new round."",""How much does it cost to observe each hidden value?"",""How many hidden values am I allowed to observe in each round?"",""How is your bonus determined?""]","[""True"",""$3.50"",""As many or as few as I wish"",""1 cent for every $1 I earn in each round""]",27920,,174659,,,survey-multi-choice,,74
,,,,"[True, True, True, True]",,,,,,,,"[""True or false: The hidden values will change each time I start a new round."",""How much does it cost to observe each hidden value?"",""How many hidden values am I allowed to observe in each round?"",""How is your bonus determined?""]","[""True"",""$2.95"",""As many or as few as I wish"",""1 cent for every $1 I earn in each round""]",26414,,235976,,,survey-multi-choice,,75
,,,,"[True, True, True, True]",,,,,,,,"[""True or false: The hidden values will change each time I start a new round."",""How much does it cost to observe each hidden value?"",""How many hidden values am I allowed to observe in each round?"",""How is your bonus determined?""]","[""True"",""$2.50"",""As many or as few as I wish"",""1 cent for every $1 I earn in each round""]",26995,,201942,,,survey-multi-choice,,76
,,,,"[True, False, True, True]",,,,,,,,"[""True or false: The hidden values will change each time I start a new round."",""How much does it cost to observe each hidden value?"",""How many hidden values am I allowed to observe in each round?"",""How is your bonus determined?""]","[""True"",""$0.01"",""As many or as few as I wish"",""1 cent for every $1 I earn in each round""]",32019,,574424,,,survey-multi-choice,,77
,,,,"[True, True, True, True]",,,,,,,,"[""True or false: The hidden values will change each time I start a new round."",""How much does it cost to observe each hidden value?"",""How many hidden values am I allowed to observe in each round?"",""How is your bonus determined?""]","[""True"",""$3.50"",""As many or as few as I wish"",""1 cent for every $1 I earn in each round""]",12965,,623463,,,survey-multi-choice,,77
,,,,"[True, True, True, True]",,,,,,,,"[""True or false: The hidden values will change each time I start a new round."",""How much does it cost to observe each hidden value?"",""How many hidden values am I allowed to observe in each round?"",""How is your bonus determined?""]","[""True"",""$2.50"",""As many or as few as I wish"",""1 cent for every $1 I earn in each round""]",21276,,133212,,,survey-multi-choice,,78
,,,,"[True, True, True, True]",,,,,,,,"[""True or false: The hidden values will change each time I start a new round."",""How much does it cost to observe each hidden value?"",""How many hidden values am I allowed to observe in each round?"",""How is your bonus determined?""]","[""True"",""$2.95"",""As many or as few as I wish"",""1 cent for every $1 I earn in each round""]",13730,,206025,,,survey-multi-choice,,79
,,,,"[True, True, True, True]",,,,,,,,"[""True or false: The hidden values will change each time I start a new round."",""How much does it cost to observe each hidden value?"",""How many hidden values am I allowed to observe in each round?"",""How is your bonus determined?""]","[""True"",""$2.50"",""As many or as few as I wish"",""1 cent for every $1 I earn in each round""]",9986,,72368,,,survey-multi-choice,,80
,,,,"[True, True, True, True]",,,,,,,,"[""True or false: The hidden values will change each time I start a new round."",""How much does it cost to observe each hidden value?"",""How many hidden values am I allowed to observe in each round?"",""How is your bonus determined?""]","[""True"",""$2.50"",""As many or as few as I wish"",""1 cent for every $1 I earn in each round""]",69041,,353124,,,survey-multi-choice,,81
,,,,"[True, True, True, True]",,,,,,,,"[""True or false: The hidden values will change each time I start a new round."",""How much does it cost to observe each hidden value?"",""How many hidden values am I allowed to observe in each round?"",""How is your bonus determined?""]","[""True"",""$2.95"",""As many or as few as I wish"",""1 cent for every $1 I earn in each round""]",29185,,140505,,,survey-multi-choice,,82
,,,,"[True, True, True, True]",,,,,,,,"[""True or false: The hidden values will change each time I start a new round."",""How much does it cost to observe each hidden value?"",""How many hidden values am I allowed to observe in each round?"",""How is your bonus determined?""]","[""True"",""$2.50"",""As many or as few as I wish"",""1 cent for every $1 I earn in each round""]",24206,,156810,,,survey-multi-choice,,83
,,,,"[True, False, True, True]",,,,,,,,"[""True or false: The hidden values will change each time I start a new round."",""How much does it cost to observe each hidden value?"",""How many hidden values am I allowed to observe in each round?"",""How is your bonus determined?""]","[""True"",""$1.00"",""As many or as few as I wish"",""1 cent for every $1 I earn in each round""]",23266,,161399,,,survey-multi-choice,,84
,,,,"[True, True, True, True]",,,,,,,,"[""True or false: The hidden values will change each time I start a new round."",""How much does it cost to observe each hidden value?"",""How many hidden values am I allowed to observe in each round?"",""How is your bonus determined?""]","[""True"",""$3.95"",""As many or as few as I wish"",""1 cent for every $1 I earn in each round""]",12316,,185720,,,survey-multi-choice,,84
,,,,"[True, False, True, True]",,,,,,,,"[""True or false: The hidden values will change each time I start a new round."",""How much does it cost to observe each hidden value?"",""How many hidden values am I allowed to observe in each round?"",""How is your bonus determined?""]","[""True"",""$1.00"",""As many or as few as I wish"",""1 cent for every $1 I earn in each round""]",24184,,142291,,,survey-multi-choice,,85
,,,,"[True, True, True, True]",,,,,,,,"[""True or false: The hidden values will change each time I start a new round."",""How much does it cost to observe each hidden value?"",""How many hidden values am I allowed to observe in each round?"",""How is your bonus determined?""]","[""True"",""$2.95"",""As many or as few as I wish"",""1 cent for every $1 I earn in each round""]",11277,,175070,,,survey-multi-choice,,85
,,,,"[True, True, True, True]",,,,,,,,"[""True or false: The hidden values will change each time I start a new round."",""How much does it cost to observe each hidden value?"",""How many hidden values am I allowed to observe in each round?"",""How is your bonus determined?""]","[""True"",""$2.50"",""As many or as few as I wish"",""1 cent for every $1 I earn in each round""]",21787,,121417,,,survey-multi-choice,,86
,,,,"[True, True, True, True]",,,,,,,,"[""True or false: The hidden values will change each time I start a new round."",""How much does it cost to observe each hidden value?"",""How many hidden values am I allowed to observe in each round?"",""How is your bonus determined?""]","[""True"",""$3.50"",""As many or as few as I wish"",""1 cent for every $1 I earn in each round""]",27527,,128795,,,survey-multi-choice,,87
,,,,"[True, True, True, True]",,,,,,,,"[""True or false: The hidden values will change each time I start a new round."",""How much does it cost to observe each hidden value?"",""How many hidden values am I allowed to observe in each round?"",""How is your bonus determined?""]","[""True"",""$2.95"",""As many or as few as I wish"",""1 cent for every $1 I earn in each round""]",12174,,96317,,,survey-multi-choice,,88
,,,,"[True, True, True, True]",,,,,,,,"[""True or false: The hidden values will change each time I start a new round."",""How much does it cost to observe each hidden value?"",""How many hidden values am I allowed to observe in each round?"",""How is your bonus determined?""]","[""True"",""$3.50"",""As many or as few as I wish"",""1 cent for every $1 I earn in each round""]",24126,,102205,,,survey-multi-choice,,89
,,,,"[True, True, True, True]",,,,,,,,"[""True or false: The hidden values will change each time I start a new round."",""How much does it cost to observe each hidden value?"",""How many hidden values am I allowed to observe in each round?"",""How is your bonus determined?""]","[""True"",""$2.95"",""As many or as few as I wish"",""1 cent for every $1 I earn in each round""]",21112,,273284,,,survey-multi-choice,,90
,,,,"[True, True, True, True]",,,,,,,,"[""True or false: The hidden values will change each time I start a new round."",""How much does it cost to observe each hidden value?"",""How many hidden values am I allowed to observe in each round?"",""How is your bonus determined?""]","[""True"",""$2.50"",""As many or as few as I wish"",""1 cent for every $1 I earn in each round""]",21436,,142068,,,survey-multi-choice,,91
,,,,"[True, True, True, True]",,,,,,,,"[""True or false: The hidden values will change each time I start a new round."",""How much does it cost to observe each hidden value?"",""How many hidden values am I allowed to observe in each round?"",""How is your bonus determined?""]","[""True"",""$2.95"",""As many or as few as I wish"",""1 cent for every $1 I earn in each round""]",19100,,153785,,,survey-multi-choice,,92
,,,,"[True, True, True, True]",,,,,,,,"[""True or false: The hidden values will change each time I start a new round."",""How much does it cost to observe each hidden value?"",""How many hidden values am I allowed to observe in each round?"",""How is your bonus determined?""]","[""True"",""$2.50"",""As many or as few as I wish"",""1 cent for every $1 I earn in each round""]",12536,,100705,,,survey-multi-choice,,93
,,,,"[True, True, True, True]",,,,,,,,"[""True or false: The hidden values will change each time I start a new round."",""How much does it cost to observe each hidden value?"",""How many hidden values am I allowed to observe in each round?"",""How is your bonus determined?""]","[""True"",""$2.50"",""As many or as few as I wish"",""1 cent for every $1 I earn in each round""]",24262,,221874,,,survey-multi-choice,,94
,,,,"[True, True, True, True]",,,,,,,,"[""True or false: The hidden values will change each time I start a new round."",""How much does it cost to observe each hidden value?"",""How many hidden values am I allowed to observe in each round?"",""How is your bonus determined?""]","[""True"",""$3.50"",""As many or as few as I wish"",""1 cent for every $1 I earn in each round""]",15175,,93293,,,survey-multi-choice,,95
,,,,"[True, True, True, True]",,,,,,,,"[""True or false: The hidden values will change each time I start a new round."",""How much does it cost to observe each hidden value?"",""How many hidden values am I allowed to observe in each round?"",""How is your bonus determined?""]","[""True"",""$2.95"",""As many or as few as I wish"",""1 cent for every $1 I earn in each round""]",41824,,136620,,,survey-multi-choice,,96
,,,,"[True, True, True, True]",,,,,,,,"[""True or false: The hidden values will change each time I start a new round."",""How much does it cost to observe each hidden value?"",""How many hidden values am I allowed to observe in each round?"",""How is your bonus determined?""]","[""True"",""$3.50"",""As many or as few as I wish"",""1 cent for every $1 I earn in each round""]",60355,,315543,,,survey-multi-choice,,97
,,,,"[True, False, False, False]",,,,,,,,"[""True or false: The hidden values will change each time I start a new round."",""How much does it cost to observe each hidden value?"",""How many hidden values am I allowed to observe in each round?"",""How is your bonus determined?""]","[""True"",""$0.25"",""At most 15"",""10% of my best score on any round""]",26831,,35704,,,survey-multi-choice,,98
,,,,"[True, True, True, True]",,,,,,,,"[""True or false: The hidden values will change each time I start a new round."",""How much does it cost to observe each hidden value?"",""How many hidden values am I allowed to observe in each round?"",""How is your bonus determined?""]","[""True"",""$3.95"",""As many or as few as I wish"",""1 cent for every $1 I earn in each round""]",17864,,84472,,,survey-multi-choice,,98
,,,,"[True, True, True, True]",,,,,,,,"[""True or false: The hidden values will change each time I start a new round."",""How much does it cost to observe each hidden value?"",""How many hidden values am I allowed to observe in each round?"",""How is your bonus determined?""]","[""True"",""$2.95"",""As many or as few as I wish"",""1 cent for every $1 I earn in each round""]",27332,,136851,,,survey-multi-choice,,99
,,,,"[True, True, False, True]",,,,,,,,"[""True or false: The hidden values will change each time I start a new round."",""How much does it cost to observe each hidden value?"",""How many hidden values am I allowed to observe in each round?"",""How is your bonus determined?""]","[""True"",""$2.95"",""At most 1"",""1 cent for every $1 I earn in each round""]",19576,,73320,,,survey-multi-choice,,100
,,,,"[True, True, True, True]",,,,,,,,"[""True or false: The hidden values will change each time I start a new round."",""How much does it cost to observe each hidden value?"",""How many hidden values am I allowed to observe in each round?"",""How is your bonus determined?""]","[""True"",""$2.95"",""As many or as few as I wish"",""1 cent for every $1 I earn in each round""]",9909,,105670,,,survey-multi-choice,,100
,,,,"[True, True, True, True]",,,,,,,,"[""True or false: The hidden values will change each time I start a new round."",""How much does it cost to observe each hidden value?"",""How many hidden values am I allowed to observe in each round?"",""How is your bonus determined?""]","[""True"",""$2.95"",""As many or as few as I wish"",""1 cent for every $1 I earn in each round""]",14799,,94046,,,survey-multi-choice,,101
,,,,"[True, True, True, True]",,,,,,,,"[""True or false: The hidden values will change each time I start a new round."",""How much does it cost to observe each hidden value?"",""How many hidden values am I allowed to observe in each round?"",""How is your bonus determined?""]","[""True"",""$2.95"",""As many or as few as I wish"",""1 cent for every $1 I earn in each round""]",32192,,181020,,,survey-multi-choice,,102
,,,,"[True, True, True, True]",,,,,,,,"[""True or false: The hidden values will change each time I start a new round."",""How much does it cost to observe each hidden value?"",""How many hidden values am I allowed to observe in each round?"",""How is your bonus determined?""]","[""True"",""$2.95"",""As many or as few as I wish"",""1 cent for every $1 I earn in each round""]",19389,,139600,,,survey-multi-choice,,103
,,,,"[True, True, True, True]",,,,,,,,"[""True or false: The hidden values will change each time I start a new round."",""How much does it cost to observe each hidden value?"",""How many hidden values am I allowed to observe in each round?"",""How is your bonus determined?""]","[""True"",""$2.50"",""As many or as few as I wish"",""1 cent for every $1 I earn in each round""]",16983,,131189,,,survey-multi-choice,,104
,,,,"[True, True, False, True]",,,,,,,,"[""True or false: The hidden values will change each time I start a new round."",""How much does it cost to observe each hidden value?"",""How many hidden values am I allowed to observe in each round?"",""How is your bonus determined?""]","[""True"",""$2.95"",""At most 5"",""1 cent for every $1 I earn in each round""]",20273,,64016,,,survey-multi-choice,,105
,,,,"[True, True, True, True]",,,,,,,,"[""True or false: The hidden values will change each time I start a new round."",""How much does it cost to observe each hidden value?"",""How many hidden values am I allowed to observe in each round?"",""How is your bonus determined?""]","[""True"",""$2.95"",""As many or as few as I wish"",""1 cent for every $1 I earn in each round""]",14593,,116051,,,survey-multi-choice,,105
,,,,"[True, True, True, True]",,,,,,,,"[""True or false: The hidden values will change each time I start a new round."",""How much does it cost to observe each hidden value?"",""How many hidden values am I allowed to observe in each round?"",""How is your bonus determined?""]","[""True"",""$3.95"",""As many or as few as I wish"",""1 cent for every $1 I earn in each round""]",20002,,146778,,,survey-multi-choice,,106
,,,,"[True, True, True, True]",,,,,,,,"[""True or false: The hidden values will change each time I start a new round."",""How much does it cost to observe each hidden value?"",""How many hidden values am I allowed to observe in each round?"",""How is your bonus determined?""]","[""True"",""$2.95"",""As many or as few as I wish"",""1 cent for every $1 I earn in each round""]",17787,,148688,,,survey-multi-choice,,107
,,,,"[True, False, True, True]",,,,,,,,"[""True or false: The hidden values will change each time I start a new round."",""How much does it cost to observe each hidden value?"",""How many hidden values am I allowed to observe in each round?"",""How is your bonus determined?""]","[""True"",""$3.50"",""As many or as few as I wish"",""1 cent for every $1 I earn in each round""]",13724,,111692,,,survey-multi-choice,,108
,,,,"[True, True, True, True]",,,,,,,,"[""True or false: The hidden values will change each time I start a new round."",""How much does it cost to observe each hidden value?"",""How many hidden values am I allowed to observe in each round?"",""How is your bonus determined?""]","[""True"",""$3.95"",""As many or as few as I wish"",""1 cent for every $1 I earn in each round""]",11175,,161941,,,survey-multi-choice,,108
,,,,"[True, True, True, True]",,,,,,,,"[""True or false: The hidden values will change each time I start a new round."",""How much does it cost to observe each hidden value?"",""How many hidden values am I allowed to observe in each round?"",""How is your bonus determined?""]","[""True"",""$2.50"",""As many or as few as I wish"",""1 cent for every $1 I earn in each round""]",9951,,104497,,,survey-multi-choice,,109
,,,,"[True, True, False, True]",,,,,,,,"[""True or false: The hidden values will change each time I start a new round."",""How much does it cost to observe each hidden value?"",""How many hidden values am I allowed to observe in each round?"",""How is your bonus determined?""]","[""True"",""$2.50"",""At most 1"",""1 cent for every $1 I earn in each round""]",16875,,106558,,,survey-multi-choice,,110
,,,,"[True, True, True, True]",,,,,,,,"[""True or false: The hidden values will change each time I start a new round."",""How much does it cost to observe each hidden value?"",""How many hidden values am I allowed to observe in each round?"",""How is your bonus determined?""]","[""True"",""$2.50"",""As many or as few as I wish"",""1 cent for every $1 I earn in each round""]",13238,,135439,,,survey-multi-choice,,110
,,,,"[True, True, True, True]",,,,,,,,"[""True or false: The hidden values will change each time I start a new round."",""How much does it cost to observe each hidden value?"",""How many hidden values am I allowed to observe in each round?"",""How is your bonus determined?""]","[""True"",""$3.50"",""As many or as few as I wish"",""1 cent for every $1 I earn in each round""]",61924,,314308,,,survey-multi-choice,,111
,,,,"[True, True, True, True]",,,,,,,,"[""True or false: The hidden values will change each time I start a new round."",""How much does it cost to observe each hidden value?"",""How many hidden values am I allowed to observe in each round?"",""How is your bonus determined?""]","[""True"",""$3.50"",""As many or as few as I wish"",""1 cent for every $1 I earn in each round""]",18151,,85126,,,survey-multi-choice,,112
,,,,"[True, True, True, True]",,,,,,,,"[""True or false: The hidden values will change each time I start a new round."",""How much does it cost to observe each hidden value?"",""How many hidden values am I allowed to observe in each round?"",""How is your bonus determined?""]","[""True"",""$3.50"",""As many or as few as I wish"",""1 cent for every $1 I earn in each round""]",87323,,376758,,,survey-multi-choice,,113
,,,,"[True, True, True, True]",,,,,,,,"[""True or false: The hidden values will change each time I start a new round."",""How much does it cost to observe each hidden value?"",""How many hidden values am I allowed to observe in each round?"",""How is your bonus determined?""]","[""True"",""$3.95"",""As many or as few as I wish"",""1 cent for every $1 I earn in each round""]",8853,,17419,,,survey-multi-choice,,114
,,,,"[True, True, True, False]",,,,,,,,"[""True or false: The hidden values will change each time I start a new round."",""How much does it cost to observe each hidden value?"",""How many hidden values am I allowed to observe in each round?"",""How is your bonus determined?""]","[""True"",""$2.95"",""As many or as few as I wish"",""10% of my best score on any round""]",20368,,91996,,,survey-multi-choice,,115
,,,,"[True, True, True, True]",,,,,,,,"[""True or false: The hidden values will change each time I start a new round."",""How much does it cost to observe each hidden value?"",""How many hidden values am I allowed to observe in each round?"",""How is your bonus determined?""]","[""True"",""$2.95"",""As many or as few as I wish"",""1 cent for every $1 I earn in each round""]",10595,,122082,,,survey-multi-choice,,115
,,,,"[True, False, False, False]",,,,,,,,"[""True or false: The hidden values will change each time I start a new round."",""How much does it cost to observe each hidden value?"",""How many hidden values am I allowed to observe in each round?"",""How is your bonus determined?""]","[""True"",""$0.05"",""At most 5"",""1% of my best score on any round""]",27257,,155904,,,survey-multi-choice,,116
,,,,"[True, False, True, False]",,,,,,,,"[""True or false: The hidden values will change each time I start a new round."",""How much does it cost to observe each hidden value?"",""How many hidden values am I allowed to observe in each round?"",""How is your bonus determined?""]","[""True"",""$0.01"",""As many or as few as I wish"",""1% of my best score on any round""]",14406,,252505,,,survey-multi-choice,,116
,,,,"[True, True, True, True]",,,,,,,,"[""True or false: The hidden values will change each time I start a new round."",""How much does it cost to observe each hidden value?"",""How many hidden values am I allowed to observe in each round?"",""How is your bonus determined?""]","[""True"",""$3.50"",""As many or as few as I wish"",""1 cent for every $1 I earn in each round""]",19598,,391360,,,survey-multi-choice,,116
,,,,"[False, True, True, True]",,,,,,,,"[""True or false: The hidden values will change each time I start a new round."",""How much does it cost to observe each hidden value?"",""How many hidden values am I allowed to observe in each round?"",""How is your bonus determined?""]","[""False"",""$2.50"",""As many or as few as I wish"",""1 cent for every $1 I earn in each round""]",18406,,77709,,,survey-multi-choice,,117
,,,,"[True, True, True, True]",,,,,,,,"[""True or false: The hidden values will change each time I start a new round."",""How much does it cost to observe each hidden value?"",""How many hidden values am I allowed to observe in each round?"",""How is your bonus determined?""]","[""True"",""$2.50"",""As many or as few as I wish"",""1 cent for every $1 I earn in each round""]",8840,,118846,,,survey-multi-choice,,117
,,,,"[False, True, True, True]",,,,,,,,"[""True or false: The hidden values will change each time I start a new round."",""How much does it cost to observe each hidden value?"",""How many hidden values am I allowed to observe in each round?"",""How is your bonus determined?""]","[""False"",""$3.95"",""As many or as few as I wish"",""1 cent for every $1 I earn in each round""]",110988,,345836,,,survey-multi-choice,,118
,,,,"[True, True, True, True]",,,,,,,,"[""True or false: The hidden values will change each time I start a new round."",""How much does it cost to observe each hidden value?"",""How many hidden values am I allowed to observe in each round?"",""How is your bonus determined?""]","[""True"",""$3.95"",""As many or as few as I wish"",""1 cent for every $1 I earn in each round""]",70111,,560791,,,survey-multi-choice,,118
,,,,"[True, True, True, True]",,,,,,,,"[""True or false: The hidden values will change each time I start a new round."",""How much does it cost to observe each hidden value?"",""How many hidden values am I allowed to observe in each round?"",""How is your bonus determined?""]","[""True"",""$2.50"",""As many or as few as I wish"",""1 cent for every $1 I earn in each round""]",16519,,116923,,,survey-multi-choice,,119
,,,,"[True, False, True, True]",,,,,,,,"[""True or false: The hidden values will change each time I start a new round."",""How much does it cost to observe each hidden value?"",""How many hidden values am I allowed to observe in each round?"",""How is your bonus determined?""]","[""True"",""$1.00"",""As many or as few as I wish"",""1 cent for every $1 I earn in each round""]",21480,,117157,,,survey-multi-choice,,120
,,,,"[True, True, True, True]",,,,,,,,"[""True or false: The hidden values will change each time I start a new round."",""How much does it cost to observe each hidden value?"",""How many hidden values am I allowed to observe in each round?"",""How is your bonus determined?""]","[""True"",""$3.50"",""As many or as few as I wish"",""1 cent for every $1 I earn in each round""]",18106,,177082,,,survey-multi-choice,,120
,,,,"[True, True, True, True]",,,,,,,,"[""True or false: The hidden values will change each time I start a new round."",""How much does it cost to observe each hidden value?"",""How many hidden values am I allowed to observe in each round?"",""How is your bonus determined?""]","[""True"",""$3.50"",""As many or as few as I wish"",""1 cent for every $1 I earn in each round""]",33292,,303865,,,survey-multi-choice,,121
,,,,"[True, True, True, True]",,,,,,,,"[""True or false: The hidden values will change each time I start a new round."",""How much does it cost to observe each hidden value?"",""How many hidden values am I allowed to observe in each round?"",""How is your bonus determined?""]","[""True"",""$2.95"",""As many or as few as I wish"",""1 cent for every $1 I earn in each round""]",12341,,122592,,,survey-multi-choice,,122
,,,,"[True, True, True, True]",,,,,,,,"[""True or false: The hidden values will change each time I start a new round."",""How much does it cost to observe each hidden value?"",""How many hidden values am I allowed to observe in each round?"",""How is your bonus determined?""]","[""True"",""$3.95"",""As many or as few as I wish"",""1 cent for every $1 I earn in each round""]",22514,,196562,,,survey-multi-choice,,123
,,,,"[True, False, True, True]",,,,,,,,"[""True or false: The hidden values will change each time I start a new round."",""How much does it cost to observe each hidden value?"",""How many hidden values am I allowed to observe in each round?"",""How is your bonus determined?""]","[""True"",""$0.01"",""As many or as few as I wish"",""1 cent for every $1 I earn in each round""]",19650,,144200,,,survey-multi-choice,,124
,,,,"[True, True, True, True]",,,,,,,,"[""True or false: The hidden values will change each time I start a new round."",""How much does it cost to observe each hidden value?"",""How many hidden values am I allowed to observe in each round?"",""How is your bonus determined?""]","[""True"",""$2.95"",""As many or as few as I wish"",""1 cent for every $1 I earn in each round""]",11634,,180063,,,survey-multi-choice,,124
,,,,"[True, True, True, True]",,,,,,,,"[""True or false: The hidden values will change each time I start a new round."",""How much does it cost to observe each hidden value?"",""How many hidden values am I allowed to observe in each round?"",""How is your bonus determined?""]","[""True"",""$2.95"",""As many or as few as I wish"",""1 cent for every $1 I earn in each round""]",86421,,207789,,,survey-multi-choice,,125
,,,,"[True, True, True, True]",,,,,,,,"[""True or false: The hidden values will change each time I start a new round."",""How much does it cost to observe each hidden value?"",""How many hidden values am I allowed to observe in each round?"",""How is your bonus determined?""]","[""True"",""$2.50"",""As many or as few as I wish"",""1 cent for every $1 I earn in each round""]",75960,,120012,,,survey-multi-choice,,126
,,,,"[True, True, True, True]",,,,,,,,"[""True or false: The hidden values will change each time I start a new round."",""How much does it cost to observe each hidden value?"",""How many hidden values am I allowed to observe in each round?"",""How is your bonus determined?""]","[""True"",""$3.50"",""As many or as few as I wish"",""1 cent for every $1 I earn in each round""]",18421,,115767,,,survey-multi-choice,,127
,,,,"[True, True, True, True]",,,,,,,,"[""True or false: The hidden values will change each time I start a new round."",""How much does it cost to observe each hidden value?"",""How many hidden values am I allowed to observe in each round?"",""How is your bonus determined?""]","[""True"",""$3.50"",""As many or as few as I wish"",""1 cent for every $1 I earn in each round""]",16245,,100640,,,survey-multi-choice,,128
,,,,"[True, True, True, True]",,,,,,,,"[""True or false: The hidden values will change each time I start a new round."",""How much does it cost to observe each hidden value?"",""How many hidden values am I allowed to observe in each round?"",""How is your bonus determined?""]","[""True"",""$2.50"",""As many or as few as I wish"",""1 cent for every $1 I earn in each round""]",12014,,89191,,,survey-multi-choice,,129
,,,,"[True, False, False, False]",,,,,,,,"[""True or false: The hidden values will change each time I start a new round."",""How much does it cost to observe each hidden value?"",""How many hidden values am I allowed to observe in each round?"",""How is your bonus determined?""]","[""True"",""$1.00"",""At most 1"",""10% of my best score on any round""]",36035,,139873,,,survey-multi-choice,,130
,,,,"[True, True, True, True]",,,,,,,,"[""True or false: The hidden values will change each time I start a new round."",""How much does it cost to observe each hidden value?"",""How many hidden values am I allowed to observe in each round?"",""How is your bonus determined?""]","[""True"",""$3.50"",""As many or as few as I wish"",""1 cent for every $1 I earn in each round""]",76932,,417486,,,survey-multi-choice,,130
,,,,"[True, False, True, True]",,,,,,,,"[""True or false: The hidden values will change each time I start a new round."",""How much does it cost to observe each hidden value?"",""How many hidden values am I allowed to observe in each round?"",""How is your bonus determined?""]","[""True"",""$0.01"",""As many or as few as I wish"",""1 cent for every $1 I earn in each round""]",11594,,54234,,,survey-multi-choice,,131
,,,,"[True, True, True, True]",,,,,,,,"[""True or false: The hidden values will change each time I start a new round."",""How much does it cost to observe each hidden value?"",""How many hidden values am I allowed to observe in each round?"",""How is your bonus determined?""]","[""True"",""$2.50"",""As many or as few as I wish"",""1 cent for every $1 I earn in each round""]",6048,,73835,,,survey-multi-choice,,131
,,,,"[True, True, True, True]",,,,,,,,"[""True or false: The hidden values will change each time I start a new round."",""How much does it cost to observe each hidden value?"",""How many hidden values am I allowed to observe in each round?"",""How is your bonus determined?""]","[""True"",""$3.50"",""As many or as few as I wish"",""1 cent for every $1 I earn in each round""]",17689,,56913,,,survey-multi-choice,,132
,,,,"[True, True, True, True]",,,,,,,,"[""True or false: The hidden values will change each time I start a new round."",""How much does it cost to observe each hidden value?"",""How many hidden values am I allowed to observe in each round?"",""How is your bonus determined?""]","[""True"",""$3.50"",""As many or as few as I wish"",""1 cent for every $1 I earn in each round""]",30248,,176301,,,survey-multi-choice,,133
,,,,"[True, True, True, True]",,,,,,,,"[""True or false: The hidden values will change each time I start a new round."",""How much does it cost to observe each hidden value?"",""How many hidden values am I allowed to observe in each round?"",""How is your bonus determined?""]","[""True"",""$3.95"",""As many or as few as I wish"",""1 cent for every $1 I earn in each round""]",32756,,122223,,,survey-multi-choice,,134
,,,,"[True, True, True, True]",,,,,,,,"[""True or false: The hidden values will change each time I start a new round."",""How much does it cost to observe each hidden value?"",""How many hidden values am I allowed to observe in each round?"",""How is your bonus determined?""]","[""True"",""$3.95"",""As many or as few as I wish"",""1 cent for every $1 I earn in each round""]",14058,,94772,,,survey-multi-choice,,135
,,,,"[True, True, True, False]",,,,,,,,"[""True or false: The hidden values will change each time I start a new round."",""How much does it cost to observe each hidden value?"",""How many hidden values am I allowed to observe in each round?"",""How is your bonus determined?""]","[""True"",""$2.50"",""As many or as few as I wish"",""10% of my best score on any round""]",28938,,102030,,,survey-multi-choice,,136
,,,,"[True, True, False, True]",,,,,,,,"[""True or false: The hidden values will change each time I start a new round."",""How much does it cost to observe each hidden value?"",""How many hidden values am I allowed to observe in each round?"",""How is your bonus determined?""]","[""True"",""$2.50"",""At most 1"",""1 cent for every $1 I earn in each round""]",16579,,190316,,,survey-multi-choice,,136
,,,,"[True, True, True, True]",,,,,,,,"[""True or false: The hidden values will change each time I start a new round."",""How much does it cost to observe each hidden value?"",""How many hidden values am I allowed to observe in each round?"",""How is your bonus determined?""]","[""True"",""$2.50"",""As many or as few as I wish"",""1 cent for every $1 I earn in each round""]",13769,,267096,,,survey-multi-choice,,136
,,,,"[True, False, True, True]",,,,,,,,"[""True or false: The hidden values will change each time I start a new round."",""How much does it cost to observe each hidden value?"",""How many hidden values am I allowed to observe in each round?"",""How is your bonus determined?""]","[""True"",""$1.00"",""As many or as few as I wish"",""1 cent for every $1 I earn in each round""]",24975,,136854,,,survey-multi-choice,,137
,,,,"[True, True, True, True]",,,,,,,,"[""True or false: The hidden values will change each time I start a new round."",""How much does it cost to observe each hidden value?"",""How many hidden values am I allowed to observe in each round?"",""How is your bonus determined?""]","[""True"",""$2.50"",""As many or as few as I wish"",""1 cent for every $1 I earn in each round""]",14266,,197846,,,survey-multi-choice,,137
,,,,"[True, False, True, True]",,,,,,,,"[""True or false: The hidden values will change each time I start a new round."",""How much does it cost to observe each hidden value?"",""How many hidden values am I allowed to observe in each round?"",""How is your bonus determined?""]","[""True"",""$2.95"",""As many or as few as I wish"",""1 cent for every $1 I earn in each round""]",13356,,323444,,,survey-multi-choice,,138
,,,,"[True, True, True, True]",,,,,,,,"[""True or false: The hidden values will change each time I start a new round."",""How much does it cost to observe each hidden value?"",""How many hidden values am I allowed to observe in each round?"",""How is your bonus determined?""]","[""True"",""$3.95"",""As many or as few as I wish"",""1 cent for every $1 I earn in each round""]",9428,,357001,,,survey-multi-choice,,138
,,,,"[True, True, True, True]",,,,,,,,"[""True or false: The hidden values will change each time I start a new round."",""How much does it cost to observe each hidden value?"",""How many hidden values am I allowed to observe in each round?"",""How is your bonus determined?""]","[""True"",""$3.50"",""As many or as few as I wish"",""1 cent for every $1 I earn in each round""]",12070,,45602,,,survey-multi-choice,,139
,,,,"[True, False, True, False]",,,,,,,,"[""True or false: The hidden values will change each time I start a new round."",""How much does it cost to observe each hidden value?"",""How many hidden values am I allowed to observe in each round?"",""How is your bonus determined?""]","[""True"",""$0.01"",""As many or as few as I wish"",""1% of my best score on any round""]",25878,,91370,,,survey-multi-choice,,140
,,,,"[True, True, True, True]",,,,,,,,"[""True or false: The hidden values will change each time I start a new round."",""How much does it cost to observe each hidden value?"",""How many hidden values am I allowed to observe in each round?"",""How is your bonus determined?""]","[""True"",""$2.50"",""As many or as few as I wish"",""1 cent for every $1 I earn in each round""]",13698,,170044,,,survey-multi-choice,,140
,,,,"[False, False, False, True]",,,,,,,,"[""True or false: The hidden values will change each time I start a new round."",""How much does it cost to observe each hidden value?"",""How many hidden values am I allowed to observe in each round?"",""How is your bonus determined?""]","[""False"",""$0.01"",""At most 1"",""1 cent for every $1 I earn in each round""]",21712,,88990,,,survey-multi-choice,,141
,,,,"[False, False, True, False]",,,,,,,,"[""True or false: The hidden values will change each time I start a new round."",""How much does it cost to observe each hidden value?"",""How many hidden values am I allowed to observe in each round?"",""How is your bonus determined?""]","[""False"",""$0.01"",""As many or as few as I wish"",""1% of my best score on any round""]",11339,,148141,,,survey-multi-choice,,141
,,,,"[True, False, True, True]",,,,,,,,"[""True or false: The hidden values will change each time I start a new round."",""How much does it cost to observe each hidden value?"",""How many hidden values am I allowed to observe in each round?"",""How is your bonus determined?""]","[""True"",""$0.01"",""As many or as few as I wish"",""1 cent for every $1 I earn in each round""]",8026,,182601,,,survey-multi-choice,,141
,,,,"[True, False, True, False]",,,,,,,,"[""True or false: The hidden values will change each time I start a new round."",""How much does it cost to observe each hidden value?"",""How many hidden values am I allowed to observe in each round?"",""How is your bonus determined?""]","[""True"",""$0.01"",""As many or as few as I wish"",""1% of my best score on any round""]",30661,,221966,,,survey-multi-choice,,141
,,,,"[True, True, True, True]",,,,,,,,"[""True or false: The hidden values will change each time I start a new round."",""How much does it cost to observe each hidden value?"",""How many hidden values am I allowed to observe in each round?"",""How is your bonus determined?""]","[""True"",""$3.50"",""As many or as few as I wish"",""1 cent for every $1 I earn in each round""]",13029,,241047,,,survey-multi-choice,,141
,,,,"[True, False, False, False]",,,,,,,,"[""True or false: The hidden values will change each time I start a new round."",""How much does it cost to observe each hidden value?"",""How many hidden values am I allowed to observe in each round?"",""How is your bonus determined?""]","[""True"",""$0.05"",""At most 1"",""1% of my best score on any round""]",25302,,55465,,,survey-multi-choice,,142
,,,,"[True, True, True, True]",,,,,,,,"[""True or false: The hidden values will change each time I start a new round."",""How much does it cost to observe each hidden value?"",""How many hidden values am I allowed to observe in each round?"",""How is your bonus determined?""]","[""True"",""$3.95"",""As many or as few as I wish"",""1 cent for every $1 I earn in each round""]",17044,,107987,,,survey-multi-choice,,142
,,,,"[True, True, True, True]",,,,,,,,"[""True or false: The hidden values will change each time I start a new round."",""How much does it cost to observe each hidden value?"",""How many hidden values am I allowed to observe in each round?"",""How is your bonus determined?""]","[""True"",""$3.50"",""As many or as few as I wish"",""1 cent for every $1 I earn in each round""]",14853,,122192,,,survey-multi-choice,,143
,,,,"[True, True, True, True]",,,,,,,,"[""True or false: The hidden values will change each time I start a new round."",""How much does it cost to observe each hidden value?"",""How many hidden values am I allowed to observe in each round?"",""How is your bonus determined?""]","[""True"",""$2.95"",""As many or as few as I wish"",""1 cent for every $1 I earn in each round""]",22283,,72209,,,survey-multi-choice,,144
,,,,"[True, False, True, True]",,,,,,,,"[""True or false: The hidden values will change each time I start a new round."",""How much does it cost to observe each hidden value?"",""How many hidden values am I allowed to observe in each round?"",""How is your bonus determined?""]","[""True"",""$0.01"",""As many or as few as I wish"",""1 cent for every $1 I earn in each round""]",23433,,165094,,,survey-multi-choice,,145
,,,,"[True, True, True, True]",,,,,,,,"[""True or false: The hidden values will change each time I start a new round."",""How much does it cost to observe each hidden value?"",""How many hidden values am I allowed to observe in each round?"",""How is your bonus determined?""]","[""True"",""$3.95"",""As many or as few as I wish"",""1 cent for every $1 I earn in each round""]",10116,,273391,,,survey-multi-choice,,145
,,,,"[True, True, True, True]",,,,,,,,"[""True or false: The hidden values will change each time I start a new round."",""How much does it cost to observe each hidden value?"",""How many hidden values am I allowed to observe in each round?"",""How is your bonus determined?""]","[""True"",""$2.95"",""As many or as few as I wish"",""1 cent for every $1 I earn in each round""]",9036,,66995,,,survey-multi-choice,,146
,,,,"[True, True, True, True]",,,,,,,,"[""True or false: The hidden values will change each time I start a new round."",""How much does it cost to observe each hidden value?"",""How many hidden values am I allowed to observe in each round?"",""How is your bonus determined?""]","[""True"",""$2.95"",""As many or as few as I wish"",""1 cent for every $1 I earn in each round""]",14382,,107934,,,survey-multi-choice,,147
,,,,"[True, True, True, True]",,,,,,,,"[""True or false: The hidden values will change each time I start a new round."",""How much does it cost to observe each hidden value?"",""How many hidden values am I allowed to observe in each round?"",""How is your bonus determined?""]","[""True"",""$3.50"",""As many or as few as I wish"",""1 cent for every $1 I earn in each round""]",16229,,161045,,,survey-multi-choice,,148
,,,,"[True, True, True, True]",,,,,,,,"[""True or false: The hidden values will change each time I start a new round."",""How much does it cost to observe each hidden value?"",""How many hidden values am I allowed to observe in each round?"",""How is your bonus determined?""]","[""True"",""$2.95"",""As many or as few as I wish"",""1 cent for every $1 I earn in each round""]",30381,,299048,,,survey-multi-choice,,149
,,,,"[True, False, False, True]",,,,,,,,"[""True or false: The hidden values will change each time I start a new round."",""How much does it cost to observe each hidden value?"",""How many hidden values am I allowed to observe in each round?"",""How is your bonus determined?""]","[""True"",""$3.95"",""At most 1"",""1 cent for every $1 I earn in each round""]",21278,,139549,,,survey-multi-choice,,150
,,,,"[True, True, True, True]",,,,,,,,"[""True or false: The hidden values will change each time I start a new round."",""How much does it cost to observe each hidden value?"",""How many hidden values am I allowed to observe in each round?"",""How is your bonus determined?""]","[""True"",""$3.50"",""As many or as few as I wish"",""1 cent for every $1 I earn in each round""]",6991,,171165,,,survey-multi-choice,,150
,,,,"[True, True, True, True]",,,,,,,,"[""True or false: The hidden values will change each time I start a new round."",""How much does it cost to observe each hidden value?"",""How many hidden values am I allowed to observe in each round?"",""How is your bonus determined?""]","[""True"",""$3.50"",""As many or as few as I wish"",""1 cent for every $1 I earn in each round""]",20393,,179451,,,survey-multi-choice,,151
,,,,"[True, True, True, True]",,,,,,,,"[""True or false: The hidden values will change each time I start a new round."",""How much does it cost to observe each hidden value?"",""How many hidden values am I allowed to observe in each round?"",""How is your bonus determined?""]","[""True"",""$3.50"",""As many or as few as I wish"",""1 cent for every $1 I earn in each round""]",22761,,90628,,,survey-multi-choice,,152
,,,,"[True, False, True, True]",,,,,,,,"[""True or false: The hidden values will change each time I start a new round."",""How much does it cost to observe each hidden value?"",""How many hidden values am I allowed to observe in each round?"",""How is your bonus determined?""]","[""True"",""$0.05"",""As many or as few as I wish"",""1 cent for every $1 I earn in each round""]",28173,,105195,,,survey-multi-choice,,153
,,,,"[True, True, True, True]",,,,,,,,"[""True or false: The hidden values will change each time I start a new round."",""How much does it cost to observe each hidden value?"",""How many hidden values am I allowed to observe in each round?"",""How is your bonus determined?""]","[""True"",""$2.95"",""As many or as few as I wish"",""1 cent for every $1 I earn in each round""]",10390,,136919,,,survey-multi-choice,,153
,,,,"[True, False, False, True]",,,,,,,,"[""True or false: The hidden values will change each time I start a new round."",""How much does it cost to observe each hidden value?"",""How many hidden values am I allowed to observe in each round?"",""How is your bonus determined?""]","[""True"",""$0.01"",""At most 5"",""1 cent for every $1 I earn in each round""]",18688,,79418,,,survey-multi-choice,,154
,,,,"[True, True, False, True]",,,,,,,,"[""True or false: The hidden values will change each time I start a new round."",""How much does it cost to observe each hidden value?"",""How many hidden values am I allowed to observe in each round?"",""How is your bonus determined?""]","[""True"",""$3.95"",""At most 1"",""1 cent for every $1 I earn in each round""]",15852,,615529,,,survey-multi-choice,,154
,,,,"[True, True, True, True]",,,,,,,,"[""True or false: The hidden values will change each time I start a new round."",""How much does it cost to observe each hidden value?"",""How many hidden values am I allowed to observe in each round?"",""How is your bonus determined?""]","[""True"",""$3.95"",""As many or as few as I wish"",""1 cent for every $1 I earn in each round""]",8896,,782381,,,survey-multi-choice,,154
,,,,"[True, True, True, True]",,,,,,,,"[""True or false: The hidden values will change each time I start a new round."",""How much does it cost to observe each hidden value?"",""How many hidden values am I allowed to observe in each round?"",""How is your bonus determined?""]","[""True"",""$3.50"",""As many or as few as I wish"",""1 cent for every $1 I earn in each round""]",17334,,290483,,,survey-multi-choice,,155
,,,,"[True, False, True, True]",,,,,,,,"[""True or false: The hidden values will change each time I start a new round."",""How much does it cost to observe each hidden value?"",""How many hidden values am I allowed to observe in each round?"",""How is your bonus determined?""]","[""True"",""$0.01"",""As many or as few as I wish"",""1 cent for every $1 I earn in each round""]",25588,,116472,,,survey-multi-choice,,156
,,,,"[True, True, True, True]",,,,,,,,"[""True or false: The hidden values will change each time I start a new round."",""How much does it cost to observe each hidden value?"",""How many hidden values am I allowed to observe in each round?"",""How is your bonus determined?""]","[""True"",""$2.50"",""As many or as few as I wish"",""1 cent for every $1 I earn in each round""]",10793,,162064,,,survey-multi-choice,,156
