p_rdata,action_times,actions,beliefs,correct,delays,information_used_correctly,key_press,meta_actions,path,planned_too_little,planned_too_much,queries,questions,responses,rt,score,time_elapsed,trial_index,trial_id,trial_type,view_history,pid
"[{u'Q': 28, u'action': u'__TERM_ACTION__', u'Qs': {u'1': 20, u'9': 28, u'13': 12, u'5': 12}, u'state': [0, u'__', u'__', u'__', u'__', u'__', u'__', u'__', u'__', u'__', u'__', u'__', u'__', u'__', u'__', u'__', u'__'], u'V': 28}]","[5656, 10039, 11703]","[u'2', u'2', u'3']","[[0, u'__', u'__', u'__', u'__', u'__', u'__', u'__', u'__', u'__', u'__', u'__', u'__', u'__', u'__', u'__', u'__']]",,[0],[True],,[u'__TERM_ACTION__'],"[9, 10, 11]",[False],[False],"{u'mouseover': {u'state': {u'target': [], u'time': []}, u'edge': {u'target': [], u'time': []}}, u'click': {u'state': {u'target': [], u'time': []}, u'edge': {u'target': [], u'time': []}}, u'mouseout': {u'state': {u'target': [], u'time': []}, u'edge': {u'target': [], u'time': []}}}",,,"[5656, 3866, 1148]",-4.0,136508,1.0,6.0,mouselab-mdp,,0
"[{u'Q': 36, u'action': u'__TERM_ACTION__', u'Qs': {u'1': 28, u'9': 36, u'13': -4, u'5': 20}, u'state': [0, u'__', u'__', u'__', u'__', 4, 12, -20, 4, 20, 4, u'__', 12, -12, u'__', u'__', u'__'], u'V': 36}]","[10331, 11611, 12571]","[u'2', u'2', u'1']","[[0, u'__', u'__', u'__', u'__', u'__', u'__', u'__', u'__', u'__', u'__', u'__', u'__', u'__', u'__', u'__', u'__'], [0, u'__', u'__', u'__', u'__', u'__', u'__', u'__', u'__', u'__', u'__', u'__', u'__', -12, u'__', u'__', u'__'], [0, u'__', u'__', u'__', u'__', 4, u'__', u'__', u'__', u'__', u'__', u'__', u'__', -12, u'__', u'__', u'__'], [0, u'__', u'__', u'__', u'__', 4, 12, u'__', u'__', u'__', u'__', u'__', u'__', -12, u'__', u'__', u'__'], [0, u'__', u'__', u'__', u'__', 4, 12, u'__', 4, u'__', u'__', u'__', u'__', -12, u'__', u'__', u'__'], [0, u'__', u'__', u'__', u'__', 4, 12, -20, 4, u'__', u'__', u'__', u'__', -12, u'__', u'__', u'__'], [0, u'__', u'__', u'__', u'__', 4, 12, -20, 4, 20, u'__', u'__', u'__', -12, u'__', u'__', u'__'], [0, u'__', u'__', u'__', u'__', 4, 12, -20, 4, 20, 4, u'__', u'__', -12, u'__', u'__', u'__'], [0, u'__', u'__', u'__', u'__', 4, 12, -20, 4, 20, 4, u'__', 12, -12, u'__', u'__', u'__']]",,[0],[True],,"[13, 5, 6, 8, 7, 9, 10, 12, u'__TERM_ACTION__']","[9, 10, 12]",[False],[False],"{u'mouseover': {u'state': {u'target': [], u'time': []}, u'edge': {u'target': [], u'time': []}}, u'click': {u'state': {u'target': [13, 5, 6, 8, 7, 9, 10, 12], u'time': [2248, 3257, 5784, 6336, 6792, 8376, 8776, 9127]}, u'edge': {u'target': [], u'time': []}}, u'mouseout': {u'state': {u'target': [], u'time': []}, u'edge': {u'target': [], u'time': []}}}",,,"[10331, 761, 438]",35.92,186483,2.0,2.0,mouselab-mdp,,0
"[{u'Q': 28, u'action': u'__TERM_ACTION__', u'Qs': {u'1': 20, u'9': 28, u'13': -4, u'5': 28}, u'state': [0, 12, 4, 4, -4, -4, 12, -4, 20, 4, u'__', u'__', u'__', -4, 4, -4, -4], u'V': 28}]","[9068, 9756, 11060]","[u'1', u'1', u'0']","[[0, u'__', u'__', u'__', u'__', u'__', u'__', u'__', u'__', u'__', u'__', u'__', u'__', u'__', u'__', u'__', u'__'], [0, u'__', u'__', u'__', u'__', u'__', u'__', u'__', u'__', u'__', u'__', u'__', u'__', -4, u'__', u'__', u'__'], [0, u'__', u'__', u'__', u'__', -4, u'__', u'__', u'__', u'__', u'__', u'__', u'__', -4, u'__', u'__', u'__'], [0, u'__', u'__', u'__', u'__', -4, u'__', u'__', u'__', 4, u'__', u'__', u'__', -4, u'__', u'__', u'__'], [0, 12, u'__', u'__', u'__', -4, u'__', u'__', u'__', 4, u'__', u'__', u'__', -4, u'__', u'__', u'__'], [0, 12, 4, u'__', u'__', -4, u'__', u'__', u'__', 4, u'__', u'__', u'__', -4, u'__', u'__', u'__'], [0, 12, 4, 4, u'__', -4, u'__', u'__', u'__', 4, u'__', u'__', u'__', -4, u'__', u'__', u'__'], [0, 12, 4, 4, -4, -4, u'__', u'__', u'__', 4, u'__', u'__', u'__', -4, u'__', u'__', u'__'], [0, 12, 4, 4, -4, -4, u'__', u'__', u'__', 4, u'__', u'__', u'__', -4, 4, u'__', u'__'], [0, 12, 4, 4, -4, -4, u'__', u'__', u'__', 4, u'__', u'__', u'__', -4, 4, u'__', -4], [0, 12, 4, 4, -4, -4, u'__', u'__', u'__', 4, u'__', u'__', u'__', -4, 4, -4, -4], [0, 12, 4, 4, -4, -4, 12, u'__', u'__', 4, u'__', u'__', u'__', -4, 4, -4, -4], [0, 12, 4, 4, -4, -4, 12, -4, u'__', 4, u'__', u'__', u'__', -4, 4, -4, -4], [0, 12, 4, 4, -4, -4, 12, -4, 20, 4, u'__', u'__', u'__', -4, 4, -4, -4]]",,[0],[True],,"[13, 5, 9, 1, 2, 3, 4, 14, 16, 15, 6, 7, 8, u'__TERM_ACTION__']","[5, 6, 8]",[False],[False],"{u'mouseover': {u'state': {u'target': [], u'time': []}, u'edge': {u'target': [], u'time': []}}, u'click': {u'state': {u'target': [13, 5, 9, 1, 2, 3, 4, 14, 16, 15, 6, 7, 8], u'time': [513, 1113, 1768, 2296, 3144, 3576, 4217, 5096, 5552, 6016, 6784, 7176, 7672]}, u'edge': {u'target': [], u'time': []}}, u'mouseout': {u'state': {u'target': [], u'time': []}, u'edge': {u'target': [], u'time': []}}}",,,"[9068, 174, 778]",27.87,233987,3.0,5.0,mouselab-mdp,,0
"[{u'Q': 36, u'action': u'__TERM_ACTION__', u'Qs': {u'1': 20, u'9': 36, u'13': -4, u'5': -4}, u'state': [0, 4, 4, 12, u'__', -20, u'__', u'__', u'__', 20, 4, 12, 4, -4, u'__', u'__', u'__'], u'V': 36}]","[10141, 10973, 11852]","[u'2', u'2', u'3']","[[0, u'__', u'__', u'__', u'__', u'__', u'__', u'__', u'__', u'__', u'__', u'__', u'__', u'__', u'__', u'__', u'__'], [0, u'__', u'__', u'__', u'__', u'__', u'__', u'__', u'__', 20, u'__', u'__', u'__', u'__', u'__', u'__', u'__'], [0, u'__', u'__', u'__', u'__', u'__', u'__', u'__', u'__', 20, 4, u'__', u'__', u'__', u'__', u'__', u'__'], [0, u'__', u'__', u'__', u'__', u'__', u'__', u'__', u'__', 20, 4, u'__', 4, u'__', u'__', u'__', u'__'], [0, u'__', u'__', u'__', u'__', u'__', u'__', u'__', u'__', 20, 4, 12, 4, u'__', u'__', u'__', u'__'], [0, u'__', u'__', u'__', u'__', u'__', u'__', u'__', u'__', 20, 4, 12, 4, -4, u'__', u'__', u'__'], [0, u'__', u'__', u'__', u'__', -20, u'__', u'__', u'__', 20, 4, 12, 4, -4, u'__', u'__', u'__'], [0, 4, u'__', u'__', u'__', -20, u'__', u'__', u'__', 20, 4, 12, 4, -4, u'__', u'__', u'__'], [0, 4, 4, u'__', u'__', -20, u'__', u'__', u'__', 20, 4, 12, 4, -4, u'__', u'__', u'__'], [0, 4, 4, 12, u'__', -20, u'__', u'__', u'__', 20, 4, 12, 4, -4, u'__', u'__', u'__']]",,[0],[False],,"[9, 10, 12, 11, 13, 5, 1, 2, 3, u'__TERM_ACTION__']","[9, 10, 11]",[False],[False],"{u'mouseover': {u'state': {u'target': [], u'time': []}, u'edge': {u'target': [], u'time': []}}, u'click': {u'state': {u'target': [9, 10, 12, 11, 13, 5, 1, 2, 3], u'time': [585, 1401, 1825, 2369, 5193, 6057, 7641, 8417, 8777]}, u'edge': {u'target': [], u'time': []}}, u'mouseout': {u'state': {u'target': [], u'time': []}, u'edge': {u'target': [], u'time': []}}}",,,"[10141, 312, 360]",35.91,281355,4.0,12.0,mouselab-mdp,,0
"[{u'Q': 28, u'action': u'__TERM_ACTION__', u'Qs': {u'1': -12, u'9': -4, u'13': 12, u'5': 28}, u'state': [0, -20, 4, u'__', u'__', 12, 4, 12, -12, -12, 12, -4, -12, 12, -4, 4, 4], u'V': 28}]","[13446, 14373, 19342]","[u'1', u'1', u'2']","[[0, u'__', u'__', u'__', u'__', u'__', u'__', u'__', u'__', u'__', u'__', u'__', u'__', u'__', u'__', u'__', u'__'], [0, u'__', u'__', u'__', u'__', u'__', u'__', u'__', u'__', -12, u'__', u'__', u'__', u'__', u'__', u'__', u'__'], [0, u'__', u'__', u'__', u'__', 12, u'__', u'__', u'__', -12, u'__', u'__', u'__', u'__', u'__', u'__', u'__'], [0, u'__', u'__', u'__', u'__', 12, 4, u'__', u'__', -12, u'__', u'__', u'__', u'__', u'__', u'__', u'__'], [0, u'__', u'__', u'__', u'__', 12, 4, 12, u'__', -12, u'__', u'__', u'__', u'__', u'__', u'__', u'__'], [0, u'__', u'__', u'__', u'__', 12, 4, 12, -12, -12, u'__', u'__', u'__', u'__', u'__', u'__', u'__'], [0, -20, u'__', u'__', u'__', 12, 4, 12, -12, -12, u'__', u'__', u'__', u'__', u'__', u'__', u'__'], [0, -20, 4, u'__', u'__', 12, 4, 12, -12, -12, u'__', u'__', u'__', u'__', u'__', u'__', u'__'], [0, -20, 4, u'__', u'__', 12, 4, 12, -12, -12, u'__', u'__', u'__', 12, u'__', u'__', u'__'], [0, -20, 4, u'__', u'__', 12, 4, 12, -12, -12, u'__', u'__', u'__', 12, -4, u'__', u'__'], [0, -20, 4, u'__', u'__', 12, 4, 12, -12, -12, u'__', u'__', u'__', 12, -4, u'__', 4], [0, -20, 4, u'__', u'__', 12, 4, 12, -12, -12, u'__', u'__', u'__', 12, -4, 4, 4], [0, -20, 4, u'__', u'__', 12, 4, 12, -12, -12, u'__', -4, u'__', 12, -4, 4, 4], [0, -20, 4, u'__', u'__', 12, 4, 12, -12, -12, u'__', -4, -12, 12, -4, 4, 4], [0, -20, 4, u'__', u'__', 12, 4, 12, -12, -12, 12, -4, -12, 12, -4, 4, 4]]",,[0],[True],,"[9, 5, 6, 7, 8, 1, 2, 13, 14, 16, 15, 11, 12, 10, u'__TERM_ACTION__']","[5, 6, 7]",[False],[False],"{u'mouseover': {u'state': {u'target': [], u'time': []}, u'edge': {u'target': [], u'time': []}}, u'click': {u'state': {u'target': [9, 5, 6, 7, 8, 1, 2, 13, 14, 16, 15, 11, 12, 10], u'time': [802, 1625, 2217, 2650, 4874, 5698, 6370, 7226, 7786, 8194, 8618, 9594, 10082, 10506]}, u'edge': {u'target': [], u'time': []}}, u'mouseout': {u'state': {u'target': [], u'time': []}, u'edge': {u'target': [], u'time': []}}}",,,"[13445, 416, 4451]",27.86,329131,5.0,4.0,mouselab-mdp,,0
"[{u'Q': 36, u'action': u'__TERM_ACTION__', u'Qs': {u'1': -12, u'9': 12, u'13': -4, u'5': 36}, u'state': [0, u'__', u'__', u'__', u'__', 12, 20, -4, 4, u'__', u'__', u'__', u'__', u'__', u'__', u'__', u'__'], u'V': 36}]","[3685, 4420, 5180]","[u'1', u'1', u'0']","[[0, u'__', u'__', u'__', u'__', u'__', u'__', u'__', u'__', u'__', u'__', u'__', u'__', u'__', u'__', u'__', u'__'], [0, u'__', u'__', u'__', u'__', 12, u'__', u'__', u'__', u'__', u'__', u'__', u'__', u'__', u'__', u'__', u'__'], [0, u'__', u'__', u'__', u'__', 12, 20, u'__', u'__', u'__', u'__', u'__', u'__', u'__', u'__', u'__', u'__'], [0, u'__', u'__', u'__', u'__', 12, 20, -4, u'__', u'__', u'__', u'__', u'__', u'__', u'__', u'__', u'__'], [0, u'__', u'__', u'__', u'__', 12, 20, -4, 4, u'__', u'__', u'__', u'__', u'__', u'__', u'__', u'__']]",,[0],[True],,"[5, 6, 7, 8, u'__TERM_ACTION__']","[5, 6, 8]",[False],[False],"{u'mouseover': {u'state': {u'target': [], u'time': []}, u'edge': {u'target': [], u'time': []}}, u'click': {u'state': {u'target': [5, 6, 7, 8], u'time': [872, 1504, 1936, 2720]}, u'edge': {u'target': [], u'time': []}}, u'mouseout': {u'state': {u'target': [], u'time': []}, u'edge': {u'target': [], u'time': []}}}",,,"[3685, 218, 244]",35.96,377571,6.0,1.0,mouselab-mdp,,0
"[{u'Q': 4, u'action': u'__TERM_ACTION__', u'Qs': {u'1': -4, u'9': 4, u'13': 4, u'5': -28}, u'state': [0, -4, 4, -20, -4, -12, -12, -12, -4, -4, 4, -4, 4, -12, 12, -20, 4], u'V': 4}]","[28998, 29678, 30366]","[u'3', u'3', u'2']","[[0, u'__', u'__', u'__', u'__', u'__', u'__', u'__', u'__', u'__', u'__', u'__', u'__', u'__', u'__', u'__', u'__'], [0, u'__', u'__', u'__', u'__', u'__', u'__', u'__', u'__', -4, u'__', u'__', u'__', u'__', u'__', u'__', u'__'], [0, u'__', u'__', u'__', u'__', -12, u'__', u'__', u'__', -4, u'__', u'__', u'__', u'__', u'__', u'__', u'__'], [0, -4, u'__', u'__', u'__', -12, u'__', u'__', u'__', -4, u'__', u'__', u'__', u'__', u'__', u'__', u'__'], [0, -4, u'__', u'__', u'__', -12, u'__', u'__', u'__', -4, u'__', u'__', u'__', -12, u'__', u'__', u'__'], [0, -4, u'__', u'__', u'__', -12, u'__', u'__', u'__', -4, 4, u'__', u'__', -12, u'__', u'__', u'__'], [0, -4, u'__', u'__', u'__', -12, u'__', u'__', u'__', -4, 4, -4, u'__', -12, u'__', u'__', u'__'], [0, -4, u'__', u'__', u'__', -12, u'__', u'__', u'__', -4, 4, -4, 4, -12, u'__', u'__', u'__'], [0, -4, u'__', u'__', u'__', -12, -12, u'__', u'__', -4, 4, -4, 4, -12, u'__', u'__', u'__'], [0, -4, u'__', u'__', u'__', -12, -12, u'__', -4, -4, 4, -4, 4, -12, u'__', u'__', u'__'], [0, -4, 4, u'__', u'__', -12, -12, u'__', -4, -4, 4, -4, 4, -12, u'__', u'__', u'__'], [0, -4, 4, u'__', -4, -12, -12, u'__', -4, -4, 4, -4, 4, -12, u'__', u'__', u'__'], [0, -4, 4, -20, -4, -12, -12, u'__', -4, -4, 4, -4, 4, -12, u'__', u'__', u'__'], [0, -4, 4, -20, -4, -12, -12, u'__', -4, -4, 4, -4, 4, -12, u'__', -20, u'__'], [0, -4, 4, -20, -4, -12, -12, u'__', -4, -4, 4, -4, 4, -12, 12, -20, u'__'], [0, -4, 4, -20, -4, -12, -12, u'__', -4, -4, 4, -4, 4, -12, 12, -20, 4], [0, -4, 4, -20, -4, -12, -12, -12, -4, -4, 4, -4, 4, -12, 12, -20, 4]]",,[0],[True],,"[9, 5, 1, 13, 10, 11, 12, 6, 8, 2, 4, 3, 15, 14, 16, 7, u'__TERM_ACTION__']","[13, 14, 16]",[False],[False],"{u'mouseover': {u'state': {u'target': [], u'time': []}, u'edge': {u'target': [], u'time': []}}, u'click': {u'state': {u'target': [9, 5, 1, 13, 10, 11, 12, 6, 8, 2, 4, 3, 15, 14, 16, 7], u'time': [1442, 2570, 3113, 3738, 4818, 5153, 5513, 6226, 6593, 7345, 7802, 8474, 9146, 9482, 9947, 12753]}, u'edge': {u'target': [], u'time': []}}, u'mouseout': {u'state': {u'target': [], u'time': []}, u'edge': {u'target': [], u'time': []}}}",,,"[28998, 159, 179]",3.84,424324,7.0,0.0,mouselab-mdp,,0
"[{u'Q': 12, u'action': u'__TERM_ACTION__', u'Qs': {u'1': -4, u'9': 12, u'13': 12, u'5': -4}, u'state': [0, 4, -4, -12, -4, 4, -12, 4, -12, -4, 12, -12, 4, 4, 12, -4, -12], u'V': 12}]","[10870, 12398, 14726]","[u'3', u'3', u'0']","[[0, u'__', u'__', u'__', u'__', u'__', u'__', u'__', u'__', u'__', u'__', u'__', u'__', u'__', u'__', u'__', u'__'], [0, u'__', u'__', u'__', u'__', u'__', u'__', u'__', u'__', -4, u'__', u'__', u'__', u'__', u'__', u'__', u'__'], [0, u'__', u'__', u'__', u'__', 4, u'__', u'__', u'__', -4, u'__', u'__', u'__', u'__', u'__', u'__', u'__'], [0, 4, u'__', u'__', u'__', 4, u'__', u'__', u'__', -4, u'__', u'__', u'__', u'__', u'__', u'__', u'__'], [0, 4, u'__', u'__', u'__', 4, u'__', u'__', u'__', -4, u'__', u'__', u'__', 4, u'__', u'__', u'__'], [0, 4, -4, u'__', u'__', 4, u'__', u'__', u'__', -4, u'__', u'__', u'__', 4, u'__', u'__', u'__'], [0, 4, -4, u'__', u'__', 4, -12, u'__', u'__', -4, u'__', u'__', u'__', 4, u'__', u'__', u'__'], [0, 4, -4, u'__', u'__', 4, -12, u'__', u'__', -4, u'__', u'__', u'__', 4, 12, u'__', u'__'], [0, 4, -4, u'__', u'__', 4, -12, u'__', u'__', -4, u'__', u'__', u'__', 4, 12, u'__', -12], [0, 4, -4, u'__', u'__', 4, -12, u'__', u'__', -4, u'__', u'__', u'__', 4, 12, -4, -12], [0, 4, -4, u'__', -4, 4, -12, u'__', u'__', -4, u'__', u'__', u'__', 4, 12, -4, -12], [0, 4, -4, -12, -4, 4, -12, u'__', u'__', -4, u'__', u'__', u'__', 4, 12, -4, -12], [0, 4, -4, -12, -4, 4, -12, u'__', u'__', -4, u'__', u'__', 4, 4, 12, -4, -12], [0, 4, -4, -12, -4, 4, -12, u'__', u'__', -4, 12, u'__', 4, 4, 12, -4, -12], [0, 4, -4, -12, -4, 4, -12, u'__', u'__', -4, 12, -12, 4, 4, 12, -4, -12], [0, 4, -4, -12, -4, 4, -12, 4, u'__', -4, 12, -12, 4, 4, 12, -4, -12], [0, 4, -4, -12, -4, 4, -12, 4, -12, -4, 12, -12, 4, 4, 12, -4, -12]]",,[0],[True],,"[9, 5, 1, 13, 2, 6, 14, 16, 15, 4, 3, 12, 10, 11, 7, 8, u'__TERM_ACTION__']","[13, 14, 15]",[False],[False],"{u'mouseover': {u'state': {u'target': [], u'time': []}, u'edge': {u'target': [], u'time': []}}, u'click': {u'state': {u'target': [9, 5, 1, 13, 2, 6, 14, 16, 15, 4, 3, 12, 10, 11, 7, 8], u'time': [634, 1393, 1962, 2690, 3330, 3962, 4570, 5193, 5641, 6490, 6858, 7610, 7978, 8338, 9170, 9610]}, u'edge': {u'target': [], u'time': []}}, u'mouseout': {u'state': {u'target': [], u'time': []}, u'edge': {u'target': [], u'time': []}}}",,,"[10870, 1014, 1771]",11.84,473108,8.0,11.0,mouselab-mdp,,0
"[{u'Q': 28, u'action': u'__TERM_ACTION__', u'Qs': {u'1': 20, u'9': 12, u'13': -4, u'5': 28}, u'state': [0, -4, 12, 4, 12, 12, 12, -4, 4, 12, -4, -4, 4, -20, 4, -4, 12], u'V': 28}]","[13110, 13863, 14663]","[u'1', u'1', u'0']","[[0, u'__', u'__', u'__', u'__', u'__', u'__', u'__', u'__', u'__', u'__', u'__', u'__', u'__', u'__', u'__', u'__'], [0, u'__', u'__', u'__', u'__', 12, u'__', u'__', u'__', u'__', u'__', u'__', u'__', u'__', u'__', u'__', u'__'], [0, u'__', u'__', u'__', u'__', 12, 12, u'__', u'__', u'__', u'__', u'__', u'__', u'__', u'__', u'__', u'__'], [0, u'__', u'__', u'__', u'__', 12, 12, -4, u'__', u'__', u'__', u'__', u'__', u'__', u'__', u'__', u'__'], [0, u'__', u'__', u'__', u'__', 12, 12, -4, 4, u'__', u'__', u'__', u'__', u'__', u'__', u'__', u'__'], [0, u'__', 12, u'__', u'__', 12, 12, -4, 4, u'__', u'__', u'__', u'__', u'__', u'__', u'__', u'__'], [0, u'__', 12, u'__', u'__', 12, 12, -4, 4, u'__', -4, u'__', u'__', u'__', u'__', u'__', u'__'], [0, u'__', 12, u'__', u'__', 12, 12, -4, 4, u'__', -4, -4, u'__', u'__', u'__', u'__', u'__'], [0, u'__', 12, u'__', u'__', 12, 12, -4, 4, u'__', -4, -4, u'__', u'__', 4, u'__', u'__'], [0, u'__', 12, u'__', u'__', 12, 12, -4, 4, u'__', -4, -4, u'__', -20, 4, u'__', u'__'], [0, u'__', 12, 4, u'__', 12, 12, -4, 4, u'__', -4, -4, u'__', -20, 4, u'__', u'__'], [0, u'__', 12, 4, 12, 12, 12, -4, 4, u'__', -4, -4, u'__', -20, 4, u'__', u'__'], [0, -4, 12, 4, 12, 12, 12, -4, 4, u'__', -4, -4, u'__', -20, 4, u'__', u'__'], [0, -4, 12, 4, 12, 12, 12, -4, 4, u'__', -4, -4, u'__', -20, 4, -4, u'__'], [0, -4, 12, 4, 12, 12, 12, -4, 4, u'__', -4, -4, u'__', -20, 4, -4, 12], [0, -4, 12, 4, 12, 12, 12, -4, 4, u'__', -4, -4, 4, -20, 4, -4, 12], [0, -4, 12, 4, 12, 12, 12, -4, 4, 12, -4, -4, 4, -20, 4, -4, 12]]",,[0],[False],,"[5, 6, 7, 8, 2, 10, 11, 14, 13, 3, 4, 1, 15, 16, 12, 9, u'__TERM_ACTION__']","[5, 6, 8]",[False],[False],"{u'mouseover': {u'state': {u'target': [], u'time': []}, u'edge': {u'target': [], u'time': []}}, u'click': {u'state': {u'target': [5, 6, 7, 8, 2, 10, 11, 14, 13, 3, 4, 1, 15, 16, 12, 9], u'time': [339, 899, 1307, 1851, 2771, 3923, 4555, 5195, 5667, 6611, 7267, 7755, 8443, 9203, 9827, 10555]}, u'edge': {u'target': [], u'time': []}}, u'mouseout': {u'state': {u'target': [], u'time': []}, u'edge': {u'target': [], u'time': []}}}",,,"[13110, 240, 289]",27.84,521235,9.0,14.0,mouselab-mdp,,0
"[{u'Q': -4, u'action': u'__TERM_ACTION__', u'Qs': {u'1': -12, u'9': -4, u'13': -12, u'5': -20}, u'state': [0, -4, -12, -20, 4, -12, -4, -4, -20, 4, -12, 4, 4, -12, -4, 4, -4], u'V': -4}]","[24599, 25359, 26070]","[u'2', u'2', u'3']","[[0, u'__', u'__', u'__', u'__', u'__', u'__', u'__', u'__', u'__', u'__', u'__', u'__', u'__', u'__', u'__', u'__'], [0, u'__', u'__', u'__', u'__', -12, u'__', u'__', u'__', u'__', u'__', u'__', u'__', u'__', u'__', u'__', u'__'], [0, -4, u'__', u'__', u'__', -12, u'__', u'__', u'__', u'__', u'__', u'__', u'__', u'__', u'__', u'__', u'__'], [0, -4, u'__', u'__', u'__', -12, u'__', u'__', u'__', u'__', u'__', u'__', u'__', -12, u'__', u'__', u'__'], [0, -4, u'__', u'__', u'__', -12, u'__', u'__', u'__', 4, u'__', u'__', u'__', -12, u'__', u'__', u'__'], [0, -4, u'__', u'__', u'__', -12, u'__', u'__', u'__', 4, u'__', u'__', 4, -12, u'__', u'__', u'__'], [0, -4, u'__', u'__', u'__', -12, u'__', u'__', u'__', 4, -12, u'__', 4, -12, u'__', u'__', u'__'], [0, -4, u'__', u'__', u'__', -12, u'__', u'__', u'__', 4, -12, 4, 4, -12, u'__', u'__', u'__'], [0, -4, u'__', u'__', u'__', -12, u'__', u'__', u'__', 4, -12, 4, 4, -12, -4, u'__', u'__'], [0, -4, u'__', u'__', u'__', -12, u'__', u'__', u'__', 4, -12, 4, 4, -12, -4, 4, u'__'], [0, -4, u'__', u'__', u'__', -12, u'__', u'__', u'__', 4, -12, 4, 4, -12, -4, 4, -4], [0, -4, u'__', u'__', u'__', -12, -4, u'__', u'__', 4, -12, 4, 4, -12, -4, 4, -4], [0, -4, u'__', u'__', u'__', -12, -4, u'__', -20, 4, -12, 4, 4, -12, -4, 4, -4], [0, -4, u'__', u'__', u'__', -12, -4, -4, -20, 4, -12, 4, 4, -12, -4, 4, -4], [0, -4, u'__', -20, u'__', -12, -4, -4, -20, 4, -12, 4, 4, -12, -4, 4, -4], [0, -4, -12, -20, u'__', -12, -4, -4, -20, 4, -12, 4, 4, -12, -4, 4, -4], [0, -4, -12, -20, 4, -12, -4, -4, -20, 4, -12, 4, 4, -12, -4, 4, -4]]",,[0],[True],,"[5, 1, 13, 9, 12, 10, 11, 14, 15, 16, 6, 8, 7, 3, 2, 4, u'__TERM_ACTION__']","[9, 10, 11]",[False],[False],"{u'mouseover': {u'state': {u'target': [], u'time': []}, u'edge': {u'target': [], u'time': []}}, u'click': {u'state': {u'target': [5, 1, 13, 9, 12, 10, 11, 14, 15, 16, 6, 8, 7, 3, 2, 4], u'time': [1675, 2299, 2827, 3508, 4779, 5187, 5555, 6371, 6828, 7435, 8028, 8427, 9147, 9867, 10363, 10794]}, u'edge': {u'target': [], u'time': []}}, u'mouseout': {u'state': {u'target': [], u'time': []}, u'edge': {u'target': [], u'time': []}}}",,,"[24599, 250, 195]",-4.16,567708,10.0,3.0,mouselab-mdp,,0
,"[9132, 9723, 10404]","[u'2', u'2', u'1']","[[0, u'__', u'__', u'__', u'__', u'__', u'__', u'__', u'__', u'__', u'__', u'__', u'__', u'__', u'__', u'__', u'__'], [0, u'__', u'__', u'__', u'__', 4, u'__', u'__', u'__', u'__', u'__', u'__', u'__', u'__', u'__', u'__', u'__'], [0, u'__', u'__', u'__', u'__', 4, 4, u'__', u'__', u'__', u'__', u'__', u'__', u'__', u'__', u'__', u'__'], [0, u'__', u'__', u'__', u'__', 4, 4, u'__', -4, u'__', u'__', u'__', u'__', u'__', u'__', u'__', u'__'], [0, u'__', u'__', u'__', u'__', 4, 4, -20, -4, u'__', u'__', u'__', u'__', u'__', u'__', u'__', u'__'], [0, u'__', u'__', u'__', u'__', 4, 4, -20, -4, 4, u'__', u'__', u'__', u'__', u'__', u'__', u'__'], [0, u'__', u'__', u'__', u'__', 4, 4, -20, -4, 4, 12, u'__', u'__', u'__', u'__', u'__', u'__'], [0, u'__', u'__', u'__', u'__', 4, 4, -20, -4, 4, 12, -20, u'__', u'__', u'__', u'__', u'__'], [0, u'__', u'__', u'__', u'__', 4, 4, -20, -4, 4, 12, -20, 20, u'__', u'__', u'__', u'__']]",,[],[],,"[5, 6, 8, 7, 9, 10, 11, 12, u'__TERM_ACTION__']","[9, 10, 12]",[],[],"{u'mouseover': {u'state': {u'target': [], u'time': []}, u'edge': {u'target': [], u'time': []}}, u'click': {u'state': {u'target': [5, 6, 8, 7, 9, 10, 11, 12], u'time': [3505, 4848, 5272, 5792, 6400, 6704, 7111, 8025]}, u'edge': {u'target': [], u'time': []}}, u'mouseout': {u'state': {u'target': [], u'time': []}, u'edge': {u'target': [], u'time': []}}}",,,"[9132, 78, 159]",35.92,624772,11.0,15.0,mouselab-mdp,,0
,"[1907, 3067, 4299]","[u'2', u'2', u'3']","[[0, u'__', u'__', u'__', u'__', u'__', u'__', u'__', u'__', u'__', u'__', u'__', u'__', u'__', u'__', u'__', u'__']]",,[],[],,[u'__TERM_ACTION__'],"[9, 10, 11]",[],[],"{u'mouseover': {u'state': {u'target': [], u'time': []}, u'edge': {u'target': [], u'time': []}}, u'click': {u'state': {u'target': [], u'time': []}, u'edge': {u'target': [], u'time': []}}, u'mouseout': {u'state': {u'target': [], u'time': []}, u'edge': {u'target': [], u'time': []}}}",,,"[1907, 651, 716]",4.0,672747,12.0,10.0,mouselab-mdp,,0
,"[4500, 5244, 6052]","[u'0', u'0', u'3']","[[0, u'__', u'__', u'__', u'__', u'__', u'__', u'__', u'__', u'__', u'__', u'__', u'__', u'__', u'__', u'__', u'__'], [0, u'__', u'__', u'__', u'__', -12, u'__', u'__', u'__', u'__', u'__', u'__', u'__', u'__', u'__', u'__', u'__'], [0, u'__', u'__', u'__', u'__', -12, -12, u'__', u'__', u'__', u'__', u'__', u'__', u'__', u'__', u'__', u'__'], [0, u'__', u'__', u'__', u'__', -12, -12, u'__', 4, u'__', u'__', u'__', u'__', u'__', u'__', u'__', u'__'], [0, 12, u'__', u'__', u'__', -12, -12, u'__', 4, u'__', u'__', u'__', u'__', u'__', u'__', u'__', u'__'], [0, 12, 12, u'__', u'__', -12, -12, u'__', 4, u'__', u'__', u'__', u'__', u'__', u'__', u'__', u'__'], [0, 12, 12, u'__', 20, -12, -12, u'__', 4, u'__', u'__', u'__', u'__', u'__', u'__', u'__', u'__']]",,[],[],,"[5, 6, 8, 1, 2, 4, u'__TERM_ACTION__']","[1, 2, 4]",[],[],"{u'mouseover': {u'state': {u'target': [], u'time': []}, u'edge': {u'target': [], u'time': []}}, u'click': {u'state': {u'target': [5, 6, 8, 1, 2, 4], u'time': [673, 1129, 1418, 2113, 2793, 3368]}, u'edge': {u'target': [], u'time': []}}, u'mouseout': {u'state': {u'target': [], u'time': []}, u'edge': {u'target': [], u'time': []}}}",,,"[4500, 228, 286]",43.94,728739,13.0,13.0,mouselab-mdp,,0
,"[9741, 10445, 11125]","[u'3', u'3', u'0']","[[0, u'__', u'__', u'__', u'__', u'__', u'__', u'__', u'__', u'__', u'__', u'__', u'__', u'__', u'__', u'__', u'__'], [0, -20, u'__', u'__', u'__', u'__', u'__', u'__', u'__', u'__', u'__', u'__', u'__', u'__', u'__', u'__', u'__'], [0, -20, -12, u'__', u'__', u'__', u'__', u'__', u'__', u'__', u'__', u'__', u'__', u'__', u'__', u'__', u'__'], [0, -20, -12, u'__', u'__', u'__', u'__', u'__', u'__', u'__', u'__', u'__', u'__', -12, u'__', u'__', u'__'], [0, -20, -12, u'__', u'__', 4, u'__', u'__', u'__', u'__', u'__', u'__', u'__', -12, u'__', u'__', u'__'], [0, -20, -12, u'__', u'__', 4, u'__', u'__', u'__', 4, u'__', u'__', u'__', -12, u'__', u'__', u'__'], [0, -20, -12, u'__', u'__', 4, u'__', u'__', u'__', 4, -12, u'__', u'__', -12, u'__', u'__', u'__'], [0, -20, -12, u'__', u'__', 4, u'__', u'__', u'__', 4, -12, u'__', 4, -12, u'__', u'__', u'__'], [0, -20, -12, u'__', u'__', 4, -20, u'__', u'__', 4, -12, u'__', 4, -12, u'__', u'__', u'__'], [0, -20, -12, u'__', u'__', 4, -20, u'__', u'__', 4, -12, u'__', 4, -12, 4, u'__', u'__'], [0, -20, -12, u'__', u'__', 4, -20, u'__', u'__', 4, -12, u'__', 4, -12, 4, u'__', 12], [0, -20, -12, u'__', u'__', 4, -20, u'__', u'__', 4, -12, u'__', 4, -12, 4, 20, 12]]",,[],[],,"[1, 2, 13, 5, 9, 10, 12, 6, 14, 16, 15, u'__TERM_ACTION__']","[13, 14, 15]",[],[],"{u'mouseover': {u'state': {u'target': [], u'time': []}, u'edge': {u'target': [], u'time': []}}, u'click': {u'state': {u'target': [1, 2, 13, 5, 9, 10, 12, 6, 14, 16, 15], u'time': [994, 1489, 2105, 2505, 3185, 4520, 5043, 5481, 6937, 7467, 8682]}, u'edge': {u'target': [], u'time': []}}, u'mouseout': {u'state': {u'target': [], u'time': []}, u'edge': {u'target': [], u'time': []}}}",,,"[9741, 190, 170]",11.89,777507,14.0,9.0,mouselab-mdp,,0
,"[6356, 7003, 7748]","[u'3', u'3', u'2']","[[0, u'__', u'__', u'__', u'__', u'__', u'__', u'__', u'__', u'__', u'__', u'__', u'__', u'__', u'__', u'__', u'__'], [0, u'__', u'__', u'__', u'__', u'__', u'__', u'__', u'__', -20, u'__', u'__', u'__', u'__', u'__', u'__', u'__'], [0, u'__', u'__', u'__', u'__', 4, u'__', u'__', u'__', -20, u'__', u'__', u'__', u'__', u'__', u'__', u'__'], [0, 12, u'__', u'__', u'__', 4, u'__', u'__', u'__', -20, u'__', u'__', u'__', u'__', u'__', u'__', u'__'], [0, 12, u'__', u'__', u'__', 4, u'__', u'__', u'__', -20, u'__', u'__', u'__', 12, u'__', u'__', u'__'], [0, 12, 4, u'__', u'__', 4, u'__', u'__', u'__', -20, u'__', u'__', u'__', 12, u'__', u'__', u'__'], [0, 12, 4, -12, u'__', 4, u'__', u'__', u'__', -20, u'__', u'__', u'__', 12, u'__', u'__', u'__'], [0, 12, 4, -12, 4, 4, u'__', u'__', u'__', -20, u'__', u'__', u'__', 12, u'__', u'__', u'__'], [0, 12, 4, -12, 4, 4, u'__', u'__', u'__', -20, u'__', u'__', u'__', 12, 4, u'__', u'__'], [0, 12, 4, -12, 4, 4, u'__', u'__', u'__', -20, u'__', u'__', u'__', 12, 4, u'__', 12], [0, 12, 4, -12, 4, 4, u'__', u'__', u'__', -20, u'__', u'__', u'__', 12, 4, 4, 12]]",,[],[],,"[9, 5, 1, 13, 2, 3, 4, 14, 16, 15, u'__TERM_ACTION__']","[13, 14, 16]",[],[],"{u'mouseover': {u'state': {u'target': [], u'time': []}, u'edge': {u'target': [], u'time': []}}, u'click': {u'state': {u'target': [9, 5, 1, 13, 2, 3, 4, 14, 16, 15], u'time': [586, 1144, 1535, 1888, 2800, 3447, 3976, 4583, 4904, 5344]}, u'edge': {u'target': [], u'time': []}}, u'mouseout': {u'state': {u'target': [], u'time': []}, u'edge': {u'target': [], u'time': []}}}",,,"[6356, 128, 222]",27.9,827508,15.0,7.0,mouselab-mdp,,0
,"[7548, 8244, 8852]","[u'2', u'2', u'3']","[[0, u'__', u'__', u'__', u'__', u'__', u'__', u'__', u'__', u'__', u'__', u'__', u'__', u'__', u'__', u'__', u'__'], [0, u'__', u'__', u'__', u'__', 4, u'__', u'__', u'__', u'__', u'__', u'__', u'__', u'__', u'__', u'__', u'__'], [0, u'__', u'__', u'__', u'__', 4, -20, u'__', u'__', u'__', u'__', u'__', u'__', u'__', u'__', u'__', u'__'], [0, u'__', u'__', u'__', u'__', 4, -20, u'__', -4, u'__', u'__', u'__', u'__', u'__', u'__', u'__', u'__'], [0, -12, u'__', u'__', u'__', 4, -20, u'__', -4, u'__', u'__', u'__', u'__', u'__', u'__', u'__', u'__'], [0, -12, -4, u'__', u'__', 4, -20, u'__', -4, u'__', u'__', u'__', u'__', u'__', u'__', u'__', u'__'], [0, -12, -4, u'__', u'__', 4, -20, u'__', -4, u'__', u'__', u'__', u'__', 4, u'__', u'__', u'__'], [0, -12, -4, u'__', u'__', 4, -20, u'__', -4, u'__', u'__', u'__', u'__', 4, -12, u'__', u'__'], [0, -12, -4, u'__', u'__', 4, -20, u'__', -4, 12, u'__', u'__', u'__', 4, -12, u'__', u'__'], [0, -12, -4, u'__', u'__', 4, -20, u'__', -4, 12, -4, u'__', u'__', 4, -12, u'__', u'__'], [0, -12, -4, u'__', u'__', 4, -20, u'__', -4, 12, -4, u'__', 4, 4, -12, u'__', u'__'], [0, -12, -4, u'__', u'__', 4, -20, u'__', -4, 12, -4, 12, 4, 4, -12, u'__', u'__']]",,[],[],,"[5, 6, 8, 1, 2, 13, 14, 9, 10, 12, 11, u'__TERM_ACTION__']","[9, 10, 11]",[],[],"{u'mouseover': {u'state': {u'target': [], u'time': []}, u'edge': {u'target': [], u'time': []}}, u'click': {u'state': {u'target': [5, 6, 8, 1, 2, 13, 14, 9, 10, 12, 11], u'time': [476, 1129, 1545, 2185, 2722, 3369, 3754, 4442, 5041, 5546, 6482]}, u'edge': {u'target': [], u'time': []}}, u'mouseout': {u'state': {u'target': [], u'time': []}, u'edge': {u'target': [], u'time': []}}}",,,"[7548, 187, 95]",19.89,874963,16.0,8.0,mouselab-mdp,,0
"[{u'Qs': {u'11': 11.700905455213729, u'10': 11.97227311060534, u'13': 11.97227311060534, u'12': 11.700905455213729, u'15': 11.700905455213729, u'14': 11.97227311060534, u'16': 11.700905455213729, u'1': 11.97227311060534, u'3': 11.700905455213729, u'2': 11.97227311060534, u'5': 11.97227311060534, u'4': 11.700905455213729, u'7': 11.700905455213729, u'6': 11.97227311060534, u'9': 11.97227311060534, u'__TERM_ACTION__': -1.9984014443252818e-15, u'8': 11.700905455213729}, u'bestAction': 1, u'Q': 11.97227311060534, u'state': [0, u'__', u'__', u'__', u'__', u'__', u'__', u'__', u'__', u'__', u'__', u'__', u'__', u'__', u'__', u'__', u'__'], u'V': 11.97227311060534, u'action': 6}, {u'Qs': {u'11': 10.425807707732123, u'10': 10.697175363123733, u'13': 10.697175363123733, u'12': 10.425807707732123, u'15': 10.425807707732123, u'14': 10.697175363123733, u'16': 10.425807707732123, u'1': 10.697175363123733, u'3': 10.425807707732123, u'2': 10.697175363123733, u'5': 7.999839398130514, u'4': 10.425807707732123, u'7': 7.828929749828672, u'8': 7.828929749828672, u'9': 10.697175363123733, u'__TERM_ACTION__': -1.9984014443252818e-15}, u'bestAction': 1, u'Q': 10.697175363123733, u'state': [0, u'__', u'__', u'__', u'__', u'__', -12, u'__', u'__', u'__', u'__', u'__', u'__', u'__', u'__', u'__', u'__'], u'V': 10.697175363123733, u'action': 14}, {u'Qs': {u'11': 15.89027716640912, u'10': 16.033473874117536, u'13': 16.491020114302643, u'12': 15.89027716640912, u'15': 17.51753992461836, u'16': 17.51753992461836, u'1': 16.033473874117536, u'3': 15.89027716640912, u'2': 16.033473874117536, u'5': 15.237084460137243, u'4': 15.89027716640912, u'7': 15.206064569273085, u'8': 15.206064569273085, u'9': 16.033473874117536, u'__TERM_ACTION__': 12}, u'bestAction': 15, u'Q': 16.491020114302643, u'state': [0, u'__', u'__', u'__', u'__', u'__', -12, u'__', u'__', u'__', u'__', u'__', u'__', u'__', 12, u'__', u'__'], u'V': 17.51753992461836, u'action': 13}, {u'Qs': {u'11': 18.167948615266617, u'10': 18.303289019136937, u'12': 18.167948615266617, u'__TERM_ACTION__': 16, u'16': 20.013488485598334, u'1': 18.303289019136937, u'3': 18.167948615266617, u'2': 18.303289019136937, u'5': 17.75851363972479, u'4': 18.167948615266617, u'7': 17.740809523932032, u'8': 17.740809523932032, u'9': 18.303289019136937, u'15': 20.013488485598334}, u'bestAction': 15, u'Q': 16, u'state': [0, u'__', u'__', u'__', u'__', u'__', -12, u'__', u'__', u'__', u'__', u'__', u'__', 4, 12, u'__', u'__'], u'V': 20.013488485598334, u'action': u'__TERM_ACTION__'}]","[9591, 13253, 20984]","[u'3', u'3', u'2']","[[0, u'__', u'__', u'__', u'__', u'__', u'__', u'__', u'__', u'__', u'__', u'__', u'__', u'__', u'__', u'__', u'__'], [0, u'__', u'__', u'__', u'__', u'__', -12, u'__', u'__', u'__', u'__', u'__', u'__', u'__', u'__', u'__', u'__'], [0, u'__', u'__', u'__', u'__', u'__', -12, u'__', u'__', u'__', u'__', u'__', u'__', u'__', 12, u'__', u'__'], [0, u'__', u'__', u'__', u'__', u'__', -12, u'__', u'__', u'__', u'__', u'__', u'__', 4, 12, u'__', u'__']]",,[2],[True],,"[6, 14, 13, u'__TERM_ACTION__']","[13, 14, 16]",[True],[False],"{u'mouseover': {u'state': {u'target': [], u'time': []}, u'edge': {u'target': [], u'time': []}}, u'click': {u'state': {u'target': [6, 14, 13], u'time': [4252, 5687, 7320]}, u'edge': {u'target': [], u'time': []}}, u'mouseout': {u'state': {u'target': [], u'time': []}, u'edge': {u'target': [], u'time': []}}}",,,"[9591, 901, 7236]",1.0,448070,1.0,11.0,mouselab-mdp,,1
"[{u'Qs': {u'11': 11.700905455213729, u'10': 11.97227311060534, u'13': 11.97227311060534, u'12': 11.700905455213729, u'15': 11.700905455213729, u'14': 11.97227311060534, u'16': 11.700905455213729, u'1': 11.97227311060534, u'3': 11.700905455213729, u'2': 11.97227311060534, u'5': 11.97227311060534, u'4': 11.700905455213729, u'7': 11.700905455213729, u'6': 11.97227311060534, u'9': 11.97227311060534, u'__TERM_ACTION__': -1.9984014443252818e-15, u'8': 11.700905455213729}, u'bestAction': 1, u'Q': 11.97227311060534, u'state': [0, u'__', u'__', u'__', u'__', u'__', u'__', u'__', u'__', u'__', u'__', u'__', u'__', u'__', u'__', u'__', u'__'], u'V': 11.97227311060534, u'action': 10}, {u'Qs': {u'11': 13.19939145838367, u'13': 12.777669080520138, u'12': 13.19939145838367, u'15': 12.571211446690736, u'14': 12.777669080520138, u'16': 12.571211446690736, u'1': 12.777669080520138, u'3': 12.571211446690736, u'2': 12.777669080520138, u'5': 12.777669080520138, u'4': 12.571211446690736, u'7': 12.571211446690736, u'6': 12.777669080520138, u'9': 12.804311070075912, u'__TERM_ACTION__': 3.9999999999999982, u'8': 12.571211446690736}, u'bestAction': 11, u'Q': 12.777669080520138, u'state': [0, u'__', u'__', u'__', u'__', u'__', u'__', u'__', u'__', u'__', 4, u'__', u'__', u'__', u'__', u'__', u'__'], u'V': 13.19939145838367, u'action': 2}, {u'Qs': {u'11': 13.517413549063676, u'13': 12.850308682494546, u'12': 13.517413549063676, u'15': 12.643851048665145, u'14': 12.850308682494546, u'16': 12.643851048665145, u'1': 13.780014743860889, u'3': 13.517413549063676, u'5': 12.850308682494546, u'4': 13.517413549063676, u'7': 12.643851048665145, u'6': 12.850308682494546, u'9': 13.780014743860889, u'__TERM_ACTION__': 3.9999999999999982, u'8': 12.643851048665145}, u'bestAction': 1, u'Q': 12.850308682494546, u'state': [0, u'__', 4, u'__', u'__', u'__', u'__', u'__', u'__', u'__', 4, u'__', u'__', u'__', u'__', u'__', u'__'], u'V': 13.780014743860889, u'action': 14}, {u'Qs': {u'11': 17.043961504966806, u'13': 17.7143951489984, u'12': 17.043961504966806, u'__TERM_ACTION__': 12, u'16': 18.460102173229235, u'1': 17.23126550449944, u'3': 17.043961504966806, u'5': 16.88251643520549, u'4': 17.043961504966806, u'7': 16.739319727497072, u'6': 16.88251643520549, u'9': 17.23126550449944, u'15': 18.460102173229235, u'8': 16.739319727497072}, u'bestAction': 15, u'Q': 12, u'state': [0, u'__', 4, u'__', u'__', u'__', u'__', u'__', u'__', u'__', 4, u'__', u'__', u'__', 12, u'__', u'__'], u'V': 18.460102173229235, u'action': u'__TERM_ACTION__'}]","[10389, 14350, 24292]","[u'3', u'3', u'2']","[[0, u'__', u'__', u'__', u'__', u'__', u'__', u'__', u'__', u'__', u'__', u'__', u'__', u'__', u'__', u'__', u'__'], [0, u'__', u'__', u'__', u'__', u'__', u'__', u'__', u'__', u'__', 4, u'__', u'__', u'__', u'__', u'__', u'__'], [0, u'__', 4, u'__', u'__', u'__', u'__', u'__', u'__', u'__', 4, u'__', u'__', u'__', u'__', u'__', u'__'], [0, u'__', 4, u'__', u'__', u'__', u'__', u'__', u'__', u'__', 4, u'__', u'__', u'__', 12, u'__', u'__']]",,[2],[False],,"[10, 2, 14, u'__TERM_ACTION__']","[13, 14, 16]",[True],[False],"{u'mouseover': {u'state': {u'target': [], u'time': []}, u'edge': {u'target': [], u'time': []}}, u'click': {u'state': {u'target': [10, 2, 14], u'time': [2888, 6006, 8012]}, u'edge': {u'target': [], u'time': []}}, u'mouseout': {u'state': {u'target': [], u'time': []}, u'edge': {u'target': [], u'time': []}}}",,,"[10388, 1205, 9446]",1.0,498131,2.0,0.0,mouselab-mdp,,1
"[{u'Qs': {u'11': 11.700905455213729, u'10': 11.97227311060534, u'13': 11.97227311060534, u'12': 11.700905455213729, u'15': 11.700905455213729, u'14': 11.97227311060534, u'16': 11.700905455213729, u'1': 11.97227311060534, u'3': 11.700905455213729, u'2': 11.97227311060534, u'5': 11.97227311060534, u'4': 11.700905455213729, u'7': 11.700905455213729, u'6': 11.97227311060534, u'9': 11.97227311060534, u'__TERM_ACTION__': -1.9984014443252818e-15, u'8': 11.700905455213729}, u'bestAction': 1, u'Q': 11.97227311060534, u'state': [0, u'__', u'__', u'__', u'__', u'__', u'__', u'__', u'__', u'__', u'__', u'__', u'__', u'__', u'__', u'__', u'__'], u'V': 11.97227311060534, u'action': 14}, {u'Qs': {u'11': 12.57121144669074, u'10': 12.777669080520141, u'13': 12.804311070075915, u'12': 12.57121144669074, u'15': 13.199391458383673, u'16': 13.199391458383673, u'1': 12.777669080520141, u'3': 12.57121144669074, u'2': 12.777669080520141, u'5': 12.777669080520141, u'4': 12.57121144669074, u'7': 12.57121144669074, u'6': 12.777669080520141, u'9': 12.777669080520141, u'__TERM_ACTION__': 3.9999999999999982, u'8': 12.57121144669074}, u'bestAction': 15, u'Q': 12.777669080520141, u'state': [0, u'__', u'__', u'__', u'__', u'__', u'__', u'__', u'__', u'__', u'__', u'__', u'__', u'__', 4, u'__', u'__'], u'V': 13.199391458383673, u'action': 6}, {u'Qs': {u'11': 16.745778030974503, u'10': 16.88897473868292, u'13': 17.23772380797687, u'12': 16.745778030974503, u'15': 17.050419808444236, u'16': 17.050419808444236, u'1': 16.88897473868292, u'3': 16.745778030974503, u'2': 16.88897473868292, u'5': 17.72085345247583, u'4': 16.745778030974503, u'7': 18.466560476706665, u'8': 18.466560476706665, u'9': 16.88897473868292, u'__TERM_ACTION__': 12}, u'bestAction': 7, u'Q': 12, u'state': [0, u'__', u'__', u'__', u'__', u'__', 12, u'__', u'__', u'__', u'__', u'__', u'__', u'__', 4, u'__', u'__'], u'V': 18.466560476706665, u'action': u'__TERM_ACTION__'}]","[8184, 11700, 14338]","[u'1', u'1', u'0']","[[0, u'__', u'__', u'__', u'__', u'__', u'__', u'__', u'__', u'__', u'__', u'__', u'__', u'__', u'__', u'__', u'__'], [0, u'__', u'__', u'__', u'__', u'__', u'__', u'__', u'__', u'__', u'__', u'__', u'__', u'__', 4, u'__', u'__'], [0, u'__', u'__', u'__', u'__', u'__', 12, u'__', u'__', u'__', u'__', u'__', u'__', u'__', 4, u'__', u'__']]",,[2],[False],,"[14, 6, u'__TERM_ACTION__']","[5, 6, 8]",[True],[False],"{u'mouseover': {u'state': {u'target': [], u'time': []}, u'edge': {u'target': [], u'time': []}}, u'click': {u'state': {u'target': [14, 6], u'time': [2667, 6931]}, u'edge': {u'target': [], u'time': []}}, u'mouseout': {u'state': {u'target': [], u'time': []}, u'edge': {u'target': [], u'time': []}}}",,,"[8184, 612, 2134]",2.0,557412,3.0,7.0,mouselab-mdp,,1
"[{u'Qs': {u'11': 11.700905455213729, u'10': 11.97227311060534, u'13': 11.97227311060534, u'12': 11.700905455213729, u'15': 11.700905455213729, u'14': 11.97227311060534, u'16': 11.700905455213729, u'1': 11.97227311060534, u'3': 11.700905455213729, u'2': 11.97227311060534, u'5': 11.97227311060534, u'4': 11.700905455213729, u'7': 11.700905455213729, u'6': 11.97227311060534, u'9': 11.97227311060534, u'__TERM_ACTION__': -1.9984014443252818e-15, u'8': 11.700905455213729}, u'bestAction': 1, u'Q': 11.97227311060534, u'state': [0, u'__', u'__', u'__', u'__', u'__', u'__', u'__', u'__', u'__', u'__', u'__', u'__', u'__', u'__', u'__', u'__'], u'V': 11.97227311060534, u'action': 10}, {u'Qs': {u'11': 13.19939145838367, u'13': 12.777669080520138, u'12': 13.19939145838367, u'15': 12.571211446690736, u'14': 12.777669080520138, u'16': 12.571211446690736, u'1': 12.777669080520138, u'3': 12.571211446690736, u'2': 12.777669080520138, u'5': 12.777669080520138, u'4': 12.571211446690736, u'7': 12.571211446690736, u'6': 12.777669080520138, u'9': 12.804311070075912, u'__TERM_ACTION__': 3.9999999999999982, u'8': 12.571211446690736}, u'bestAction': 11, u'Q': 12.777669080520138, u'state': [0, u'__', u'__', u'__', u'__', u'__', u'__', u'__', u'__', u'__', 4, u'__', u'__', u'__', u'__', u'__', u'__'], u'V': 13.19939145838367, u'action': 2}, {u'Qs': {u'11': 13.517413549063676, u'13': 12.850308682494546, u'12': 13.517413549063676, u'15': 12.643851048665145, u'14': 12.850308682494546, u'16': 12.643851048665145, u'1': 13.780014743860889, u'3': 13.517413549063676, u'5': 12.850308682494546, u'4': 13.517413549063676, u'7': 12.643851048665145, u'6': 12.850308682494546, u'9': 13.780014743860889, u'__TERM_ACTION__': 3.9999999999999982, u'8': 12.643851048665145}, u'bestAction': 1, u'Q': 12.850308682494546, u'state': [0, u'__', 4, u'__', u'__', u'__', u'__', u'__', u'__', u'__', 4, u'__', u'__', u'__', u'__', u'__', u'__'], u'V': 13.780014743860889, u'action': 14}, {u'Qs': {u'11': 12.768051296709896, u'13': 11.15897849990656, u'12': 12.768051296709896, u'__TERM_ACTION__': 3.9999999999999982, u'16': 10.971674500373926, u'1': 13.030652491507105, u'3': 12.768051296709896, u'5': 12.100946430140763, u'4': 12.768051296709896, u'7': 11.89448879631136, u'6': 12.100946430140763, u'9': 13.030652491507105, u'15': 10.971674500373926, u'8': 11.89448879631136}, u'bestAction': 1, u'Q': 3.9999999999999982, u'state': [0, u'__', 4, u'__', u'__', u'__', u'__', u'__', u'__', u'__', 4, u'__', u'__', u'__', -4, u'__', u'__'], u'V': 13.030652491507105, u'action': u'__TERM_ACTION__'}]","[7446, 10826, 13336]","[u'1', u'1', u'0']","[[0, u'__', u'__', u'__', u'__', u'__', u'__', u'__', u'__', u'__', u'__', u'__', u'__', u'__', u'__', u'__', u'__'], [0, u'__', u'__', u'__', u'__', u'__', u'__', u'__', u'__', u'__', 4, u'__', u'__', u'__', u'__', u'__', u'__'], [0, u'__', 4, u'__', u'__', u'__', u'__', u'__', u'__', u'__', 4, u'__', u'__', u'__', u'__', u'__', u'__'], [0, u'__', 4, u'__', u'__', u'__', u'__', u'__', u'__', u'__', 4, u'__', u'__', u'__', -4, u'__', u'__']]",,[2],[False],,"[10, 2, 14, u'__TERM_ACTION__']","[5, 6, 8]",[True],[False],"{u'mouseover': {u'state': {u'target': [], u'time': []}, u'edge': {u'target': [], u'time': []}}, u'click': {u'state': {u'target': [10, 2, 14], u'time': [4282, 5396, 6239]}, u'edge': {u'target': [], u'time': []}}, u'mouseout': {u'state': {u'target': [], u'time': []}, u'edge': {u'target': [], u'time': []}}}",,,"[7445, 603, 2013]",17.0,612710,4.0,2.0,mouselab-mdp,,1
"[{u'Qs': {u'11': 11.700905455213729, u'10': 11.97227311060534, u'13': 11.97227311060534, u'12': 11.700905455213729, u'15': 11.700905455213729, u'14': 11.97227311060534, u'16': 11.700905455213729, u'1': 11.97227311060534, u'3': 11.700905455213729, u'2': 11.97227311060534, u'5': 11.97227311060534, u'4': 11.700905455213729, u'7': 11.700905455213729, u'6': 11.97227311060534, u'9': 11.97227311060534, u'__TERM_ACTION__': -1.9984014443252818e-15, u'8': 11.700905455213729}, u'bestAction': 1, u'Q': 11.97227311060534, u'state': [0, u'__', u'__', u'__', u'__', u'__', u'__', u'__', u'__', u'__', u'__', u'__', u'__', u'__', u'__', u'__', u'__'], u'V': 11.97227311060534, u'action': 14}, {u'Qs': {u'11': 12.57121144669074, u'10': 12.777669080520141, u'13': 12.804311070075915, u'12': 12.57121144669074, u'15': 13.199391458383673, u'16': 13.199391458383673, u'1': 12.777669080520141, u'3': 12.57121144669074, u'2': 12.777669080520141, u'5': 12.777669080520141, u'4': 12.57121144669074, u'7': 12.57121144669074, u'6': 12.777669080520141, u'9': 12.777669080520141, u'__TERM_ACTION__': 3.9999999999999982, u'8': 12.57121144669074}, u'bestAction': 15, u'Q': 12.777669080520141, u'state': [0, u'__', u'__', u'__', u'__', u'__', u'__', u'__', u'__', u'__', u'__', u'__', u'__', u'__', 4, u'__', u'__'], u'V': 13.199391458383673, u'action': 10}, {u'Qs': {u'11': 9.699617345764018, u'13': 11.6259035364676, u'12': 9.699617345764018, u'__TERM_ACTION__': 3.9999999999999982, u'16': 12.020983924775354, u'1': 11.599261546911826, u'3': 11.392803913082425, u'2': 11.599261546911826, u'5': 11.599261546911826, u'4': 11.392803913082425, u'7': 11.392803913082425, u'6': 11.599261546911826, u'9': 9.793879068716969, u'15': 12.020983924775354, u'8': 11.392803913082425}, u'bestAction': 15, u'Q': 11.599261546911826, u'state': [0, u'__', u'__', u'__', u'__', u'__', u'__', u'__', u'__', u'__', -12, u'__', u'__', u'__', 4, u'__', u'__'], u'V': 12.020983924775354, u'action': 2}, {u'Qs': {u'11': 8.212804999698498, u'13': 10.13909119040208, u'12': 8.212804999698498, u'__TERM_ACTION__': 3.9999999999999982, u'16': 10.534171578709834, u'1': 8.307066722651449, u'3': 8.212804999698498, u'5': 10.112449200846306, u'4': 8.212804999698498, u'7': 9.905991567016905, u'6': 10.112449200846306, u'9': 8.307066722651449, u'15': 10.534171578709834, u'8': 9.905991567016905}, u'bestAction': 15, u'Q': 3.9999999999999982, u'state': [0, u'__', -12, u'__', u'__', u'__', u'__', u'__', u'__', u'__', -12, u'__', u'__', u'__', 4, u'__', u'__'], u'V': 10.534171578709834, u'action': u'__TERM_ACTION__'}]","[7502, 10978, 18684]","[u'1', u'1', u'0']","[[0, u'__', u'__', u'__', u'__', u'__', u'__', u'__', u'__', u'__', u'__', u'__', u'__', u'__', u'__', u'__', u'__'], [0, u'__', u'__', u'__', u'__', u'__', u'__', u'__', u'__', u'__', u'__', u'__', u'__', u'__', 4, u'__', u'__'], [0, u'__', u'__', u'__', u'__', u'__', u'__', u'__', u'__', u'__', -12, u'__', u'__', u'__', 4, u'__', u'__'], [0, u'__', -12, u'__', u'__', u'__', u'__', u'__', u'__', u'__', -12, u'__', u'__', u'__', 4, u'__', u'__']]",,[2],[False],,"[14, 10, 2, u'__TERM_ACTION__']","[5, 6, 8]",[True],[False],"{u'mouseover': {u'state': {u'target': [], u'time': []}, u'edge': {u'target': [], u'time': []}}, u'click': {u'state': {u'target': [14, 10, 2], u'time': [2197, 3581, 4989]}, u'edge': {u'target': [], u'time': []}}, u'mouseout': {u'state': {u'target': [], u'time': []}, u'edge': {u'target': [], u'time': []}}}",,,"[7502, 711, 7216]",1.0,662025,5.0,9.0,mouselab-mdp,,1
"[{u'Qs': {u'11': 11.700905455213729, u'10': 11.97227311060534, u'13': 11.97227311060534, u'12': 11.700905455213729, u'15': 11.700905455213729, u'14': 11.97227311060534, u'16': 11.700905455213729, u'1': 11.97227311060534, u'3': 11.700905455213729, u'2': 11.97227311060534, u'5': 11.97227311060534, u'4': 11.700905455213729, u'7': 11.700905455213729, u'6': 11.97227311060534, u'9': 11.97227311060534, u'__TERM_ACTION__': -1.9984014443252818e-15, u'8': 11.700905455213729}, u'bestAction': 1, u'Q': 11.97227311060534, u'state': [0, u'__', u'__', u'__', u'__', u'__', u'__', u'__', u'__', u'__', u'__', u'__', u'__', u'__', u'__', u'__', u'__'], u'V': 11.97227311060534, u'action': 14}, {u'Qs': {u'11': 12.57121144669074, u'10': 12.777669080520141, u'13': 12.804311070075915, u'12': 12.57121144669074, u'15': 13.199391458383673, u'16': 13.199391458383673, u'1': 12.777669080520141, u'3': 12.57121144669074, u'2': 12.777669080520141, u'5': 12.777669080520141, u'4': 12.57121144669074, u'7': 12.57121144669074, u'6': 12.777669080520141, u'9': 12.777669080520141, u'__TERM_ACTION__': 3.9999999999999982, u'8': 12.57121144669074}, u'bestAction': 15, u'Q': 12.777669080520141, u'state': [0, u'__', u'__', u'__', u'__', u'__', u'__', u'__', u'__', u'__', u'__', u'__', u'__', u'__', 4, u'__', u'__'], u'V': 13.199391458383673, u'action': 6}, {u'Qs': {u'11': 16.745778030974503, u'10': 16.88897473868292, u'13': 17.23772380797687, u'12': 16.745778030974503, u'15': 17.050419808444236, u'16': 17.050419808444236, u'1': 16.88897473868292, u'3': 16.745778030974503, u'2': 16.88897473868292, u'5': 17.72085345247583, u'4': 16.745778030974503, u'7': 18.466560476706665, u'8': 18.466560476706665, u'9': 16.88897473868292, u'__TERM_ACTION__': 12}, u'bestAction': 7, u'Q': 12, u'state': [0, u'__', u'__', u'__', u'__', u'__', 12, u'__', u'__', u'__', u'__', u'__', u'__', u'__', 4, u'__', u'__'], u'V': 18.466560476706665, u'action': u'__TERM_ACTION__'}]","[3749, 6637, 12050]","[u'1', u'1', u'2']","[[0, u'__', u'__', u'__', u'__', u'__', u'__', u'__', u'__', u'__', u'__', u'__', u'__', u'__', u'__', u'__', u'__'], [0, u'__', u'__', u'__', u'__', u'__', u'__', u'__', u'__', u'__', u'__', u'__', u'__', u'__', 4, u'__', u'__'], [0, u'__', u'__', u'__', u'__', u'__', 12, u'__', u'__', u'__', u'__', u'__', u'__', u'__', 4, u'__', u'__']]",,[2],[False],,"[14, 6, u'__TERM_ACTION__']","[5, 6, 7]",[True],[False],"{u'mouseover': {u'state': {u'target': [], u'time': []}, u'edge': {u'target': [], u'time': []}}, u'click': {u'state': {u'target': [14, 6], u'time': [1066, 2542]}, u'edge': {u'target': [], u'time': []}}, u'mouseout': {u'state': {u'target': [], u'time': []}, u'edge': {u'target': [], u'time': []}}}",,,"[3749, 380, 4908]",18.0,711584,6.0,14.0,mouselab-mdp,,1
"[{u'Qs': {u'11': 11.700905455213729, u'10': 11.97227311060534, u'13': 11.97227311060534, u'12': 11.700905455213729, u'15': 11.700905455213729, u'14': 11.97227311060534, u'16': 11.700905455213729, u'1': 11.97227311060534, u'3': 11.700905455213729, u'2': 11.97227311060534, u'5': 11.97227311060534, u'4': 11.700905455213729, u'7': 11.700905455213729, u'6': 11.97227311060534, u'9': 11.97227311060534, u'__TERM_ACTION__': -1.9984014443252818e-15, u'8': 11.700905455213729}, u'bestAction': 1, u'Q': 11.97227311060534, u'state': [0, u'__', u'__', u'__', u'__', u'__', u'__', u'__', u'__', u'__', u'__', u'__', u'__', u'__', u'__', u'__', u'__'], u'V': 11.97227311060534, u'action': 14}, {u'Qs': {u'11': 10.42580770773213, u'10': 10.69717536312374, u'13': 7.999839398130523, u'12': 10.42580770773213, u'15': 7.8289297498286805, u'16': 7.8289297498286805, u'1': 10.69717536312374, u'3': 10.42580770773213, u'2': 10.69717536312374, u'5': 10.69717536312374, u'4': 10.42580770773213, u'7': 10.42580770773213, u'6': 10.69717536312374, u'9': 10.69717536312374, u'__TERM_ACTION__': -1.9984014443252818e-15, u'8': 10.42580770773213}, u'bestAction': 1, u'Q': 10.69717536312374, u'state': [0, u'__', u'__', u'__', u'__', u'__', u'__', u'__', u'__', u'__', u'__', u'__', u'__', u'__', -12, u'__', u'__'], u'V': 10.69717536312374, u'action': 6}, {u'Qs': {u'11': 8.496076519750272, u'10': 8.767444175141883, u'13': 6.070108210148665, u'12': 8.496076519750272, u'15': 5.899198561846823, u'16': 5.899198561846823, u'1': 8.767444175141883, u'3': 8.496076519750272, u'2': 8.767444175141883, u'5': 5.57148609914521, u'4': 8.496076519750272, u'7': 5.498291322247817, u'8': 5.498291322247817, u'9': 8.767444175141883, u'__TERM_ACTION__': -1.9984014443252818e-15}, u'bestAction': 1, u'Q': 8.767444175141883, u'state': [0, u'__', u'__', u'__', u'__', u'__', -20, u'__', u'__', u'__', u'__', u'__', u'__', u'__', -12, u'__', u'__'], u'V': 8.767444175141883, u'action': 2}, {u'Qs': {u'11': 6.9265621461790525, u'10': 6.452961841286206, u'13': 4.763290890589489, u'12': 6.9265621461790525, u'15': 4.592381242287646, u'16': 4.592381242287646, u'1': 6.0358638455366505, u'3': 5.755646823702896, u'5': 4.264668779586035, u'4': 5.755646823702896, u'7': 4.191474002688642, u'8': 4.191474002688642, u'9': 6.452961841286206, u'__TERM_ACTION__': -1.9984014443252818e-15}, u'bestAction': 11, u'Q': 6.452961841286206, u'state': [0, u'__', -4, u'__', u'__', u'__', -20, u'__', u'__', u'__', u'__', u'__', u'__', u'__', -12, u'__', u'__'], u'V': 6.9265621461790525, u'action': 10}, {u'Qs': {u'11': 3.5132514435872384, u'13': 1.9041786467839037, u'12': 3.5132514435872384, u'__TERM_ACTION__': -4.000000000000002, u'16': 1.7168746472512701, u'1': 3.7758526383844497, u'3': 3.5132514435872384, u'5': 1.0407640988232512, u'4': 3.5132514435872384, u'7': 0.9465023758703004, u'8': 0.9465023758703004, u'9': 3.7758526383844497, u'15': 1.7168746472512701}, u'bestAction': 1, u'Q': -4.000000000000002, u'state': [0, u'__', -4, u'__', u'__', u'__', -20, u'__', u'__', u'__', -4, u'__', u'__', u'__', -12, u'__', u'__'], u'V': 3.7758526383844497, u'action': u'__TERM_ACTION__'}]","[10923, 14193, 16054]","[u'2', u'2', u'1']","[[0, u'__', u'__', u'__', u'__', u'__', u'__', u'__', u'__', u'__', u'__', u'__', u'__', u'__', u'__', u'__', u'__'], [0, u'__', u'__', u'__', u'__', u'__', u'__', u'__', u'__', u'__', u'__', u'__', u'__', u'__', -12, u'__', u'__'], [0, u'__', u'__', u'__', u'__', u'__', -20, u'__', u'__', u'__', u'__', u'__', u'__', u'__', -12, u'__', u'__'], [0, u'__', -4, u'__', u'__', u'__', -20, u'__', u'__', u'__', u'__', u'__', u'__', u'__', -12, u'__', u'__'], [0, u'__', -4, u'__', u'__', u'__', -20, u'__', u'__', u'__', -4, u'__', u'__', u'__', -12, u'__', u'__']]",,[2],[True],,"[14, 6, 2, 10, u'__TERM_ACTION__']","[9, 10, 12]",[True],[False],"{u'mouseover': {u'state': {u'target': [], u'time': []}, u'edge': {u'target': [], u'time': []}}, u'click': {u'state': {u'target': [14, 6, 2, 10], u'time': [1217, 3304, 4974, 6527]}, u'edge': {u'target': [], u'time': []}}, u'mouseout': {u'state': {u'target': [], u'time': []}, u'edge': {u'target': [], u'time': []}}}",,,"[10923, 586, 1364]",8.0,761500,7.0,8.0,mouselab-mdp,,1
"[{u'Qs': {u'11': 11.700905455213729, u'10': 11.97227311060534, u'13': 11.97227311060534, u'12': 11.700905455213729, u'15': 11.700905455213729, u'14': 11.97227311060534, u'16': 11.700905455213729, u'1': 11.97227311060534, u'3': 11.700905455213729, u'2': 11.97227311060534, u'5': 11.97227311060534, u'4': 11.700905455213729, u'7': 11.700905455213729, u'6': 11.97227311060534, u'9': 11.97227311060534, u'__TERM_ACTION__': -1.9984014443252818e-15, u'8': 11.700905455213729}, u'bestAction': 1, u'Q': 11.97227311060534, u'state': [0, u'__', u'__', u'__', u'__', u'__', u'__', u'__', u'__', u'__', u'__', u'__', u'__', u'__', u'__', u'__', u'__'], u'V': 11.97227311060534, u'action': 14}, {u'Qs': {u'11': 10.882782348710496, u'10': 11.154150004102107, u'13': 9.729386994056046, u'12': 10.882782348710496, u'15': 9.449169972222293, u'16': 9.449169972222293, u'1': 11.154150004102107, u'3': 10.882782348710496, u'2': 11.154150004102107, u'5': 11.154150004102107, u'4': 10.882782348710496, u'7': 10.882782348710496, u'6': 11.154150004102107, u'9': 11.154150004102107, u'__TERM_ACTION__': -1.9984014443252818e-15, u'8': 10.882782348710496}, u'bestAction': 1, u'Q': 11.154150004102107, u'state': [0, u'__', u'__', u'__', u'__', u'__', u'__', u'__', u'__', u'__', u'__', u'__', u'__', u'__', -4, u'__', u'__'], u'V': 11.154150004102107, u'action': 6}, {u'Qs': {u'11': 9.964985870665256, u'10': 10.236353526056867, u'13': 8.811590516010806, u'12': 9.964985870665256, u'15': 8.531373494177053, u'16': 8.531373494177053, u'1': 10.236353526056867, u'3': 9.964985870665256, u'2': 10.236353526056867, u'5': 8.811590516010806, u'4': 9.964985870665256, u'7': 8.531373494177053, u'8': 8.531373494177053, u'9': 10.236353526056867, u'__TERM_ACTION__': -1.9984014443252818e-15}, u'bestAction': 1, u'Q': 10.236353526056867, u'state': [0, u'__', u'__', u'__', u'__', u'__', -4, u'__', u'__', u'__', u'__', u'__', u'__', u'__', -4, u'__', u'__'], u'V': 10.236353526056867, u'action': 10}, {u'Qs': {u'11': 11.54777538244278, u'13': 10.184085074345049, u'12': 11.54777538244278, u'__TERM_ACTION__': 3.9999999999999982, u'16': 9.996781074812414, u'1': 11.126053004579251, u'3': 10.91959537074985, u'2': 11.126053004579251, u'5': 10.184085074345049, u'4': 10.91959537074985, u'7': 9.996781074812414, u'8': 9.996781074812414, u'9': 11.152694994135025, u'15': 9.996781074812414}, u'bestAction': 11, u'Q': 3.9999999999999982, u'state': [0, u'__', u'__', u'__', u'__', u'__', -4, u'__', u'__', u'__', 4, u'__', u'__', u'__', -4, u'__', u'__'], u'V': 11.54777538244278, u'action': u'__TERM_ACTION__'}]","[6398, 9596, 10839]","[u'2', u'2', u'1']","[[0, u'__', u'__', u'__', u'__', u'__', u'__', u'__', u'__', u'__', u'__', u'__', u'__', u'__', u'__', u'__', u'__'], [0, u'__', u'__', u'__', u'__', u'__', u'__', u'__', u'__', u'__', u'__', u'__', u'__', u'__', -4, u'__', u'__'], [0, u'__', u'__', u'__', u'__', u'__', -4, u'__', u'__', u'__', u'__', u'__', u'__', u'__', -4, u'__', u'__'], [0, u'__', u'__', u'__', u'__', u'__', -4, u'__', u'__', u'__', 4, u'__', u'__', u'__', -4, u'__', u'__']]",,[2],[True],,"[14, 6, 10, u'__TERM_ACTION__']","[9, 10, 12]",[True],[False],"{u'mouseover': {u'state': {u'target': [], u'time': []}, u'edge': {u'target': [], u'time': []}}, u'click': {u'state': {u'target': [14, 6, 10], u'time': [2465, 3408, 4365]}, u'edge': {u'target': [], u'time': []}}, u'mouseout': {u'state': {u'target': [], u'time': []}, u'edge': {u'target': [], u'time': []}}}",,,"[6397, 429, 738]",25.0,812535,8.0,12.0,mouselab-mdp,,1
"[{u'Qs': {u'11': 11.700905455213729, u'10': 11.97227311060534, u'13': 11.97227311060534, u'12': 11.700905455213729, u'15': 11.700905455213729, u'14': 11.97227311060534, u'16': 11.700905455213729, u'1': 11.97227311060534, u'3': 11.700905455213729, u'2': 11.97227311060534, u'5': 11.97227311060534, u'4': 11.700905455213729, u'7': 11.700905455213729, u'6': 11.97227311060534, u'9': 11.97227311060534, u'__TERM_ACTION__': -1.9984014443252818e-15, u'8': 11.700905455213729}, u'bestAction': 1, u'Q': 11.97227311060534, u'state': [0, u'__', u'__', u'__', u'__', u'__', u'__', u'__', u'__', u'__', u'__', u'__', u'__', u'__', u'__', u'__', u'__'], u'V': 11.97227311060534, u'action': 10}, {u'Qs': {u'11': 13.19939145838367, u'13': 12.777669080520138, u'12': 13.19939145838367, u'15': 12.571211446690736, u'14': 12.777669080520138, u'16': 12.571211446690736, u'1': 12.777669080520138, u'3': 12.571211446690736, u'2': 12.777669080520138, u'5': 12.777669080520138, u'4': 12.571211446690736, u'7': 12.571211446690736, u'6': 12.777669080520138, u'9': 12.804311070075912, u'__TERM_ACTION__': 3.9999999999999982, u'8': 12.571211446690736}, u'bestAction': 11, u'Q': 12.777669080520138, u'state': [0, u'__', u'__', u'__', u'__', u'__', u'__', u'__', u'__', u'__', 4, u'__', u'__', u'__', u'__', u'__', u'__'], u'V': 13.19939145838367, u'action': 2}, {u'Qs': {u'11': 13.517413549063676, u'13': 12.850308682494546, u'12': 13.517413549063676, u'15': 12.643851048665145, u'14': 12.850308682494546, u'16': 12.643851048665145, u'1': 13.780014743860889, u'3': 13.517413549063676, u'5': 12.850308682494546, u'4': 13.517413549063676, u'7': 12.643851048665145, u'6': 12.850308682494546, u'9': 13.780014743860889, u'__TERM_ACTION__': 3.9999999999999982, u'8': 12.643851048665145}, u'bestAction': 1, u'Q': 12.850308682494546, u'state': [0, u'__', 4, u'__', u'__', u'__', u'__', u'__', u'__', u'__', 4, u'__', u'__', u'__', u'__', u'__', u'__'], u'V': 13.780014743860889, u'action': 14}, {u'Qs': {u'11': 13.564217823312227, u'13': 13.826819018109436, u'12': 13.564217823312227, u'__TERM_ACTION__': 3.9999999999999982, u'16': 13.564217823312227, u'1': 13.826819018109436, u'3': 13.564217823312227, u'5': 12.897112956743094, u'4': 13.564217823312227, u'7': 12.690655322913692, u'6': 12.897112956743094, u'9': 13.826819018109436, u'15': 13.564217823312227, u'8': 12.690655322913692}, u'bestAction': 1, u'Q': 12.897112956743094, u'state': [0, u'__', 4, u'__', u'__', u'__', u'__', u'__', u'__', u'__', 4, u'__', u'__', u'__', 4, u'__', u'__'], u'V': 13.826819018109436, u'action': 6}, {u'Qs': {u'11': 17.026777684606227, u'13': 17.21408168413886, u'12': 17.026777684606227, u'__TERM_ACTION__': 12, u'16': 17.026777684606227, u'1': 17.21408168413886, u'3': 17.026777684606227, u'5': 17.69721132863782, u'4': 17.026777684606227, u'7': 18.442918352868656, u'8': 18.442918352868656, u'9': 17.21408168413886, u'15': 17.026777684606227}, u'bestAction': 7, u'Q': 12, u'state': [0, u'__', 4, u'__', u'__', u'__', 12, u'__', u'__', u'__', 4, u'__', u'__', u'__', 4, u'__', u'__'], u'V': 18.442918352868656, u'action': u'__TERM_ACTION__'}]","[8165, 11655, 13742]","[u'1', u'1', u'0']","[[0, u'__', u'__', u'__', u'__', u'__', u'__', u'__', u'__', u'__', u'__', u'__', u'__', u'__', u'__', u'__', u'__'], [0, u'__', u'__', u'__', u'__', u'__', u'__', u'__', u'__', u'__', 4, u'__', u'__', u'__', u'__', u'__', u'__'], [0, u'__', 4, u'__', u'__', u'__', u'__', u'__', u'__', u'__', 4, u'__', u'__', u'__', u'__', u'__', u'__'], [0, u'__', 4, u'__', u'__', u'__', u'__', u'__', u'__', u'__', 4, u'__', u'__', u'__', 4, u'__', u'__'], [0, u'__', 4, u'__', u'__', u'__', 12, u'__', u'__', u'__', 4, u'__', u'__', u'__', 4, u'__', u'__']]",,[2],[False],,"[10, 2, 14, 6, u'__TERM_ACTION__']","[5, 6, 8]",[True],[False],"{u'mouseover': {u'state': {u'target': [], u'time': []}, u'edge': {u'target': [], u'time': []}}, u'click': {u'state': {u'target': [10, 2, 14, 6], u'time': [2428, 4692, 6047, 7125]}, u'edge': {u'target': [], u'time': []}}, u'mouseout': {u'state': {u'target': [], u'time': []}, u'edge': {u'target': [], u'time': []}}}",,,"[8165, 812, 1582]",24.0,862813,9.0,5.0,mouselab-mdp,,1
"[{u'Qs': {u'11': 11.700905455213729, u'10': 11.97227311060534, u'13': 11.97227311060534, u'12': 11.700905455213729, u'15': 11.700905455213729, u'14': 11.97227311060534, u'16': 11.700905455213729, u'1': 11.97227311060534, u'3': 11.700905455213729, u'2': 11.97227311060534, u'5': 11.97227311060534, u'4': 11.700905455213729, u'7': 11.700905455213729, u'6': 11.97227311060534, u'9': 11.97227311060534, u'__TERM_ACTION__': -1.9984014443252818e-15, u'8': 11.700905455213729}, u'bestAction': 1, u'Q': 11.97227311060534, u'state': [0, u'__', u'__', u'__', u'__', u'__', u'__', u'__', u'__', u'__', u'__', u'__', u'__', u'__', u'__', u'__', u'__'], u'V': 11.97227311060534, u'action': 10}, {u'Qs': {u'11': 13.19939145838367, u'13': 12.777669080520138, u'12': 13.19939145838367, u'15': 12.571211446690736, u'14': 12.777669080520138, u'16': 12.571211446690736, u'1': 12.777669080520138, u'3': 12.571211446690736, u'2': 12.777669080520138, u'5': 12.777669080520138, u'4': 12.571211446690736, u'7': 12.571211446690736, u'6': 12.777669080520138, u'9': 12.804311070075912, u'__TERM_ACTION__': 3.9999999999999982, u'8': 12.571211446690736}, u'bestAction': 11, u'Q': 12.777669080520138, u'state': [0, u'__', u'__', u'__', u'__', u'__', u'__', u'__', u'__', u'__', 4, u'__', u'__', u'__', u'__', u'__', u'__'], u'V': 13.19939145838367, u'action': 14}, {u'Qs': {u'11': 22.380650059053362, u'13': 23.300432194102985, u'12': 22.380650059053362, u'__TERM_ACTION__': 20, u'16': 24.440377197769017, u'1': 22.428562321986867, u'3': 22.347942454073817, u'2': 22.428562321986867, u'5': 22.428562321986867, u'4': 22.347942454073817, u'7': 22.347942454073817, u'6': 22.428562321986867, u'9': 22.474911782006316, u'15': 24.440377197769017, u'8': 22.347942454073817}, u'bestAction': 15, u'Q': 20, u'state': [0, u'__', u'__', u'__', u'__', u'__', u'__', u'__', u'__', u'__', 4, u'__', u'__', u'__', 20, u'__', u'__'], u'V': 24.440377197769017, u'action': u'__TERM_ACTION__'}]","[4274, 7756, 9213]","[u'3', u'3', u'0']","[[0, u'__', u'__', u'__', u'__', u'__', u'__', u'__', u'__', u'__', u'__', u'__', u'__', u'__', u'__', u'__', u'__'], [0, u'__', u'__', u'__', u'__', u'__', u'__', u'__', u'__', u'__', 4, u'__', u'__', u'__', u'__', u'__', u'__'], [0, u'__', u'__', u'__', u'__', u'__', u'__', u'__', u'__', u'__', 4, u'__', u'__', u'__', 20, u'__', u'__']]",,[2],[False],,"[10, 14, u'__TERM_ACTION__']","[13, 14, 15]",[True],[False],"{u'mouseover': {u'state': {u'target': [], u'time': []}, u'edge': {u'target': [], u'time': []}}, u'click': {u'state': {u'target': [10, 14], u'time': [1129, 2464]}, u'edge': {u'target': [], u'time': []}}, u'mouseout': {u'state': {u'target': [], u'time': []}, u'edge': {u'target': [], u'time': []}}}",,,"[4274, 519, 959]",10.0,914764,10.0,6.0,mouselab-mdp,,1
,"[10527, 16005, 19646]","[u'2', u'2', u'1']","[[0, u'__', u'__', u'__', u'__', u'__', u'__', u'__', u'__', u'__', u'__', u'__', u'__', u'__', u'__', u'__', u'__'], [0, u'__', u'__', u'__', u'__', u'__', u'__', u'__', u'__', u'__', u'__', u'__', u'__', u'__', -4, u'__', u'__'], [0, u'__', u'__', u'__', u'__', u'__', 4, u'__', u'__', u'__', u'__', u'__', u'__', u'__', -4, u'__', u'__'], [0, u'__', u'__', u'__', u'__', u'__', 4, u'__', u'__', u'__', 12, u'__', u'__', u'__', -4, u'__', u'__']]",,[],[],,"[14, 6, 10, u'__TERM_ACTION__']","[9, 10, 12]",[],[],"{u'mouseover': {u'state': {u'target': [], u'time': []}, u'edge': {u'target': [], u'time': []}}, u'click': {u'state': {u'target': [14, 6, 10], u'time': [6253, 7688, 9364]}, u'edge': {u'target': [], u'time': []}}, u'mouseout': {u'state': {u'target': [], u'time': []}, u'edge': {u'target': [], u'time': []}}}",,,"[10527, 4739, 3142]",-15.0,963308,11.0,4.0,mouselab-mdp,,1
,"[6271, 11277, 12930]","[u'2', u'2', u'3']","[[0, u'__', u'__', u'__', u'__', u'__', u'__', u'__', u'__', u'__', u'__', u'__', u'__', u'__', u'__', u'__', u'__'], [0, u'__', u'__', u'__', u'__', u'__', -12, u'__', u'__', u'__', u'__', u'__', u'__', u'__', u'__', u'__', u'__'], [0, u'__', u'__', u'__', u'__', u'__', -12, u'__', u'__', u'__', u'__', u'__', u'__', u'__', -4, u'__', u'__'], [0, u'__', u'__', u'__', u'__', u'__', -12, u'__', u'__', u'__', 20, u'__', u'__', u'__', -4, u'__', u'__']]",,[],[],,"[6, 14, 10, u'__TERM_ACTION__']","[9, 10, 11]",[],[],"{u'mouseover': {u'state': {u'target': [], u'time': []}, u'edge': {u'target': [], u'time': []}}, u'click': {u'state': {u'target': [6, 14, 10], u'time': [2094, 3493, 5060]}, u'edge': {u'target': [], u'time': []}}, u'mouseout': {u'state': {u'target': [], u'time': []}, u'edge': {u'target': [], u'time': []}}}",,,"[6270, 4248, 1148]",9.0,1011059,12.0,13.0,mouselab-mdp,,1
,"[6726, 8540, 9720]","[u'1', u'1', u'2']","[[0, u'__', u'__', u'__', u'__', u'__', u'__', u'__', u'__', u'__', u'__', u'__', u'__', u'__', u'__', u'__', u'__'], [0, u'__', u'__', u'__', u'__', u'__', -4, u'__', u'__', u'__', u'__', u'__', u'__', u'__', u'__', u'__', u'__'], [0, u'__', u'__', u'__', u'__', u'__', -4, u'__', u'__', u'__', u'__', u'__', u'__', u'__', -4, u'__', u'__'], [0, u'__', -12, u'__', u'__', u'__', -4, u'__', u'__', u'__', u'__', u'__', u'__', u'__', -4, u'__', u'__'], [0, u'__', -12, u'__', u'__', u'__', -4, u'__', u'__', u'__', -12, u'__', u'__', u'__', -4, u'__', u'__']]",,[],[],,"[6, 14, 2, 10, u'__TERM_ACTION__']","[5, 6, 7]",[],[],"{u'mouseover': {u'state': {u'target': [], u'time': []}, u'edge': {u'target': [], u'time': []}}, u'click': {u'state': {u'target': [6, 14, 2, 10], u'time': [1142, 2330, 3300, 4279]}, u'edge': {u'target': [], u'time': []}}, u'mouseout': {u'state': {u'target': [], u'time': []}, u'edge': {u'target': [], u'time': []}}}",,,"[6726, 1143, 689]",-24.0,1060113,13.0,3.0,mouselab-mdp,,1
,"[6163, 8123, 9616]","[u'0', u'0', u'3']","[[0, u'__', u'__', u'__', u'__', u'__', u'__', u'__', u'__', u'__', u'__', u'__', u'__', u'__', u'__', u'__', u'__'], [0, u'__', u'__', u'__', u'__', u'__', -20, u'__', u'__', u'__', u'__', u'__', u'__', u'__', u'__', u'__', u'__'], [0, u'__', u'__', u'__', u'__', u'__', -20, u'__', u'__', u'__', u'__', u'__', u'__', u'__', -4, u'__', u'__'], [0, u'__', -4, u'__', u'__', u'__', -20, u'__', u'__', u'__', u'__', u'__', u'__', u'__', -4, u'__', u'__']]",,[],[],,"[6, 14, 2, u'__TERM_ACTION__']","[1, 2, 4]",[],[],"{u'mouseover': {u'state': {u'target': [], u'time': []}, u'edge': {u'target': [], u'time': []}}, u'click': {u'state': {u'target': [6, 14, 2], u'time': [2047, 3248, 4426]}, u'edge': {u'target': [], u'time': []}}, u'mouseout': {u'state': {u'target': [], u'time': []}, u'edge': {u'target': [], u'time': []}}}",,,"[6162, 1207, 1000]",1.0,1108132,14.0,10.0,mouselab-mdp,,1
,"[5459, 8405, 9775]","[u'1', u'1', u'0']","[[0, u'__', u'__', u'__', u'__', u'__', u'__', u'__', u'__', u'__', u'__', u'__', u'__', u'__', u'__', u'__', u'__'], [0, u'__', u'__', u'__', u'__', u'__', u'__', u'__', u'__', u'__', u'__', u'__', -20, u'__', u'__', u'__', u'__'], [0, u'__', u'__', u'__', u'__', u'__', u'__', u'__', u'__', u'__', u'__', u'__', -20, u'__', u'__', -12, u'__'], [0, u'__', u'__', -12, u'__', u'__', u'__', u'__', u'__', u'__', u'__', u'__', -20, u'__', u'__', -12, u'__'], [0, u'__', u'__', -12, u'__', u'__', u'__', u'__', 4, u'__', u'__', u'__', -20, u'__', u'__', -12, u'__']]",,[],[],,"[12, 15, 3, 8, u'__TERM_ACTION__']","[5, 6, 8]",[],[],"{u'mouseover': {u'state': {u'target': [], u'time': []}, u'edge': {u'target': [], u'time': []}}, u'click': {u'state': {u'target': [12, 15, 3, 8], u'time': [884, 2062, 3307, 4282]}, u'edge': {u'target': [], u'time': []}}, u'mouseout': {u'state': {u'target': [], u'time': []}, u'edge': {u'target': [], u'time': []}}}",,,"[5459, 1884, 868]",32.0,1156534,15.0,1.0,mouselab-mdp,,1
,"[5383, 7626, 8786]","[u'2', u'2', u'1']","[[0, u'__', u'__', u'__', u'__', u'__', u'__', u'__', u'__', u'__', u'__', u'__', u'__', u'__', u'__', u'__', u'__'], [0, u'__', u'__', u'__', u'__', u'__', u'__', u'__', u'__', u'__', u'__', u'__', 20, u'__', u'__', u'__', u'__']]",,[],[],,"[12, u'__TERM_ACTION__']","[9, 10, 12]",[],[],"{u'mouseover': {u'state': {u'target': [], u'time': []}, u'edge': {u'target': [], u'time': []}}, u'click': {u'state': {u'target': [12], u'time': [1600]}, u'edge': {u'target': [], u'time': []}}, u'mouseout': {u'state': {u'target': [], u'time': []}, u'edge': {u'target': [], u'time': []}}}",,,"[5383, 1263, 659]",35.0,1213820,16.0,15.0,mouselab-mdp,,1
"[{u'Q': 20, u'action': u'__TERM_ACTION__', u'Qs': {u'1': 20, u'9': -44, u'13': 28, u'5': 20}, u'state': [0, u'__', u'__', u'__', u'__', 4, u'__', u'__', u'__', u'__', u'__', u'__', u'__', u'__', u'__', u'__', u'__'], u'V': 28}]","[7460, 17164, 26570]","[u'1', u'1', u'2']","[[0, u'__', u'__', u'__', u'__', u'__', u'__', u'__', u'__', u'__', u'__', u'__', u'__', u'__', u'__', u'__', u'__'], [0, u'__', u'__', u'__', u'__', 4, u'__', u'__', u'__', u'__', u'__', u'__', u'__', u'__', u'__', u'__', u'__']]",,[5],[True],,"[5, u'__TERM_ACTION__']","[5, 6, 7]",[True],[False],"{u'mouseover': {u'state': {u'target': [], u'time': []}, u'edge': {u'target': [], u'time': []}}, u'click': {u'state': {u'target': [5], u'time': [5515]}, u'edge': {u'target': [], u'time': []}}, u'mouseout': {u'state': {u'target': [], u'time': []}, u'edge': {u'target': [], u'time': []}}}",,,"[7460, 4135, 8860]",19.0,305040,1.0,7.0,mouselab-mdp,,3
"[{u'Q': -4, u'action': u'__TERM_ACTION__', u'Qs': {u'1': -28, u'9': -4, u'13': 12, u'5': 4}, u'state': [0, -20, u'__', u'__', u'__', 4, u'__', u'__', u'__', 4, u'__', u'__', u'__', -12, u'__', u'__', u'__'], u'V': 12}]","[10695, 29965, 36164]","[u'2', u'2', u'1']","[[0, u'__', u'__', u'__', u'__', u'__', u'__', u'__', u'__', u'__', u'__', u'__', u'__', u'__', u'__', u'__', u'__'], [0, u'__', u'__', u'__', u'__', u'__', u'__', u'__', u'__', u'__', u'__', u'__', u'__', -12, u'__', u'__', u'__'], [0, u'__', u'__', u'__', u'__', u'__', u'__', u'__', u'__', 4, u'__', u'__', u'__', -12, u'__', u'__', u'__'], [0, -20, u'__', u'__', u'__', u'__', u'__', u'__', u'__', 4, u'__', u'__', u'__', -12, u'__', u'__', u'__'], [0, -20, u'__', u'__', u'__', 4, u'__', u'__', u'__', 4, u'__', u'__', u'__', -12, u'__', u'__', u'__']]",,[9],[True],,"[13, 9, 1, 5, u'__TERM_ACTION__']","[9, 10, 12]",[True],[False],"{u'mouseover': {u'state': {u'target': [], u'time': []}, u'edge': {u'target': [], u'time': []}}, u'click': {u'state': {u'target': [13, 9, 1, 5], u'time': [2472, 4954, 6930, 8568]}, u'edge': {u'target': [], u'time': []}}, u'mouseout': {u'state': {u'target': [], u'time': []}, u'edge': {u'target': [], u'time': []}}}",,,"[10695, 9697, 5653]",-8.0,362806,2.0,9.0,mouselab-mdp,,3
"[{u'Q': -20, u'action': u'__TERM_ACTION__', u'Qs': {u'1': 4, u'9': 20, u'13': -20, u'5': -4}, u'state': [0, u'__', u'__', u'__', u'__', u'__', u'__', u'__', u'__', u'__', u'__', u'__', u'__', u'__', u'__', u'__', u'__'], u'V': 20}]","[1795, 34394, 38330]","[u'3', u'3', u'0']","[[0, u'__', u'__', u'__', u'__', u'__', u'__', u'__', u'__', u'__', u'__', u'__', u'__', u'__', u'__', u'__', u'__']]",,[23],[True],,[u'__TERM_ACTION__'],"[13, 14, 15]",[True],[False],"{u'mouseover': {u'state': {u'target': [], u'time': []}, u'edge': {u'target': [], u'time': []}}, u'click': {u'state': {u'target': [], u'time': []}, u'edge': {u'target': [], u'time': []}}, u'mouseout': {u'state': {u'target': [], u'time': []}, u'edge': {u'target': [], u'time': []}}}",,,"[1794, 9019, 3422]",-20.0,432548,3.0,8.0,mouselab-mdp,,3
"[{u'Q': -4, u'action': u'__TERM_ACTION__', u'Qs': {u'1': -4, u'9': 12, u'13': 12, u'5': -4}, u'state': [0, 4, u'__', u'__', u'__', 4, u'__', u'__', u'__', -4, u'__', u'__', u'__', 4, u'__', u'__', u'__'], u'V': 12}]","[11286, 25278, 30893]","[u'0', u'0', u'1']","[[0, u'__', u'__', u'__', u'__', u'__', u'__', u'__', u'__', u'__', u'__', u'__', u'__', u'__', u'__', u'__', u'__'], [0, u'__', u'__', u'__', u'__', u'__', u'__', u'__', u'__', u'__', u'__', u'__', u'__', 4, u'__', u'__', u'__'], [0, u'__', u'__', u'__', u'__', u'__', u'__', u'__', u'__', -4, u'__', u'__', u'__', 4, u'__', u'__', u'__'], [0, u'__', u'__', u'__', u'__', 4, u'__', u'__', u'__', -4, u'__', u'__', u'__', 4, u'__', u'__', u'__'], [0, 4, u'__', u'__', u'__', 4, u'__', u'__', u'__', -4, u'__', u'__', u'__', 4, u'__', u'__', u'__']]",,[9],[True],,"[13, 9, 5, 1, u'__TERM_ACTION__']","[1, 2, 3]",[True],[False],"{u'mouseover': {u'state': {u'target': [], u'time': []}, u'edge': {u'target': [], u'time': []}}, u'click': {u'state': {u'target': [13, 9, 5, 1], u'time': [4479, 6446, 8167, 9625]}, u'edge': {u'target': [], u'time': []}}, u'mouseout': {u'state': {u'target': [], u'time': []}, u'edge': {u'target': [], u'time': []}}}",,,"[11285, 4458, 4927]",-16.0,501771,4.0,11.0,mouselab-mdp,,3
"[{u'Q': -36, u'action': u'__TERM_ACTION__', u'Qs': {u'1': 4, u'9': 28, u'13': 4, u'5': -36}, u'state': [0, -4, u'__', u'__', u'__', -12, u'__', u'__', u'__', 4, u'__', u'__', u'__', 4, u'__', u'__', u'__'], u'V': 28}]","[8152, 46242, 49634]","[u'1', u'1', u'2']","[[0, u'__', u'__', u'__', u'__', u'__', u'__', u'__', u'__', u'__', u'__', u'__', u'__', u'__', u'__', u'__', u'__'], [0, u'__', u'__', u'__', u'__', u'__', u'__', u'__', u'__', u'__', u'__', u'__', u'__', 4, u'__', u'__', u'__'], [0, u'__', u'__', u'__', u'__', u'__', u'__', u'__', u'__', 4, u'__', u'__', u'__', 4, u'__', u'__', u'__'], [0, u'__', u'__', u'__', u'__', -12, u'__', u'__', u'__', 4, u'__', u'__', u'__', 4, u'__', u'__', u'__'], [0, -4, u'__', u'__', u'__', -12, u'__', u'__', u'__', 4, u'__', u'__', u'__', 4, u'__', u'__', u'__']]",,[36],[False],,"[13, 9, 5, 1, u'__TERM_ACTION__']","[5, 6, 7]",[True],[False],"{u'mouseover': {u'state': {u'target': [], u'time': []}, u'edge': {u'target': [], u'time': []}}, u'click': {u'state': {u'target': [13, 9, 5, 1], u'time': [2669, 3882, 5023, 6292]}, u'edge': {u'target': [], u'time': []}}, u'mouseout': {u'state': {u'target': [], u'time': []}, u'edge': {u'target': [], u'time': []}}}",,,"[8152, 1560, 2865]",-48.0,634322,5.0,10.0,mouselab-mdp,,3
"[{u'Q': 20, u'action': u'__TERM_ACTION__', u'Qs': {u'1': 20, u'9': 28, u'13': -4, u'5': 28}, u'state': [0, 12, u'__', u'__', u'__', -4, u'__', u'__', u'__', 4, u'__', u'__', u'__', -4, u'__', u'__', u'__'], u'V': 28}]","[7658, 20546, 22169]","[u'0', u'0', u'1']","[[0, u'__', u'__', u'__', u'__', u'__', u'__', u'__', u'__', u'__', u'__', u'__', u'__', u'__', u'__', u'__', u'__'], [0, u'__', u'__', u'__', u'__', u'__', u'__', u'__', u'__', u'__', u'__', u'__', u'__', -4, u'__', u'__', u'__'], [0, u'__', u'__', u'__', u'__', u'__', u'__', u'__', u'__', 4, u'__', u'__', u'__', -4, u'__', u'__', u'__'], [0, 12, u'__', u'__', u'__', u'__', u'__', u'__', u'__', 4, u'__', u'__', u'__', -4, u'__', u'__', u'__'], [0, 12, u'__', u'__', u'__', -4, u'__', u'__', u'__', 4, u'__', u'__', u'__', -4, u'__', u'__', u'__']]",,[5],[False],,"[13, 9, 1, 5, u'__TERM_ACTION__']","[1, 2, 3]",[True],[False],"{u'mouseover': {u'state': {u'target': [], u'time': []}, u'edge': {u'target': [], u'time': []}}, u'click': {u'state': {u'target': [13, 9, 1, 5], u'time': [2629, 3903, 5497, 6724]}, u'edge': {u'target': [], u'time': []}}, u'mouseout': {u'state': {u'target': [], u'time': []}, u'edge': {u'target': [], u'time': []}}}",,,"[7658, 7339, 1075]",16.0,712994,6.0,5.0,mouselab-mdp,,3
"[{u'Q': 20, u'action': u'__TERM_ACTION__', u'Qs': {u'1': 28, u'9': 36, u'13': -4, u'5': 20}, u'state': [0, 20, u'__', u'__', u'__', 4, u'__', u'__', u'__', 20, u'__', u'__', u'__', -12, u'__', u'__', u'__'], u'V': 36}]","[10711, 56623, 59749]","[u'1', u'1', u'2']","[[0, u'__', u'__', u'__', u'__', u'__', u'__', u'__', u'__', u'__', u'__', u'__', u'__', u'__', u'__', u'__', u'__'], [0, u'__', u'__', u'__', u'__', u'__', u'__', u'__', u'__', 20, u'__', u'__', u'__', u'__', u'__', u'__', u'__'], [0, u'__', u'__', u'__', u'__', u'__', u'__', u'__', u'__', 20, u'__', u'__', u'__', -12, u'__', u'__', u'__'], [0, 20, u'__', u'__', u'__', u'__', u'__', u'__', u'__', 20, u'__', u'__', u'__', -12, u'__', u'__', u'__'], [0, 20, u'__', u'__', u'__', 4, u'__', u'__', u'__', 20, u'__', u'__', u'__', -12, u'__', u'__', u'__']]",,[9],[True],,"[9, 13, 1, 5, u'__TERM_ACTION__']","[5, 6, 7]",[True],[False],"{u'mouseover': {u'state': {u'target': [], u'time': []}, u'edge': {u'target': [], u'time': []}}, u'click': {u'state': {u'target': [9, 13, 1, 5], u'time': [1539, 3075, 4645, 5894]}, u'edge': {u'target': [], u'time': []}}, u'mouseout': {u'state': {u'target': [], u'time': []}, u'edge': {u'target': [], u'time': []}}}",,,"[10710, 36288, 2555]",-8.0,777497,7.0,2.0,mouselab-mdp,,3
"[{u'Q': 28, u'action': u'__TERM_ACTION__', u'Qs': {u'1': 12, u'9': 36, u'13': 28, u'5': 4}, u'state': [0, u'__', u'__', u'__', u'__', u'__', u'__', u'__', u'__', u'__', u'__', u'__', u'__', u'__', u'__', u'__', u'__'], u'V': 36}]","[7296, 18240, 20183]","[u'3', u'3', u'0']","[[0, u'__', u'__', u'__', u'__', u'__', u'__', u'__', u'__', u'__', u'__', u'__', u'__', u'__', u'__', u'__', u'__']]",,[5],[True],,[u'__TERM_ACTION__'],"[13, 14, 15]",[True],[False],"{u'mouseover': {u'state': {u'target': [], u'time': []}, u'edge': {u'target': [], u'time': []}}, u'click': {u'state': {u'target': [], u'time': []}, u'edge': {u'target': [], u'time': []}}, u'mouseout': {u'state': {u'target': [], u'time': []}, u'edge': {u'target': [], u'time': []}}}",,,"[7296, 5395, 1432]",20.0,853399,8.0,15.0,mouselab-mdp,,3
"[{u'Q': 12, u'action': u'__TERM_ACTION__', u'Qs': {u'1': -12, u'9': 12, u'13': -4, u'5': 36}, u'state': [0, u'__', u'__', u'__', u'__', u'__', u'__', u'__', u'__', u'__', u'__', u'__', u'__', u'__', u'__', u'__', u'__'], u'V': 36}]","[1764, 36453, 37571]","[u'2', u'2', u'3']","[[0, u'__', u'__', u'__', u'__', u'__', u'__', u'__', u'__', u'__', u'__', u'__', u'__', u'__', u'__', u'__', u'__']]",,[14],[True],,[u'__TERM_ACTION__'],"[9, 10, 11]",[True],[False],"{u'mouseover': {u'state': {u'target': [], u'time': []}, u'edge': {u'target': [], u'time': []}}, u'click': {u'state': {u'target': [], u'time': []}, u'edge': {u'target': [], u'time': []}}, u'mouseout': {u'state': {u'target': [], u'time': []}, u'edge': {u'target': [], u'time': []}}}",,,"[1764, 20124, 595]",12.0,919214,9.0,1.0,mouselab-mdp,,3
"[{u'Q': 12, u'action': u'__TERM_ACTION__', u'Qs': {u'1': 20, u'9': 28, u'13': 12, u'5': 12}, u'state': [0, u'__', u'__', u'__', u'__', u'__', u'__', u'__', u'__', u'__', u'__', u'__', u'__', u'__', u'__', u'__', u'__'], u'V': 28}]","[5630, 17014, 17665]","[u'1', u'1', u'2']","[[0, u'__', u'__', u'__', u'__', u'__', u'__', u'__', u'__', u'__', u'__', u'__', u'__', u'__', u'__', u'__', u'__']]",,[9],[True],,[u'__TERM_ACTION__'],"[5, 6, 7]",[True],[False],"{u'mouseover': {u'state': {u'target': [], u'time': []}, u'edge': {u'target': [], u'time': []}}, u'click': {u'state': {u'target': [], u'time': []}, u'edge': {u'target': [], u'time': []}}, u'mouseout': {u'state': {u'target': [], u'time': []}, u'edge': {u'target': [], u'time': []}}}",,,"[5630, 1850, 92]",12.0,994178,10.0,6.0,mouselab-mdp,,3
,"[1043, 2603, 3819]","[u'2', u'2', u'3']","[[0, u'__', u'__', u'__', u'__', u'__', u'__', u'__', u'__', u'__', u'__', u'__', u'__', u'__', u'__', u'__', u'__']]",,[],[],,[u'__TERM_ACTION__'],"[9, 10, 11]",[],[],"{u'mouseover': {u'state': {u'target': [], u'time': []}, u'edge': {u'target': [], u'time': []}}, u'click': {u'state': {u'target': [], u'time': []}, u'edge': {u'target': [], u'time': []}}, u'mouseout': {u'state': {u'target': [], u'time': []}, u'edge': {u'target': [], u'time': []}}}",,,"[1042, 1015, 685]",4.0,1084906,11.0,14.0,mouselab-mdp,,3
,"[3008, 4411, 6065]","[u'0', u'0', u'1']","[[0, u'__', u'__', u'__', u'__', u'__', u'__', u'__', u'__', u'__', u'__', u'__', u'__', u'__', u'__', u'__', u'__']]",,[],[],,[u'__TERM_ACTION__'],"[1, 2, 3]",[],[],"{u'mouseover': {u'state': {u'target': [], u'time': []}, u'edge': {u'target': [], u'time': []}}, u'click': {u'state': {u'target': [], u'time': []}, u'edge': {u'target': [], u'time': []}}, u'mouseout': {u'state': {u'target': [], u'time': []}, u'edge': {u'target': [], u'time': []}}}",,,"[3008, 838, 1136]",-12.0,1144633,12.0,4.0,mouselab-mdp,,3
,"[3784, 5288, 6488]","[u'0', u'0', u'1']","[[0, u'__', u'__', u'__', u'__', u'__', u'__', u'__', u'__', u'__', u'__', u'__', u'__', u'__', u'__', u'__', u'__']]",,[],[],,[u'__TERM_ACTION__'],"[1, 2, 3]",[],[],"{u'mouseover': {u'state': {u'target': [], u'time': []}, u'edge': {u'target': [], u'time': []}}, u'click': {u'state': {u'target': [], u'time': []}, u'edge': {u'target': [], u'time': []}}, u'mouseout': {u'state': {u'target': [], u'time': []}, u'edge': {u'target': [], u'time': []}}}",,,"[3783, 983, 614]",20.0,1221289,13.0,13.0,mouselab-mdp,,3
,"[1692, 2628, 4484]","[u'1', u'1', u'2']","[[0, u'__', u'__', u'__', u'__', u'__', u'__', u'__', u'__', u'__', u'__', u'__', u'__', u'__', u'__', u'__', u'__']]",,[],[],,[u'__TERM_ACTION__'],"[5, 6, 7]",[],[],"{u'mouseover': {u'state': {u'target': [], u'time': []}, u'edge': {u'target': [], u'time': []}}, u'click': {u'state': {u'target': [], u'time': []}, u'edge': {u'target': [], u'time': []}}, u'mouseout': {u'state': {u'target': [], u'time': []}, u'edge': {u'target': [], u'time': []}}}",,,"[1691, 408, 1283]",-20.0,1291603,14.0,3.0,mouselab-mdp,,3
,"[2330, 3369, 4865]","[u'1', u'1', u'0']","[[0, u'__', u'__', u'__', u'__', u'__', u'__', u'__', u'__', u'__', u'__', u'__', u'__', u'__', u'__', u'__', u'__']]",,[],[],,[u'__TERM_ACTION__'],"[5, 6, 8]",[],[],"{u'mouseover': {u'state': {u'target': [], u'time': []}, u'edge': {u'target': [], u'time': []}}, u'click': {u'state': {u'target': [], u'time': []}, u'edge': {u'target': [], u'time': []}}, u'mouseout': {u'state': {u'target': [], u'time': []}, u'edge': {u'target': [], u'time': []}}}",,,"[2329, 497, 967]",-28.0,1339242,15.0,0.0,mouselab-mdp,,3
,"[1529, 2633, 4169]","[u'2', u'2', u'1']","[[0, u'__', u'__', u'__', u'__', u'__', u'__', u'__', u'__', u'__', u'__', u'__', u'__', u'__', u'__', u'__', u'__']]",,[],[],,[u'__TERM_ACTION__'],"[9, 10, 12]",[],[],"{u'mouseover': {u'state': {u'target': [], u'time': []}, u'edge': {u'target': [], u'time': []}}, u'click': {u'state': {u'target': [], u'time': []}, u'edge': {u'target': [], u'time': []}}, u'mouseout': {u'state': {u'target': [], u'time': []}, u'edge': {u'target': [], u'time': []}}}",,,"[1529, 563, 959]",28.0,1423075,16.0,12.0,mouselab-mdp,,3
"[{u'Q': -20, u'action': u'__TERM_ACTION__', u'Qs': {u'1': 44, u'9': 12, u'13': -4, u'5': -20}, u'state': [0, u'__', u'__', u'__', u'__', u'__', u'__', u'__', u'__', u'__', u'__', u'__', u'__', u'__', u'__', u'__', u'__'], u'V': 44}]","[6522, 46985, 51193]","[u'1', u'1', u'2']","[[0, u'__', u'__', u'__', u'__', u'__', u'__', u'__', u'__', u'__', u'__', u'__', u'__', u'__', u'__', u'__', u'__']]",,[36],[True],,[u'__TERM_ACTION__'],"[5, 6, 7]",[True],[False],"{u'mouseover': {u'state': {u'target': [], u'time': []}, u'edge': {u'target': [], u'time': []}}, u'click': {u'state': {u'target': [], u'time': []}, u'edge': {u'target': [], u'time': []}}, u'mouseout': {u'state': {u'target': [], u'time': []}, u'edge': {u'target': [], u'time': []}}}",,,"[6522, 3951, 3697]",-36.0,230769,1.0,13.0,mouselab-mdp,,4
"[{u'Q': -4, u'action': u'__TERM_ACTION__', u'Qs': {u'1': 28, u'9': 36, u'13': -4, u'5': 20}, u'state': [0, u'__', u'__', u'__', u'__', u'__', u'__', u'__', u'__', u'__', u'__', u'__', u'__', u'__', u'__', u'__', u'__'], u'V': 36}]","[1701, 32333, 33781]","[u'3', u'3', u'0']","[[0, u'__', u'__', u'__', u'__', u'__', u'__', u'__', u'__', u'__', u'__', u'__', u'__', u'__', u'__', u'__', u'__']]",,[23],[True],,[u'__TERM_ACTION__'],"[13, 14, 15]",[True],[False],"{u'mouseover': {u'state': {u'target': [], u'time': []}, u'edge': {u'target': [], u'time': []}}, u'click': {u'state': {u'target': [], u'time': []}, u'edge': {u'target': [], u'time': []}}, u'mouseout': {u'state': {u'target': [], u'time': []}, u'edge': {u'target': [], u'time': []}}}",,,"[1701, 7114, 931]",-4.0,304223,2.0,2.0,mouselab-mdp,,4
"[{u'Q': 4, u'action': u'__TERM_ACTION__', u'Qs': {u'1': -4, u'9': 4, u'13': 4, u'5': -28}, u'state': [0, u'__', u'__', u'__', u'__', u'__', u'__', u'__', u'__', u'__', u'__', u'__', u'__', u'__', u'__', u'__', u'__'], u'V': 4}]","[1307, 3779, 4939]","[u'3', u'3', u'2']","[[0, u'__', u'__', u'__', u'__', u'__', u'__', u'__', u'__', u'__', u'__', u'__', u'__', u'__', u'__', u'__', u'__']]",,[0],[True],,[u'__TERM_ACTION__'],"[13, 14, 16]",[False],[False],"{u'mouseover': {u'state': {u'target': [], u'time': []}, u'edge': {u'target': [], u'time': []}}, u'click': {u'state': {u'target': [], u'time': []}, u'edge': {u'target': [], u'time': []}}, u'mouseout': {u'state': {u'target': [], u'time': []}, u'edge': {u'target': [], u'time': []}}}",,,"[1307, 1969, 646]",4.0,352128,3.0,0.0,mouselab-mdp,,4
"[{u'Q': -12, u'action': u'__TERM_ACTION__', u'Qs': {u'1': -12, u'9': -4, u'13': 12, u'5': 28}, u'state': [0, u'__', u'__', u'__', u'__', u'__', u'__', u'__', u'__', u'__', u'__', u'__', u'__', u'__', u'__', u'__', u'__'], u'V': 28}]","[709, 33542, 34781]","[u'0', u'0', u'3']","[[0, u'__', u'__', u'__', u'__', u'__', u'__', u'__', u'__', u'__', u'__', u'__', u'__', u'__', u'__', u'__', u'__']]",,[23],[True],,[u'__TERM_ACTION__'],"[1, 2, 4]",[True],[False],"{u'mouseover': {u'state': {u'target': [], u'time': []}, u'edge': {u'target': [], u'time': []}}, u'click': {u'state': {u'target': [], u'time': []}, u'edge': {u'target': [], u'time': []}}, u'mouseout': {u'state': {u'target': [], u'time': []}, u'edge': {u'target': [], u'time': []}}}",,,"[709, 9325, 733]",-12.0,426638,4.0,4.0,mouselab-mdp,,4
"[{u'Q': 4, u'action': u'__TERM_ACTION__', u'Qs': {u'1': 4, u'9': 20, u'13': -20, u'5': -4}, u'state': [0, u'__', u'__', u'__', u'__', u'__', u'__', u'__', u'__', u'__', u'__', u'__', u'__', u'__', u'__', u'__', u'__'], u'V': 20}]","[2010, 11714, 13754]","[u'0', u'0', u'1']","[[0, u'__', u'__', u'__', u'__', u'__', u'__', u'__', u'__', u'__', u'__', u'__', u'__', u'__', u'__', u'__', u'__']]",,[9],[True],,[u'__TERM_ACTION__'],"[1, 2, 3]",[True],[False],"{u'mouseover': {u'state': {u'target': [], u'time': []}, u'edge': {u'target': [], u'time': []}}, u'click': {u'state': {u'target': [], u'time': []}, u'edge': {u'target': [], u'time': []}}, u'mouseout': {u'state': {u'target': [], u'time': []}, u'edge': {u'target': [], u'time': []}}}",,,"[2010, 196, 1521]",-12.0,483074,5.0,8.0,mouselab-mdp,,4
"[{u'Q': 36, u'action': u'__TERM_ACTION__', u'Qs': {u'1': 20, u'9': 36, u'13': -4, u'5': -4}, u'state': [0, u'__', u'__', u'__', u'__', u'__', u'__', u'__', u'__', u'__', u'__', u'__', u'__', u'__', u'__', u'__', u'__'], u'V': 36}]","[2460, 4749, 6389]","[u'2', u'2', u'3']","[[0, u'__', u'__', u'__', u'__', u'__', u'__', u'__', u'__', u'__', u'__', u'__', u'__', u'__', u'__', u'__', u'__']]",,[0],[True],,[u'__TERM_ACTION__'],"[9, 10, 11]",[False],[False],"{u'mouseover': {u'state': {u'target': [], u'time': []}, u'edge': {u'target': [], u'time': []}}, u'click': {u'state': {u'target': [], u'time': []}, u'edge': {u'target': [], u'time': []}}, u'mouseout': {u'state': {u'target': [], u'time': []}, u'edge': {u'target': [], u'time': []}}}",,,"[2459, 1796, 1149]",36.0,533016,6.0,12.0,mouselab-mdp,,4
"[{u'Q': 36, u'action': u'__TERM_ACTION__', u'Qs': {u'1': -12, u'9': 12, u'13': -4, u'5': 36}, u'state': [0, u'__', u'__', u'__', u'__', u'__', u'__', u'__', u'__', u'__', u'__', u'__', u'__', u'__', u'__', u'__', u'__'], u'V': 36}]","[2341, 4019, 5227]","[u'1', u'1', u'2']","[[0, u'__', u'__', u'__', u'__', u'__', u'__', u'__', u'__', u'__', u'__', u'__', u'__', u'__', u'__', u'__', u'__']]",,[0],[True],,[u'__TERM_ACTION__'],"[5, 6, 7]",[False],[False],"{u'mouseover': {u'state': {u'target': [], u'time': []}, u'edge': {u'target': [], u'time': []}}, u'click': {u'state': {u'target': [], u'time': []}, u'edge': {u'target': [], u'time': []}}, u'mouseout': {u'state': {u'target': [], u'time': []}, u'edge': {u'target': [], u'time': []}}}",,,"[2341, 1161, 720]",28.0,581510,7.0,1.0,mouselab-mdp,,4
"[{u'Q': -12, u'action': u'__TERM_ACTION__', u'Qs': {u'1': -12, u'9': -4, u'13': -12, u'5': -20}, u'state': [0, u'__', u'__', u'__', u'__', u'__', u'__', u'__', u'__', u'__', u'__', u'__', u'__', u'__', u'__', u'__', u'__'], u'V': -4}]","[5607, 11672, 12951]","[u'0', u'0', u'3']","[[0, u'__', u'__', u'__', u'__', u'__', u'__', u'__', u'__', u'__', u'__', u'__', u'__', u'__', u'__', u'__', u'__']]",,[5],[True],,[u'__TERM_ACTION__'],"[1, 2, 4]",[True],[False],"{u'mouseover': {u'state': {u'target': [], u'time': []}, u'edge': {u'target': [], u'time': []}}, u'click': {u'state': {u'target': [], u'time': []}, u'edge': {u'target': [], u'time': []}}, u'mouseout': {u'state': {u'target': [], u'time': []}, u'edge': {u'target': [], u'time': []}}}",,,"[5607, 546, 792]",-12.0,636606,8.0,3.0,mouselab-mdp,,4
"[{u'Q': 4, u'action': u'__TERM_ACTION__', u'Qs': {u'1': -28, u'9': -4, u'13': 12, u'5': 4}, u'state': [0, u'__', u'__', u'__', u'__', u'__', u'__', u'__', u'__', u'__', u'__', u'__', u'__', u'__', u'__', u'__', u'__'], u'V': 12}]","[474, 16490, 17618]","[u'1', u'1', u'2']","[[0, u'__', u'__', u'__', u'__', u'__', u'__', u'__', u'__', u'__', u'__', u'__', u'__', u'__', u'__', u'__', u'__']]",,[5],[True],,[u'__TERM_ACTION__'],"[5, 6, 7]",[True],[False],"{u'mouseover': {u'state': {u'target': [], u'time': []}, u'edge': {u'target': [], u'time': []}}, u'click': {u'state': {u'target': [], u'time': []}, u'edge': {u'target': [], u'time': []}}, u'mouseout': {u'state': {u'target': [], u'time': []}, u'edge': {u'target': [], u'time': []}}}",,,"[474, 10500, 629]",-28.0,688253,9.0,9.0,mouselab-mdp,,4
"[{u'Q': 20, u'action': u'__TERM_ACTION__', u'Qs': {u'1': 20, u'9': 28, u'13': -4, u'5': 28}, u'state': [0, u'__', u'__', u'__', u'__', u'__', u'__', u'__', u'__', u'__', u'__', u'__', u'__', u'__', u'__', u'__', u'__'], u'V': 28}]","[322, 58227, 59626]","[u'0', u'0', u'1']","[[0, u'__', u'__', u'__', u'__', u'__', u'__', u'__', u'__', u'__', u'__', u'__', u'__', u'__', u'__', u'__', u'__']]",,[5],[True],,[u'__TERM_ACTION__'],"[1, 2, 3]",[True],[False],"{u'mouseover': {u'state': {u'target': [], u'time': []}, u'edge': {u'target': [], u'time': []}}, u'click': {u'state': {u'target': [], u'time': []}, u'edge': {u'target': [], u'time': []}}, u'mouseout': {u'state': {u'target': [], u'time': []}, u'edge': {u'target': [], u'time': []}}}",,,"[322, 52401, 885]",20.0,750790,10.0,5.0,mouselab-mdp,,4
,"[1989, 3181, 4020]","[u'1', u'1', u'2']","[[0, u'__', u'__', u'__', u'__', u'__', u'__', u'__', u'__', u'__', u'__', u'__', u'__', u'__', u'__', u'__', u'__']]",,[],[],,[u'__TERM_ACTION__'],"[5, 6, 7]",[],[],"{u'mouseover': {u'state': {u'target': [], u'time': []}, u'edge': {u'target': [], u'time': []}}, u'click': {u'state': {u'target': [], u'time': []}, u'edge': {u'target': [], u'time': []}}, u'mouseout': {u'state': {u'target': [], u'time': []}, u'edge': {u'target': [], u'time': []}}}",,,"[1989, 683, 323]",20.0,870779,11.0,7.0,mouselab-mdp,,4
,"[2635, 3802, 4818]","[u'0', u'0', u'1']","[[0, u'__', u'__', u'__', u'__', u'__', u'__', u'__', u'__', u'__', u'__', u'__', u'__', u'__', u'__', u'__', u'__']]",,[],[],,[u'__TERM_ACTION__'],"[1, 2, 3]",[],[],"{u'mouseover': {u'state': {u'target': [], u'time': []}, u'edge': {u'target': [], u'time': []}}, u'click': {u'state': {u'target': [], u'time': []}, u'edge': {u'target': [], u'time': []}}, u'mouseout': {u'state': {u'target': [], u'time': []}, u'edge': {u'target': [], u'time': []}}}",,,"[2635, 654, 520]",-4.0,918732,12.0,6.0,mouselab-mdp,,4
,"[1460, 2643, 3483]","[u'1', u'1', u'2']","[[0, u'__', u'__', u'__', u'__', u'__', u'__', u'__', u'__', u'__', u'__', u'__', u'__', u'__', u'__', u'__', u'__']]",,[],[],,[u'__TERM_ACTION__'],"[5, 6, 7]",[],[],"{u'mouseover': {u'state': {u'target': [], u'time': []}, u'edge': {u'target': [], u'time': []}}, u'click': {u'state': {u'target': [], u'time': []}, u'edge': {u'target': [], u'time': []}}, u'mouseout': {u'state': {u'target': [], u'time': []}, u'edge': {u'target': [], u'time': []}}}",,,"[1460, 679, 320]",-44.0,979964,13.0,10.0,mouselab-mdp,,4
,"[25719, 26671, 27431]","[u'0', u'0', u'1']","[[0, u'__', u'__', u'__', u'__', u'__', u'__', u'__', u'__', u'__', u'__', u'__', u'__', u'__', u'__', u'__', u'__']]",,[],[],,[u'__TERM_ACTION__'],"[1, 2, 3]",[],[],"{u'mouseover': {u'state': {u'target': [], u'time': []}, u'edge': {u'target': [], u'time': []}}, u'click': {u'state': {u'target': [], u'time': []}, u'edge': {u'target': [], u'time': []}}, u'mouseout': {u'state': {u'target': [], u'time': []}, u'edge': {u'target': [], u'time': []}}}",,,"[25719, 462, 272]",12.0,1033195,14.0,15.0,mouselab-mdp,,4
,"[1844, 2860, 3732]","[u'2', u'2', u'1']","[[0, u'__', u'__', u'__', u'__', u'__', u'__', u'__', u'__', u'__', u'__', u'__', u'__', u'__', u'__', u'__', u'__']]",,[],[],,[u'__TERM_ACTION__'],"[9, 10, 12]",[],[],"{u'mouseover': {u'state': {u'target': [], u'time': []}, u'edge': {u'target': [], u'time': []}}, u'click': {u'state': {u'target': [], u'time': []}, u'edge': {u'target': [], u'time': []}}, u'mouseout': {u'state': {u'target': [], u'time': []}, u'edge': {u'target': [], u'time': []}}}",,,"[1844, 518, 374]",12.0,1080357,15.0,14.0,mouselab-mdp,,4
,"[327, 1728, 2728]","[u'0', u'0', u'1']","[[0, u'__', u'__', u'__', u'__', u'__', u'__', u'__', u'__', u'__', u'__', u'__', u'__', u'__', u'__', u'__', u'__']]",,[],[],,[u'__TERM_ACTION__'],"[1, 2, 3]",[],[],"{u'mouseover': {u'state': {u'target': [], u'time': []}, u'edge': {u'target': [], u'time': []}}, u'click': {u'state': {u'target': [], u'time': []}, u'edge': {u'target': [], u'time': []}}, u'mouseout': {u'state': {u'target': [], u'time': []}, u'edge': {u'target': [], u'time': []}}}",,,"[327, 901, 482]",-12.0,1127483,16.0,11.0,mouselab-mdp,,4
"[{u'Q': 36, u'action': u'__TERM_ACTION__', u'Qs': {u'1': 20, u'9': 36, u'13': -4, u'5': -4}, u'state': [0, 4, 4, 12, 12, -20, -4, 4, 20, 20, 4, 12, 4, -4, -4, 4, 4], u'V': 36}]","[46782, 48109, 49317]","[u'2', u'2', u'3']","[[0, u'__', u'__', u'__', u'__', u'__', u'__', u'__', u'__', u'__', u'__', u'__', u'__', u'__', u'__', u'__', u'__'], [0, u'__', u'__', u'__', u'__', -20, u'__', u'__', u'__', u'__', u'__', u'__', u'__', u'__', u'__', u'__', u'__'], [0, u'__', u'__', u'__', u'__', -20, u'__', u'__', u'__', 20, u'__', u'__', u'__', u'__', u'__', u'__', u'__'], [0, u'__', u'__', u'__', u'__', -20, u'__', u'__', u'__', 20, u'__', u'__', u'__', -4, u'__', u'__', u'__'], [0, 4, u'__', u'__', u'__', -20, u'__', u'__', u'__', 20, u'__', u'__', u'__', -4, u'__', u'__', u'__'], [0, 4, 4, u'__', u'__', -20, u'__', u'__', u'__', 20, u'__', u'__', u'__', -4, u'__', u'__', u'__'], [0, 4, 4, u'__', 12, -20, u'__', u'__', u'__', 20, u'__', u'__', u'__', -4, u'__', u'__', u'__'], [0, 4, 4, 12, 12, -20, u'__', u'__', u'__', 20, u'__', u'__', u'__', -4, u'__', u'__', u'__'], [0, 4, 4, 12, 12, -20, u'__', u'__', u'__', 20, 4, u'__', u'__', -4, u'__', u'__', u'__'], [0, 4, 4, 12, 12, -20, u'__', u'__', u'__', 20, 4, 12, u'__', -4, u'__', u'__', u'__'], [0, 4, 4, 12, 12, -20, u'__', u'__', u'__', 20, 4, 12, 4, -4, u'__', u'__', u'__'], [0, 4, 4, 12, 12, -20, u'__', 4, u'__', 20, 4, 12, 4, -4, u'__', u'__', u'__'], [0, 4, 4, 12, 12, -20, -4, 4, u'__', 20, 4, 12, 4, -4, u'__', u'__', u'__'], [0, 4, 4, 12, 12, -20, -4, 4, 20, 20, 4, 12, 4, -4, u'__', u'__', u'__'], [0, 4, 4, 12, 12, -20, -4, 4, 20, 20, 4, 12, 4, -4, u'__', 4, u'__'], [0, 4, 4, 12, 12, -20, -4, 4, 20, 20, 4, 12, 4, -4, -4, 4, u'__'], [0, 4, 4, 12, 12, -20, -4, 4, 20, 20, 4, 12, 4, -4, -4, 4, 4]]",,[0],[True],,"[5, 9, 13, 1, 2, 4, 3, 10, 11, 12, 7, 6, 8, 15, 14, 16, u'__TERM_ACTION__']","[9, 10, 11]",[False],[False],"{u'mouseover': {u'state': {u'target': [], u'time': []}, u'edge': {u'target': [], u'time': []}}, u'click': {u'state': {u'target': [5, 9, 13, 1, 2, 4, 3, 10, 11, 12, 7, 6, 8, 15, 14, 16], u'time': [4846, 7836, 8772, 9642, 14210, 16454, 17427, 18667, 19093, 19676, 21291, 21731, 22203, 23212, 23883, 24451]}, u'edge': {u'target': [], u'time': []}}, u'mouseout': {u'state': {u'target': [], u'time': []}, u'edge': {u'target': [], u'time': []}}}",,,"[46781, 812, 689]",35.84,286842,1.0,12.0,mouselab-mdp,,5
"[{u'Q': 28, u'action': u'__TERM_ACTION__', u'Qs': {u'1': 20, u'9': 28, u'13': 12, u'5': 12}, u'state': [0, 12, 4, -20, 4, -4, 4, 12, -4, 12, 4, -20, 12, 4, 20, -12, -12], u'V': 28}]","[24730, 25603, 26411]","[u'2', u'2', u'1']","[[0, u'__', u'__', u'__', u'__', u'__', u'__', u'__', u'__', u'__', u'__', u'__', u'__', u'__', u'__', u'__', u'__'], [0, u'__', u'__', u'__', u'__', u'__', u'__', u'__', u'__', 12, u'__', u'__', u'__', u'__', u'__', u'__', u'__'], [0, u'__', u'__', u'__', u'__', u'__', u'__', u'__', u'__', 12, u'__', u'__', u'__', 4, u'__', u'__', u'__'], [0, u'__', u'__', u'__', u'__', -4, u'__', u'__', u'__', 12, u'__', u'__', u'__', 4, u'__', u'__', u'__'], [0, 12, u'__', u'__', u'__', -4, u'__', u'__', u'__', 12, u'__', u'__', u'__', 4, u'__', u'__', u'__'], [0, 12, 4, u'__', u'__', -4, u'__', u'__', u'__', 12, u'__', u'__', u'__', 4, u'__', u'__', u'__'], [0, 12, 4, u'__', 4, -4, u'__', u'__', u'__', 12, u'__', u'__', u'__', 4, u'__', u'__', u'__'], [0, 12, 4, -20, 4, -4, u'__', u'__', u'__', 12, u'__', u'__', u'__', 4, u'__', u'__', u'__'], [0, 12, 4, -20, 4, -4, u'__', u'__', u'__', 12, 4, u'__', u'__', 4, u'__', u'__', u'__'], [0, 12, 4, -20, 4, -4, u'__', u'__', u'__', 12, 4, -20, u'__', 4, u'__', u'__', u'__'], [0, 12, 4, -20, 4, -4, u'__', u'__', u'__', 12, 4, -20, 12, 4, u'__', u'__', u'__'], [0, 12, 4, -20, 4, -4, u'__', u'__', u'__', 12, 4, -20, 12, 4, 20, u'__', u'__'], [0, 12, 4, -20, 4, -4, u'__', u'__', u'__', 12, 4, -20, 12, 4, 20, u'__', -12], [0, 12, 4, -20, 4, -4, u'__', u'__', u'__', 12, 4, -20, 12, 4, 20, -12, -12], [0, 12, 4, -20, 4, -4, 4, u'__', u'__', 12, 4, -20, 12, 4, 20, -12, -12], [0, 12, 4, -20, 4, -4, 4, 12, u'__', 12, 4, -20, 12, 4, 20, -12, -12], [0, 12, 4, -20, 4, -4, 4, 12, -4, 12, 4, -20, 12, 4, 20, -12, -12]]",,[0],[True],,"[9, 13, 5, 1, 2, 4, 3, 10, 11, 12, 14, 16, 15, 6, 7, 8, u'__TERM_ACTION__']","[9, 10, 12]",[False],[False],"{u'mouseover': {u'state': {u'target': [], u'time': []}, u'edge': {u'target': [], u'time': []}}, u'click': {u'state': {u'target': [9, 13, 5, 1, 2, 4, 3, 10, 11, 12, 14, 16, 15, 6, 7, 8], u'time': [2578, 3289, 4370, 4930, 7121, 8250, 8946, 10706, 11273, 11929, 14643, 15402, 16082, 19003, 19626, 20145]}, u'edge': {u'target': [], u'time': []}}, u'mouseout': {u'state': {u'target': [], u'time': []}, u'edge': {u'target': [], u'time': []}}}",,,"[24730, 358, 299]",27.84,341856,2.0,6.0,mouselab-mdp,,5
