p_rdata,action_times,actions,beliefs,correct,delays,information_used_correctly,key_press,meta_actions,path,planned_too_little,planned_too_much,queries,questions,responses,rt,score,time_elapsed,trial_index,trial_id,trial_type,view_history,pid
,,,,"[True, True, True, True, True]",,,,,,,,,"[""True or false: The hidden values will change each time I start a new round."",""How much does it cost to observe each hidden value?"",""How many hidden values am I allowed to observe in each round?"",""How is your bonus determined?"",""What does the feedback teach you?""]","[""True"",""$0.01"",""As many or as few as I wish"",""1 cent for every $1 I earn in each round"",""All of the above.""]",36184,,87770,,,survey-multi-choice,,0
,,,,"[True, True, True, True]",,,,,,,,,"[""True or false: The hidden values will change each time I start a new round."",""How much does it cost to observe each hidden value?"",""How many hidden values am I allowed to observe in each round?"",""How is your bonus determined?""]","[""True"",""$1.00"",""As many or as few as I wish"",""1 cent for every $1 I earn in each round""]",44585,,376818,,,survey-multi-choice,,1
,,,,"[True, True, True, True, False]",,,,,,,,,"[""True or false: The hidden values will change each time I start a new round."",""How much does it cost to observe each hidden value?"",""How many hidden values am I allowed to observe in each round?"",""How is your bonus determined?"",""What does the feedback teach you?""]","[""True"",""$0.01"",""As many or as few as I wish"",""1 cent for every $1 I earn in each round"",""Whether I chose the move that was best according to the information I had.""]",43383,,171479,,,survey-multi-choice,,2
,,,,"[True, True, True, True, False]",,,,,,,,,"[""True or false: The hidden values will change each time I start a new round."",""How much does it cost to observe each hidden value?"",""How many hidden values am I allowed to observe in each round?"",""How is your bonus determined?"",""What does the feedback teach you?""]","[""True"",""$0.01"",""As many or as few as I wish"",""1 cent for every $1 I earn in each round"",""Whether I chose the move that was best according to the information I had.""]",17386,,226759,,,survey-multi-choice,,2
,,,,"[True, True, True, True, False]",,,,,,,,,"[""True or false: The hidden values will change each time I start a new round."",""How much does it cost to observe each hidden value?"",""How many hidden values am I allowed to observe in each round?"",""How is your bonus determined?"",""What does the feedback teach you?""]","[""True"",""$0.01"",""As many or as few as I wish"",""1 cent for every $1 I earn in each round"",""The length of the delay is based on how much more money I could have earned by planning and deciding better.""]",36130,,337469,,,survey-multi-choice,,2
,,,,"[True, True, True, True, True]",,,,,,,,,"[""True or false: The hidden values will change each time I start a new round."",""How much does it cost to observe each hidden value?"",""How many hidden values am I allowed to observe in each round?"",""How is your bonus determined?"",""What does the feedback teach you?""]","[""True"",""$0.01"",""As many or as few as I wish"",""1 cent for every $1 I earn in each round"",""All of the above.""]",20808,,381106,,,survey-multi-choice,,2
,,,,"[True, True, True, True, True]",,,,,,,,,"[""True or false: The hidden values will change each time I start a new round."",""How much does it cost to observe each hidden value?"",""How many hidden values am I allowed to observe in each round?"",""How is your bonus determined?"",""What does the feedback teach you?""]","[""True"",""$1.00"",""As many or as few as I wish"",""1 cent for every $1 I earn in each round"",""All of the above.""]",30311,,247129,,,survey-multi-choice,,3
,,,,"[True, True, False, True, False]",,,,,,,,,"[""True or false: The hidden values will change each time I start a new round."",""How much does it cost to observe each hidden value?"",""How many hidden values am I allowed to observe in each round?"",""How is your bonus determined?"",""What does the feedback teach you?""]","[""True"",""$1.00"",""At most 1"",""1 cent for every $1 I earn in each round"",""The length of the delay is based on how much more money I could have earned.""]",20905,,80931,,,survey-multi-choice,,4
,,,,"[True, True, True, True, False]",,,,,,,,,"[""True or false: The hidden values will change each time I start a new round."",""How much does it cost to observe each hidden value?"",""How many hidden values am I allowed to observe in each round?"",""How is your bonus determined?"",""What does the feedback teach you?""]","[""True"",""$1.00"",""As many or as few as I wish"",""1 cent for every $1 I earn in each round"",""The length of the delay is based on how much more money I could have earned.""]",14002,,115292,,,survey-multi-choice,,4
,,,,"[True, True, True, True, True]",,,,,,,,,"[""True or false: The hidden values will change each time I start a new round."",""How much does it cost to observe each hidden value?"",""How many hidden values am I allowed to observe in each round?"",""How is your bonus determined?"",""What does the feedback teach you?""]","[""True"",""$1.00"",""As many or as few as I wish"",""1 cent for every $1 I earn in each round"",""All of the above.""]",8912,,146181,,,survey-multi-choice,,4
,,,,"[True, True, True, True, True]",,,,,,,,,"[""True or false: The hidden values will change each time I start a new round."",""How much does it cost to observe each hidden value?"",""How many hidden values am I allowed to observe in each round?"",""How is your bonus determined?"",""What does the feedback teach you?""]","[""True"",""$0.01"",""As many or as few as I wish"",""1 cent for every $1 I earn in each round"",""All of the above.""]",37009,,231566,,,survey-multi-choice,,5
,,,,"[True, True, True, True]",,,,,,,,,"[""True or false: The hidden values will change each time I start a new round."",""How much does it cost to observe each hidden value?"",""How many hidden values am I allowed to observe in each round?"",""How is your bonus determined?""]","[""True"",""$0.01"",""As many or as few as I wish"",""1 cent for every $1 I earn in each round""]",10854,,85001,,,survey-multi-choice,,6
,,,,"[True, True, True, True]",,,,,,,,,"[""True or false: The hidden values will change each time I start a new round."",""How much does it cost to observe each hidden value?"",""How many hidden values am I allowed to observe in each round?"",""How is your bonus determined?""]","[""True"",""$1.00"",""As many or as few as I wish"",""1 cent for every $1 I earn in each round""]",36195,,391018,,,survey-multi-choice,,7
,,,,"[True, True, True, True, True]",,,,,,,,,"[""True or false: The hidden values will change each time I start a new round."",""How much does it cost to observe each hidden value?"",""How many hidden values am I allowed to observe in each round?"",""How is your bonus determined?"",""What does the feedback teach you?""]","[""True"",""$1.00"",""As many or as few as I wish"",""1 cent for every $1 I earn in each round"",""All of the above.""]",29528,,138350,,,survey-multi-choice,,8
,,,,"[True, True, True, True, True]",,,,,,,,,"[""True or false: The hidden values will change each time I start a new round."",""How much does it cost to observe each hidden value?"",""How many hidden values am I allowed to observe in each round?"",""How is your bonus determined?"",""What does the feedback teach you?""]","[""True"",""$0.01"",""As many or as few as I wish"",""1 cent for every $1 I earn in each round"",""All of the above.""]",28835,,225415,,,survey-multi-choice,,9
,,,,"[True, True, True, True, True]",,,,,,,,,"[""True or false: The hidden values will change each time I start a new round."",""How much does it cost to observe each hidden value?"",""How many hidden values am I allowed to observe in each round?"",""How is your bonus determined?"",""What does the feedback teach you?""]","[""True"",""$1.00"",""As many or as few as I wish"",""1 cent for every $1 I earn in each round"",""All of the above.""]",18055,,98137,,,survey-multi-choice,,10
,,,,"[True, True, False, True]",,,,,,,,,"[""True or false: The hidden values will change each time I start a new round."",""How much does it cost to observe each hidden value?"",""How many hidden values am I allowed to observe in each round?"",""How is your bonus determined?""]","[""True"",""$1.00"",""At most 1"",""1 cent for every $1 I earn in each round""]",29208,,115987,,,survey-multi-choice,,11
,,,,"[True, True, True, True]",,,,,,,,,"[""True or false: The hidden values will change each time I start a new round."",""How much does it cost to observe each hidden value?"",""How many hidden values am I allowed to observe in each round?"",""How is your bonus determined?""]","[""True"",""$1.00"",""As many or as few as I wish"",""1 cent for every $1 I earn in each round""]",94673,,272668,,,survey-multi-choice,,11
,,,,"[True, True, True, True, True]",,,,,,,,,"[""True or false: The hidden values will change each time I start a new round."",""How much does it cost to observe each hidden value?"",""How many hidden values am I allowed to observe in each round?"",""How is your bonus determined?"",""What does the feedback teach you?""]","[""True"",""$1.00"",""As many or as few as I wish"",""1 cent for every $1 I earn in each round"",""All of the above.""]",23347,,283419,,,survey-multi-choice,,12
,,,,"[False, True, True, True]",,,,,,,,,"[""True or false: The hidden values will change each time I start a new round."",""How much does it cost to observe each hidden value?"",""How many hidden values am I allowed to observe in each round?"",""How is your bonus determined?""]","[""False"",""$1.00"",""As many or as few as I wish"",""1 cent for every $1 I earn in each round""]",21996,,79166,,,survey-multi-choice,,13
,,,,"[False, True, True, True]",,,,,,,,,"[""True or false: The hidden values will change each time I start a new round."",""How much does it cost to observe each hidden value?"",""How many hidden values am I allowed to observe in each round?"",""How is your bonus determined?""]","[""False"",""$1.00"",""As many or as few as I wish"",""1 cent for every $1 I earn in each round""]",10106,,117840,,,survey-multi-choice,,13
,,,,"[True, True, True, True]",,,,,,,,,"[""True or false: The hidden values will change each time I start a new round."",""How much does it cost to observe each hidden value?"",""How many hidden values am I allowed to observe in each round?"",""How is your bonus determined?""]","[""True"",""$1.00"",""As many or as few as I wish"",""1 cent for every $1 I earn in each round""]",6209,,140125,,,survey-multi-choice,,13
