action_times,actions,button_pressed,correct,delays,information_used_correctly,path,planned_too_little,planned_too_much,queries,questions,responses,rt,score,stimulus,time_elapsed,trial_index,trial_i,trial_type,view_history,pid
,,0.0,,,,,,,,,,8065,,"<h1 id=""stage1notcompleted"">Stage 1 not completed</h1>

<p>We can't find you in our database. This is the second part of a two-part
experiment. If you did not complete the first stage yesterday, please
return this HIT. If you did complete Stage 1 yesterday, please email
cocosci.turk@gmail.com and include the secret code you received
when you completed that HIT.</p>",8186,,,button-response,,0
,,0.0,,,,,,,,,,2841,,"<h1 id=""youvecompletedthehit"">You've completed the HIT</h1>

<p>Thanks again for participating. We hope you had fun!</p>

<p>Based on your performance, you will be
awarded a bonus of <strong>$0.37</strong>.</p>",171577,,,button-response,,0
,,0.0,,,,,,,,,,13615,,"<h1 id=""stage1notcompleted"">Stage 1 not completed</h1>

<p>We can't find you in our database. This is the second part of a two-part
experiment. If you did not complete the first stage yesterday, please
return this HIT. If you did complete Stage 1 yesterday, please email
cocosci.turk@gmail.com and include the secret code you received
when you completed that HIT.</p>",13731,,,button-response,,0
,,0.0,,,,,,,,,,4851,,"<h1 id=""youvecompletedthehit"">You've completed the HIT</h1>

<p>Thanks again for participating. We hope you had fun!</p>

<p>Based on your performance, you will be
awarded a bonus of <strong>$0.25</strong>.</p>",201609,,,button-response,,0
,,0.0,,,,,,,,,,780,,"<h1 id=""stage1notcompleted"">Stage 1 not completed</h1>

<p>We can't find you in our database. This is the second part of a two-part
experiment. If you did not complete the first stage yesterday, please
return this HIT. If you did complete Stage 1 yesterday, please email
cocosci.turk@gmail.com and include the secret code you received
when you completed that HIT.</p>",1094,,,button-response,,1
,,0.0,,,,,,,,,,1354,,"<h1 id=""youvecompletedthehit"">You've completed the HIT</h1>

<p>Thanks again for participating. We hope you had fun!</p>

<p>Based on your performance, you will be
awarded a bonus of <strong>$0.37</strong>.</p>",488609,,,button-response,,1
,,0.0,,,,,,,,,,1876,,"<h1 id=""stage1notcompleted"">Stage 1 not completed</h1>

<p>We can't find you in our database. This is the second part of a two-part
experiment. If you did not complete the first stage yesterday, please
return this HIT. If you did complete Stage 1 yesterday, please email
cocosci.turk@gmail.com and include the secret code you received
when you completed that HIT.</p>",1989,,,button-response,,2
,,0.0,,,,,,,,,,5002,,"<h1 id=""youvecompletedthehit"">You've completed the HIT</h1>

<p>Thanks again for participating. We hope you had fun!</p>

<p>Based on your performance, you will be
awarded a bonus of <strong>$0.17</strong>.</p>",478353,,,button-response,,2
