p_rdata,action_times,actions,beliefs,correct,delays,information_used_correctly,key_press,meta_actions,path,planned_too_little,planned_too_much,queries,questions,responses,rt,score,time_elapsed,trial_index,trial_id,trial_type,view_history,pid
,,,,,,,,,,,,,,,109053,,109054,,,instructions,"[{""page_index"":0,""viewing_time"":33561},{""page_index"":1,""viewing_time"":33086},{""page_index"":2,""viewing_time"":17492},{""page_index"":3,""viewing_time"":24913}]",0
,,,,,,,,,,,,,,,457221,,457226,,,instructions,"[{""page_index"":0,""viewing_time"":152531},{""page_index"":1,""viewing_time"":109204},{""page_index"":2,""viewing_time"":128770},{""page_index"":3,""viewing_time"":66713}]",1
,,,,,,,,,,,,,,,35151,,634756,,,instructions,"[{""page_index"":0,""viewing_time"":9729},{""page_index"":1,""viewing_time"":10984},{""page_index"":2,""viewing_time"":12515},{""page_index"":3,""viewing_time"":1920}]",1
,,,,,,,,,,,,,,,196711,,196714,,,instructions,"[{""page_index"":0,""viewing_time"":75444},{""page_index"":1,""viewing_time"":66564},{""page_index"":2,""viewing_time"":35443},{""page_index"":3,""viewing_time"":19259}]",2
,,,,,,,,,,,,,,,286427,,286428,,,instructions,"[{""page_index"":0,""viewing_time"":232177},{""page_index"":1,""viewing_time"":14278},{""page_index"":2,""viewing_time"":26661},{""page_index"":3,""viewing_time"":13309}]",3
,,,,,,,,,,,,,,,138469,,138469,,,instructions,"[{""page_index"":0,""viewing_time"":33619},{""page_index"":1,""viewing_time"":54112},{""page_index"":2,""viewing_time"":33643},{""page_index"":3,""viewing_time"":17094}]",4
,,,,,,,,,,,,,,,245663,,245663,,,instructions,"[{""page_index"":0,""viewing_time"":143422},{""page_index"":1,""viewing_time"":57576},{""page_index"":2,""viewing_time"":44663}]",5
,,,,,,,,,,,,,,,131112,,131113,,,instructions,"[{""page_index"":0,""viewing_time"":40263},{""page_index"":1,""viewing_time"":72207},{""page_index"":2,""viewing_time"":9921},{""page_index"":3,""viewing_time"":8720}]",6
,,,,,,,,,,,,,,,25198,,189536,,,instructions,"[{""page_index"":0,""viewing_time"":14783},{""page_index"":1,""viewing_time"":4096},{""page_index"":2,""viewing_time"":4439},{""page_index"":3,""viewing_time"":1879}]",6
,,,,,,,,,,,,,,,90461,,90463,,,instructions,"[{""page_index"":0,""viewing_time"":22469},{""page_index"":1,""viewing_time"":26648},{""page_index"":2,""viewing_time"":28303},{""page_index"":3,""viewing_time"":13041}]",7
,,,,,,,,,,,,,,,254361,,254362,,,instructions,"[{""page_index"":0,""viewing_time"":115135},{""page_index"":1,""viewing_time"":25900},{""page_index"":2,""viewing_time"":30104},{""page_index"":3,""viewing_time"":83218}]",8
,,,,,,,,,,,,,,,6292,,367068,,,instructions,"[{""page_index"":0,""viewing_time"":3405},{""page_index"":1,""viewing_time"":1410},{""page_index"":2,""viewing_time"":684},{""page_index"":3,""viewing_time"":793}]",8
,,,,,,,,,,,,,,,60024,,60025,,,instructions,"[{""page_index"":0,""viewing_time"":27210},{""page_index"":1,""viewing_time"":21974},{""page_index"":2,""viewing_time"":10839}]",9
,,,,,,,,,,,,,,,31668,,120430,,,instructions,"[{""page_index"":0,""viewing_time"":5066},{""page_index"":1,""viewing_time"":22344},{""page_index"":2,""viewing_time"":4257}]",9
,,,,,,,,,,,,,,,153863,,153864,,,instructions,"[{""page_index"":0,""viewing_time"":50119},{""page_index"":1,""viewing_time"":51496},{""page_index"":2,""viewing_time"":23423},{""page_index"":3,""viewing_time"":28825}]",10
,,,,,,,,,,,,,,,375812,,375814,,,instructions,"[{""page_index"":0,""viewing_time"":75128},{""page_index"":1,""viewing_time"":241869},{""page_index"":2,""viewing_time"":58814}]",11
,,,,,,,,,,,,,,,307782,,307783,,,instructions,"[{""page_index"":0,""viewing_time"":180197},{""page_index"":1,""viewing_time"":78407},{""page_index"":2,""viewing_time"":49177}]",12
,,,,,,,,,,,,,,,134562,,513093,,,instructions,"[{""page_index"":0,""viewing_time"":50690},{""page_index"":1,""viewing_time"":43817},{""page_index"":2,""viewing_time"":40055}]",12
,,,,,,,,,,,,,,,369230,,369231,,,instructions,"[{""page_index"":0,""viewing_time"":65747},{""page_index"":1,""viewing_time"":52897},{""page_index"":2,""viewing_time"":66899},{""page_index"":3,""viewing_time"":45273},{""page_index"":2,""viewing_time"":1576},{""page_index"":1,""viewing_time"":936},{""page_index"":0,""viewing_time"":32153},{""page_index"":1,""viewing_time"":15378},{""page_index"":2,""viewing_time"":21472},{""page_index"":1,""viewing_time"":14649},{""page_index"":2,""viewing_time"":40441},{""page_index"":3,""viewing_time"":11809}]",13
,,,,,,,,,,,,,,,69841,,473019,,,instructions,"[{""page_index"":0,""viewing_time"":36911},{""page_index"":1,""viewing_time"":29905},{""page_index"":2,""viewing_time"":2423},{""page_index"":3,""viewing_time"":601}]",13
,,,,,,,,,,,,,,,67762,,588471,,,instructions,"[{""page_index"":0,""viewing_time"":39432},{""page_index"":1,""viewing_time"":2745},{""page_index"":2,""viewing_time"":22832},{""page_index"":3,""viewing_time"":2753}]",13
,,,,,,,,,,,,,,,144603,,819320,,,instructions,"[{""page_index"":0,""viewing_time"":88241},{""page_index"":1,""viewing_time"":48745},{""page_index"":2,""viewing_time"":6929},{""page_index"":3,""viewing_time"":687}]",13
,,,,,,,,,,,,,,,7755,,843225,,,instructions,"[{""page_index"":0,""viewing_time"":3298},{""page_index"":1,""viewing_time"":1200},{""page_index"":2,""viewing_time"":640},{""page_index"":3,""viewing_time"":2617}]",13
,,,,,,,,,,,,,,,65438,,65439,,,instructions,"[{""page_index"":0,""viewing_time"":22530},{""page_index"":1,""viewing_time"":7783},{""page_index"":0,""viewing_time"":2589},{""page_index"":1,""viewing_time"":14625},{""page_index"":2,""viewing_time"":9180},{""page_index"":3,""viewing_time"":8730}]",14
,,,,,,,,,,,,,,,165530,,254496,,,instructions,"[{""page_index"":0,""viewing_time"":144672},{""page_index"":1,""viewing_time"":10170},{""page_index"":2,""viewing_time"":3443},{""page_index"":3,""viewing_time"":7244}]",14
,,,,,,,,,,,,,,,48077,,322300,,,instructions,"[{""page_index"":0,""viewing_time"":1862},{""page_index"":1,""viewing_time"":4927},{""page_index"":2,""viewing_time"":15975},{""page_index"":1,""viewing_time"":3994},{""page_index"":2,""viewing_time"":2126},{""page_index"":1,""viewing_time"":574},{""page_index"":0,""viewing_time"":10429},{""page_index"":1,""viewing_time"":2936},{""page_index"":2,""viewing_time"":1248},{""page_index"":3,""viewing_time"":4005}]",14
,,,,,,,,,,,,,,,76688,,416328,,,instructions,"[{""page_index"":0,""viewing_time"":15487},{""page_index"":1,""viewing_time"":25234},{""page_index"":2,""viewing_time"":25032},{""page_index"":3,""viewing_time"":10935}]",14
,,,,,,,,,,,,,,,91464,,91467,,,instructions,"[{""page_index"":0,""viewing_time"":39533},{""page_index"":1,""viewing_time"":32400},{""page_index"":2,""viewing_time"":19528}]",15
,,,,,,,,,,,,,,,103108,,103108,,,instructions,"[{""page_index"":0,""viewing_time"":53358},{""page_index"":1,""viewing_time"":26066},{""page_index"":2,""viewing_time"":13444},{""page_index"":3,""viewing_time"":10239}]",16
,,,,,,,,,,,,,,,49365,,188033,,,instructions,"[{""page_index"":0,""viewing_time"":10142},{""page_index"":1,""viewing_time"":10202},{""page_index"":2,""viewing_time"":17170},{""page_index"":3,""viewing_time"":11851}]",16
,,,,,,,,,,,,,,,109002,,109004,,,instructions,"[{""page_index"":0,""viewing_time"":42369},{""page_index"":1,""viewing_time"":29674},{""page_index"":2,""viewing_time"":23240},{""page_index"":1,""viewing_time"":4998},{""page_index"":0,""viewing_time"":3223},{""page_index"":1,""viewing_time"":2262},{""page_index"":2,""viewing_time"":3235}]",17
,,,,,,,,,,,,,,,120626,,120628,,,instructions,"[{""page_index"":0,""viewing_time"":60042},{""page_index"":1,""viewing_time"":17886},{""page_index"":2,""viewing_time"":24668},{""page_index"":3,""viewing_time"":18029}]",18
,,,,,,,,,,,,,,,55023,,198657,,,instructions,"[{""page_index"":0,""viewing_time"":8582},{""page_index"":1,""viewing_time"":33085},{""page_index"":2,""viewing_time"":10423},{""page_index"":3,""viewing_time"":2932}]",18
,,,,,,,,,,,,,,,124664,,124665,,,instructions,"[{""page_index"":0,""viewing_time"":77711},{""page_index"":1,""viewing_time"":29089},{""page_index"":2,""viewing_time"":17861}]",19
,,,,,,,,,,,,,,,164365,,164367,,,instructions,"[{""page_index"":0,""viewing_time"":106562},{""page_index"":1,""viewing_time"":32932},{""page_index"":2,""viewing_time"":24869}]",20
,,,,,,,,,,,,,,,12337,,212613,,,instructions,"[{""page_index"":0,""viewing_time"":6736},{""page_index"":1,""viewing_time"":3994},{""page_index"":2,""viewing_time"":1606}]",20
,,,,,,,,,,,,,,,342011,,342012,,,instructions,"[{""page_index"":0,""viewing_time"":262474},{""page_index"":1,""viewing_time"":33464},{""page_index"":2,""viewing_time"":27435},{""page_index"":3,""viewing_time"":18637}]",21
,,,,,,,,,,,,,,,224823,,224826,,,instructions,"[{""page_index"":0,""viewing_time"":98064},{""page_index"":1,""viewing_time"":49834},{""page_index"":2,""viewing_time"":42336},{""page_index"":3,""viewing_time"":34587}]",22
,,,,,,,,,,,,,,,190785,,472648,,,instructions,"[{""page_index"":0,""viewing_time"":54051},{""page_index"":1,""viewing_time"":45020},{""page_index"":2,""viewing_time"":2340},{""page_index"":1,""viewing_time"":21998},{""page_index"":2,""viewing_time"":55042},{""page_index"":3,""viewing_time"":12332}]",22
,,,,,,,,,,,,,,,100121,,100123,,,instructions,"[{""page_index"":0,""viewing_time"":32427},{""page_index"":1,""viewing_time"":28076},{""page_index"":2,""viewing_time"":17421},{""page_index"":3,""viewing_time"":22191}]",23
,,,,,,,,,,,,,,,66875,,204175,,,instructions,"[{""page_index"":0,""viewing_time"":8713},{""page_index"":1,""viewing_time"":15371},{""page_index"":2,""viewing_time"":29602},{""page_index"":3,""viewing_time"":13188}]",23
,,,,,,,,,,,,,,,220387,,220390,,,instructions,"[{""page_index"":0,""viewing_time"":80889},{""page_index"":1,""viewing_time"":49142},{""page_index"":2,""viewing_time"":53522},{""page_index"":3,""viewing_time"":36832}]",24
,,,,,,,,,,,,,,,163492,,163493,,,instructions,"[{""page_index"":0,""viewing_time"":38126},{""page_index"":1,""viewing_time"":42682},{""page_index"":2,""viewing_time"":53132},{""page_index"":3,""viewing_time"":29539}]",25
,,,,,,,,,,,,,,,156055,,156055,,,instructions,"[{""page_index"":0,""viewing_time"":52976},{""page_index"":1,""viewing_time"":39794},{""page_index"":2,""viewing_time"":34944},{""page_index"":3,""viewing_time"":28340}]",26
,,,,,,,,,,,,,,,125778,,349863,,,instructions,"[{""page_index"":0,""viewing_time"":66389},{""page_index"":1,""viewing_time"":31954},{""page_index"":2,""viewing_time"":16707},{""page_index"":3,""viewing_time"":10726}]",26
,,,,,,,,,,,,,,,10839,,389417,,,instructions,"[{""page_index"":0,""viewing_time"":3688},{""page_index"":1,""viewing_time"":4033},{""page_index"":2,""viewing_time"":1863},{""page_index"":3,""viewing_time"":1254}]",26
,,,,,,,,,,,,,,,229543,,229544,,,instructions,"[{""page_index"":0,""viewing_time"":75104},{""page_index"":1,""viewing_time"":58730},{""page_index"":2,""viewing_time"":54255},{""page_index"":3,""viewing_time"":41454}]",27
,,,,,,,,,,,,,,,106111,,106114,,,instructions,"[{""page_index"":0,""viewing_time"":26919},{""page_index"":1,""viewing_time"":37747},{""page_index"":2,""viewing_time"":26540},{""page_index"":3,""viewing_time"":14902}]",28
,,,,,,,,,,,,,,,86735,,86738,,,instructions,"[{""page_index"":0,""viewing_time"":38514},{""page_index"":1,""viewing_time"":25865},{""page_index"":2,""viewing_time"":13384},{""page_index"":3,""viewing_time"":8970}]",29
,,,,,,,,,,,,,,,24852,,144970,,,instructions,"[{""page_index"":0,""viewing_time"":9176},{""page_index"":1,""viewing_time"":3863},{""page_index"":2,""viewing_time"":10254},{""page_index"":3,""viewing_time"":1557}]",29
,,,,,,,,,,,,,,,200990,,200992,,,instructions,"[{""page_index"":0,""viewing_time"":48678},{""page_index"":1,""viewing_time"":57574},{""page_index"":2,""viewing_time"":67177},{""page_index"":3,""viewing_time"":27560}]",30
,,,,,,,,,,,,,,,135257,,135259,,,instructions,"[{""page_index"":0,""viewing_time"":39419},{""page_index"":1,""viewing_time"":31203},{""page_index"":2,""viewing_time"":38265},{""page_index"":3,""viewing_time"":26369}]",31
,,,,,,,,,,,,,,,179522,,179523,,,instructions,"[{""page_index"":0,""viewing_time"":23886},{""page_index"":1,""viewing_time"":23556},{""page_index"":2,""viewing_time"":117026},{""page_index"":3,""viewing_time"":15053}]",32
,,,,,,,,,,,,,,,68661,,305370,,,instructions,"[{""page_index"":0,""viewing_time"":14851},{""page_index"":1,""viewing_time"":31412},{""page_index"":2,""viewing_time"":4535},{""page_index"":3,""viewing_time"":17862}]",32
,,,,,,,,,,,,,,,8062,,393934,,,instructions,"[{""page_index"":0,""viewing_time"":1734},{""page_index"":1,""viewing_time"":1176},{""page_index"":2,""viewing_time"":2416},{""page_index"":3,""viewing_time"":2735}]",32
,,,,,,,,,,,,,,,293726,,293727,,,instructions,"[{""page_index"":0,""viewing_time"":184758},{""page_index"":1,""viewing_time"":53304},{""page_index"":2,""viewing_time"":28719},{""page_index"":3,""viewing_time"":26945}]",33
,,,,,,,,,,,,,,,142517,,142518,,,instructions,"[{""page_index"":0,""viewing_time"":59287},{""page_index"":1,""viewing_time"":19397},{""page_index"":2,""viewing_time"":36648},{""page_index"":3,""viewing_time"":27183}]",34
,,,,,,,,,,,,,,,43199,,229654,,,instructions,"[{""page_index"":0,""viewing_time"":3610},{""page_index"":1,""viewing_time"":4249},{""page_index"":0,""viewing_time"":8820},{""page_index"":1,""viewing_time"":4723},{""page_index"":2,""viewing_time"":5701},{""page_index"":3,""viewing_time"":16095}]",34
,,,,,,,,,,,,,,,17369,,289938,,,instructions,"[{""page_index"":0,""viewing_time"":10609},{""page_index"":1,""viewing_time"":1010},{""page_index"":2,""viewing_time"":1958},{""page_index"":3,""viewing_time"":3792}]",34
,,,,,,,,,,,,,,,141912,,141913,,,instructions,"[{""page_index"":0,""viewing_time"":57124},{""page_index"":1,""viewing_time"":42233},{""page_index"":2,""viewing_time"":6890},{""page_index"":1,""viewing_time"":1130},{""page_index"":2,""viewing_time"":34531}]",35
,,,,,,,,,,,,,,,113048,,113050,,,instructions,"[{""page_index"":0,""viewing_time"":28013},{""page_index"":1,""viewing_time"":24137},{""page_index"":2,""viewing_time"":41373},{""page_index"":3,""viewing_time"":19524}]",36
,,,,,,,,,,,,,,,138347,,138347,,,instructions,"[{""page_index"":0,""viewing_time"":50969},{""page_index"":1,""viewing_time"":53000},{""page_index"":2,""viewing_time"":17829},{""page_index"":3,""viewing_time"":16549}]",37
,,,,,,,,,,,,,,,42088,,225106,,,instructions,"[{""page_index"":0,""viewing_time"":18626},{""page_index"":1,""viewing_time"":7456},{""page_index"":2,""viewing_time"":7746},{""page_index"":3,""viewing_time"":8259}]",37
,,,,,,,,,,,,,,,187597,,187598,,,instructions,"[{""page_index"":0,""viewing_time"":31871},{""page_index"":1,""viewing_time"":114580},{""page_index"":2,""viewing_time"":21445},{""page_index"":3,""viewing_time"":19700}]",38
,,,,,,,,,,,,,,,49641,,49641,,,instructions,"[{""page_index"":0,""viewing_time"":43090},{""page_index"":1,""viewing_time"":1625},{""page_index"":2,""viewing_time"":3620},{""page_index"":3,""viewing_time"":1304}]",39
,,,,,,,,,,,,,,,55048,,123115,,,instructions,"[{""page_index"":0,""viewing_time"":14619},{""page_index"":1,""viewing_time"":8500},{""page_index"":2,""viewing_time"":15449},{""page_index"":3,""viewing_time"":16479}]",39
,,,,,,,,,,,,,,,4559,,156473,,,instructions,"[{""page_index"":0,""viewing_time"":1884},{""page_index"":1,""viewing_time"":1476},{""page_index"":2,""viewing_time"":710},{""page_index"":3,""viewing_time"":488}]",39
,,,,,,,,,,,,,,,6468,,176827,,,instructions,"[{""page_index"":0,""viewing_time"":4188},{""page_index"":1,""viewing_time"":1362},{""page_index"":2,""viewing_time"":458},{""page_index"":3,""viewing_time"":459}]",39
,,,,,,,,,,,,,,,3567,,190436,,,instructions,"[{""page_index"":0,""viewing_time"":1740},{""page_index"":1,""viewing_time"":630},{""page_index"":2,""viewing_time"":581},{""page_index"":3,""viewing_time"":615}]",39
,,,,,,,,,,,,,,,86269,,298912,,,instructions,"[{""page_index"":0,""viewing_time"":27004},{""page_index"":1,""viewing_time"":20197},{""page_index"":2,""viewing_time"":28878},{""page_index"":3,""viewing_time"":10189}]",39
,,,,,,,,,,,,,,,113377,,113379,,,instructions,"[{""page_index"":0,""viewing_time"":32785},{""page_index"":1,""viewing_time"":35464},{""page_index"":2,""viewing_time"":22264},{""page_index"":3,""viewing_time"":22863}]",40
,,,,,,,,,,,,,,,61478,,205714,,,instructions,"[{""page_index"":0,""viewing_time"":12574},{""page_index"":1,""viewing_time"":18160},{""page_index"":0,""viewing_time"":13479},{""page_index"":1,""viewing_time"":1968},{""page_index"":2,""viewing_time"":13584},{""page_index"":3,""viewing_time"":1712}]",40
,,,,,,,,,,,,,,,326525,,326527,,,instructions,"[{""page_index"":0,""viewing_time"":124522},{""page_index"":1,""viewing_time"":68894},{""page_index"":2,""viewing_time"":83907},{""page_index"":3,""viewing_time"":49201}]",41
,,,,,,,,,,,,,,,71441,,71447,,,instructions,"[{""page_index"":0,""viewing_time"":34155},{""page_index"":1,""viewing_time"":23078},{""page_index"":2,""viewing_time"":14205}]",42
,,,,,,,,,,,,,,,21606,,116117,,,instructions,"[{""page_index"":0,""viewing_time"":15083},{""page_index"":1,""viewing_time"":4791},{""page_index"":2,""viewing_time"":1731}]",42
,,,,,,,,,,,,,,,154172,,154176,,,instructions,"[{""page_index"":0,""viewing_time"":55941},{""page_index"":1,""viewing_time"":61426},{""page_index"":2,""viewing_time"":36803}]",43
,,,,,,,,,,,,,,,145876,,145878,,,instructions,"[{""page_index"":0,""viewing_time"":67959},{""page_index"":1,""viewing_time"":57929},{""page_index"":2,""viewing_time"":19987}]",44
,,,,,,,,,,,,,,,282143,,282144,,,instructions,"[{""page_index"":0,""viewing_time"":168632},{""page_index"":1,""viewing_time"":75373},{""page_index"":2,""viewing_time"":13172},{""page_index"":3,""viewing_time"":24965}]",45
,,,,,,,,,,,,,,,59402,,59403,,,instructions,"[{""page_index"":0,""viewing_time"":22342},{""page_index"":1,""viewing_time"":22170},{""page_index"":2,""viewing_time"":8144},{""page_index"":3,""viewing_time"":6736}]",46
,,,,,,,,,,,,,,,86151,,86151,,,instructions,"[{""page_index"":0,""viewing_time"":29888},{""page_index"":1,""viewing_time"":3846},{""page_index"":0,""viewing_time"":8448},{""page_index"":1,""viewing_time"":1626},{""page_index"":0,""viewing_time"":2695},{""page_index"":1,""viewing_time"":19327},{""page_index"":2,""viewing_time"":7456},{""page_index"":3,""viewing_time"":12864}]",47
,,,,,,,,,,,,,,,38175,,161568,,,instructions,"[{""page_index"":0,""viewing_time"":13542},{""page_index"":1,""viewing_time"":5104},{""page_index"":2,""viewing_time"":18016},{""page_index"":3,""viewing_time"":1513}]",47
,,,,,,,,,,,,,,,60789,,240183,,,instructions,"[{""page_index"":0,""viewing_time"":17597},{""page_index"":1,""viewing_time"":16240},{""page_index"":2,""viewing_time"":17992},{""page_index"":3,""viewing_time"":8960}]",47
,,,,,,,,,,,,,,,294751,,294755,,,instructions,"[{""page_index"":0,""viewing_time"":174779},{""page_index"":1,""viewing_time"":79352},{""page_index"":2,""viewing_time"":40618}]",48
,,,,,,,,,,,,,,,187216,,187219,,,instructions,"[{""page_index"":0,""viewing_time"":54063},{""page_index"":1,""viewing_time"":65742},{""page_index"":2,""viewing_time"":33761},{""page_index"":3,""viewing_time"":33647}]",49
,,,,,,,,,,,,,,,133997,,133997,,,instructions,"[{""page_index"":0,""viewing_time"":46978},{""page_index"":1,""viewing_time"":69505},{""page_index"":2,""viewing_time"":17513}]",50
,,,,,,,,,,,,,,,212277,,212278,,,instructions,"[{""page_index"":0,""viewing_time"":65109},{""page_index"":1,""viewing_time"":75455},{""page_index"":2,""viewing_time"":39255},{""page_index"":3,""viewing_time"":32457}]",51
,,,,,,,,,,,,,,,95819,,95820,,,instructions,"[{""page_index"":0,""viewing_time"":40788},{""page_index"":1,""viewing_time"":30434},{""page_index"":2,""viewing_time"":24596}]",52
,,,,,,,,,,,,,,,246588,,246589,,,instructions,"[{""page_index"":0,""viewing_time"":98894},{""page_index"":1,""viewing_time"":39075},{""page_index"":2,""viewing_time"":70278},{""page_index"":3,""viewing_time"":38337}]",53
,,,,,,,,,,,,,,,162005,,162005,,,instructions,"[{""page_index"":0,""viewing_time"":28161},{""page_index"":1,""viewing_time"":78644},{""page_index"":2,""viewing_time"":34163},{""page_index"":3,""viewing_time"":21036}]",54
,,,,,,,,,,,,,,,87854,,298877,,,instructions,"[{""page_index"":0,""viewing_time"":20922},{""page_index"":1,""viewing_time"":26664},{""page_index"":2,""viewing_time"":19605},{""page_index"":3,""viewing_time"":20663}]",54
,,,,,,,,,,,,,,,88669,,88670,,,instructions,"[{""page_index"":0,""viewing_time"":37129},{""page_index"":1,""viewing_time"":26551},{""page_index"":2,""viewing_time"":13436},{""page_index"":3,""viewing_time"":11552}]",55
,,,,,,,,,,,,,,,35037,,151998,,,instructions,"[{""page_index"":0,""viewing_time"":11748},{""page_index"":1,""viewing_time"":3910},{""page_index"":2,""viewing_time"":16661},{""page_index"":3,""viewing_time"":2718}]",55
,,,,,,,,,,,,,,,5655,,180845,,,instructions,"[{""page_index"":0,""viewing_time"":1075},{""page_index"":1,""viewing_time"":1718},{""page_index"":2,""viewing_time"":1056},{""page_index"":3,""viewing_time"":1806}]",55
,,,,,,,,,,,,,,,108264,,108266,,,instructions,"[{""page_index"":0,""viewing_time"":97937},{""page_index"":1,""viewing_time"":4178},{""page_index"":2,""viewing_time"":6149}]",56
,,,,,,,,,,,,,,,83908,,227561,,,instructions,"[{""page_index"":0,""viewing_time"":30399},{""page_index"":1,""viewing_time"":33154},{""page_index"":2,""viewing_time"":20354}]",56
,,,,,,,,,,,,,,,34042,,281938,,,instructions,"[{""page_index"":0,""viewing_time"":5064},{""page_index"":1,""viewing_time"":16905},{""page_index"":2,""viewing_time"":12072}]",56
,,,,,,,,,,,,,,,203464,,203467,,,instructions,"[{""page_index"":0,""viewing_time"":58539},{""page_index"":1,""viewing_time"":53028},{""page_index"":2,""viewing_time"":55941},{""page_index"":3,""viewing_time"":35954}]",57
,,,,,,,,,,,,,,,125321,,125324,,,instructions,"[{""page_index"":0,""viewing_time"":42042},{""page_index"":1,""viewing_time"":46481},{""page_index"":2,""viewing_time"":17042},{""page_index"":3,""viewing_time"":19752}]",58
,,,,,,,,,,,,,,,263356,,263358,,,instructions,"[{""page_index"":0,""viewing_time"":104325},{""page_index"":1,""viewing_time"":82225},{""page_index"":2,""viewing_time"":51264},{""page_index"":3,""viewing_time"":25540}]",59
,,,,,,,,,,,,,,,29007,,328867,,,instructions,"[{""page_index"":0,""viewing_time"":15097},{""page_index"":1,""viewing_time"":5279},{""page_index"":2,""viewing_time"":3988},{""page_index"":3,""viewing_time"":4642}]",59
,,,,,,,,,,,,,,,214197,,214198,,,instructions,"[{""page_index"":0,""viewing_time"":31842},{""page_index"":1,""viewing_time"":31378},{""page_index"":2,""viewing_time"":150977}]",60
,,,,,,,,,,,,,,,82955,,82955,,,instructions,"[{""page_index"":0,""viewing_time"":35646},{""page_index"":1,""viewing_time"":23702},{""page_index"":2,""viewing_time"":23605}]",61
,,,,,,,,,,,,,,,256063,,256067,,,instructions,"[{""page_index"":0,""viewing_time"":74902},{""page_index"":1,""viewing_time"":83776},{""page_index"":2,""viewing_time"":44504},{""page_index"":3,""viewing_time"":52877}]",62
,,,,,,,,,,,,,,,18322,,332016,,,instructions,"[{""page_index"":0,""viewing_time"":5495},{""page_index"":1,""viewing_time"":4985},{""page_index"":2,""viewing_time"":4383},{""page_index"":3,""viewing_time"":3457}]",62
,,,,,,,,,,,,,,,247969,,247969,,,instructions,"[{""page_index"":0,""viewing_time"":60686},{""page_index"":1,""viewing_time"":58085},{""page_index"":2,""viewing_time"":43786},{""page_index"":3,""viewing_time"":31377},{""page_index"":2,""viewing_time"":3645},{""page_index"":1,""viewing_time"":38014},{""page_index"":2,""viewing_time"":8719},{""page_index"":3,""viewing_time"":3656}]",63
,,,,,,,,,,,,,,,148805,,148806,,,instructions,"[{""page_index"":0,""viewing_time"":39683},{""page_index"":1,""viewing_time"":33710},{""page_index"":2,""viewing_time"":54700},{""page_index"":3,""viewing_time"":20711}]",64
,,,,,,,,,,,,,,,61416,,253083,,,instructions,"[{""page_index"":0,""viewing_time"":12444},{""page_index"":1,""viewing_time"":2849},{""page_index"":2,""viewing_time"":29895},{""page_index"":3,""viewing_time"":16227}]",64
,,,,,,,,,,,,,,,633918,,917230,,,instructions,"[{""page_index"":0,""viewing_time"":446462},{""page_index"":1,""viewing_time"":56801},{""page_index"":2,""viewing_time"":90559},{""page_index"":3,""viewing_time"":40095}]",64
,,,,,,,,,,,,,,,363097,,363099,,,instructions,"[{""page_index"":0,""viewing_time"":171978},{""page_index"":1,""viewing_time"":156840},{""page_index"":2,""viewing_time"":34255}]",65
,,,,,,,,,,,,,,,109995,,109997,,,instructions,"[{""page_index"":0,""viewing_time"":65191},{""page_index"":1,""viewing_time"":22598},{""page_index"":2,""viewing_time"":6385},{""page_index"":1,""viewing_time"":5094},{""page_index"":2,""viewing_time"":10726}]",66
,,,,,,,,,,,,,,,31594,,188535,,,instructions,"[{""page_index"":0,""viewing_time"":5750},{""page_index"":1,""viewing_time"":8168},{""page_index"":2,""viewing_time"":17676}]",66
,,,,,,,,,,,,,,,117191,,117192,,,instructions,"[{""page_index"":0,""viewing_time"":39192},{""page_index"":1,""viewing_time"":37851},{""page_index"":2,""viewing_time"":20352},{""page_index"":3,""viewing_time"":19792}]",67
,,,,,,,,,,,,,,,76907,,236660,,,instructions,"[{""page_index"":0,""viewing_time"":25661},{""page_index"":1,""viewing_time"":15760},{""page_index"":2,""viewing_time"":25925},{""page_index"":3,""viewing_time"":9558}]",67
,,,,,,,,,,,,,,,16896,,282378,,,instructions,"[{""page_index"":0,""viewing_time"":3516},{""page_index"":1,""viewing_time"":2825},{""page_index"":2,""viewing_time"":7866},{""page_index"":3,""viewing_time"":2688}]",67
,,,,,,,,,,,,,,,256479,,256481,,,instructions,"[{""page_index"":0,""viewing_time"":74111},{""page_index"":1,""viewing_time"":96417},{""page_index"":2,""viewing_time"":46630},{""page_index"":3,""viewing_time"":39319}]",68
,,,,,,,,,,,,,,,109234,,109235,,,instructions,"[{""page_index"":0,""viewing_time"":9389},{""page_index"":1,""viewing_time"":29648},{""page_index"":2,""viewing_time"":30246},{""page_index"":1,""viewing_time"":36380},{""page_index"":2,""viewing_time"":3570}]",69
,,,,,,,,,,,,,,,121812,,121814,,,instructions,"[{""page_index"":0,""viewing_time"":35603},{""page_index"":1,""viewing_time"":25359},{""page_index"":2,""viewing_time"":36903},{""page_index"":3,""viewing_time"":23946}]",70
,,,,,,,,,,,,,,,43010,,202872,,,instructions,"[{""page_index"":0,""viewing_time"":13986},{""page_index"":1,""viewing_time"":11256},{""page_index"":2,""viewing_time"":13496},{""page_index"":3,""viewing_time"":4271}]",70
,,,,,,,,,,,,,,,81379,,310549,,,instructions,"[{""page_index"":0,""viewing_time"":24764},{""page_index"":1,""viewing_time"":15783},{""page_index"":2,""viewing_time"":29087},{""page_index"":3,""viewing_time"":11744}]",70
,,,,,,,,,,,,,,,4937,,343764,,,instructions,"[{""page_index"":0,""viewing_time"":1855},{""page_index"":1,""viewing_time"":704},{""page_index"":2,""viewing_time"":1673},{""page_index"":3,""viewing_time"":704}]",70
,,,,,,,,,,,,,,,477760,,477764,,,instructions,"[{""page_index"":0,""viewing_time"":260798},{""page_index"":1,""viewing_time"":47369},{""page_index"":2,""viewing_time"":114001},{""page_index"":3,""viewing_time"":55590}]",71
,,,,,,,,,,,,,,,634518,,634519,,,instructions,"[{""page_index"":0,""viewing_time"":71960},{""page_index"":1,""viewing_time"":10205},{""page_index"":2,""viewing_time"":528797},{""page_index"":3,""viewing_time"":23555}]",72
,,,,,,,,,,,,,,,24753,,775478,,,instructions,"[{""page_index"":0,""viewing_time"":13117},{""page_index"":1,""viewing_time"":6389},{""page_index"":2,""viewing_time"":3452},{""page_index"":3,""viewing_time"":1794}]",72
,,,,,,,,,,,,,,,157601,,157602,,,instructions,"[{""page_index"":0,""viewing_time"":58418},{""page_index"":1,""viewing_time"":45824},{""page_index"":2,""viewing_time"":28217},{""page_index"":3,""viewing_time"":25141}]",73
,,,,,,,,,,,,,,,195733,,195735,,,instructions,"[{""page_index"":0,""viewing_time"":76842},{""page_index"":1,""viewing_time"":38468},{""page_index"":2,""viewing_time"":44640},{""page_index"":3,""viewing_time"":35782}]",74
,,,,,,,,,,,,,,,52069,,290151,,,instructions,"[{""page_index"":0,""viewing_time"":17267},{""page_index"":1,""viewing_time"":21865},{""page_index"":2,""viewing_time"":10540},{""page_index"":3,""viewing_time"":2396}]",74
,,,,,,,,,,,,,,,5385,,316392,,,instructions,"[{""page_index"":0,""viewing_time"":1602},{""page_index"":1,""viewing_time"":781},{""page_index"":2,""viewing_time"":1745},{""page_index"":3,""viewing_time"":1255}]",74
,,,,,,,,,,,,,,,77121,,77122,,,instructions,"[{""page_index"":0,""viewing_time"":37551},{""page_index"":1,""viewing_time"":23891},{""page_index"":2,""viewing_time"":15678}]",75
,,,,,,,,,,,,,,,93948,,93949,,,instructions,"[{""page_index"":0,""viewing_time"":30149},{""page_index"":1,""viewing_time"":27382},{""page_index"":2,""viewing_time"":12274},{""page_index"":3,""viewing_time"":24143}]",76
,,,,,,,,,,,,,,,101439,,239176,,,instructions,"[{""page_index"":0,""viewing_time"":49879},{""page_index"":1,""viewing_time"":14423},{""page_index"":2,""viewing_time"":26359},{""page_index"":3,""viewing_time"":10778}]",76
,,,,,,,,,,,,,,,4263,,271385,,,instructions,"[{""page_index"":0,""viewing_time"":1281},{""page_index"":1,""viewing_time"":1125},{""page_index"":2,""viewing_time"":923},{""page_index"":3,""viewing_time"":934}]",76
,,,,,,,,,,,,,,,142703,,142704,,,instructions,"[{""page_index"":0,""viewing_time"":82935},{""page_index"":1,""viewing_time"":34413},{""page_index"":2,""viewing_time"":13342},{""page_index"":3,""viewing_time"":12013}]",77
,,,,,,,,,,,,,,,21811,,198959,,,instructions,"[{""page_index"":0,""viewing_time"":4502},{""page_index"":1,""viewing_time"":11518},{""page_index"":2,""viewing_time"":4844},{""page_index"":3,""viewing_time"":947}]",77
,,,,,,,,,,,,,,,70316,,70316,,,instructions,"[{""page_index"":0,""viewing_time"":26523},{""page_index"":1,""viewing_time"":6944},{""page_index"":2,""viewing_time"":22016},{""page_index"":3,""viewing_time"":14832}]",78
,,,,,,,,,,,,,,,38712,,145973,,,instructions,"[{""page_index"":0,""viewing_time"":20327},{""page_index"":1,""viewing_time"":6024},{""page_index"":2,""viewing_time"":7081},{""page_index"":3,""viewing_time"":5280}]",78
,,,,,,,,,,,,,,,58807,,234101,,,instructions,"[{""page_index"":0,""viewing_time"":19247},{""page_index"":1,""viewing_time"":19808},{""page_index"":2,""viewing_time"":13471},{""page_index"":3,""viewing_time"":6280}]",78
,,,,,,,,,,,,,,,127271,,127273,,,instructions,"[{""page_index"":0,""viewing_time"":45716},{""page_index"":1,""viewing_time"":21646},{""page_index"":2,""viewing_time"":33070},{""page_index"":3,""viewing_time"":26837}]",79
,,,,,,,,,,,,,,,56198,,219046,,,instructions,"[{""page_index"":0,""viewing_time"":29922},{""page_index"":1,""viewing_time"":18921},{""page_index"":2,""viewing_time"":6163},{""page_index"":3,""viewing_time"":1191}]",79
,,,,,,,,,,,,,,,5543,,244943,,,instructions,"[{""page_index"":0,""viewing_time"":2831},{""page_index"":1,""viewing_time"":1580},{""page_index"":2,""viewing_time"":615},{""page_index"":3,""viewing_time"":516}]",79
,,,,,,,,,,,,,,,301904,,301904,,,instructions,"[{""page_index"":0,""viewing_time"":150968},{""page_index"":1,""viewing_time"":115787},{""page_index"":2,""viewing_time"":22884},{""page_index"":3,""viewing_time"":12263}]",80
,,,,,,,,,,,,,,,88253,,88253,,,instructions,"[{""page_index"":0,""viewing_time"":30736},{""page_index"":1,""viewing_time"":21680},{""page_index"":2,""viewing_time"":35836}]",81
,,,,,,,,,,,,,,,230293,,230294,,,instructions,"[{""page_index"":0,""viewing_time"":89062},{""page_index"":1,""viewing_time"":87932},{""page_index"":2,""viewing_time"":27791},{""page_index"":3,""viewing_time"":25505}]",82
,,,,,,,,,,,,,,,195224,,195226,,,instructions,"[{""page_index"":0,""viewing_time"":74756},{""page_index"":1,""viewing_time"":80378},{""page_index"":2,""viewing_time"":40089}]",83
,,,,,,,,,,,,,,,67145,,67147,,,instructions,"[{""page_index"":0,""viewing_time"":38060},{""page_index"":1,""viewing_time"":18142},{""page_index"":2,""viewing_time"":10941}]",84
,,,,,,,,,,,,,,,383844,,383844,,,instructions,"[{""page_index"":0,""viewing_time"":77930},{""page_index"":1,""viewing_time"":254},{""page_index"":2,""viewing_time"":84942},{""page_index"":3,""viewing_time"":45745},{""page_index"":2,""viewing_time"":3304},{""page_index"":1,""viewing_time"":140988},{""page_index"":2,""viewing_time"":15793},{""page_index"":3,""viewing_time"":14887}]",85
,,,,,,,,,,,,,,,62003,,555786,,,instructions,"[{""page_index"":0,""viewing_time"":15560},{""page_index"":1,""viewing_time"":29192},{""page_index"":2,""viewing_time"":13994},{""page_index"":3,""viewing_time"":3256}]",85
,,,,,,,,,,,,,,,28554,,612007,,,instructions,"[{""page_index"":0,""viewing_time"":23704},{""page_index"":1,""viewing_time"":1097},{""page_index"":2,""viewing_time"":1680},{""page_index"":3,""viewing_time"":2072}]",85
,,,,,,,,,,,,,,,84860,,84862,,,instructions,"[{""page_index"":0,""viewing_time"":37934},{""page_index"":1,""viewing_time"":40670},{""page_index"":2,""viewing_time"":6254}]",86
,,,,,,,,,,,,,,,87769,,222064,,,instructions,"[{""page_index"":0,""viewing_time"":20211},{""page_index"":1,""viewing_time"":27086},{""page_index"":2,""viewing_time"":40471}]",86
,,,,,,,,,,,,,,,4652,,268644,,,instructions,"[{""page_index"":0,""viewing_time"":2742},{""page_index"":1,""viewing_time"":1162},{""page_index"":2,""viewing_time"":747}]",86
,,,,,,,,,,,,,,,166464,,166470,,,instructions,"[{""page_index"":0,""viewing_time"":75408},{""page_index"":1,""viewing_time"":35553},{""page_index"":2,""viewing_time"":33111},{""page_index"":3,""viewing_time"":22387}]",87
,,,,,,,,,,,,,,,43418,,239843,,,instructions,"[{""page_index"":0,""viewing_time"":29151},{""page_index"":1,""viewing_time"":9959},{""page_index"":2,""viewing_time"":2418},{""page_index"":3,""viewing_time"":1886}]",87
,,,,,,,,,,,,,,,201862,,201863,,,instructions,"[{""page_index"":0,""viewing_time"":66772},{""page_index"":1,""viewing_time"":103727},{""page_index"":2,""viewing_time"":31361}]",88
,,,,,,,,,,,,,,,297303,,297305,,,instructions,"[{""page_index"":0,""viewing_time"":87521},{""page_index"":1,""viewing_time"":81183},{""page_index"":2,""viewing_time"":41556},{""page_index"":3,""viewing_time"":87042}]",89
,,,,,,,,,,,,,,,57052,,434320,,,instructions,"[{""page_index"":0,""viewing_time"":15995},{""page_index"":1,""viewing_time"":5548},{""page_index"":2,""viewing_time"":27144},{""page_index"":3,""viewing_time"":8363}]",89
,,,,,,,,,,,,,,,78117,,546249,,,instructions,"[{""page_index"":0,""viewing_time"":39064},{""page_index"":1,""viewing_time"":18228},{""page_index"":2,""viewing_time"":12817},{""page_index"":3,""viewing_time"":8007}]",89
,,,,,,,,,,,,,,,395753,,395754,,,instructions,"[{""page_index"":0,""viewing_time"":105555},{""page_index"":1,""viewing_time"":46431},{""page_index"":2,""viewing_time"":37317},{""page_index"":3,""viewing_time"":28576},{""page_index"":2,""viewing_time"":32258},{""page_index"":1,""viewing_time"":4698},{""page_index"":2,""viewing_time"":139946},{""page_index"":3,""viewing_time"":971}]",90
,,,,,,,,,,,,,,,10378,,447175,,,instructions,"[{""page_index"":0,""viewing_time"":5664},{""page_index"":1,""viewing_time"":1368},{""page_index"":2,""viewing_time"":2382},{""page_index"":3,""viewing_time"":964}]",90
,,,,,,,,,,,,,,,209329,,209329,,,instructions,"[{""page_index"":0,""viewing_time"":108508},{""page_index"":1,""viewing_time"":91364},{""page_index"":2,""viewing_time"":9456}]",91
,,,,,,,,,,,,,,,100422,,100424,,,instructions,"[{""page_index"":0,""viewing_time"":17919},{""page_index"":1,""viewing_time"":29769},{""page_index"":2,""viewing_time"":34415},{""page_index"":3,""viewing_time"":18319}]",92
,,,,,,,,,,,,,,,20966,,151571,,,instructions,"[{""page_index"":0,""viewing_time"":12797},{""page_index"":1,""viewing_time"":4788},{""page_index"":2,""viewing_time"":1843},{""page_index"":3,""viewing_time"":1537}]",92
,,,,,,,,,,,,,,,209673,,209674,,,instructions,"[{""page_index"":0,""viewing_time"":67895},{""page_index"":1,""viewing_time"":56209},{""page_index"":2,""viewing_time"":43823},{""page_index"":3,""viewing_time"":41745}]",93
,,,,,,,,,,,,,,,116508,,116510,,,instructions,"[{""page_index"":0,""viewing_time"":33774},{""page_index"":1,""viewing_time"":26460},{""page_index"":2,""viewing_time"":37096},{""page_index"":3,""viewing_time"":19176}]",94
,,,,,,,,,,,,,,,13183,,167804,,,instructions,"[{""page_index"":0,""viewing_time"":4983},{""page_index"":1,""viewing_time"":2607},{""page_index"":2,""viewing_time"":4381},{""page_index"":3,""viewing_time"":1211}]",94
,,,,,,,,,,,,,,,158548,,158549,,,instructions,"[{""page_index"":0,""viewing_time"":43774},{""page_index"":1,""viewing_time"":44702},{""page_index"":2,""viewing_time"":45747},{""page_index"":3,""viewing_time"":24324}]",95
,,,,,,,,,,,,,,,177594,,177594,,,instructions,"[{""page_index"":0,""viewing_time"":97004},{""page_index"":1,""viewing_time"":38033},{""page_index"":2,""viewing_time"":23472},{""page_index"":3,""viewing_time"":19081}]",96
,,,,,,,,,,,,,,,4655,,216966,,,instructions,"[{""page_index"":0,""viewing_time"":2425},{""page_index"":1,""viewing_time"":1135},{""page_index"":2,""viewing_time"":549},{""page_index"":3,""viewing_time"":542}]",96
,,,,,,,,,,,,,,,2719,,240335,,,instructions,"[{""page_index"":0,""viewing_time"":1320},{""page_index"":1,""viewing_time"":496},{""page_index"":2,""viewing_time"":469},{""page_index"":3,""viewing_time"":434}]",96
,,,,,,,,,,,,,,,33858,,294263,,,instructions,"[{""page_index"":0,""viewing_time"":15795},{""page_index"":1,""viewing_time"":1862},{""page_index"":2,""viewing_time"":5985},{""page_index"":3,""viewing_time"":10212}]",96
,,,,,,,,,,,,,,,3236,,314470,,,instructions,"[{""page_index"":0,""viewing_time"":1671},{""page_index"":1,""viewing_time"":495},{""page_index"":2,""viewing_time"":538},{""page_index"":3,""viewing_time"":532}]",96
,,,,,,,,,,,,,,,152812,,152812,,,instructions,"[{""page_index"":0,""viewing_time"":45352},{""page_index"":1,""viewing_time"":37558},{""page_index"":2,""viewing_time"":23160},{""page_index"":3,""viewing_time"":46742}]",97
,,,,,,,,,,,,,,,119051,,119051,,,instructions,"[{""page_index"":0,""viewing_time"":40762},{""page_index"":1,""viewing_time"":43403},{""page_index"":2,""viewing_time"":5700},{""page_index"":3,""viewing_time"":29182}]",98
,,,,,,,,,,,,,,,45021,,242160,,,instructions,"[{""page_index"":0,""viewing_time"":28049},{""page_index"":1,""viewing_time"":5299},{""page_index"":2,""viewing_time"":9135},{""page_index"":3,""viewing_time"":2538}]",98
,,,,,,,,,,,,,,,148760,,422213,,,instructions,"[{""page_index"":0,""viewing_time"":35238},{""page_index"":1,""viewing_time"":33062},{""page_index"":2,""viewing_time"":51505},{""page_index"":3,""viewing_time"":28951}]",98
,,,,,,,,,,,,,,,200860,,200861,,,instructions,"[{""page_index"":0,""viewing_time"":84102},{""page_index"":1,""viewing_time"":37060},{""page_index"":2,""viewing_time"":50160},{""page_index"":3,""viewing_time"":29537}]",99
,,,,,,,,,,,,,,,209930,,209932,,,instructions,"[{""page_index"":0,""viewing_time"":106842},{""page_index"":1,""viewing_time"":74748},{""page_index"":2,""viewing_time"":17484},{""page_index"":3,""viewing_time"":10855}]",100
,,,,,,,,,,,,,,,151667,,151669,,,instructions,"[{""page_index"":0,""viewing_time"":66052},{""page_index"":1,""viewing_time"":38693},{""page_index"":2,""viewing_time"":25639},{""page_index"":3,""viewing_time"":21281}]",101
,,,,,,,,,,,,,,,72058,,275280,,,instructions,"[{""page_index"":0,""viewing_time"":11331},{""page_index"":1,""viewing_time"":24397},{""page_index"":2,""viewing_time"":31996},{""page_index"":3,""viewing_time"":4332}]",101
,,,,,,,,,,,,,,,150458,,150459,,,instructions,"[{""page_index"":0,""viewing_time"":37532},{""page_index"":1,""viewing_time"":1062},{""page_index"":0,""viewing_time"":504},{""page_index"":1,""viewing_time"":5024},{""page_index"":2,""viewing_time"":1304},{""page_index"":1,""viewing_time"":5056},{""page_index"":0,""viewing_time"":4312},{""page_index"":1,""viewing_time"":25368},{""page_index"":2,""viewing_time"":49337},{""page_index"":3,""viewing_time"":20959}]",102
,,,,,,,,,,,,,,,337572,,337572,,,instructions,"[{""page_index"":0,""viewing_time"":55541},{""page_index"":1,""viewing_time"":1397},{""page_index"":0,""viewing_time"":4666},{""page_index"":1,""viewing_time"":62108},{""page_index"":0,""viewing_time"":146839},{""page_index"":1,""viewing_time"":27973},{""page_index"":2,""viewing_time"":39047}]",103
,,,,,,,,,,,,,,,125468,,125471,,,instructions,"[{""page_index"":0,""viewing_time"":43211},{""page_index"":1,""viewing_time"":3187},{""page_index"":0,""viewing_time"":9075},{""page_index"":1,""viewing_time"":8694},{""page_index"":0,""viewing_time"":7989},{""page_index"":1,""viewing_time"":1255},{""page_index"":0,""viewing_time"":2809},{""page_index"":1,""viewing_time"":16922},{""page_index"":2,""viewing_time"":17752},{""page_index"":3,""viewing_time"":14572}]",104
,,,,,,,,,,,,,,,90927,,245466,,,instructions,"[{""page_index"":0,""viewing_time"":20884},{""page_index"":1,""viewing_time"":24023},{""page_index"":2,""viewing_time"":32295},{""page_index"":3,""viewing_time"":13723}]",104
,,,,,,,,,,,,,,,162129,,162134,,,instructions,"[{""page_index"":0,""viewing_time"":58864},{""page_index"":1,""viewing_time"":58158},{""page_index"":2,""viewing_time"":45104}]",105
,,,,,,,,,,,,,,,115068,,115069,,,instructions,"[{""page_index"":0,""viewing_time"":46763},{""page_index"":1,""viewing_time"":44518},{""page_index"":2,""viewing_time"":23786}]",106
,,,,,,,,,,,,,,,30761,,178363,,,instructions,"[{""page_index"":0,""viewing_time"":20113},{""page_index"":1,""viewing_time"":7695},{""page_index"":2,""viewing_time"":2953}]",106
,,,,,,,,,,,,,,,210791,,210794,,,instructions,"[{""page_index"":0,""viewing_time"":79153},{""page_index"":1,""viewing_time"":59847},{""page_index"":2,""viewing_time"":43695},{""page_index"":3,""viewing_time"":28095}]",107
,,,,,,,,,,,,,,,192970,,473778,,,instructions,"[{""page_index"":0,""viewing_time"":84097},{""page_index"":1,""viewing_time"":36304},{""page_index"":2,""viewing_time"":51849},{""page_index"":3,""viewing_time"":20719}]",107
,,,,,,,,,,,,,,,174897,,174899,,,instructions,"[{""page_index"":0,""viewing_time"":80369},{""page_index"":1,""viewing_time"":47154},{""page_index"":2,""viewing_time"":26642},{""page_index"":3,""viewing_time"":20687}]",108
,,,,,,,,,,,,,,,12676,,240946,,,instructions,"[{""page_index"":0,""viewing_time"":2303},{""page_index"":1,""viewing_time"":1157},{""page_index"":2,""viewing_time"":4379},{""page_index"":3,""viewing_time"":4834}]",108
,,,,,,,,,,,,,,,520354,,520356,,,instructions,"[{""page_index"":0,""viewing_time"":189600},{""page_index"":1,""viewing_time"":169331},{""page_index"":2,""viewing_time"":94801},{""page_index"":3,""viewing_time"":66620}]",109
,,,,,,,,,,,,,,,182030,,182030,,,instructions,"[{""page_index"":0,""viewing_time"":45977},{""page_index"":1,""viewing_time"":47392},{""page_index"":2,""viewing_time"":41663},{""page_index"":3,""viewing_time"":46997}]",110
,,,,,,,,,,,,,,,61589,,61590,,,instructions,"[{""page_index"":0,""viewing_time"":27431},{""page_index"":1,""viewing_time"":19557},{""page_index"":2,""viewing_time"":14600}]",111
,,,,,,,,,,,,,,,114271,,114272,,,instructions,"[{""page_index"":0,""viewing_time"":33348},{""page_index"":1,""viewing_time"":31609},{""page_index"":2,""viewing_time"":28399},{""page_index"":3,""viewing_time"":20914}]",112
,,,,,,,,,,,,,,,225342,,225344,,,instructions,"[{""page_index"":0,""viewing_time"":81149},{""page_index"":1,""viewing_time"":100845},{""page_index"":2,""viewing_time"":22184},{""page_index"":3,""viewing_time"":21161}]",113
,,,,,,,,,,,,,,,188405,,188412,,,instructions,"[{""page_index"":0,""viewing_time"":6956},{""page_index"":1,""viewing_time"":5113},{""page_index"":2,""viewing_time"":18792},{""page_index"":3,""viewing_time"":157538}]",114
,,,,,,,,,,,,,,,28404,,262949,,,instructions,"[{""page_index"":0,""viewing_time"":26554},{""page_index"":1,""viewing_time"":131},{""page_index"":2,""viewing_time"":899},{""page_index"":3,""viewing_time"":819}]",114
,,,,,,,,,,,,,,,333974,,630857,,,instructions,"[{""page_index"":0,""viewing_time"":64288},{""page_index"":1,""viewing_time"":30140},{""page_index"":2,""viewing_time"":221423},{""page_index"":3,""viewing_time"":18119}]",114
,,,,,,,,,,,,,,,122483,,122484,,,instructions,"[{""page_index"":0,""viewing_time"":50431},{""page_index"":1,""viewing_time"":37458},{""page_index"":2,""viewing_time"":34592}]",115
,,,,,,,,,,,,,,,36832,,36834,,,instructions,"[{""page_index"":0,""viewing_time"":12401},{""page_index"":1,""viewing_time"":9771},{""page_index"":2,""viewing_time"":8222},{""page_index"":3,""viewing_time"":6438}]",116
,,,,,,,,,,,,,,,134117,,202854,,,instructions,"[{""page_index"":0,""viewing_time"":91041},{""page_index"":1,""viewing_time"":14437},{""page_index"":2,""viewing_time"":17684},{""page_index"":3,""viewing_time"":10955}]",116
,,,,,,,,,,,,,,,15663,,243757,,,instructions,"[{""page_index"":0,""viewing_time"":10549},{""page_index"":1,""viewing_time"":2567},{""page_index"":2,""viewing_time"":1916},{""page_index"":3,""viewing_time"":631}]",116
,,,,,,,,,,,,,,,213785,,213787,,,instructions,"[{""page_index"":0,""viewing_time"":38913},{""page_index"":1,""viewing_time"":55672},{""page_index"":2,""viewing_time"":74153},{""page_index"":3,""viewing_time"":23911},{""page_index"":2,""viewing_time"":3800},{""page_index"":1,""viewing_time"":14552},{""page_index"":2,""viewing_time"":1632},{""page_index"":3,""viewing_time"":1152}]",117
,,,,,,,,,,,,,,,44158,,300802,,,instructions,"[{""page_index"":0,""viewing_time"":27182},{""page_index"":1,""viewing_time"":12272},{""page_index"":2,""viewing_time"":2800},{""page_index"":3,""viewing_time"":1904}]",117
,,,,,,,,,,,,,,,81246,,400970,,,instructions,"[{""page_index"":0,""viewing_time"":34118},{""page_index"":1,""viewing_time"":26327},{""page_index"":2,""viewing_time"":15817},{""page_index"":3,""viewing_time"":4983}]",117
,,,,,,,,,,,,,,,142272,,142274,,,instructions,"[{""page_index"":0,""viewing_time"":37911},{""page_index"":1,""viewing_time"":50184},{""page_index"":2,""viewing_time"":30128},{""page_index"":3,""viewing_time"":24048}]",118
,,,,,,,,,,,,,,,4646,,186577,,,instructions,"[{""page_index"":0,""viewing_time"":1645},{""page_index"":1,""viewing_time"":1056},{""page_index"":2,""viewing_time"":992},{""page_index"":3,""viewing_time"":952}]",118
,,,,,,,,,,,,,,,139896,,139898,,,instructions,"[{""page_index"":0,""viewing_time"":39468},{""page_index"":1,""viewing_time"":42903},{""page_index"":2,""viewing_time"":35414},{""page_index"":3,""viewing_time"":22110}]",119
,,,,,,,,,,,,,,,76181,,76182,,,instructions,"[{""page_index"":0,""viewing_time"":24453},{""page_index"":1,""viewing_time"":21582},{""page_index"":2,""viewing_time"":18849},{""page_index"":3,""viewing_time"":11295}]",120
,,,,,,,,,,,,,,,24526,,127495,,,instructions,"[{""page_index"":0,""viewing_time"":9350},{""page_index"":1,""viewing_time"":7086},{""page_index"":2,""viewing_time"":5244},{""page_index"":3,""viewing_time"":2846}]",120
,,,,,,,,,,,,,,,118759,,118760,,,instructions,"[{""page_index"":0,""viewing_time"":51408},{""page_index"":1,""viewing_time"":44027},{""page_index"":2,""viewing_time"":23324}]",121
,,,,,,,,,,,,,,,193075,,193076,,,instructions,"[{""page_index"":0,""viewing_time"":12498},{""page_index"":1,""viewing_time"":79127},{""page_index"":2,""viewing_time"":71449},{""page_index"":3,""viewing_time"":30001}]",122
,,,,,,,,,,,,,,,6902,,280004,,,instructions,"[{""page_index"":0,""viewing_time"":2550},{""page_index"":1,""viewing_time"":1383},{""page_index"":2,""viewing_time"":1497},{""page_index"":3,""viewing_time"":1471}]",122
,,,,,,,,,,,,,,,467690,,467692,,,instructions,"[{""page_index"":0,""viewing_time"":58258},{""page_index"":1,""viewing_time"":46245},{""page_index"":2,""viewing_time"":338045},{""page_index"":3,""viewing_time"":25140}]",123
,,,,,,,,,,,,,,,191107,,191112,,,instructions,"[{""page_index"":0,""viewing_time"":98696},{""page_index"":1,""viewing_time"":52973},{""page_index"":2,""viewing_time"":39438}]",124
,,,,,,,,,,,,,,,175288,,175294,,,instructions,"[{""page_index"":0,""viewing_time"":79899},{""page_index"":1,""viewing_time"":68012},{""page_index"":2,""viewing_time"":27373}]",125
,,,,,,,,,,,,,,,117902,,117904,,,instructions,"[{""page_index"":0,""viewing_time"":58714},{""page_index"":1,""viewing_time"":40479},{""page_index"":2,""viewing_time"":18709}]",126
,,,,,,,,,,,,,,,180825,,180829,,,instructions,"[{""page_index"":0,""viewing_time"":85422},{""page_index"":1,""viewing_time"":60312},{""page_index"":2,""viewing_time"":35089}]",127
,,,,,,,,,,,,,,,169682,,169684,,,instructions,"[{""page_index"":0,""viewing_time"":75785},{""page_index"":1,""viewing_time"":64908},{""page_index"":2,""viewing_time"":28989}]",128
,,,,,,,,,,,,,,,25875,,224531,,,instructions,"[{""page_index"":0,""viewing_time"":10871},{""page_index"":1,""viewing_time"":10838},{""page_index"":2,""viewing_time"":4165}]",128
,,,,,,,,,,,,,,,66834,,66835,,,instructions,"[{""page_index"":0,""viewing_time"":24317},{""page_index"":1,""viewing_time"":12977},{""page_index"":2,""viewing_time"":15491},{""page_index"":3,""viewing_time"":14049}]",129
,,,,,,,,,,,,,,,23381,,106406,,,instructions,"[{""page_index"":0,""viewing_time"":10113},{""page_index"":1,""viewing_time"":3136},{""page_index"":2,""viewing_time"":5832},{""page_index"":3,""viewing_time"":4300}]",129
,,,,,,,,,,,,,,,6162,,138737,,,instructions,"[{""page_index"":0,""viewing_time"":1463},{""page_index"":1,""viewing_time"":771},{""page_index"":2,""viewing_time"":3049},{""page_index"":3,""viewing_time"":879}]",129
,,,,,,,,,,,,,,,107020,,107021,,,instructions,"[{""page_index"":0,""viewing_time"":63462},{""page_index"":1,""viewing_time"":14897},{""page_index"":2,""viewing_time"":14679},{""page_index"":3,""viewing_time"":13980}]",130
,,,,,,,,,,,,,,,183796,,183797,,,instructions,"[{""page_index"":0,""viewing_time"":61858},{""page_index"":1,""viewing_time"":51346},{""page_index"":2,""viewing_time"":36958},{""page_index"":3,""viewing_time"":33633}]",131
,,,,,,,,,,,,,,,88411,,333928,,,instructions,"[{""page_index"":0,""viewing_time"":28659},{""page_index"":1,""viewing_time"":12088},{""page_index"":2,""viewing_time"":31410},{""page_index"":3,""viewing_time"":9362},{""page_index"":2,""viewing_time"":5954},{""page_index"":3,""viewing_time"":937}]",131
,,,,,,,,,,,,,,,205325,,205328,,,instructions,"[{""page_index"":0,""viewing_time"":93409},{""page_index"":1,""viewing_time"":45838},{""page_index"":2,""viewing_time"":27816},{""page_index"":3,""viewing_time"":38260}]",132
,,,,,,,,,,,,,,,48928,,292808,,,instructions,"[{""page_index"":0,""viewing_time"":23599},{""page_index"":1,""viewing_time"":21296},{""page_index"":2,""viewing_time"":2300},{""page_index"":3,""viewing_time"":1732}]",132
,,,,,,,,,,,,,,,39012,,362528,,,instructions,"[{""page_index"":0,""viewing_time"":2136},{""page_index"":1,""viewing_time"":1216},{""page_index"":2,""viewing_time"":27712},{""page_index"":3,""viewing_time"":7947}]",132
,,,,,,,,,,,,,,,98574,,495871,,,instructions,"[{""page_index"":0,""viewing_time"":43545},{""page_index"":1,""viewing_time"":21760},{""page_index"":2,""viewing_time"":22851},{""page_index"":3,""viewing_time"":10416}]",132
,,,,,,,,,,,,,,,117650,,117652,,,instructions,"[{""page_index"":0,""viewing_time"":30986},{""page_index"":1,""viewing_time"":26662},{""page_index"":2,""viewing_time"":44135},{""page_index"":3,""viewing_time"":15866}]",133
,,,,,,,,,,,,,,,57842,,57843,,,instructions,"[{""page_index"":0,""viewing_time"":22155},{""page_index"":1,""viewing_time"":19031},{""page_index"":2,""viewing_time"":16655}]",134
,,,,,,,,,,,,,,,86388,,86389,,,instructions,"[{""page_index"":0,""viewing_time"":36507},{""page_index"":1,""viewing_time"":32040},{""page_index"":2,""viewing_time"":17840}]",135
,,,,,,,,,,,,,,,207703,,207705,,,instructions,"[{""page_index"":0,""viewing_time"":74027},{""page_index"":1,""viewing_time"":76767},{""page_index"":2,""viewing_time"":26875},{""page_index"":3,""viewing_time"":30032}]",136
,,,,,,,,,,,,,,,137762,,137762,,,instructions,"[{""page_index"":0,""viewing_time"":44963},{""page_index"":1,""viewing_time"":34407},{""page_index"":2,""viewing_time"":35223},{""page_index"":3,""viewing_time"":23168}]",137
,,,,,,,,,,,,,,,31834,,31838,,,instructions,"[{""page_index"":0,""viewing_time"":2961},{""page_index"":1,""viewing_time"":11801},{""page_index"":2,""viewing_time"":6600},{""page_index"":3,""viewing_time"":10472}]",138
,,,,,,,,,,,,,,,182112,,182115,,,instructions,"[{""page_index"":0,""viewing_time"":62447},{""page_index"":1,""viewing_time"":78398},{""page_index"":2,""viewing_time"":41264}]",139
,,,,,,,,,,,,,,,23244,,234708,,,instructions,"[{""page_index"":0,""viewing_time"":14939},{""page_index"":1,""viewing_time"":7351},{""page_index"":2,""viewing_time"":952}]",139
,,,,,,,,,,,,,,,198960,,198962,,,instructions,"[{""page_index"":0,""viewing_time"":51456},{""page_index"":1,""viewing_time"":81495},{""page_index"":2,""viewing_time"":31526},{""page_index"":3,""viewing_time"":34480}]",140
,,,,,,,,,,,,,,,44903,,285131,,,instructions,"[{""page_index"":0,""viewing_time"":20179},{""page_index"":1,""viewing_time"":21344},{""page_index"":2,""viewing_time"":2033},{""page_index"":3,""viewing_time"":1347}]",140
,,,,,,,,,,,,,,,86497,,388624,,,instructions,"[{""page_index"":0,""viewing_time"":2176},{""page_index"":1,""viewing_time"":16422},{""page_index"":2,""viewing_time"":57057},{""page_index"":3,""viewing_time"":10841}]",140
,,,,,,,,,,,,,,,8700,,434907,,,instructions,"[{""page_index"":0,""viewing_time"":3669},{""page_index"":1,""viewing_time"":1949},{""page_index"":2,""viewing_time"":2172},{""page_index"":3,""viewing_time"":910}]",140
,,,,,,,,,,,,,,,202728,,202730,,,instructions,"[{""page_index"":0,""viewing_time"":75631},{""page_index"":1,""viewing_time"":53736},{""page_index"":2,""viewing_time"":52317},{""page_index"":3,""viewing_time"":21043}]",141
,,,,,,,,,,,,,,,34340,,279584,,,instructions,"[{""page_index"":0,""viewing_time"":14525},{""page_index"":1,""viewing_time"":10054},{""page_index"":2,""viewing_time"":8822},{""page_index"":3,""viewing_time"":938}]",141
,,,,,,,,,,,,,,,43436,,349783,,,instructions,"[{""page_index"":0,""viewing_time"":8291},{""page_index"":1,""viewing_time"":15752},{""page_index"":2,""viewing_time"":18886},{""page_index"":3,""viewing_time"":506}]",141
,,,,,,,,,,,,,,,273448,,273452,,,instructions,"[{""page_index"":0,""viewing_time"":130691},{""page_index"":1,""viewing_time"":38177},{""page_index"":2,""viewing_time"":77824},{""page_index"":3,""viewing_time"":26754}]",142
,,,,,,,,,,,,,,,112571,,112572,,,instructions,"[{""page_index"":0,""viewing_time"":55308},{""page_index"":1,""viewing_time"":28722},{""page_index"":2,""viewing_time"":28541}]",143
,,,,,,,,,,,,,,,76216,,237494,,,instructions,"[{""page_index"":0,""viewing_time"":46759},{""page_index"":1,""viewing_time"":18391},{""page_index"":2,""viewing_time"":11065}]",143
,,,,,,,,,,,,,,,63607,,63608,,,instructions,"[{""page_index"":0,""viewing_time"":24504},{""page_index"":1,""viewing_time"":23930},{""page_index"":2,""viewing_time"":9922},{""page_index"":3,""viewing_time"":5250}]",144
,,,,,,,,,,,,,,,123478,,205522,,,instructions,"[{""page_index"":0,""viewing_time"":34048},{""page_index"":1,""viewing_time"":53290},{""page_index"":2,""viewing_time"":17920},{""page_index"":3,""viewing_time"":18219}]",144
,,,,,,,,,,,,,,,173735,,410857,,,instructions,"[{""page_index"":0,""viewing_time"":93341},{""page_index"":1,""viewing_time"":22517},{""page_index"":2,""viewing_time"":25182},{""page_index"":3,""viewing_time"":32694}]",144
,,,,,,,,,,,,,,,242718,,242718,,,instructions,"[{""page_index"":0,""viewing_time"":109143},{""page_index"":1,""viewing_time"":7294},{""page_index"":2,""viewing_time"":5583},{""page_index"":1,""viewing_time"":70741},{""page_index"":2,""viewing_time"":3319},{""page_index"":3,""viewing_time"":46638}]",145
,,,,,,,,,,,,,,,358029,,719139,,,instructions,"[{""page_index"":0,""viewing_time"":37794},{""page_index"":1,""viewing_time"":6087},{""page_index"":0,""viewing_time"":6318},{""page_index"":1,""viewing_time"":7693},{""page_index"":0,""viewing_time"":139517},{""page_index"":1,""viewing_time"":42093},{""page_index"":0,""viewing_time"":2760},{""page_index"":1,""viewing_time"":44209},{""page_index"":2,""viewing_time"":47144},{""page_index"":3,""viewing_time"":24414}]",145
,,,,,,,,,,,,,,,124021,,891903,,,instructions,"[{""page_index"":0,""viewing_time"":17986},{""page_index"":1,""viewing_time"":31062},{""page_index"":2,""viewing_time"":46426},{""page_index"":3,""viewing_time"":28547}]",145
,,,,,,,,,,,,,,,185103,,185105,,,instructions,"[{""page_index"":0,""viewing_time"":40188},{""page_index"":1,""viewing_time"":86064},{""page_index"":2,""viewing_time"":33695},{""page_index"":3,""viewing_time"":25155}]",146
,,,,,,,,,,,,,,,20030,,250258,,,instructions,"[{""page_index"":0,""viewing_time"":2849},{""page_index"":1,""viewing_time"":8760},{""page_index"":2,""viewing_time"":2564},{""page_index"":3,""viewing_time"":5856}]",146
,,,,,,,,,,,,,,,233589,,233590,,,instructions,"[{""page_index"":0,""viewing_time"":69778},{""page_index"":1,""viewing_time"":62035},{""page_index"":2,""viewing_time"":65848},{""page_index"":3,""viewing_time"":35927}]",147
,,,,,,,,,,,,,,,51397,,51397,,,instructions,"[{""page_index"":0,""viewing_time"":15611},{""page_index"":1,""viewing_time"":22959},{""page_index"":2,""viewing_time"":12825}]",148
,,,,,,,,,,,,,,,231293,,231295,,,instructions,"[{""page_index"":0,""viewing_time"":64487},{""page_index"":1,""viewing_time"":64913},{""page_index"":2,""viewing_time"":61428},{""page_index"":3,""viewing_time"":40464}]",149
,,,,,,,,,,,,,,,310733,,310734,,,instructions,"[{""page_index"":0,""viewing_time"":178693},{""page_index"":1,""viewing_time"":54935},{""page_index"":2,""viewing_time"":52863},{""page_index"":3,""viewing_time"":24240}]",150
,,,,,,,,,,,,,,,205915,,577266,,,instructions,"[{""page_index"":0,""viewing_time"":5293},{""page_index"":1,""viewing_time"":69254},{""page_index"":2,""viewing_time"":89110},{""page_index"":3,""viewing_time"":42257}]",150
,,,,,,,,,,,,,,,204542,,204542,,,instructions,"[{""page_index"":0,""viewing_time"":74335},{""page_index"":1,""viewing_time"":75716},{""page_index"":2,""viewing_time"":54490}]",151
,,,,,,,,,,,,,,,174913,,174914,,,instructions,"[{""page_index"":0,""viewing_time"":43326},{""page_index"":1,""viewing_time"":57073},{""page_index"":2,""viewing_time"":44786},{""page_index"":3,""viewing_time"":29727}]",152
,,,,,,,,,,,,,,,175584,,175584,,,instructions,"[{""page_index"":0,""viewing_time"":41727},{""page_index"":1,""viewing_time"":45088},{""page_index"":2,""viewing_time"":41207},{""page_index"":3,""viewing_time"":24177},{""page_index"":2,""viewing_time"":5961},{""page_index"":1,""viewing_time"":13759},{""page_index"":2,""viewing_time"":1777},{""page_index"":3,""viewing_time"":1887}]",153
,,,,,,,,,,,,,,,153417,,153420,,,instructions,"[{""page_index"":0,""viewing_time"":68833},{""page_index"":1,""viewing_time"":35810},{""page_index"":2,""viewing_time"":26578},{""page_index"":3,""viewing_time"":22194}]",154
,,,,,,,,,,,,,,,127287,,127289,,,instructions,"[{""page_index"":0,""viewing_time"":36961},{""page_index"":1,""viewing_time"":40175},{""page_index"":2,""viewing_time"":26858},{""page_index"":3,""viewing_time"":23291}]",155
,,,,,,,,,,,,,,,48826,,209280,,,instructions,"[{""page_index"":0,""viewing_time"":12199},{""page_index"":1,""viewing_time"":9856},{""page_index"":2,""viewing_time"":13326},{""page_index"":3,""viewing_time"":13444}]",155
,,,,,,,,,,,,,,,95868,,95870,,,instructions,"[{""page_index"":0,""viewing_time"":36035},{""page_index"":1,""viewing_time"":27360},{""page_index"":2,""viewing_time"":18632},{""page_index"":3,""viewing_time"":13840}]",156
,,,,,,,,,,,,,,,46065,,177069,,,instructions,"[{""page_index"":0,""viewing_time"":12787},{""page_index"":1,""viewing_time"":9013},{""page_index"":2,""viewing_time"":11024},{""page_index"":3,""viewing_time"":13240}]",156
,,,,,,,,,,,,,,,153301,,153303,,,instructions,"[{""page_index"":0,""viewing_time"":72221},{""page_index"":1,""viewing_time"":50406},{""page_index"":2,""viewing_time"":30672}]",157
,,,,,,,,,,,,,,,59319,,267405,,,instructions,"[{""page_index"":0,""viewing_time"":19607},{""page_index"":1,""viewing_time"":30215},{""page_index"":2,""viewing_time"":9496}]",157
,,,,,,,,,,,,,,,263705,,263707,,,instructions,"[{""page_index"":0,""viewing_time"":24081},{""page_index"":1,""viewing_time"":22403},{""page_index"":2,""viewing_time"":217221}]",158
,,,,,,,,,,,,,,,3915,,300800,,,instructions,"[{""page_index"":0,""viewing_time"":1881},{""page_index"":1,""viewing_time"":1747},{""page_index"":2,""viewing_time"":286}]",158
,,,,,,,,,,,,,,,11753,,324768,,,instructions,"[{""page_index"":0,""viewing_time"":1569},{""page_index"":1,""viewing_time"":4584},{""page_index"":2,""viewing_time"":5599}]",158
,,,,,,,,,,,,,,,4973,,4974,,,instructions,"[{""page_index"":0,""viewing_time"":2568},{""page_index"":1,""viewing_time"":1746},{""page_index"":2,""viewing_time"":658}]",159
,,,,,,,,,,,,,,,37704,,62646,,,instructions,"[{""page_index"":0,""viewing_time"":18272},{""page_index"":1,""viewing_time"":15245},{""page_index"":2,""viewing_time"":4186}]",159
,,,,,,,,,,,,,,,466776,,466780,,,instructions,"[{""page_index"":0,""viewing_time"":98680},{""page_index"":1,""viewing_time"":106958},{""page_index"":2,""viewing_time"":193500},{""page_index"":3,""viewing_time"":67635}]",160
,,,,,,,,,,,,,,,278507,,816128,,,instructions,"[{""page_index"":0,""viewing_time"":87562},{""page_index"":1,""viewing_time"":61800},{""page_index"":2,""viewing_time"":89586},{""page_index"":3,""viewing_time"":39557}]",160
,,,,,,,,,,,,,,,144573,,144573,,,instructions,"[{""page_index"":0,""viewing_time"":46311},{""page_index"":1,""viewing_time"":28286},{""page_index"":2,""viewing_time"":40936},{""page_index"":3,""viewing_time"":29040}]",161
,,,,,,,,,,,,,,,215584,,215586,,,instructions,"[{""page_index"":0,""viewing_time"":118613},{""page_index"":1,""viewing_time"":48761},{""page_index"":2,""viewing_time"":48208}]",162
,,,,,,,,,,,,,,,235064,,235066,,,instructions,"[{""page_index"":0,""viewing_time"":101363},{""page_index"":1,""viewing_time"":72901},{""page_index"":2,""viewing_time"":46055},{""page_index"":3,""viewing_time"":14745}]",163
,,,,,,,,,,,,,,,52200,,373633,,,instructions,"[{""page_index"":0,""viewing_time"":6747},{""page_index"":1,""viewing_time"":6037},{""page_index"":2,""viewing_time"":14821},{""page_index"":1,""viewing_time"":7554},{""page_index"":0,""viewing_time"":5433},{""page_index"":1,""viewing_time"":2400},{""page_index"":2,""viewing_time"":2323},{""page_index"":3,""viewing_time"":6884}]",163
,,,,,,,,,,,,,,,219214,,219214,,,instructions,"[{""page_index"":0,""viewing_time"":69640},{""page_index"":1,""viewing_time"":74862},{""page_index"":2,""viewing_time"":40646},{""page_index"":3,""viewing_time"":34065}]",164
,,,,,,,,,,,,,,,31861,,284185,,,instructions,"[{""page_index"":0,""viewing_time"":11036},{""page_index"":1,""viewing_time"":10047},{""page_index"":2,""viewing_time"":7818},{""page_index"":3,""viewing_time"":2959}]",164
,,,,,,,,,,,,,,,183886,,183889,,,instructions,"[{""page_index"":0,""viewing_time"":77957},{""page_index"":1,""viewing_time"":34940},{""page_index"":2,""viewing_time"":45688},{""page_index"":3,""viewing_time"":25299}]",165
,,,,,,,,,,,,,,,323307,,323309,,,instructions,"[{""page_index"":0,""viewing_time"":74867},{""page_index"":1,""viewing_time"":47206},{""page_index"":2,""viewing_time"":78341},{""page_index"":3,""viewing_time"":39220},{""page_index"":2,""viewing_time"":3464},{""page_index"":1,""viewing_time"":24176},{""page_index"":2,""viewing_time"":52550},{""page_index"":3,""viewing_time"":3482}]",166
,,,,,,,,,,,,,,,736111,,736112,,,instructions,"[{""page_index"":0,""viewing_time"":680667},{""page_index"":1,""viewing_time"":33274},{""page_index"":0,""viewing_time"":5849},{""page_index"":1,""viewing_time"":3712},{""page_index"":2,""viewing_time"":4568},{""page_index"":3,""viewing_time"":8041}]",167
,,,,,,,,,,,,,,,102966,,102966,,,instructions,"[{""page_index"":0,""viewing_time"":33669},{""page_index"":1,""viewing_time"":40851},{""page_index"":2,""viewing_time"":18253},{""page_index"":3,""viewing_time"":10193}]",168
,,,,,,,,,,,,,,,100333,,100334,,,instructions,"[{""page_index"":0,""viewing_time"":31107},{""page_index"":1,""viewing_time"":256},{""page_index"":2,""viewing_time"":787},{""page_index"":1,""viewing_time"":552},{""page_index"":0,""viewing_time"":10454},{""page_index"":1,""viewing_time"":14488},{""page_index"":2,""viewing_time"":26472},{""page_index"":3,""viewing_time"":16217}]",169
,,,,,,,,,,,,,,,51387,,188064,,,instructions,"[{""page_index"":0,""viewing_time"":13968},{""page_index"":1,""viewing_time"":7253},{""page_index"":2,""viewing_time"":24487},{""page_index"":3,""viewing_time"":5679}]",169
,,,,,,,,,,,,,,,124064,,124069,,,instructions,"[{""page_index"":0,""viewing_time"":56408},{""page_index"":1,""viewing_time"":32132},{""page_index"":2,""viewing_time"":35524}]",170
,,,,,,,,,,,,,,,140888,,140890,,,instructions,"[{""page_index"":0,""viewing_time"":11530},{""page_index"":1,""viewing_time"":19763},{""page_index"":2,""viewing_time"":14647},{""page_index"":1,""viewing_time"":1063},{""page_index"":0,""viewing_time"":7912},{""page_index"":1,""viewing_time"":33351},{""page_index"":2,""viewing_time"":38843},{""page_index"":3,""viewing_time"":13778}]",171
,,,,,,,,,,,,,,,128547,,128549,,,instructions,"[{""page_index"":0,""viewing_time"":60032},{""page_index"":1,""viewing_time"":47620},{""page_index"":2,""viewing_time"":20893}]",172
,,,,,,,,,,,,,,,178190,,178191,,,instructions,"[{""page_index"":0,""viewing_time"":89821},{""page_index"":1,""viewing_time"":34544},{""page_index"":2,""viewing_time"":29980},{""page_index"":3,""viewing_time"":23845}]",173
,,,,,,,,,,,,,,,166889,,166890,,,instructions,"[{""page_index"":0,""viewing_time"":37123},{""page_index"":1,""viewing_time"":71699},{""page_index"":2,""viewing_time"":33077},{""page_index"":3,""viewing_time"":24989}]",174
,,,,,,,,,,,,,,,95605,,95608,,,instructions,"[{""page_index"":0,""viewing_time"":55326},{""page_index"":1,""viewing_time"":17741},{""page_index"":2,""viewing_time"":22535}]",175
,,,,,,,,,,,,,,,40326,,166305,,,instructions,"[{""page_index"":0,""viewing_time"":5045},{""page_index"":1,""viewing_time"":23807},{""page_index"":2,""viewing_time"":11472}]",175
,,,,,,,,,,,,,,,42118,,244374,,,instructions,"[{""page_index"":0,""viewing_time"":24344},{""page_index"":1,""viewing_time"":16132},{""page_index"":2,""viewing_time"":1641}]",175
,,,,,,,,,,,,,,,204529,,204529,,,instructions,"[{""page_index"":0,""viewing_time"":36051},{""page_index"":1,""viewing_time"":38935},{""page_index"":0,""viewing_time"":31237},{""page_index"":1,""viewing_time"":32700},{""page_index"":2,""viewing_time"":44017},{""page_index"":3,""viewing_time"":21588}]",176
,,,,,,,,,,,,,,,70044,,70045,,,instructions,"[{""page_index"":0,""viewing_time"":23993},{""page_index"":1,""viewing_time"":13044},{""page_index"":0,""viewing_time"":8467},{""page_index"":1,""viewing_time"":7181},{""page_index"":2,""viewing_time"":10971},{""page_index"":3,""viewing_time"":6386}]",177
,,,,,,,,,,,,,,,80637,,183556,,,instructions,"[{""page_index"":0,""viewing_time"":7983},{""page_index"":1,""viewing_time"":44997},{""page_index"":2,""viewing_time"":2683},{""page_index"":1,""viewing_time"":7851},{""page_index"":2,""viewing_time"":11247},{""page_index"":3,""viewing_time"":5875}]",177
,,,,,,,,,,,,,,,75809,,281923,,,instructions,"[{""page_index"":0,""viewing_time"":3774},{""page_index"":1,""viewing_time"":53158},{""page_index"":2,""viewing_time"":14021},{""page_index"":3,""viewing_time"":4855}]",177
,,,,,,,,,,,,,,,92217,,92219,,,instructions,"[{""page_index"":0,""viewing_time"":23556},{""page_index"":1,""viewing_time"":22952},{""page_index"":2,""viewing_time"":17331},{""page_index"":3,""viewing_time"":28377}]",178
,,,,,,,,,,,,,,,37851,,167714,,,instructions,"[{""page_index"":0,""viewing_time"":14094},{""page_index"":1,""viewing_time"":11996},{""page_index"":2,""viewing_time"":7615},{""page_index"":3,""viewing_time"":4145}]",178
,,,,,,,,,,,,,,,70560,,274405,,,instructions,"[{""page_index"":0,""viewing_time"":44304},{""page_index"":1,""viewing_time"":15684},{""page_index"":2,""viewing_time"":7059},{""page_index"":3,""viewing_time"":3513}]",178
,,,,,,,,,,,,,,,141762,,141767,,,instructions,"[{""page_index"":0,""viewing_time"":41570},{""page_index"":1,""viewing_time"":50060},{""page_index"":2,""viewing_time"":31476},{""page_index"":3,""viewing_time"":18656}]",179
,,,,,,,,,,,,,,,405335,,405335,,,instructions,"[{""page_index"":0,""viewing_time"":274070},{""page_index"":1,""viewing_time"":21098},{""page_index"":2,""viewing_time"":19377},{""page_index"":3,""viewing_time"":90789}]",180
,,,,,,,,,,,,,,,99338,,99340,,,instructions,"[{""page_index"":0,""viewing_time"":31618},{""page_index"":1,""viewing_time"":16945},{""page_index"":2,""viewing_time"":30322},{""page_index"":3,""viewing_time"":20449}]",181
,,,,,,,,,,,,,,,179360,,179361,,,instructions,"[{""page_index"":0,""viewing_time"":47599},{""page_index"":1,""viewing_time"":91951},{""page_index"":2,""viewing_time"":23054},{""page_index"":3,""viewing_time"":16755}]",182
,,,,,,,,,,,,,,,81270,,81273,,,instructions,"[{""page_index"":0,""viewing_time"":13468},{""page_index"":1,""viewing_time"":19296},{""page_index"":2,""viewing_time"":28967},{""page_index"":3,""viewing_time"":19536}]",183
,,,,,,,,,,,,,,,72896,,197921,,,instructions,"[{""page_index"":0,""viewing_time"":28388},{""page_index"":1,""viewing_time"":18716},{""page_index"":2,""viewing_time"":9775},{""page_index"":3,""viewing_time"":16016}]",183
,,,,,,,,,,,,,,,128136,,128138,,,instructions,"[{""page_index"":0,""viewing_time"":51653},{""page_index"":1,""viewing_time"":56912},{""page_index"":2,""viewing_time"":19570}]",184
,,,,,,,,,,,,,,,376271,,376273,,,instructions,"[{""page_index"":0,""viewing_time"":104507},{""page_index"":1,""viewing_time"":86505},{""page_index"":0,""viewing_time"":33046},{""page_index"":1,""viewing_time"":27195},{""page_index"":0,""viewing_time"":20748},{""page_index"":1,""viewing_time"":18296},{""page_index"":2,""viewing_time"":61103},{""page_index"":3,""viewing_time"":24870}]",185
,,,,,,,,,,,,,,,276313,,757442,,,instructions,"[{""page_index"":0,""viewing_time"":30661},{""page_index"":1,""viewing_time"":78660},{""page_index"":2,""viewing_time"":99737},{""page_index"":3,""viewing_time"":67254}]",185
,,,,,,,,,,,,,,,233561,,233563,,,instructions,"[{""page_index"":0,""viewing_time"":124141},{""page_index"":1,""viewing_time"":27597},{""page_index"":2,""viewing_time"":81822}]",186
,,,,,,,,,,,,,,,365387,,365396,,,instructions,"[{""page_index"":0,""viewing_time"":79922},{""page_index"":1,""viewing_time"":131172},{""page_index"":2,""viewing_time"":53610},{""page_index"":3,""viewing_time"":100680}]",187
,,,,,,,,,,,,,,,84550,,84552,,,instructions,"[{""page_index"":0,""viewing_time"":31924},{""page_index"":1,""viewing_time"":38369},{""page_index"":2,""viewing_time"":14256}]",188
,,,,,,,,,,,,,,,13640,,13641,,,instructions,"[{""page_index"":0,""viewing_time"":3034},{""page_index"":1,""viewing_time"":3673},{""page_index"":2,""viewing_time"":4214},{""page_index"":3,""viewing_time"":2719}]",189
,,,,,,,,,,,,,,,44659,,75738,,,instructions,"[{""page_index"":0,""viewing_time"":14315},{""page_index"":1,""viewing_time"":11285},{""page_index"":2,""viewing_time"":8421},{""page_index"":3,""viewing_time"":10637}]",189
,,,,,,,,,,,,,,,16549,,104227,,,instructions,"[{""page_index"":0,""viewing_time"":11045},{""page_index"":1,""viewing_time"":3420},{""page_index"":2,""viewing_time"":1136},{""page_index"":3,""viewing_time"":948}]",189
,,,,,,,,,,,,,,,19453,,135795,,,instructions,"[{""page_index"":0,""viewing_time"":7187},{""page_index"":1,""viewing_time"":7405},{""page_index"":2,""viewing_time"":4001},{""page_index"":3,""viewing_time"":860}]",189
,,,,,,,,,,,,,,,13187,,160642,,,instructions,"[{""page_index"":0,""viewing_time"":3690},{""page_index"":1,""viewing_time"":579},{""page_index"":0,""viewing_time"":1476},{""page_index"":1,""viewing_time"":2002},{""page_index"":2,""viewing_time"":1517},{""page_index"":3,""viewing_time"":3923}]",189
,,,,,,,,,,,,,,,191480,,191481,,,instructions,"[{""page_index"":0,""viewing_time"":114899},{""page_index"":1,""viewing_time"":44055},{""page_index"":2,""viewing_time"":32525}]",190
,,,,,,,,,,,,,,,196987,,196989,,,instructions,"[{""page_index"":0,""viewing_time"":62608},{""page_index"":1,""viewing_time"":77856},{""page_index"":2,""viewing_time"":56519}]",191
,,,,,,,,,,,,,,,99419,,358605,,,instructions,"[{""page_index"":0,""viewing_time"":13824},{""page_index"":1,""viewing_time"":73129},{""page_index"":2,""viewing_time"":12465}]",191
,,,,,,,,,,,,,,,71633,,476077,,,instructions,"[{""page_index"":0,""viewing_time"":62227},{""page_index"":1,""viewing_time"":5864},{""page_index"":2,""viewing_time"":3541}]",191
,,,,,,,,,,,,,,,148489,,148491,,,instructions,"[{""page_index"":0,""viewing_time"":38280},{""page_index"":1,""viewing_time"":41994},{""page_index"":2,""viewing_time"":41466},{""page_index"":3,""viewing_time"":26748}]",192
,,,,,,,,,,,,,,,65581,,65582,,,instructions,"[{""page_index"":0,""viewing_time"":12463},{""page_index"":1,""viewing_time"":19878},{""page_index"":2,""viewing_time"":21752},{""page_index"":3,""viewing_time"":11487}]",193
,,,,,,,,,,,,,,,232942,,232942,,,instructions,"[{""page_index"":0,""viewing_time"":63639},{""page_index"":1,""viewing_time"":71035},{""page_index"":0,""viewing_time"":54539},{""page_index"":1,""viewing_time"":15513},{""page_index"":0,""viewing_time"":2560},{""page_index"":1,""viewing_time"":1874},{""page_index"":2,""viewing_time"":23781}]",194
,,,,,,,,,,,,,,,298833,,298834,,,instructions,"[{""page_index"":0,""viewing_time"":107433},{""page_index"":1,""viewing_time"":91281},{""page_index"":2,""viewing_time"":71706},{""page_index"":3,""viewing_time"":28412}]",195
,,,,,,,,,,,,,,,94564,,94565,,,instructions,"[{""page_index"":0,""viewing_time"":40173},{""page_index"":1,""viewing_time"":4370},{""page_index"":0,""viewing_time"":7662},{""page_index"":1,""viewing_time"":19258},{""page_index"":2,""viewing_time"":13354},{""page_index"":3,""viewing_time"":9747}]",196
,,,,,,,,,,,,,,,280478,,280480,,,instructions,"[{""page_index"":0,""viewing_time"":116233},{""page_index"":1,""viewing_time"":49092},{""page_index"":2,""viewing_time"":49966},{""page_index"":3,""viewing_time"":7520},{""page_index"":2,""viewing_time"":9334},{""page_index"":3,""viewing_time"":48279}]",197
,,,,,,,,,,,,,,,131262,,131264,,,instructions,"[{""page_index"":0,""viewing_time"":49045},{""page_index"":1,""viewing_time"":29148},{""page_index"":2,""viewing_time"":28816},{""page_index"":3,""viewing_time"":24252}]",198
,,,,,,,,,,,,,,,3800,,164681,,,instructions,"[{""page_index"":0,""viewing_time"":1452},{""page_index"":1,""viewing_time"":891},{""page_index"":2,""viewing_time"":808},{""page_index"":3,""viewing_time"":648}]",198
,,,,,,,,,,,,,,,73211,,73213,,,instructions,"[{""page_index"":0,""viewing_time"":39908},{""page_index"":1,""viewing_time"":12958},{""page_index"":2,""viewing_time"":20344}]",199
,,,,,,,,,,,,,,,51889,,169668,,,instructions,"[{""page_index"":0,""viewing_time"":24064},{""page_index"":1,""viewing_time"":25192},{""page_index"":2,""viewing_time"":2632}]",199
,,,,,,,,,,,,,,,54677,,54679,,,instructions,"[{""page_index"":0,""viewing_time"":17895},{""page_index"":1,""viewing_time"":11124},{""page_index"":2,""viewing_time"":17581},{""page_index"":3,""viewing_time"":8075}]",200
,,,,,,,,,,,,,,,66260,,155637,,,instructions,"[{""page_index"":0,""viewing_time"":17169},{""page_index"":1,""viewing_time"":12668},{""page_index"":2,""viewing_time"":21620},{""page_index"":3,""viewing_time"":14801}]",200
,,,,,,,,,,,,,,,98858,,98860,,,instructions,"[{""page_index"":0,""viewing_time"":30209},{""page_index"":1,""viewing_time"":34058},{""page_index"":2,""viewing_time"":19725},{""page_index"":3,""viewing_time"":14866}]",201
,,,,,,,,,,,,,,,98307,,98310,,,instructions,"[{""page_index"":0,""viewing_time"":49629},{""page_index"":1,""viewing_time"":14701},{""page_index"":2,""viewing_time"":20010},{""page_index"":3,""viewing_time"":13965}]",202
,,,,,,,,,,,,,,,59199,,59200,,,instructions,"[{""page_index"":0,""viewing_time"":22525},{""page_index"":1,""viewing_time"":21688},{""page_index"":2,""viewing_time"":14983}]",203
,,,,,,,,,,,,,,,98824,,98826,,,instructions,"[{""page_index"":0,""viewing_time"":48800},{""page_index"":1,""viewing_time"":9696},{""page_index"":2,""viewing_time"":22959},{""page_index"":3,""viewing_time"":17368}]",204
,,,,,,,,,,,,,,,66445,,190297,,,instructions,"[{""page_index"":0,""viewing_time"":10302},{""page_index"":1,""viewing_time"":8791},{""page_index"":2,""viewing_time"":11856},{""page_index"":3,""viewing_time"":9448},{""page_index"":2,""viewing_time"":2199},{""page_index"":1,""viewing_time"":16912},{""page_index"":0,""viewing_time"":5297},{""page_index"":1,""viewing_time"":687},{""page_index"":2,""viewing_time"":432},{""page_index"":3,""viewing_time"":521}]",204
,,,,,,,,,,,,,,,141053,,141054,,,instructions,"[{""page_index"":0,""viewing_time"":48133},{""page_index"":1,""viewing_time"":67495},{""page_index"":2,""viewing_time"":25424}]",205
,,,,,,,,,,,,,,,82844,,82845,,,instructions,"[{""page_index"":0,""viewing_time"":24196},{""page_index"":1,""viewing_time"":24529},{""page_index"":2,""viewing_time"":22473},{""page_index"":3,""viewing_time"":11645}]",206
,,,,,,,,,,,,,,,14998,,132156,,,instructions,"[{""page_index"":0,""viewing_time"":6160},{""page_index"":1,""viewing_time"":4874},{""page_index"":2,""viewing_time"":2278},{""page_index"":3,""viewing_time"":1685}]",206
,,,,,,,,,,,,,,,181835,,181836,,,instructions,"[{""page_index"":0,""viewing_time"":81567},{""page_index"":1,""viewing_time"":43754},{""page_index"":2,""viewing_time"":34979},{""page_index"":3,""viewing_time"":21534}]",207
,,,,,,,,,,,,,,,93672,,93674,,,instructions,"[{""page_index"":0,""viewing_time"":60872},{""page_index"":1,""viewing_time"":222},{""page_index"":2,""viewing_time"":32577}]",208
,,,,,,,,,,,,,,,24192,,190946,,,instructions,"[{""page_index"":0,""viewing_time"":14527},{""page_index"":1,""viewing_time"":6655},{""page_index"":2,""viewing_time"":3009}]",208
,,,,,,,,,,,,,,,32902,,240322,,,instructions,"[{""page_index"":0,""viewing_time"":13780},{""page_index"":1,""viewing_time"":8848},{""page_index"":2,""viewing_time"":10272}]",208
,,,,,,,,,,,,,,,53266,,310834,,,instructions,"[{""page_index"":0,""viewing_time"":20880},{""page_index"":1,""viewing_time"":25496},{""page_index"":2,""viewing_time"":6888}]",208
,,,,,,,,,,,,,,,14657,,346728,,,instructions,"[{""page_index"":0,""viewing_time"":12625},{""page_index"":1,""viewing_time"":1615},{""page_index"":2,""viewing_time"":416}]",208
,,,,,,,,,,,,,,,465316,,465317,,,instructions,"[{""page_index"":0,""viewing_time"":180200},{""page_index"":1,""viewing_time"":105077},{""page_index"":2,""viewing_time"":112513},{""page_index"":3,""viewing_time"":67524}]",209
,,,,,,,,,,,,,,,100306,,647020,,,instructions,"[{""page_index"":0,""viewing_time"":26850},{""page_index"":1,""viewing_time"":12756},{""page_index"":2,""viewing_time"":33675},{""page_index"":3,""viewing_time"":27024}]",209
,,,,,,,,,,,,,,,31369,,729503,,,instructions,"[{""page_index"":0,""viewing_time"":19787},{""page_index"":1,""viewing_time"":5839},{""page_index"":2,""viewing_time"":3994},{""page_index"":3,""viewing_time"":1749}]",209
,,,,,,,,,,,,,,,292184,,1066951,,,instructions,"[{""page_index"":0,""viewing_time"":60699},{""page_index"":1,""viewing_time"":69459},{""page_index"":2,""viewing_time"":119515},{""page_index"":3,""viewing_time"":42510}]",209
,,,,,,,,,,,,,,,12930,,1139433,,,instructions,"[{""page_index"":0,""viewing_time"":3422},{""page_index"":1,""viewing_time"":1069},{""page_index"":2,""viewing_time"":5233},{""page_index"":3,""viewing_time"":3205}]",209
,,,,,,,,,,,,,,,47278,,1230330,,,instructions,"[{""page_index"":0,""viewing_time"":15128},{""page_index"":1,""viewing_time"":6336},{""page_index"":2,""viewing_time"":21080},{""page_index"":3,""viewing_time"":4733}]",209
,,,,,,,,,,,,,,,138618,,138618,,,instructions,"[{""page_index"":0,""viewing_time"":43386},{""page_index"":1,""viewing_time"":37957},{""page_index"":2,""viewing_time"":30266},{""page_index"":3,""viewing_time"":27007}]",210
,,,,,,,,,,,,,,,69415,,249130,,,instructions,"[{""page_index"":0,""viewing_time"":16454},{""page_index"":1,""viewing_time"":10737},{""page_index"":2,""viewing_time"":36488},{""page_index"":3,""viewing_time"":5736}]",210
,,,,,,,,,,,,,,,99834,,99836,,,instructions,"[{""page_index"":0,""viewing_time"":49186},{""page_index"":1,""viewing_time"":31170},{""page_index"":2,""viewing_time"":19478}]",211
,,,,,,,,,,,,,,,124475,,124476,,,instructions,"[{""page_index"":0,""viewing_time"":51847},{""page_index"":1,""viewing_time"":50454},{""page_index"":2,""viewing_time"":22173}]",212
,,,,,,,,,,,,,,,135019,,135020,,,instructions,"[{""page_index"":0,""viewing_time"":35645},{""page_index"":1,""viewing_time"":41338},{""page_index"":2,""viewing_time"":33258},{""page_index"":3,""viewing_time"":24777}]",213
,,,,,,,,,,,,,,,161188,,161189,,,instructions,"[{""page_index"":0,""viewing_time"":78579},{""page_index"":1,""viewing_time"":59295},{""page_index"":2,""viewing_time"":23313}]",214
,,,,,,,,,,,,,,,111377,,111377,,,instructions,"[{""page_index"":0,""viewing_time"":50937},{""page_index"":1,""viewing_time"":39391},{""page_index"":2,""viewing_time"":21047}]",215
,,,,,,,,,,,,,,,163979,,163980,,,instructions,"[{""page_index"":0,""viewing_time"":58605},{""page_index"":1,""viewing_time"":53573},{""page_index"":2,""viewing_time"":51799}]",216
,,,,,,,,,,,,,,,122699,,122700,,,instructions,"[{""page_index"":0,""viewing_time"":51673},{""page_index"":1,""viewing_time"":39754},{""page_index"":2,""viewing_time"":10511},{""page_index"":3,""viewing_time"":20760}]",217
,,,,,,,,,,,,,,,85438,,249252,,,instructions,"[{""page_index"":0,""viewing_time"":10320},{""page_index"":1,""viewing_time"":22192},{""page_index"":2,""viewing_time"":37379},{""page_index"":3,""viewing_time"":15546}]",217
,,,,,,,,,,,,,,,89931,,89933,,,instructions,"[{""page_index"":0,""viewing_time"":38141},{""page_index"":1,""viewing_time"":19874},{""page_index"":2,""viewing_time"":21210},{""page_index"":3,""viewing_time"":10705}]",218
,,,,,,,,,,,,,,,50558,,50559,,,instructions,"[{""page_index"":0,""viewing_time"":14664},{""page_index"":1,""viewing_time"":15891},{""page_index"":2,""viewing_time"":9567},{""page_index"":3,""viewing_time"":10435}]",219
,,,,,,,,,,,,,,,39880,,122151,,,instructions,"[{""page_index"":0,""viewing_time"":13501},{""page_index"":1,""viewing_time"":3903},{""page_index"":2,""viewing_time"":16315},{""page_index"":3,""viewing_time"":6160}]",219
,,,,,,,,,,,,,,,92925,,251180,,,instructions,"[{""page_index"":0,""viewing_time"":34376},{""page_index"":1,""viewing_time"":16996},{""page_index"":2,""viewing_time"":32061},{""page_index"":3,""viewing_time"":9492}]",219
,,,,,,,,,,,,,,,121872,,121877,,,instructions,"[{""page_index"":0,""viewing_time"":45620},{""page_index"":1,""viewing_time"":48941},{""page_index"":2,""viewing_time"":27305}]",220
,,,,,,,,,,,,,,,167051,,167054,,,instructions,"[{""page_index"":0,""viewing_time"":29020},{""page_index"":1,""viewing_time"":18288},{""page_index"":2,""viewing_time"":23660},{""page_index"":3,""viewing_time"":82510},{""page_index"":2,""viewing_time"":11982},{""page_index"":3,""viewing_time"":1589}]",221
,,,,,,,,,,,,,,,259204,,259207,,,instructions,"[{""page_index"":0,""viewing_time"":152232},{""page_index"":1,""viewing_time"":44969},{""page_index"":2,""viewing_time"":31089},{""page_index"":3,""viewing_time"":30911}]",222
,,,,,,,,,,,,,,,309303,,309304,,,instructions,"[{""page_index"":0,""viewing_time"":109130},{""page_index"":1,""viewing_time"":102637},{""page_index"":2,""viewing_time"":58688},{""page_index"":3,""viewing_time"":38847}]",223
,,,,,,,,,,,,,,,241857,,241859,,,instructions,"[{""page_index"":0,""viewing_time"":101754},{""page_index"":1,""viewing_time"":81904},{""page_index"":2,""viewing_time"":54822},{""page_index"":1,""viewing_time"":2549},{""page_index"":2,""viewing_time"":826}]",224
,,,,,,,,,,,,,,,85031,,85031,,,instructions,"[{""page_index"":0,""viewing_time"":40071},{""page_index"":1,""viewing_time"":14743},{""page_index"":2,""viewing_time"":30216}]",225
,,,,,,,,,,,,,,,69237,,188605,,,instructions,"[{""page_index"":0,""viewing_time"":10484},{""page_index"":1,""viewing_time"":43673},{""page_index"":2,""viewing_time"":15080}]",225
,,,,,,,,,,,,,,,28810,,28810,,,instructions,"[{""page_index"":0,""viewing_time"":14968},{""page_index"":1,""viewing_time"":1863},{""page_index"":2,""viewing_time"":11978}]",226
,,,,,,,,,,,,,,,123597,,123597,,,instructions,"[{""page_index"":0,""viewing_time"":45131},{""page_index"":1,""viewing_time"":32499},{""page_index"":2,""viewing_time"":25755},{""page_index"":3,""viewing_time"":20211}]",227
,,,,,,,,,,,,,,,19673,,175895,,,instructions,"[{""page_index"":0,""viewing_time"":5096},{""page_index"":1,""viewing_time"":10260},{""page_index"":2,""viewing_time"":3654},{""page_index"":3,""viewing_time"":663}]",227
,,,,,,,,,,,,,,,165260,,165262,,,instructions,"[{""page_index"":0,""viewing_time"":65513},{""page_index"":1,""viewing_time"":49916},{""page_index"":2,""viewing_time"":38123},{""page_index"":3,""viewing_time"":11705}]",228
,,,,,,,,,,,,,,,106774,,306887,,,instructions,"[{""page_index"":0,""viewing_time"":28200},{""page_index"":1,""viewing_time"":35961},{""page_index"":2,""viewing_time"":21830},{""page_index"":3,""viewing_time"":20781}]",228
,,,,,,,,,,,,,,,120319,,469392,,,instructions,"[{""page_index"":0,""viewing_time"":37593},{""page_index"":1,""viewing_time"":31448},{""page_index"":2,""viewing_time"":36708},{""page_index"":3,""viewing_time"":14570}]",228
,,,,,,,,,,,,,,,134483,,134485,,,instructions,"[{""page_index"":0,""viewing_time"":42388},{""page_index"":1,""viewing_time"":44801},{""page_index"":2,""viewing_time"":24435},{""page_index"":3,""viewing_time"":22858}]",229
,,,,,,,,,,,,,,,132346,,132349,,,instructions,"[{""page_index"":0,""viewing_time"":67351},{""page_index"":1,""viewing_time"":23617},{""page_index"":2,""viewing_time"":41374}]",230
,,,,,,,,,,,,,,,57404,,260552,,,instructions,"[{""page_index"":0,""viewing_time"":44312},{""page_index"":1,""viewing_time"":7400},{""page_index"":2,""viewing_time"":5690}]",230
,,,,,,,,,,,,,,,9281,,9285,,,instructions,"[{""page_index"":0,""viewing_time"":3782},{""page_index"":1,""viewing_time"":1501},{""page_index"":2,""viewing_time"":2050},{""page_index"":3,""viewing_time"":1946}]",231
,,,,,,,,,,,,,,,74762,,109866,,,instructions,"[{""page_index"":0,""viewing_time"":14275},{""page_index"":1,""viewing_time"":15212},{""page_index"":2,""viewing_time"":27338},{""page_index"":3,""viewing_time"":17935}]",231
,,,,,,,,,,,,,,,46608,,189558,,,instructions,"[{""page_index"":0,""viewing_time"":5381},{""page_index"":1,""viewing_time"":19324},{""page_index"":2,""viewing_time"":16144},{""page_index"":3,""viewing_time"":5757}]",231
,,,,,,,,,,,,,,,139536,,367105,,,instructions,"[{""page_index"":0,""viewing_time"":43627},{""page_index"":1,""viewing_time"":21220},{""page_index"":2,""viewing_time"":46199},{""page_index"":3,""viewing_time"":28489}]",231
,,,,,,,,,,,,,,,5005,,806716,,,instructions,"[{""page_index"":0,""viewing_time"":1603},{""page_index"":1,""viewing_time"":812},{""page_index"":2,""viewing_time"":1488},{""page_index"":3,""viewing_time"":1101}]",231
,,,,,,,,,,,,,,,80793,,900459,,,instructions,"[{""page_index"":0,""viewing_time"":37815},{""page_index"":1,""viewing_time"":4860},{""page_index"":2,""viewing_time"":24517},{""page_index"":3,""viewing_time"":13600}]",231
,,,,,,,,,,,,,,,46849,,988903,,,instructions,"[{""page_index"":0,""viewing_time"":14183},{""page_index"":1,""viewing_time"":12533},{""page_index"":2,""viewing_time"":13442},{""page_index"":3,""viewing_time"":6689}]",231
,,,,,,,,,,,,,,,244391,,1296086,,,instructions,"[{""page_index"":0,""viewing_time"":29350},{""page_index"":1,""viewing_time"":185391},{""page_index"":2,""viewing_time"":24312},{""page_index"":3,""viewing_time"":5336}]",231
,,,,,,,,,,,,,,,170276,,170278,,,instructions,"[{""page_index"":0,""viewing_time"":58254},{""page_index"":1,""viewing_time"":52166},{""page_index"":2,""viewing_time"":33744},{""page_index"":3,""viewing_time"":26112}]",232
,,,,,,,,,,,,,,,227859,,227861,,,instructions,"[{""page_index"":0,""viewing_time"":62171},{""page_index"":1,""viewing_time"":76456},{""page_index"":2,""viewing_time"":56728},{""page_index"":3,""viewing_time"":32504}]",233
,,,,,,,,,,,,,,,16702,,289933,,,instructions,"[{""page_index"":0,""viewing_time"":2085},{""page_index"":1,""viewing_time"":3513},{""page_index"":2,""viewing_time"":10007},{""page_index"":3,""viewing_time"":1097}]",233
,,,,,,,,,,,,,,,90577,,90578,,,instructions,"[{""page_index"":0,""viewing_time"":39926},{""page_index"":1,""viewing_time"":8554},{""page_index"":2,""viewing_time"":23863},{""page_index"":3,""viewing_time"":18230}]",234
,,,,,,,,,,,,,,,81121,,253336,,,instructions,"[{""page_index"":0,""viewing_time"":22329},{""page_index"":1,""viewing_time"":10538},{""page_index"":2,""viewing_time"":40432},{""page_index"":3,""viewing_time"":7820}]",234
,,,,,,,,,,,,,,,770431,,1074690,,,instructions,"[{""page_index"":0,""viewing_time"":687741},{""page_index"":1,""viewing_time"":11439},{""page_index"":2,""viewing_time"":69477},{""page_index"":3,""viewing_time"":1773}]",234
,,,,,,,,,,,,,,,24088,,24090,,,instructions,"[{""page_index"":0,""viewing_time"":6378},{""page_index"":1,""viewing_time"":3783},{""page_index"":2,""viewing_time"":13925}]",235
,,,,,,,,,,,,,,,34087,,77910,,,instructions,"[{""page_index"":0,""viewing_time"":12869},{""page_index"":1,""viewing_time"":12709},{""page_index"":2,""viewing_time"":8509}]",235
,,,,,,,,,,,,,,,98323,,98324,,,instructions,"[{""page_index"":0,""viewing_time"":22317},{""page_index"":1,""viewing_time"":11666},{""page_index"":2,""viewing_time"":31481},{""page_index"":3,""viewing_time"":32858}]",236
,,,,,,,,,,,,,,,173280,,173282,,,instructions,"[{""page_index"":0,""viewing_time"":67868},{""page_index"":1,""viewing_time"":47981},{""page_index"":2,""viewing_time"":36870},{""page_index"":3,""viewing_time"":20559}]",237
,,,,,,,,,,,,,,,105637,,105637,,,instructions,"[{""page_index"":0,""viewing_time"":28487},{""page_index"":1,""viewing_time"":43820},{""page_index"":2,""viewing_time"":22263},{""page_index"":3,""viewing_time"":11066}]",238
,,,,,,,,,,,,,,,43324,,190316,,,instructions,"[{""page_index"":0,""viewing_time"":6855},{""page_index"":1,""viewing_time"":14499},{""page_index"":2,""viewing_time"":15534},{""page_index"":3,""viewing_time"":6435}]",238
,,,,,,,,,,,,,,,208479,,208479,,,instructions,"[{""page_index"":0,""viewing_time"":69735},{""page_index"":1,""viewing_time"":59223},{""page_index"":2,""viewing_time"":44177},{""page_index"":3,""viewing_time"":35343}]",239
,,,,,,,,,,,,,,,40695,,296279,,,instructions,"[{""page_index"":0,""viewing_time"":12810},{""page_index"":1,""viewing_time"":5863},{""page_index"":2,""viewing_time"":20910},{""page_index"":3,""viewing_time"":1112}]",239
,,,,,,,,,,,,,,,363724,,363726,,,instructions,"[{""page_index"":0,""viewing_time"":219492},{""page_index"":1,""viewing_time"":40099},{""page_index"":2,""viewing_time"":79823},{""page_index"":3,""viewing_time"":24308}]",240
,,,,,,,,,,,,,,,228370,,228372,,,instructions,"[{""page_index"":0,""viewing_time"":65789},{""page_index"":1,""viewing_time"":78036},{""page_index"":2,""viewing_time"":60769},{""page_index"":3,""viewing_time"":23773}]",241
,,,,,,,,,,,,,,,164711,,164712,,,instructions,"[{""page_index"":0,""viewing_time"":38743},{""page_index"":1,""viewing_time"":40493},{""page_index"":0,""viewing_time"":20577},{""page_index"":1,""viewing_time"":1096},{""page_index"":2,""viewing_time"":47473},{""page_index"":3,""viewing_time"":16328}]",242
,,,,,,,,,,,,,,,208486,,208487,,,instructions,"[{""page_index"":0,""viewing_time"":68404},{""page_index"":1,""viewing_time"":73481},{""page_index"":2,""viewing_time"":42918},{""page_index"":3,""viewing_time"":23682}]",243
,,,,,,,,,,,,,,,29959,,278184,,,instructions,"[{""page_index"":0,""viewing_time"":11910},{""page_index"":1,""viewing_time"":9414},{""page_index"":2,""viewing_time"":5075},{""page_index"":3,""viewing_time"":3559}]",243
,,,,,,,,,,,,,,,117147,,117149,,,instructions,"[{""page_index"":0,""viewing_time"":43413},{""page_index"":1,""viewing_time"":42356},{""page_index"":2,""viewing_time"":31378}]",244
,,,,,,,,,,,,,,,330981,,330983,,,instructions,"[{""page_index"":0,""viewing_time"":183857},{""page_index"":1,""viewing_time"":69736},{""page_index"":2,""viewing_time"":36403},{""page_index"":3,""viewing_time"":40983}]",245
,,,,,,,,,,,,,,,90649,,493682,,,instructions,"[{""page_index"":0,""viewing_time"":36028},{""page_index"":1,""viewing_time"":21610},{""page_index"":2,""viewing_time"":24348},{""page_index"":3,""viewing_time"":8662}]",245
,,,,,,,,,,,,,,,85830,,625115,,,instructions,"[{""page_index"":0,""viewing_time"":3526},{""page_index"":1,""viewing_time"":1658},{""page_index"":2,""viewing_time"":74605},{""page_index"":3,""viewing_time"":6040}]",245
,,,,,,,,,,,,,,,75331,,75333,,,instructions,"[{""page_index"":0,""viewing_time"":26376},{""page_index"":1,""viewing_time"":21654},{""page_index"":2,""viewing_time"":27300}]",246
,,,,,,,,,,,,,,,195862,,195864,,,instructions,"[{""page_index"":0,""viewing_time"":54966},{""page_index"":1,""viewing_time"":44748},{""page_index"":2,""viewing_time"":60426},{""page_index"":3,""viewing_time"":35720}]",247
,,,,,,,,,,,,,,,163961,,163966,,,instructions,"[{""page_index"":0,""viewing_time"":85068},{""page_index"":1,""viewing_time"":31256},{""page_index"":2,""viewing_time"":15641},{""page_index"":1,""viewing_time"":2459},{""page_index"":2,""viewing_time"":29535}]",248
,,,,,,,,,,,,,,,64853,,271549,,,instructions,"[{""page_index"":0,""viewing_time"":46822},{""page_index"":1,""viewing_time"":9658},{""page_index"":2,""viewing_time"":8372}]",248
,,,,,,,,,,,,,,,62698,,373032,,,instructions,"[{""page_index"":0,""viewing_time"":45217},{""page_index"":1,""viewing_time"":12865},{""page_index"":2,""viewing_time"":4615}]",248
,,,,,,,,,,,,,,,14768,,433306,,,instructions,"[{""page_index"":0,""viewing_time"":10801},{""page_index"":1,""viewing_time"":2326},{""page_index"":2,""viewing_time"":1639}]",248
,,,,,,,,,,,,,,,47244,,498462,,,instructions,"[{""page_index"":0,""viewing_time"":25065},{""page_index"":1,""viewing_time"":19655},{""page_index"":2,""viewing_time"":2522}]",248
,,,,,,,,,,,,,,,376118,,376120,,,instructions,"[{""page_index"":0,""viewing_time"":22946},{""page_index"":1,""viewing_time"":21099},{""page_index"":2,""viewing_time"":314455},{""page_index"":3,""viewing_time"":17616}]",249
,,,,,,,,,,,,,,,49177,,448082,,,instructions,"[{""page_index"":0,""viewing_time"":11680},{""page_index"":1,""viewing_time"":9713},{""page_index"":2,""viewing_time"":19336},{""page_index"":3,""viewing_time"":8447}]",249
,,,,,,,,,,,,,,,61842,,537019,,,instructions,"[{""page_index"":0,""viewing_time"":31862},{""page_index"":1,""viewing_time"":14407},{""page_index"":2,""viewing_time"":8700},{""page_index"":3,""viewing_time"":6872}]",249
,,,,,,,,,,,,,,,139719,,139720,,,instructions,"[{""page_index"":0,""viewing_time"":40027},{""page_index"":1,""viewing_time"":30648},{""page_index"":2,""viewing_time"":44391},{""page_index"":3,""viewing_time"":24623}]",250
,,,,,,,,,,,,,,,192491,,192493,,,instructions,"[{""page_index"":0,""viewing_time"":52553},{""page_index"":1,""viewing_time"":66809},{""page_index"":2,""viewing_time"":44563},{""page_index"":3,""viewing_time"":28563}]",251
,,,,,,,,,,,,,,,62228,,291244,,,instructions,"[{""page_index"":0,""viewing_time"":17428},{""page_index"":1,""viewing_time"":10953},{""page_index"":2,""viewing_time"":26904},{""page_index"":3,""viewing_time"":6942}]",251
,,,,,,,,,,,,,,,141036,,141037,,,instructions,"[{""page_index"":0,""viewing_time"":31504},{""page_index"":1,""viewing_time"":36524},{""page_index"":2,""viewing_time"":47924},{""page_index"":3,""viewing_time"":25083}]",252
,,,,,,,,,,,,,,,60797,,60800,,,instructions,"[{""page_index"":0,""viewing_time"":19250},{""page_index"":1,""viewing_time"":13248},{""page_index"":2,""viewing_time"":14769},{""page_index"":3,""viewing_time"":13529}]",253
,,,,,,,,,,,,,,,34682,,122484,,,instructions,"[{""page_index"":0,""viewing_time"":12171},{""page_index"":1,""viewing_time"":5535},{""page_index"":2,""viewing_time"":13190},{""page_index"":3,""viewing_time"":3784}]",253
,,,,,,,,,,,,,,,22972,,167787,,,instructions,"[{""page_index"":0,""viewing_time"":3459},{""page_index"":1,""viewing_time"":4550},{""page_index"":2,""viewing_time"":8827},{""page_index"":3,""viewing_time"":6135}]",253
,,,,,,,,,,,,,,,275191,,275192,,,instructions,"[{""page_index"":0,""viewing_time"":66814},{""page_index"":1,""viewing_time"":55860},{""page_index"":2,""viewing_time"":105686},{""page_index"":3,""viewing_time"":46830}]",254
,,,,,,,,,,,,,,,104479,,474472,,,instructions,"[{""page_index"":0,""viewing_time"":61938},{""page_index"":1,""viewing_time"":33237},{""page_index"":2,""viewing_time"":5818},{""page_index"":3,""viewing_time"":3485}]",254
,,,,,,,,,,,,,,,28810,,568440,,,instructions,"[{""page_index"":0,""viewing_time"":2881},{""page_index"":1,""viewing_time"":1327},{""page_index"":2,""viewing_time"":4452},{""page_index"":1,""viewing_time"":11827},{""page_index"":2,""viewing_time"":6185},{""page_index"":3,""viewing_time"":2137}]",254
,,,,,,,,,,,,,,,296136,,296138,,,instructions,"[{""page_index"":0,""viewing_time"":109065},{""page_index"":1,""viewing_time"":109486},{""page_index"":2,""viewing_time"":51416},{""page_index"":3,""viewing_time"":26168}]",255
,,,,,,,,,,,,,,,109056,,109059,,,instructions,"[{""page_index"":0,""viewing_time"":32870},{""page_index"":1,""viewing_time"":26241},{""page_index"":2,""viewing_time"":34559},{""page_index"":3,""viewing_time"":15380}]",256
,,,,,,,,,,,,,,,273190,,273193,,,instructions,"[{""page_index"":0,""viewing_time"":140532},{""page_index"":1,""viewing_time"":94423},{""page_index"":2,""viewing_time"":38232}]",257
,,,,,,,,,,,,,,,151486,,151487,,,instructions,"[{""page_index"":0,""viewing_time"":36482},{""page_index"":1,""viewing_time"":44422},{""page_index"":2,""viewing_time"":70581}]",258
,,,,,,,,,,,,,,,1434420,,1434421,,,instructions,"[{""page_index"":0,""viewing_time"":105864},{""page_index"":1,""viewing_time"":1207942},{""page_index"":2,""viewing_time"":112037},{""page_index"":3,""viewing_time"":8576}]",259
,,,,,,,,,,,,,,,79535,,79535,,,instructions,"[{""page_index"":0,""viewing_time"":34132},{""page_index"":1,""viewing_time"":26882},{""page_index"":2,""viewing_time"":18520}]",260
,,,,,,,,,,,,,,,148368,,148369,,,instructions,"[{""page_index"":0,""viewing_time"":58487},{""page_index"":1,""viewing_time"":62064},{""page_index"":2,""viewing_time"":27816}]",261
,,,,,,,,,,,,,,,60839,,60842,,,instructions,"[{""page_index"":0,""viewing_time"":10696},{""page_index"":1,""viewing_time"":18424},{""page_index"":2,""viewing_time"":16004},{""page_index"":3,""viewing_time"":15714}]",262
,,,,,,,,,,,,,,,62352,,159471,,,instructions,"[{""page_index"":0,""viewing_time"":14675},{""page_index"":1,""viewing_time"":8479},{""page_index"":2,""viewing_time"":30070},{""page_index"":3,""viewing_time"":9127}]",262
,,,,,,,,,,,,,,,125287,,125288,,,instructions,"[{""page_index"":0,""viewing_time"":25596},{""page_index"":1,""viewing_time"":59068},{""page_index"":2,""viewing_time"":19223},{""page_index"":3,""viewing_time"":21400}]",263
,,,,,,,,,,,,,,,112669,,280288,,,instructions,"[{""page_index"":0,""viewing_time"":61949},{""page_index"":1,""viewing_time"":21824},{""page_index"":2,""viewing_time"":13880},{""page_index"":3,""viewing_time"":15016}]",263
,,,,,,,,,,,,,,,55356,,55357,,,instructions,"[{""page_index"":0,""viewing_time"":25422},{""page_index"":1,""viewing_time"":17655},{""page_index"":2,""viewing_time"":12278}]",264
,,,,,,,,,,,,,,,76537,,76539,,,instructions,"[{""page_index"":0,""viewing_time"":24702},{""page_index"":1,""viewing_time"":23889},{""page_index"":2,""viewing_time"":5642},{""page_index"":3,""viewing_time"":22303}]",265
