p_rdata,action_times,actions,beliefs,correct,delays,information_used_correctly,key_press,meta_actions,path,planned_too_little,planned_too_much,queries,questions,responses,rt,score,time_elapsed,trial_index,trial_id,trial_type,view_history,pid
,,,,"[True, True, True, True, True]",,,,,,,,,"[""True or false: The hidden values will change each time I start a new round."",""How much does it cost to observe each hidden value?"",""How many hidden values am I allowed to observe in each round?"",""How is your bonus determined?"",""What does the feedback teach you?""]","[""True"",""$0.25"",""As many or as few as I wish"",""1 cent for every $1 I earn in each round"",""All of the above.""]",20023,,130101,,,survey-multi-choice,,0
,,,,"[True, True, True, True, False]",,,,,,,,,"[""True or false: The hidden values will change each time I start a new round."",""How much does it cost to observe each hidden value?"",""How many hidden values am I allowed to observe in each round?"",""How is your bonus determined?"",""What does the feedback teach you?""]","[""True"",""$1.00"",""As many or as few as I wish"",""1 cent for every $1 I earn in each round"",""Whether I chose the move that was best according to the information I had.""]",135820,,598599,,,survey-multi-choice,,1
,,,,"[True, True, True, True, True]",,,,,,,,,"[""True or false: The hidden values will change each time I start a new round."",""How much does it cost to observe each hidden value?"",""How many hidden values am I allowed to observe in each round?"",""How is your bonus determined?"",""What does the feedback teach you?""]","[""True"",""$1.00"",""As many or as few as I wish"",""1 cent for every $1 I earn in each round"",""All of the above.""]",19400,,655236,,,survey-multi-choice,,1
,,,,"[True, True, True, True, True]",,,,,,,,,"[""True or false: The hidden values will change each time I start a new round."",""How much does it cost to observe each hidden value?"",""How many hidden values am I allowed to observe in each round?"",""How is your bonus determined?"",""What does the feedback teach you?""]","[""True"",""$4.00"",""As many or as few as I wish"",""1 cent for every $1 I earn in each round"",""All of the above.""]",25134,,222891,,,survey-multi-choice,,2
,,,,"[True, True, True, True, True]",,,,,,,,,"[""True or false: The hidden values will change each time I start a new round."",""How much does it cost to observe each hidden value?"",""How many hidden values am I allowed to observe in each round?"",""How is your bonus determined?"",""What does the feedback teach you?""]","[""True"",""$4.00"",""As many or as few as I wish"",""1 cent for every $1 I earn in each round"",""All of the above.""]",29356,,316836,,,survey-multi-choice,,3
,,,,"[True, True, True, True, True]",,,,,,,,,"[""True or false: The hidden values will change each time I start a new round."",""How much does it cost to observe each hidden value?"",""How many hidden values am I allowed to observe in each round?"",""How is your bonus determined?"",""What does the feedback teach you?""]","[""True"",""$1.00"",""As many or as few as I wish"",""1 cent for every $1 I earn in each round"",""All of the above.""]",23689,,163206,,,survey-multi-choice,,4
,,,,"[True, True, True, True]",,,,,,,,,"[""True or false: The hidden values will change each time I start a new round."",""How much does it cost to observe each hidden value?"",""How many hidden values am I allowed to observe in each round?"",""How is your bonus determined?""]","[""True"",""$1.00"",""As many or as few as I wish"",""1 cent for every $1 I earn in each round""]",24528,,271220,,,survey-multi-choice,,5
,,,,"[True, False, True, True, True]",,,,,,,,,"[""True or false: The hidden values will change each time I start a new round."",""How much does it cost to observe each hidden value?"",""How many hidden values am I allowed to observe in each round?"",""How is your bonus determined?"",""What does the feedback teach you?""]","[""True"",""$0.05"",""As many or as few as I wish"",""1 cent for every $1 I earn in each round"",""All of the above.""]",28356,,163337,,,survey-multi-choice,,6
,,,,"[True, True, True, True, True]",,,,,,,,,"[""True or false: The hidden values will change each time I start a new round."",""How much does it cost to observe each hidden value?"",""How many hidden values am I allowed to observe in each round?"",""How is your bonus determined?"",""What does the feedback teach you?""]","[""True"",""$4.00"",""As many or as few as I wish"",""1 cent for every $1 I earn in each round"",""All of the above.""]",23774,,214337,,,survey-multi-choice,,6
,,,,"[True, True, True, True, True]",,,,,,,,,"[""True or false: The hidden values will change each time I start a new round."",""How much does it cost to observe each hidden value?"",""How many hidden values am I allowed to observe in each round?"",""How is your bonus determined?"",""What does the feedback teach you?""]","[""True"",""$0.25"",""As many or as few as I wish"",""1 cent for every $1 I earn in each round"",""All of the above.""]",23667,,115144,,,survey-multi-choice,,7
,,,,"[True, True, True, True, False]",,,,,,,,,"[""True or false: The hidden values will change each time I start a new round."",""How much does it cost to observe each hidden value?"",""How many hidden values am I allowed to observe in each round?"",""How is your bonus determined?"",""What does the feedback teach you?""]","[""True"",""$0.25"",""As many or as few as I wish"",""1 cent for every $1 I earn in each round"",""Whether I chose the move that was best.""]",100950,,359773,,,survey-multi-choice,,8
,,,,"[True, True, True, True, True]",,,,,,,,,"[""True or false: The hidden values will change each time I start a new round."",""How much does it cost to observe each hidden value?"",""How many hidden values am I allowed to observe in each round?"",""How is your bonus determined?"",""What does the feedback teach you?""]","[""True"",""$0.25"",""As many or as few as I wish"",""1 cent for every $1 I earn in each round"",""All of the above.""]",96432,,464525,,,survey-multi-choice,,8
,,,,"[True, True, False, True]",,,,,,,,,"[""True or false: The hidden values will change each time I start a new round."",""How much does it cost to observe each hidden value?"",""How many hidden values am I allowed to observe in each round?"",""How is your bonus determined?""]","[""True"",""$0.25"",""At most 1"",""1 cent for every $1 I earn in each round""]",24551,,87761,,,survey-multi-choice,,9
,,,,"[True, True, True, True]",,,,,,,,,"[""True or false: The hidden values will change each time I start a new round."",""How much does it cost to observe each hidden value?"",""How many hidden values am I allowed to observe in each round?"",""How is your bonus determined?""]","[""True"",""$0.25"",""As many or as few as I wish"",""1 cent for every $1 I earn in each round""]",32061,,153501,,,survey-multi-choice,,9
,,,,"[True, True, True, True, True]",,,,,,,,,"[""True or false: The hidden values will change each time I start a new round."",""How much does it cost to observe each hidden value?"",""How many hidden values am I allowed to observe in each round?"",""How is your bonus determined?"",""What does the feedback teach you?""]","[""True"",""$4.00"",""As many or as few as I wish"",""1 cent for every $1 I earn in each round"",""All of the above.""]",26629,,181514,,,survey-multi-choice,,10
,,,,"[True, True, True, True]",,,,,,,,,"[""True or false: The hidden values will change each time I start a new round."",""How much does it cost to observe each hidden value?"",""How many hidden values am I allowed to observe in each round?"",""How is your bonus determined?""]","[""True"",""$1.00"",""As many or as few as I wish"",""1 cent for every $1 I earn in each round""]",31576,,408428,,,survey-multi-choice,,11
,,,,"[True, False, True, True]",,,,,,,,,"[""True or false: The hidden values will change each time I start a new round."",""How much does it cost to observe each hidden value?"",""How many hidden values am I allowed to observe in each round?"",""How is your bonus determined?""]","[""True"",""$0.01"",""As many or as few as I wish"",""1 cent for every $1 I earn in each round""]",53864,,377526,,,survey-multi-choice,,12
,,,,"[True, True, True, True]",,,,,,,,,"[""True or false: The hidden values will change each time I start a new round."",""How much does it cost to observe each hidden value?"",""How many hidden values am I allowed to observe in each round?"",""How is your bonus determined?""]","[""True"",""$4.00"",""As many or as few as I wish"",""1 cent for every $1 I earn in each round""]",32108,,546223,,,survey-multi-choice,,12
,,,,"[True, True, True, True, False]",,,,,,,,,"[""True or false: The hidden values will change each time I start a new round."",""How much does it cost to observe each hidden value?"",""How many hidden values am I allowed to observe in each round?"",""How is your bonus determined?"",""What does the feedback teach you?""]","[""True"",""$4.00"",""As many or as few as I wish"",""1 cent for every $1 I earn in each round"",""Whether I chose the move that was best.""]",28967,,402176,,,survey-multi-choice,,13
,,,,"[False, True, True, True, False]",,,,,,,,,"[""True or false: The hidden values will change each time I start a new round."",""How much does it cost to observe each hidden value?"",""How many hidden values am I allowed to observe in each round?"",""How is your bonus determined?"",""What does the feedback teach you?""]","[""False"",""$4.00"",""As many or as few as I wish"",""1 cent for every $1 I earn in each round"",""Whether I chose the move that was best.""]",43317,,519708,,,survey-multi-choice,,13
,,,,"[True, True, True, True, False]",,,,,,,,,"[""True or false: The hidden values will change each time I start a new round."",""How much does it cost to observe each hidden value?"",""How many hidden values am I allowed to observe in each round?"",""How is your bonus determined?"",""What does the feedback teach you?""]","[""True"",""$4.00"",""As many or as few as I wish"",""1 cent for every $1 I earn in each round"",""The length of the delay is based on how much more money I could have earned.""]",82534,,673715,,,survey-multi-choice,,13
,,,,"[True, True, False, True, False]",,,,,,,,,"[""True or false: The hidden values will change each time I start a new round."",""How much does it cost to observe each hidden value?"",""How many hidden values am I allowed to observe in each round?"",""How is your bonus determined?"",""What does the feedback teach you?""]","[""True"",""$4.00"",""At most 1"",""1 cent for every $1 I earn in each round"",""Whether I chose the move that was best.""]",12837,,834465,,,survey-multi-choice,,13
,,,,"[True, True, True, True, True]",,,,,,,,,"[""True or false: The hidden values will change each time I start a new round."",""How much does it cost to observe each hidden value?"",""How many hidden values am I allowed to observe in each round?"",""How is your bonus determined?"",""What does the feedback teach you?""]","[""True"",""$4.00"",""As many or as few as I wish"",""1 cent for every $1 I earn in each round"",""All of the above.""]",26937,,871180,,,survey-multi-choice,,13
,,,,"[False, True, True, True, True]",,,,,,,,,"[""True or false: The hidden values will change each time I start a new round."",""How much does it cost to observe each hidden value?"",""How many hidden values am I allowed to observe in each round?"",""How is your bonus determined?"",""What does the feedback teach you?""]","[""False"",""$1.00"",""As many or as few as I wish"",""1 cent for every $1 I earn in each round"",""All of the above.""]",20096,,87962,,,survey-multi-choice,,14
,,,,"[True, True, True, True, False]",,,,,,,,,"[""True or false: The hidden values will change each time I start a new round."",""How much does it cost to observe each hidden value?"",""How many hidden values am I allowed to observe in each round?"",""How is your bonus determined?"",""What does the feedback teach you?""]","[""True"",""$1.00"",""As many or as few as I wish"",""1 cent for every $1 I earn in each round"",""Whether I chose the move that was best.""]",16057,,273220,,,survey-multi-choice,,14
,,,,"[True, True, True, True, False]",,,,,,,,,"[""True or false: The hidden values will change each time I start a new round."",""How much does it cost to observe each hidden value?"",""How many hidden values am I allowed to observe in each round?"",""How is your bonus determined?"",""What does the feedback teach you?""]","[""True"",""$1.00"",""As many or as few as I wish"",""1 cent for every $1 I earn in each round"",""Whether I chose the move that was best.""]",14009,,338636,,,survey-multi-choice,,14
,,,,"[True, True, True, True, True]",,,,,,,,,"[""True or false: The hidden values will change each time I start a new round."",""How much does it cost to observe each hidden value?"",""How many hidden values am I allowed to observe in each round?"",""How is your bonus determined?"",""What does the feedback teach you?""]","[""True"",""$1.00"",""As many or as few as I wish"",""1 cent for every $1 I earn in each round"",""All of the above.""]",18506,,435850,,,survey-multi-choice,,14
,,,,"[True, True, True, True]",,,,,,,,,"[""True or false: The hidden values will change each time I start a new round."",""How much does it cost to observe each hidden value?"",""How many hidden values am I allowed to observe in each round?"",""How is your bonus determined?""]","[""True"",""$1.00"",""As many or as few as I wish"",""1 cent for every $1 I earn in each round""]",20326,,112851,,,survey-multi-choice,,15
,,,,"[True, True, True, False, True]",,,,,,,,,"[""True or false: The hidden values will change each time I start a new round."",""How much does it cost to observe each hidden value?"",""How many hidden values am I allowed to observe in each round?"",""How is your bonus determined?"",""What does the feedback teach you?""]","[""True"",""$1.00"",""As many or as few as I wish"",""10% of my score on a random round"",""All of the above.""]",29920,,137666,,,survey-multi-choice,,16
,,,,"[True, True, True, True, True]",,,,,,,,,"[""True or false: The hidden values will change each time I start a new round."",""How much does it cost to observe each hidden value?"",""How many hidden values am I allowed to observe in each round?"",""How is your bonus determined?"",""What does the feedback teach you?""]","[""True"",""$1.00"",""As many or as few as I wish"",""1 cent for every $1 I earn in each round"",""All of the above.""]",19999,,209044,,,survey-multi-choice,,16
,,,,"[True, True, True, True]",,,,,,,,,"[""True or false: The hidden values will change each time I start a new round."",""How much does it cost to observe each hidden value?"",""How many hidden values am I allowed to observe in each round?"",""How is your bonus determined?""]","[""True"",""$4.00"",""As many or as few as I wish"",""1 cent for every $1 I earn in each round""]",12681,,122709,,,survey-multi-choice,,17
,,,,"[True, True, True, True, False]",,,,,,,,,"[""True or false: The hidden values will change each time I start a new round."",""How much does it cost to observe each hidden value?"",""How many hidden values am I allowed to observe in each round?"",""How is your bonus determined?"",""What does the feedback teach you?""]","[""True"",""$4.00"",""As many or as few as I wish"",""1 cent for every $1 I earn in each round"",""Whether I chose the move that was best.""]",19447,,142632,,,survey-multi-choice,,18
,,,,"[True, True, True, True, True]",,,,,,,,,"[""True or false: The hidden values will change each time I start a new round."",""How much does it cost to observe each hidden value?"",""How many hidden values am I allowed to observe in each round?"",""How is your bonus determined?"",""What does the feedback teach you?""]","[""True"",""$4.00"",""As many or as few as I wish"",""1 cent for every $1 I earn in each round"",""All of the above.""]",11547,,211225,,,survey-multi-choice,,18
,,,,"[True, True, True, True]",,,,,,,,,"[""True or false: The hidden values will change each time I start a new round."",""How much does it cost to observe each hidden value?"",""How many hidden values am I allowed to observe in each round?"",""How is your bonus determined?""]","[""True"",""$1.00"",""As many or as few as I wish"",""1 cent for every $1 I earn in each round""]",16696,,142396,,,survey-multi-choice,,19
,,,,"[True, False, True, True]",,,,,,,,,"[""True or false: The hidden values will change each time I start a new round."",""How much does it cost to observe each hidden value?"",""How many hidden values am I allowed to observe in each round?"",""How is your bonus determined?""]","[""True"",""$1.00"",""As many or as few as I wish"",""1 cent for every $1 I earn in each round""]",31495,,199272,,,survey-multi-choice,,20
,,,,"[True, True, True, True]",,,,,,,,,"[""True or false: The hidden values will change each time I start a new round."",""How much does it cost to observe each hidden value?"",""How many hidden values am I allowed to observe in each round?"",""How is your bonus determined?""]","[""True"",""$0.25"",""As many or as few as I wish"",""1 cent for every $1 I earn in each round""]",9821,,223465,,,survey-multi-choice,,20
,,,,"[True, True, True, True, True]",,,,,,,,,"[""True or false: The hidden values will change each time I start a new round."",""How much does it cost to observe each hidden value?"",""How many hidden values am I allowed to observe in each round?"",""How is your bonus determined?"",""What does the feedback teach you?""]","[""True"",""$4.00"",""As many or as few as I wish"",""1 cent for every $1 I earn in each round"",""All of the above.""]",27796,,370834,,,survey-multi-choice,,21
,,,,"[True, True, True, True, False]",,,,,,,,,"[""True or false: The hidden values will change each time I start a new round."",""How much does it cost to observe each hidden value?"",""How many hidden values am I allowed to observe in each round?"",""How is your bonus determined?"",""What does the feedback teach you?""]","[""True"",""$1.00"",""As many or as few as I wish"",""1 cent for every $1 I earn in each round"",""Whether I chose the move that was best according to the information I had.""]",51324,,280851,,,survey-multi-choice,,22
,,,,"[True, True, True, True, True]",,,,,,,,,"[""True or false: The hidden values will change each time I start a new round."",""How much does it cost to observe each hidden value?"",""How many hidden values am I allowed to observe in each round?"",""How is your bonus determined?"",""What does the feedback teach you?""]","[""True"",""$1.00"",""As many or as few as I wish"",""1 cent for every $1 I earn in each round"",""All of the above.""]",32897,,506586,,,survey-multi-choice,,22
,,,,"[True, True, False, True, False]",,,,,,,,,"[""True or false: The hidden values will change each time I start a new round."",""How much does it cost to observe each hidden value?"",""How many hidden values am I allowed to observe in each round?"",""How is your bonus determined?"",""What does the feedback teach you?""]","[""True"",""$0.25"",""At most 10"",""1 cent for every $1 I earn in each round"",""Whether I chose the move that was best according to the information I had.""]",31600,,136297,,,survey-multi-choice,,23
,,,,"[True, True, True, True, True]",,,,,,,,,"[""True or false: The hidden values will change each time I start a new round."",""How much does it cost to observe each hidden value?"",""How many hidden values am I allowed to observe in each round?"",""How is your bonus determined?"",""What does the feedback teach you?""]","[""True"",""$0.25"",""As many or as few as I wish"",""1 cent for every $1 I earn in each round"",""All of the above.""]",27089,,232287,,,survey-multi-choice,,23
,,,,"[True, True, True, True, True]",,,,,,,,,"[""True or false: The hidden values will change each time I start a new round."",""How much does it cost to observe each hidden value?"",""How many hidden values am I allowed to observe in each round?"",""How is your bonus determined?"",""What does the feedback teach you?""]","[""True"",""$4.00"",""As many or as few as I wish"",""1 cent for every $1 I earn in each round"",""All of the above.""]",52405,,273849,,,survey-multi-choice,,24
,,,,"[True, True, True, True, True]",,,,,,,,,"[""True or false: The hidden values will change each time I start a new round."",""How much does it cost to observe each hidden value?"",""How many hidden values am I allowed to observe in each round?"",""How is your bonus determined?"",""What does the feedback teach you?""]","[""True"",""$0.25"",""As many or as few as I wish"",""1 cent for every $1 I earn in each round"",""All of the above.""]",24770,,189344,,,survey-multi-choice,,25
,,,,"[True, False, True, True, False]",,,,,,,,,"[""True or false: The hidden values will change each time I start a new round."",""How much does it cost to observe each hidden value?"",""How many hidden values am I allowed to observe in each round?"",""How is your bonus determined?"",""What does the feedback teach you?""]","[""True"",""$0.01"",""As many or as few as I wish"",""1 cent for every $1 I earn in each round"",""Whether I chose the move that was best.""]",60730,,223078,,,survey-multi-choice,,26
,,,,"[True, True, True, True, False]",,,,,,,,,"[""True or false: The hidden values will change each time I start a new round."",""How much does it cost to observe each hidden value?"",""How many hidden values am I allowed to observe in each round?"",""How is your bonus determined?"",""What does the feedback teach you?""]","[""True"",""$0.25"",""As many or as few as I wish"",""1 cent for every $1 I earn in each round"",""Whether I chose the move that was best.""]",21609,,377573,,,survey-multi-choice,,26
,,,,"[True, True, True, True, True]",,,,,,,,,"[""True or false: The hidden values will change each time I start a new round."",""How much does it cost to observe each hidden value?"",""How many hidden values am I allowed to observe in each round?"",""How is your bonus determined?"",""What does the feedback teach you?""]","[""True"",""$0.25"",""As many or as few as I wish"",""1 cent for every $1 I earn in each round"",""All of the above.""]",16260,,406723,,,survey-multi-choice,,26
,,,,"[True, True, True, True, True]",,,,,,,,,"[""True or false: The hidden values will change each time I start a new round."",""How much does it cost to observe each hidden value?"",""How many hidden values am I allowed to observe in each round?"",""How is your bonus determined?"",""What does the feedback teach you?""]","[""True"",""$0.25"",""As many or as few as I wish"",""1 cent for every $1 I earn in each round"",""All of the above.""]",41710,,272365,,,survey-multi-choice,,27
,,,,"[True, True, True, True, True]",,,,,,,,,"[""True or false: The hidden values will change each time I start a new round."",""How much does it cost to observe each hidden value?"",""How many hidden values am I allowed to observe in each round?"",""How is your bonus determined?"",""What does the feedback teach you?""]","[""True"",""$0.25"",""As many or as few as I wish"",""1 cent for every $1 I earn in each round"",""All of the above.""]",24826,,132035,,,survey-multi-choice,,28
,,,,"[True, True, True, True, False]",,,,,,,,,"[""True or false: The hidden values will change each time I start a new round."",""How much does it cost to observe each hidden value?"",""How many hidden values am I allowed to observe in each round?"",""How is your bonus determined?"",""What does the feedback teach you?""]","[""True"",""$1.00"",""As many or as few as I wish"",""1 cent for every $1 I earn in each round"",""The length of the delay is based on how much more money I could have earned.""]",28542,,119083,,,survey-multi-choice,,29
,,,,"[True, True, True, True, True]",,,,,,,,,"[""True or false: The hidden values will change each time I start a new round."",""How much does it cost to observe each hidden value?"",""How many hidden values am I allowed to observe in each round?"",""How is your bonus determined?"",""What does the feedback teach you?""]","[""True"",""$1.00"",""As many or as few as I wish"",""1 cent for every $1 I earn in each round"",""All of the above.""]",23182,,169273,,,survey-multi-choice,,29
,,,,"[True, True, True, True, True]",,,,,,,,,"[""True or false: The hidden values will change each time I start a new round."",""How much does it cost to observe each hidden value?"",""How many hidden values am I allowed to observe in each round?"",""How is your bonus determined?"",""What does the feedback teach you?""]","[""True"",""$1.00"",""As many or as few as I wish"",""1 cent for every $1 I earn in each round"",""All of the above.""]",41935,,243962,,,survey-multi-choice,,30
,,,,"[True, True, True, True, True]",,,,,,,,,"[""True or false: The hidden values will change each time I start a new round."",""How much does it cost to observe each hidden value?"",""How many hidden values am I allowed to observe in each round?"",""How is your bonus determined?"",""What does the feedback teach you?""]","[""True"",""$0.25"",""As many or as few as I wish"",""1 cent for every $1 I earn in each round"",""All of the above.""]",37252,,173540,,,survey-multi-choice,,31
,,,,"[True, True, False, True, False]",,,,,,,,,"[""True or false: The hidden values will change each time I start a new round."",""How much does it cost to observe each hidden value?"",""How many hidden values am I allowed to observe in each round?"",""How is your bonus determined?"",""What does the feedback teach you?""]","[""True"",""$4.00"",""At most 1"",""1 cent for every $1 I earn in each round"",""Whether I chose the move that was best according to the information I had.""]",52892,,235707,,,survey-multi-choice,,32
,,,,"[True, True, True, True, False]",,,,,,,,,"[""True or false: The hidden values will change each time I start a new round."",""How much does it cost to observe each hidden value?"",""How many hidden values am I allowed to observe in each round?"",""How is your bonus determined?"",""What does the feedback teach you?""]","[""True"",""$4.00"",""As many or as few as I wish"",""1 cent for every $1 I earn in each round"",""Whether I chose the move that was best according to the information I had.""]",65825,,384871,,,survey-multi-choice,,32
,,,,"[True, True, True, True, True]",,,,,,,,,"[""True or false: The hidden values will change each time I start a new round."",""How much does it cost to observe each hidden value?"",""How many hidden values am I allowed to observe in each round?"",""How is your bonus determined?"",""What does the feedback teach you?""]","[""True"",""$4.00"",""As many or as few as I wish"",""1 cent for every $1 I earn in each round"",""All of the above.""]",55568,,450512,,,survey-multi-choice,,32
,,,,"[True, True, True, True, True]",,,,,,,,,"[""True or false: The hidden values will change each time I start a new round."",""How much does it cost to observe each hidden value?"",""How many hidden values am I allowed to observe in each round?"",""How is your bonus determined?"",""What does the feedback teach you?""]","[""True"",""$0.25"",""As many or as few as I wish"",""1 cent for every $1 I earn in each round"",""All of the above.""]",33896,,328648,,,survey-multi-choice,,33
,,,,"[True, True, True, True, False]",,,,,,,,,"[""True or false: The hidden values will change each time I start a new round."",""How much does it cost to observe each hidden value?"",""How many hidden values am I allowed to observe in each round?"",""How is your bonus determined?"",""What does the feedback teach you?""]","[""True"",""$1.00"",""As many or as few as I wish"",""1 cent for every $1 I earn in each round"",""Whether I observed the rewards of relevant locations.""]",35824,,185454,,,survey-multi-choice,,34
,,,,"[True, True, True, True, False]",,,,,,,,,"[""True or false: The hidden values will change each time I start a new round."",""How much does it cost to observe each hidden value?"",""How many hidden values am I allowed to observe in each round?"",""How is your bonus determined?"",""What does the feedback teach you?""]","[""True"",""$1.00"",""As many or as few as I wish"",""1 cent for every $1 I earn in each round"",""Whether I chose the move that was best according to the information I had.""]",38582,,271568,,,survey-multi-choice,,34
,,,,"[True, True, True, True, True]",,,,,,,,,"[""True or false: The hidden values will change each time I start a new round."",""How much does it cost to observe each hidden value?"",""How many hidden values am I allowed to observe in each round?"",""How is your bonus determined?"",""What does the feedback teach you?""]","[""True"",""$1.00"",""As many or as few as I wish"",""1 cent for every $1 I earn in each round"",""All of the above.""]",22877,,313835,,,survey-multi-choice,,34
,,,,"[True, True, True, True]",,,,,,,,,"[""True or false: The hidden values will change each time I start a new round."",""How much does it cost to observe each hidden value?"",""How many hidden values am I allowed to observe in each round?"",""How is your bonus determined?""]","[""True"",""$0.25"",""As many or as few as I wish"",""1 cent for every $1 I earn in each round""]",34069,,177078,,,survey-multi-choice,,35
,,,,"[True, True, True, True, True]",,,,,,,,,"[""True or false: The hidden values will change each time I start a new round."",""How much does it cost to observe each hidden value?"",""How many hidden values am I allowed to observe in each round?"",""How is your bonus determined?"",""What does the feedback teach you?""]","[""True"",""$0.25"",""As many or as few as I wish"",""1 cent for every $1 I earn in each round"",""All of the above.""]",29747,,143830,,,survey-multi-choice,,36
,,,,"[True, False, True, True, True]",,,,,,,,,"[""True or false: The hidden values will change each time I start a new round."",""How much does it cost to observe each hidden value?"",""How many hidden values am I allowed to observe in each round?"",""How is your bonus determined?"",""What does the feedback teach you?""]","[""True"",""$0.01"",""As many or as few as I wish"",""1 cent for every $1 I earn in each round"",""All of the above.""]",38182,,182016,,,survey-multi-choice,,37
,,,,"[True, True, True, True, True]",,,,,,,,,"[""True or false: The hidden values will change each time I start a new round."",""How much does it cost to observe each hidden value?"",""How many hidden values am I allowed to observe in each round?"",""How is your bonus determined?"",""What does the feedback teach you?""]","[""True"",""$1.00"",""As many or as few as I wish"",""1 cent for every $1 I earn in each round"",""All of the above.""]",27175,,253304,,,survey-multi-choice,,37
,,,,"[True, True, True, True, True]",,,,,,,,,"[""True or false: The hidden values will change each time I start a new round."",""How much does it cost to observe each hidden value?"",""How many hidden values am I allowed to observe in each round?"",""How is your bonus determined?"",""What does the feedback teach you?""]","[""True"",""$1.00"",""As many or as few as I wish"",""1 cent for every $1 I earn in each round"",""All of the above.""]",21842,,210490,,,survey-multi-choice,,38
,,,,"[True, False, False, False, True]",,,,,,,,,"[""True or false: The hidden values will change each time I start a new round."",""How much does it cost to observe each hidden value?"",""How many hidden values am I allowed to observe in each round?"",""How is your bonus determined?"",""What does the feedback teach you?""]","[""True"",""$0.25"",""At most 5"",""10% of my best score on any round"",""All of the above.""]",13394,,67063,,,survey-multi-choice,,39
,,,,"[False, True, False, True, False]",,,,,,,,,"[""True or false: The hidden values will change each time I start a new round."",""How much does it cost to observe each hidden value?"",""How many hidden values am I allowed to observe in each round?"",""How is your bonus determined?"",""What does the feedback teach you?""]","[""False"",""$1.00"",""At most 1"",""1 cent for every $1 I earn in each round"",""Whether I chose the move that was best.""]",25364,,150913,,,survey-multi-choice,,39
,,,,"[False, False, False, True, False]",,,,,,,,,"[""True or false: The hidden values will change each time I start a new round."",""How much does it cost to observe each hidden value?"",""How many hidden values am I allowed to observe in each round?"",""How is your bonus determined?"",""What does the feedback teach you?""]","[""False"",""$0.01"",""At most 5"",""1 cent for every $1 I earn in each round"",""Whether I chose the move that was best.""]",10967,,169358,,,survey-multi-choice,,39
,,,,"[False, False, False, True, False]",,,,,,,,,"[""True or false: The hidden values will change each time I start a new round."",""How much does it cost to observe each hidden value?"",""How many hidden values am I allowed to observe in each round?"",""How is your bonus determined?"",""What does the feedback teach you?""]","[""False"",""$0.01"",""At most 10"",""1 cent for every $1 I earn in each round"",""Whether I chose the move that was best.""]",7336,,185866,,,survey-multi-choice,,39
,,,,"[False, True, True, True, False]",,,,,,,,,"[""True or false: The hidden values will change each time I start a new round."",""How much does it cost to observe each hidden value?"",""How many hidden values am I allowed to observe in each round?"",""How is your bonus determined?"",""What does the feedback teach you?""]","[""False"",""$1.00"",""As many or as few as I wish"",""1 cent for every $1 I earn in each round"",""Whether I chose the move that was best.""]",18244,,211642,,,survey-multi-choice,,39
,,,,"[True, True, True, True, True]",,,,,,,,,"[""True or false: The hidden values will change each time I start a new round."",""How much does it cost to observe each hidden value?"",""How many hidden values am I allowed to observe in each round?"",""How is your bonus determined?"",""What does the feedback teach you?""]","[""True"",""$1.00"",""As many or as few as I wish"",""1 cent for every $1 I earn in each round"",""All of the above.""]",25269,,325200,,,survey-multi-choice,,39
,,,,"[True, True, True, True, False]",,,,,,,,,"[""True or false: The hidden values will change each time I start a new round."",""How much does it cost to observe each hidden value?"",""How many hidden values am I allowed to observe in each round?"",""How is your bonus determined?"",""What does the feedback teach you?""]","[""True"",""$1.00"",""As many or as few as I wish"",""1 cent for every $1 I earn in each round"",""Whether I chose the move that was best.""]",26376,,143234,,,survey-multi-choice,,40
,,,,"[True, True, True, True, True]",,,,,,,,,"[""True or false: The hidden values will change each time I start a new round."",""How much does it cost to observe each hidden value?"",""How many hidden values am I allowed to observe in each round?"",""How is your bonus determined?"",""What does the feedback teach you?""]","[""True"",""$1.00"",""As many or as few as I wish"",""1 cent for every $1 I earn in each round"",""All of the above.""]",28894,,235634,,,survey-multi-choice,,40
,,,,"[True, True, True, True, True]",,,,,,,,,"[""True or false: The hidden values will change each time I start a new round."",""How much does it cost to observe each hidden value?"",""How many hidden values am I allowed to observe in each round?"",""How is your bonus determined?"",""What does the feedback teach you?""]","[""True"",""$0.25"",""As many or as few as I wish"",""1 cent for every $1 I earn in each round"",""All of the above.""]",52310,,379894,,,survey-multi-choice,,41
,,,,"[True, False, True, True]",,,,,,,,,"[""True or false: The hidden values will change each time I start a new round."",""How much does it cost to observe each hidden value?"",""How many hidden values am I allowed to observe in each round?"",""How is your bonus determined?""]","[""True"",""$0.01"",""As many or as few as I wish"",""1 cent for every $1 I earn in each round""]",18958,,93505,,,survey-multi-choice,,42
,,,,"[True, True, True, True]",,,,,,,,,"[""True or false: The hidden values will change each time I start a new round."",""How much does it cost to observe each hidden value?"",""How many hidden values am I allowed to observe in each round?"",""How is your bonus determined?""]","[""True"",""$0.25"",""As many or as few as I wish"",""1 cent for every $1 I earn in each round""]",10507,,127672,,,survey-multi-choice,,42
,,,,"[True, True, True, True]",,,,,,,,,"[""True or false: The hidden values will change each time I start a new round."",""How much does it cost to observe each hidden value?"",""How many hidden values am I allowed to observe in each round?"",""How is your bonus determined?""]","[""True"",""$4.00"",""As many or as few as I wish"",""1 cent for every $1 I earn in each round""]",40052,,195286,,,survey-multi-choice,,43
,,,,"[True, True, True, True]",,,,,,,,,"[""True or false: The hidden values will change each time I start a new round."",""How much does it cost to observe each hidden value?"",""How many hidden values am I allowed to observe in each round?"",""How is your bonus determined?""]","[""True"",""$0.25"",""As many or as few as I wish"",""1 cent for every $1 I earn in each round""]",30201,,177146,,,survey-multi-choice,,44
,,,,"[True, True, True, True, True]",,,,,,,,,"[""True or false: The hidden values will change each time I start a new round."",""How much does it cost to observe each hidden value?"",""How many hidden values am I allowed to observe in each round?"",""How is your bonus determined?"",""What does the feedback teach you?""]","[""True"",""$0.25"",""As many or as few as I wish"",""1 cent for every $1 I earn in each round"",""All of the above.""]",24047,,307217,,,survey-multi-choice,,45
,,,,"[True, True, True, True, True]",,,,,,,,,"[""True or false: The hidden values will change each time I start a new round."",""How much does it cost to observe each hidden value?"",""How many hidden values am I allowed to observe in each round?"",""How is your bonus determined?"",""What does the feedback teach you?""]","[""True"",""$1.00"",""As many or as few as I wish"",""1 cent for every $1 I earn in each round"",""All of the above.""]",13152,,73613,,,survey-multi-choice,,46
,,,,"[True, True, False, True, False]",,,,,,,,,"[""True or false: The hidden values will change each time I start a new round."",""How much does it cost to observe each hidden value?"",""How many hidden values am I allowed to observe in each round?"",""How is your bonus determined?"",""What does the feedback teach you?""]","[""True"",""$4.00"",""At most 5"",""1 cent for every $1 I earn in each round"",""Whether I chose the move that was best according to the information I had.""]",32162,,122391,,,survey-multi-choice,,47
,,,,"[True, True, True, False, False]",,,,,,,,,"[""True or false: The hidden values will change each time I start a new round."",""How much does it cost to observe each hidden value?"",""How many hidden values am I allowed to observe in each round?"",""How is your bonus determined?"",""What does the feedback teach you?""]","[""True"",""$4.00"",""As many or as few as I wish"",""10% of my best score on any round"",""Whether I chose the move that was best according to the information I had.""]",14470,,178392,,,survey-multi-choice,,47
,,,,"[True, True, True, True, True]",,,,,,,,,"[""True or false: The hidden values will change each time I start a new round."",""How much does it cost to observe each hidden value?"",""How many hidden values am I allowed to observe in each round?"",""How is your bonus determined?"",""What does the feedback teach you?""]","[""True"",""$4.00"",""As many or as few as I wish"",""1 cent for every $1 I earn in each round"",""All of the above.""]",14479,,255688,,,survey-multi-choice,,47
,,,,"[True, True, True, True]",,,,,,,,,"[""True or false: The hidden values will change each time I start a new round."",""How much does it cost to observe each hidden value?"",""How many hidden values am I allowed to observe in each round?"",""How is your bonus determined?""]","[""True"",""$4.00"",""As many or as few as I wish"",""1 cent for every $1 I earn in each round""]",27514,,323377,,,survey-multi-choice,,48
,,,,"[True, True, True, True, True]",,,,,,,,,"[""True or false: The hidden values will change each time I start a new round."",""How much does it cost to observe each hidden value?"",""How many hidden values am I allowed to observe in each round?"",""How is your bonus determined?"",""What does the feedback teach you?""]","[""True"",""$4.00"",""As many or as few as I wish"",""1 cent for every $1 I earn in each round"",""All of the above.""]",43882,,232178,,,survey-multi-choice,,49
,,,,"[True, True, True, True]",,,,,,,,,"[""True or false: The hidden values will change each time I start a new round."",""How much does it cost to observe each hidden value?"",""How many hidden values am I allowed to observe in each round?"",""How is your bonus determined?""]","[""True"",""$4.00"",""As many or as few as I wish"",""1 cent for every $1 I earn in each round""]",11951,,146997,,,survey-multi-choice,,50
,,,,"[True, True, True, True, True]",,,,,,,,,"[""True or false: The hidden values will change each time I start a new round."",""How much does it cost to observe each hidden value?"",""How many hidden values am I allowed to observe in each round?"",""How is your bonus determined?"",""What does the feedback teach you?""]","[""True"",""$1.00"",""As many or as few as I wish"",""1 cent for every $1 I earn in each round"",""All of the above.""]",36824,,250137,,,survey-multi-choice,,51
,,,,"[True, True, True, True]",,,,,,,,,"[""True or false: The hidden values will change each time I start a new round."",""How much does it cost to observe each hidden value?"",""How many hidden values am I allowed to observe in each round?"",""How is your bonus determined?""]","[""True"",""$0.25"",""As many or as few as I wish"",""1 cent for every $1 I earn in each round""]",16030,,112872,,,survey-multi-choice,,52
,,,,"[True, True, True, True, True]",,,,,,,,,"[""True or false: The hidden values will change each time I start a new round."",""How much does it cost to observe each hidden value?"",""How many hidden values am I allowed to observe in each round?"",""How is your bonus determined?"",""What does the feedback teach you?""]","[""True"",""$4.00"",""As many or as few as I wish"",""1 cent for every $1 I earn in each round"",""All of the above.""]",35371,,283101,,,survey-multi-choice,,53
,,,,"[False, True, True, False, True]",,,,,,,,,"[""True or false: The hidden values will change each time I start a new round."",""How much does it cost to observe each hidden value?"",""How many hidden values am I allowed to observe in each round?"",""How is your bonus determined?"",""What does the feedback teach you?""]","[""False"",""$0.25"",""As many or as few as I wish"",""10% of my score on a random round"",""All of the above.""]",44542,,210021,,,survey-multi-choice,,54
,,,,"[True, True, True, True, True]",,,,,,,,,"[""True or false: The hidden values will change each time I start a new round."",""How much does it cost to observe each hidden value?"",""How many hidden values am I allowed to observe in each round?"",""How is your bonus determined?"",""What does the feedback teach you?""]","[""True"",""$0.25"",""As many or as few as I wish"",""1 cent for every $1 I earn in each round"",""All of the above.""]",89669,,389558,,,survey-multi-choice,,54
,,,,"[True, True, True, True, False]",,,,,,,,,"[""True or false: The hidden values will change each time I start a new round."",""How much does it cost to observe each hidden value?"",""How many hidden values am I allowed to observe in each round?"",""How is your bonus determined?"",""What does the feedback teach you?""]","[""True"",""$0.25"",""As many or as few as I wish"",""1 cent for every $1 I earn in each round"",""Whether I chose the move that was best.""]",23590,,115959,,,survey-multi-choice,,55
,,,,"[True, True, True, True, False]",,,,,,,,,"[""True or false: The hidden values will change each time I start a new round."",""How much does it cost to observe each hidden value?"",""How many hidden values am I allowed to observe in each round?"",""How is your bonus determined?"",""What does the feedback teach you?""]","[""True"",""$0.25"",""As many or as few as I wish"",""1 cent for every $1 I earn in each round"",""The length of the delay is based on how much more money I could have earned.""]",9875,,174190,,,survey-multi-choice,,55
,,,,"[True, True, True, True, True]",,,,,,,,,"[""True or false: The hidden values will change each time I start a new round."",""How much does it cost to observe each hidden value?"",""How many hidden values am I allowed to observe in each round?"",""How is your bonus determined?"",""What does the feedback teach you?""]","[""True"",""$0.25"",""As many or as few as I wish"",""1 cent for every $1 I earn in each round"",""All of the above.""]",8852,,190716,,,survey-multi-choice,,55
,,,,"[True, False, False, False]",,,,,,,,,"[""True or false: The hidden values will change each time I start a new round."",""How much does it cost to observe each hidden value?"",""How many hidden values am I allowed to observe in each round?"",""How is your bonus determined?""]","[""True"",""$0.05"",""At most 5"",""10% of my best score on any round""]",28633,,142650,,,survey-multi-choice,,56
,,,,"[True, False, True, True]",,,,,,,,,"[""True or false: The hidden values will change each time I start a new round."",""How much does it cost to observe each hidden value?"",""How many hidden values am I allowed to observe in each round?"",""How is your bonus determined?""]","[""True"",""$0.01"",""As many or as few as I wish"",""1 cent for every $1 I earn in each round""]",15542,,246894,,,survey-multi-choice,,56
,,,,"[True, True, True, True]",,,,,,,,,"[""True or false: The hidden values will change each time I start a new round."",""How much does it cost to observe each hidden value?"",""How many hidden values am I allowed to observe in each round?"",""How is your bonus determined?""]","[""True"",""$1.00"",""As many or as few as I wish"",""1 cent for every $1 I earn in each round""]",19945,,302899,,,survey-multi-choice,,56
,,,,"[True, True, True, True, True]",,,,,,,,,"[""True or false: The hidden values will change each time I start a new round."",""How much does it cost to observe each hidden value?"",""How many hidden values am I allowed to observe in each round?"",""How is your bonus determined?"",""What does the feedback teach you?""]","[""True"",""$0.25"",""As many or as few as I wish"",""1 cent for every $1 I earn in each round"",""All of the above.""]",36351,,240874,,,survey-multi-choice,,57
,,,,"[True, True, True, True, True]",,,,,,,,,"[""True or false: The hidden values will change each time I start a new round."",""How much does it cost to observe each hidden value?"",""How many hidden values am I allowed to observe in each round?"",""How is your bonus determined?"",""What does the feedback teach you?""]","[""True"",""$4.00"",""As many or as few as I wish"",""1 cent for every $1 I earn in each round"",""All of the above.""]",21421,,147849,,,survey-multi-choice,,58
,,,,"[True, True, False, True, True]",,,,,,,,,"[""True or false: The hidden values will change each time I start a new round."",""How much does it cost to observe each hidden value?"",""How many hidden values am I allowed to observe in each round?"",""How is your bonus determined?"",""What does the feedback teach you?""]","[""True"",""$0.25"",""At most 1"",""1 cent for every $1 I earn in each round"",""All of the above.""]",31631,,298856,,,survey-multi-choice,,59
,,,,"[True, True, True, True, True]",,,,,,,,,"[""True or false: The hidden values will change each time I start a new round."",""How much does it cost to observe each hidden value?"",""How many hidden values am I allowed to observe in each round?"",""How is your bonus determined?"",""What does the feedback teach you?""]","[""True"",""$0.25"",""As many or as few as I wish"",""1 cent for every $1 I earn in each round"",""All of the above.""]",237738,,567628,,,survey-multi-choice,,59
,,,,"[True, True, True, True]",,,,,,,,,"[""True or false: The hidden values will change each time I start a new round."",""How much does it cost to observe each hidden value?"",""How many hidden values am I allowed to observe in each round?"",""How is your bonus determined?""]","[""True"",""$0.25"",""As many or as few as I wish"",""1 cent for every $1 I earn in each round""]",25903,,241118,,,survey-multi-choice,,60
,,,,"[True, True, True, True]",,,,,,,,,"[""True or false: The hidden values will change each time I start a new round."",""How much does it cost to observe each hidden value?"",""How many hidden values am I allowed to observe in each round?"",""How is your bonus determined?""]","[""True"",""$1.00"",""As many or as few as I wish"",""1 cent for every $1 I earn in each round""]",17040,,101019,,,survey-multi-choice,,61
,,,,"[True, True, True, True, False]",,,,,,,,,"[""True or false: The hidden values will change each time I start a new round."",""How much does it cost to observe each hidden value?"",""How many hidden values am I allowed to observe in each round?"",""How is your bonus determined?"",""What does the feedback teach you?""]","[""True"",""$0.25"",""As many or as few as I wish"",""1 cent for every $1 I earn in each round"",""Whether I chose the move that was best.""]",48404,,312686,,,survey-multi-choice,,62
,,,,"[True, True, True, True, True]",,,,,,,,,"[""True or false: The hidden values will change each time I start a new round."",""How much does it cost to observe each hidden value?"",""How many hidden values am I allowed to observe in each round?"",""How is your bonus determined?"",""What does the feedback teach you?""]","[""True"",""$0.25"",""As many or as few as I wish"",""1 cent for every $1 I earn in each round"",""All of the above.""]",28106,,361243,,,survey-multi-choice,,62
,,,,"[True, True, True, True, True]",,,,,,,,,"[""True or false: The hidden values will change each time I start a new round."",""How much does it cost to observe each hidden value?"",""How many hidden values am I allowed to observe in each round?"",""How is your bonus determined?"",""What does the feedback teach you?""]","[""True"",""$0.25"",""As many or as few as I wish"",""1 cent for every $1 I earn in each round"",""All of the above.""]",41615,,290613,,,survey-multi-choice,,63
,,,,"[True, True, False, True, False]",,,,,,,,,"[""True or false: The hidden values will change each time I start a new round."",""How much does it cost to observe each hidden value?"",""How many hidden values am I allowed to observe in each round?"",""How is your bonus determined?"",""What does the feedback teach you?""]","[""True"",""$1.00"",""At most 1"",""1 cent for every $1 I earn in each round"",""Whether I observed the rewards of relevant locations.""]",36257,,190665,,,survey-multi-choice,,64
,,,,"[False, True, True, True, True]",,,,,,,,,"[""True or false: The hidden values will change each time I start a new round."",""How much does it cost to observe each hidden value?"",""How many hidden values am I allowed to observe in each round?"",""How is your bonus determined?"",""What does the feedback teach you?""]","[""False"",""$1.00"",""As many or as few as I wish"",""1 cent for every $1 I earn in each round"",""All of the above.""]",26160,,282311,,,survey-multi-choice,,64
,,,,"[True, True, True, True, True]",,,,,,,,,"[""True or false: The hidden values will change each time I start a new round."",""How much does it cost to observe each hidden value?"",""How many hidden values am I allowed to observe in each round?"",""How is your bonus determined?"",""What does the feedback teach you?""]","[""True"",""$1.00"",""As many or as few as I wish"",""1 cent for every $1 I earn in each round"",""All of the above.""]",138335,,1056581,,,survey-multi-choice,,64
,,,,"[True, True, True, True]",,,,,,,,,"[""True or false: The hidden values will change each time I start a new round."",""How much does it cost to observe each hidden value?"",""How many hidden values am I allowed to observe in each round?"",""How is your bonus determined?""]","[""True"",""$4.00"",""As many or as few as I wish"",""1 cent for every $1 I earn in each round""]",17920,,382076,,,survey-multi-choice,,65
,,,,"[True, True, True, False]",,,,,,,,,"[""True or false: The hidden values will change each time I start a new round."",""How much does it cost to observe each hidden value?"",""How many hidden values am I allowed to observe in each round?"",""How is your bonus determined?""]","[""True"",""$0.25"",""As many or as few as I wish"",""1% of my best score on any round""]",40803,,155938,,,survey-multi-choice,,66
,,,,"[True, True, True, True]",,,,,,,,,"[""True or false: The hidden values will change each time I start a new round."",""How much does it cost to observe each hidden value?"",""How many hidden values am I allowed to observe in each round?"",""How is your bonus determined?""]","[""True"",""$0.25"",""As many or as few as I wish"",""1 cent for every $1 I earn in each round""]",9907,,199475,,,survey-multi-choice,,66
,,,,"[True, False, True, True, False]",,,,,,,,,"[""True or false: The hidden values will change each time I start a new round."",""How much does it cost to observe each hidden value?"",""How many hidden values am I allowed to observe in each round?"",""How is your bonus determined?"",""What does the feedback teach you?""]","[""True"",""$0.05"",""As many or as few as I wish"",""1 cent for every $1 I earn in each round"",""Whether I chose the move that was best.""]",35721,,158736,,,survey-multi-choice,,67
,,,,"[True, True, True, True, False]",,,,,,,,,"[""True or false: The hidden values will change each time I start a new round."",""How much does it cost to observe each hidden value?"",""How many hidden values am I allowed to observe in each round?"",""How is your bonus determined?"",""What does the feedback teach you?""]","[""True"",""$4.00"",""As many or as few as I wish"",""1 cent for every $1 I earn in each round"",""The length of the delay is based on how much more money I could have earned.""]",24535,,264469,,,survey-multi-choice,,67
,,,,"[True, True, True, True, True]",,,,,,,,,"[""True or false: The hidden values will change each time I start a new round."",""How much does it cost to observe each hidden value?"",""How many hidden values am I allowed to observe in each round?"",""How is your bonus determined?"",""What does the feedback teach you?""]","[""True"",""$4.00"",""As many or as few as I wish"",""1 cent for every $1 I earn in each round"",""All of the above.""]",15787,,299234,,,survey-multi-choice,,67
,,,,"[True, True, True, True, True]",,,,,,,,,"[""True or false: The hidden values will change each time I start a new round."",""How much does it cost to observe each hidden value?"",""How many hidden values am I allowed to observe in each round?"",""How is your bonus determined?"",""What does the feedback teach you?""]","[""True"",""$1.00"",""As many or as few as I wish"",""1 cent for every $1 I earn in each round"",""All of the above.""]",45469,,303003,,,survey-multi-choice,,68
,,,,"[True, True, True, True]",,,,,,,,,"[""True or false: The hidden values will change each time I start a new round."",""How much does it cost to observe each hidden value?"",""How many hidden values am I allowed to observe in each round?"",""How is your bonus determined?""]","[""True"",""$4.00"",""As many or as few as I wish"",""1 cent for every $1 I earn in each round""]",9887,,120137,,,survey-multi-choice,,69
,,,,"[False, True, True, True, True]",,,,,,,,,"[""True or false: The hidden values will change each time I start a new round."",""How much does it cost to observe each hidden value?"",""How many hidden values am I allowed to observe in each round?"",""How is your bonus determined?"",""What does the feedback teach you?""]","[""False"",""$0.25"",""As many or as few as I wish"",""1 cent for every $1 I earn in each round"",""All of the above.""]",31928,,158858,,,survey-multi-choice,,70
,,,,"[True, True, True, True, False]",,,,,,,,,"[""True or false: The hidden values will change each time I start a new round."",""How much does it cost to observe each hidden value?"",""How many hidden values am I allowed to observe in each round?"",""How is your bonus determined?"",""What does the feedback teach you?""]","[""True"",""$0.25"",""As many or as few as I wish"",""1 cent for every $1 I earn in each round"",""Whether I chose the move that was best according to the information I had.""]",22313,,228128,,,survey-multi-choice,,70
,,,,"[True, True, True, True, False]",,,,,,,,,"[""True or false: The hidden values will change each time I start a new round."",""How much does it cost to observe each hidden value?"",""How many hidden values am I allowed to observe in each round?"",""How is your bonus determined?"",""What does the feedback teach you?""]","[""True"",""$0.25"",""As many or as few as I wish"",""1 cent for every $1 I earn in each round"",""The length of the delay is based on how much more money I could have earned by planning and deciding better.""]",21539,,337813,,,survey-multi-choice,,70
,,,,"[True, True, True, True, True]",,,,,,,,,"[""True or false: The hidden values will change each time I start a new round."",""How much does it cost to observe each hidden value?"",""How many hidden values am I allowed to observe in each round?"",""How is your bonus determined?"",""What does the feedback teach you?""]","[""True"",""$0.25"",""As many or as few as I wish"",""1 cent for every $1 I earn in each round"",""All of the above.""]",11573,,356351,,,survey-multi-choice,,70
,,,,"[True, True, True, True, True]",,,,,,,,,"[""True or false: The hidden values will change each time I start a new round."",""How much does it cost to observe each hidden value?"",""How many hidden values am I allowed to observe in each round?"",""How is your bonus determined?"",""What does the feedback teach you?""]","[""True"",""$1.00"",""As many or as few as I wish"",""1 cent for every $1 I earn in each round"",""All of the above.""]",31168,,510011,,,survey-multi-choice,,71
,,,,"[True, False, True, True, True]",,,,,,,,,"[""True or false: The hidden values will change each time I start a new round."",""How much does it cost to observe each hidden value?"",""How many hidden values am I allowed to observe in each round?"",""How is your bonus determined?"",""What does the feedback teach you?""]","[""True"",""$0.05"",""As many or as few as I wish"",""1 cent for every $1 I earn in each round"",""All of the above.""]",97350,,749723,,,survey-multi-choice,,72
,,,,"[True, True, True, True, True]",,,,,,,,,"[""True or false: The hidden values will change each time I start a new round."",""How much does it cost to observe each hidden value?"",""How many hidden values am I allowed to observe in each round?"",""How is your bonus determined?"",""What does the feedback teach you?""]","[""True"",""$1.00"",""As many or as few as I wish"",""1 cent for every $1 I earn in each round"",""All of the above.""]",19276,,795763,,,survey-multi-choice,,72
,,,,"[True, True, True, True, True]",,,,,,,,,"[""True or false: The hidden values will change each time I start a new round."",""How much does it cost to observe each hidden value?"",""How many hidden values am I allowed to observe in each round?"",""How is your bonus determined?"",""What does the feedback teach you?""]","[""True"",""$1.00"",""As many or as few as I wish"",""1 cent for every $1 I earn in each round"",""All of the above.""]",32998,,191624,,,survey-multi-choice,,73
,,,,"[False, True, True, True, True]",,,,,,,,,"[""True or false: The hidden values will change each time I start a new round."",""How much does it cost to observe each hidden value?"",""How many hidden values am I allowed to observe in each round?"",""How is your bonus determined?"",""What does the feedback teach you?""]","[""False"",""$1.00"",""As many or as few as I wish"",""1 cent for every $1 I earn in each round"",""All of the above.""]",34901,,237072,,,survey-multi-choice,,74
,,,,"[False, True, True, True, False]",,,,,,,,,"[""True or false: The hidden values will change each time I start a new round."",""How much does it cost to observe each hidden value?"",""How many hidden values am I allowed to observe in each round?"",""How is your bonus determined?"",""What does the feedback teach you?""]","[""False"",""$1.00"",""As many or as few as I wish"",""1 cent for every $1 I earn in each round"",""Whether I chose the move that was best.""]",14633,,309993,,,survey-multi-choice,,74
,,,,"[True, True, True, True, True]",,,,,,,,,"[""True or false: The hidden values will change each time I start a new round."",""How much does it cost to observe each hidden value?"",""How many hidden values am I allowed to observe in each round?"",""How is your bonus determined?"",""What does the feedback teach you?""]","[""True"",""$1.00"",""As many or as few as I wish"",""1 cent for every $1 I earn in each round"",""All of the above.""]",15246,,332716,,,survey-multi-choice,,74
,,,,"[True, True, True, True]",,,,,,,,,"[""True or false: The hidden values will change each time I start a new round."",""How much does it cost to observe each hidden value?"",""How many hidden values am I allowed to observe in each round?"",""How is your bonus determined?""]","[""True"",""$0.25"",""As many or as few as I wish"",""1 cent for every $1 I earn in each round""]",21664,,99826,,,survey-multi-choice,,75
,,,,"[True, True, True, False, True]",,,,,,,,,"[""True or false: The hidden values will change each time I start a new round."",""How much does it cost to observe each hidden value?"",""How many hidden values am I allowed to observe in each round?"",""How is your bonus determined?"",""What does the feedback teach you?""]","[""True"",""$1.00"",""As many or as few as I wish"",""10% of my best score on any round"",""All of the above.""]",38765,,136732,,,survey-multi-choice,,76
,,,,"[True, True, True, True, False]",,,,,,,,,"[""True or false: The hidden values will change each time I start a new round."",""How much does it cost to observe each hidden value?"",""How many hidden values am I allowed to observe in each round?"",""How is your bonus determined?"",""What does the feedback teach you?""]","[""True"",""$1.00"",""As many or as few as I wish"",""1 cent for every $1 I earn in each round"",""Whether I chose the move that was best.""]",18326,,266119,,,survey-multi-choice,,76
,,,,"[True, True, True, True, True]",,,,,,,,,"[""True or false: The hidden values will change each time I start a new round."",""How much does it cost to observe each hidden value?"",""How many hidden values am I allowed to observe in each round?"",""How is your bonus determined?"",""What does the feedback teach you?""]","[""True"",""$1.00"",""As many or as few as I wish"",""1 cent for every $1 I earn in each round"",""All of the above.""]",10938,,283333,,,survey-multi-choice,,76
,,,,"[True, True, True, True, False]",,,,,,,,,"[""True or false: The hidden values will change each time I start a new round."",""How much does it cost to observe each hidden value?"",""How many hidden values am I allowed to observe in each round?"",""How is your bonus determined?"",""What does the feedback teach you?""]","[""True"",""$1.00"",""As many or as few as I wish"",""1 cent for every $1 I earn in each round"",""Whether I chose the move that was best.""]",29684,,176146,,,survey-multi-choice,,77
,,,,"[True, True, True, True, True]",,,,,,,,,"[""True or false: The hidden values will change each time I start a new round."",""How much does it cost to observe each hidden value?"",""How many hidden values am I allowed to observe in each round?"",""How is your bonus determined?"",""What does the feedback teach you?""]","[""True"",""$1.00"",""As many or as few as I wish"",""1 cent for every $1 I earn in each round"",""All of the above.""]",11091,,211073,,,survey-multi-choice,,77
,,,,"[True, True, False, True, True]",,,,,,,,,"[""True or false: The hidden values will change each time I start a new round."",""How much does it cost to observe each hidden value?"",""How many hidden values am I allowed to observe in each round?"",""How is your bonus determined?"",""What does the feedback teach you?""]","[""True"",""$1.00"",""At most 1"",""1 cent for every $1 I earn in each round"",""All of the above.""]",31644,,106244,,,survey-multi-choice,,78
,,,,"[True, True, False, True, True]",,,,,,,,,"[""True or false: The hidden values will change each time I start a new round."",""How much does it cost to observe each hidden value?"",""How many hidden values am I allowed to observe in each round?"",""How is your bonus determined?"",""What does the feedback teach you?""]","[""True"",""$1.00"",""At most 1"",""1 cent for every $1 I earn in each round"",""All of the above.""]",26087,,174264,,,survey-multi-choice,,78
,,,,"[True, True, True, True, True]",,,,,,,,,"[""True or false: The hidden values will change each time I start a new round."",""How much does it cost to observe each hidden value?"",""How many hidden values am I allowed to observe in each round?"",""How is your bonus determined?"",""What does the feedback teach you?""]","[""True"",""$1.00"",""As many or as few as I wish"",""1 cent for every $1 I earn in each round"",""All of the above.""]",16952,,252117,,,survey-multi-choice,,78
,,,,"[True, False, True, True, False]",,,,,,,,,"[""True or false: The hidden values will change each time I start a new round."",""How much does it cost to observe each hidden value?"",""How many hidden values am I allowed to observe in each round?"",""How is your bonus determined?"",""What does the feedback teach you?""]","[""True"",""$0.01"",""As many or as few as I wish"",""1 cent for every $1 I earn in each round"",""Whether I chose the move that was best.""]",30683,,161845,,,survey-multi-choice,,79
,,,,"[True, True, True, True, False]",,,,,,,,,"[""True or false: The hidden values will change each time I start a new round."",""How much does it cost to observe each hidden value?"",""How many hidden values am I allowed to observe in each round?"",""How is your bonus determined?"",""What does the feedback teach you?""]","[""True"",""$0.25"",""As many or as few as I wish"",""1 cent for every $1 I earn in each round"",""Whether I chose the move that was best.""]",15204,,238399,,,survey-multi-choice,,79
,,,,"[True, True, True, True, True]",,,,,,,,,"[""True or false: The hidden values will change each time I start a new round."",""How much does it cost to observe each hidden value?"",""How many hidden values am I allowed to observe in each round?"",""How is your bonus determined?"",""What does the feedback teach you?""]","[""True"",""$0.25"",""As many or as few as I wish"",""1 cent for every $1 I earn in each round"",""All of the above.""]",23544,,269600,,,survey-multi-choice,,79
,,,,"[True, True, True, True, True]",,,,,,,,,"[""True or false: The hidden values will change each time I start a new round."",""How much does it cost to observe each hidden value?"",""How many hidden values am I allowed to observe in each round?"",""How is your bonus determined?"",""What does the feedback teach you?""]","[""True"",""$0.25"",""As many or as few as I wish"",""1 cent for every $1 I earn in each round"",""All of the above.""]",15601,,318552,,,survey-multi-choice,,80
,,,,"[True, True, True, True]",,,,,,,,,"[""True or false: The hidden values will change each time I start a new round."",""How much does it cost to observe each hidden value?"",""How many hidden values am I allowed to observe in each round?"",""How is your bonus determined?""]","[""True"",""$4.00"",""As many or as few as I wish"",""1 cent for every $1 I earn in each round""]",29837,,119102,,,survey-multi-choice,,81
,,,,"[True, True, True, True, True]",,,,,,,,,"[""True or false: The hidden values will change each time I start a new round."",""How much does it cost to observe each hidden value?"",""How many hidden values am I allowed to observe in each round?"",""How is your bonus determined?"",""What does the feedback teach you?""]","[""True"",""$1.00"",""As many or as few as I wish"",""1 cent for every $1 I earn in each round"",""All of the above.""]",40692,,272049,,,survey-multi-choice,,82
,,,,"[True, True, True, True]",,,,,,,,,"[""True or false: The hidden values will change each time I start a new round."",""How much does it cost to observe each hidden value?"",""How many hidden values am I allowed to observe in each round?"",""How is your bonus determined?""]","[""True"",""$1.00"",""As many or as few as I wish"",""1 cent for every $1 I earn in each round""]",33117,,229399,,,survey-multi-choice,,83
,,,,"[True, True, True, True]",,,,,,,,,"[""True or false: The hidden values will change each time I start a new round."",""How much does it cost to observe each hidden value?"",""How many hidden values am I allowed to observe in each round?"",""How is your bonus determined?""]","[""True"",""$1.00"",""As many or as few as I wish"",""1 cent for every $1 I earn in each round""]",14504,,82679,,,survey-multi-choice,,84
,,,,"[True, True, True, True, False]",,,,,,,,,"[""True or false: The hidden values will change each time I start a new round."",""How much does it cost to observe each hidden value?"",""How many hidden values am I allowed to observe in each round?"",""How is your bonus determined?"",""What does the feedback teach you?""]","[""True"",""$0.25"",""As many or as few as I wish"",""1 cent for every $1 I earn in each round"",""Whether I chose the move that was best according to the information I had.""]",100746,,492783,,,survey-multi-choice,,85
,,,,"[True, True, True, True, False]",,,,,,,,,"[""True or false: The hidden values will change each time I start a new round."",""How much does it cost to observe each hidden value?"",""How many hidden values am I allowed to observe in each round?"",""How is your bonus determined?"",""What does the feedback teach you?""]","[""True"",""$0.25"",""As many or as few as I wish"",""1 cent for every $1 I earn in each round"",""Whether I observed the rewards of relevant locations.""]",23347,,582453,,,survey-multi-choice,,85
,,,,"[True, True, True, True, True]",,,,,,,,,"[""True or false: The hidden values will change each time I start a new round."",""How much does it cost to observe each hidden value?"",""How many hidden values am I allowed to observe in each round?"",""How is your bonus determined?"",""What does the feedback teach you?""]","[""True"",""$0.25"",""As many or as few as I wish"",""1 cent for every $1 I earn in each round"",""All of the above.""]",141158,,754195,,,survey-multi-choice,,85
,,,,"[True, True, False, False]",,,,,,,,,"[""True or false: The hidden values will change each time I start a new round."",""How much does it cost to observe each hidden value?"",""How many hidden values am I allowed to observe in each round?"",""How is your bonus determined?""]","[""True"",""$0.25"",""At most 1"",""10% of my score on a random round""]",41751,,133293,,,survey-multi-choice,,86
,,,,"[True, True, False, True]",,,,,,,,,"[""True or false: The hidden values will change each time I start a new round."",""How much does it cost to observe each hidden value?"",""How many hidden values am I allowed to observe in each round?"",""How is your bonus determined?""]","[""True"",""$0.25"",""At most 1"",""1 cent for every $1 I earn in each round""]",24316,,262990,,,survey-multi-choice,,86
,,,,"[True, True, True, True]",,,,,,,,,"[""True or false: The hidden values will change each time I start a new round."",""How much does it cost to observe each hidden value?"",""How many hidden values am I allowed to observe in each round?"",""How is your bonus determined?""]","[""True"",""$0.25"",""As many or as few as I wish"",""1 cent for every $1 I earn in each round""]",26586,,296266,,,survey-multi-choice,,86
,,,,"[True, True, True, True, False]",,,,,,,,,"[""True or false: The hidden values will change each time I start a new round."",""How much does it cost to observe each hidden value?"",""How many hidden values am I allowed to observe in each round?"",""How is your bonus determined?"",""What does the feedback teach you?""]","[""True"",""$1.00"",""As many or as few as I wish"",""1 cent for every $1 I earn in each round"",""Whether I chose the move that was best.""]",24650,,195410,,,survey-multi-choice,,87
,,,,"[True, True, True, True, True]",,,,,,,,,"[""True or false: The hidden values will change each time I start a new round."",""How much does it cost to observe each hidden value?"",""How many hidden values am I allowed to observe in each round?"",""How is your bonus determined?"",""What does the feedback teach you?""]","[""True"",""$1.00"",""As many or as few as I wish"",""1 cent for every $1 I earn in each round"",""All of the above.""]",33415,,274464,,,survey-multi-choice,,87
,,,,"[True, True, True, True]",,,,,,,,,"[""True or false: The hidden values will change each time I start a new round."",""How much does it cost to observe each hidden value?"",""How many hidden values am I allowed to observe in each round?"",""How is your bonus determined?""]","[""True"",""$0.25"",""As many or as few as I wish"",""1 cent for every $1 I earn in each round""]",16267,,219170,,,survey-multi-choice,,88
,,,,"[True, True, True, True, False]",,,,,,,,,"[""True or false: The hidden values will change each time I start a new round."",""How much does it cost to observe each hidden value?"",""How many hidden values am I allowed to observe in each round?"",""How is your bonus determined?"",""What does the feedback teach you?""]","[""True"",""$0.25"",""As many or as few as I wish"",""1 cent for every $1 I earn in each round"",""Whether I chose the move that was best.""]",70935,,376265,,,survey-multi-choice,,89
,,,,"[True, True, False, True, True]",,,,,,,,,"[""True or false: The hidden values will change each time I start a new round."",""How much does it cost to observe each hidden value?"",""How many hidden values am I allowed to observe in each round?"",""How is your bonus determined?"",""What does the feedback teach you?""]","[""True"",""$0.25"",""At most 1"",""1 cent for every $1 I earn in each round"",""All of the above.""]",30161,,467130,,,survey-multi-choice,,89
,,,,"[True, True, True, True, True]",,,,,,,,,"[""True or false: The hidden values will change each time I start a new round."",""How much does it cost to observe each hidden value?"",""How many hidden values am I allowed to observe in each round?"",""How is your bonus determined?"",""What does the feedback teach you?""]","[""True"",""$0.25"",""As many or as few as I wish"",""1 cent for every $1 I earn in each round"",""All of the above.""]",20320,,567599,,,survey-multi-choice,,89
,,,,"[True, True, True, True, False]",,,,,,,,,"[""True or false: The hidden values will change each time I start a new round."",""How much does it cost to observe each hidden value?"",""How many hidden values am I allowed to observe in each round?"",""How is your bonus determined?"",""What does the feedback teach you?""]","[""True"",""$4.00"",""As many or as few as I wish"",""1 cent for every $1 I earn in each round"",""Whether I chose the move that was best.""]",35962,,435789,,,survey-multi-choice,,90
,,,,"[True, True, True, True, True]",,,,,,,,,"[""True or false: The hidden values will change each time I start a new round."",""How much does it cost to observe each hidden value?"",""How many hidden values am I allowed to observe in each round?"",""How is your bonus determined?"",""What does the feedback teach you?""]","[""True"",""$4.00"",""As many or as few as I wish"",""1 cent for every $1 I earn in each round"",""All of the above.""]",12234,,460456,,,survey-multi-choice,,90
,,,,"[True, True, True, True]",,,,,,,,,"[""True or false: The hidden values will change each time I start a new round."",""How much does it cost to observe each hidden value?"",""How many hidden values am I allowed to observe in each round?"",""How is your bonus determined?""]","[""True"",""$0.25"",""As many or as few as I wish"",""1 cent for every $1 I earn in each round""]",15639,,225987,,,survey-multi-choice,,91
,,,,"[True, False, True, True, True]",,,,,,,,,"[""True or false: The hidden values will change each time I start a new round."",""How much does it cost to observe each hidden value?"",""How many hidden values am I allowed to observe in each round?"",""How is your bonus determined?"",""What does the feedback teach you?""]","[""True"",""$1.00"",""As many or as few as I wish"",""1 cent for every $1 I earn in each round"",""All of the above.""]",25487,,129602,,,survey-multi-choice,,92
,,,,"[True, True, True, True, True]",,,,,,,,,"[""True or false: The hidden values will change each time I start a new round."",""How much does it cost to observe each hidden value?"",""How many hidden values am I allowed to observe in each round?"",""How is your bonus determined?"",""What does the feedback teach you?""]","[""True"",""$4.00"",""As many or as few as I wish"",""1 cent for every $1 I earn in each round"",""All of the above.""]",11043,,163629,,,survey-multi-choice,,92
,,,,"[True, True, True, True, True]",,,,,,,,,"[""True or false: The hidden values will change each time I start a new round."",""How much does it cost to observe each hidden value?"",""How many hidden values am I allowed to observe in each round?"",""How is your bonus determined?"",""What does the feedback teach you?""]","[""True"",""$0.25"",""As many or as few as I wish"",""1 cent for every $1 I earn in each round"",""All of the above.""]",34562,,245261,,,survey-multi-choice,,93
,,,,"[True, True, True, True, False]",,,,,,,,,"[""True or false: The hidden values will change each time I start a new round."",""How much does it cost to observe each hidden value?"",""How many hidden values am I allowed to observe in each round?"",""How is your bonus determined?"",""What does the feedback teach you?""]","[""True"",""$0.25"",""As many or as few as I wish"",""1 cent for every $1 I earn in each round"",""Whether I chose the move that was best according to the information I had.""]",32941,,153616,,,survey-multi-choice,,94
,,,,"[True, True, True, True, True]",,,,,,,,,"[""True or false: The hidden values will change each time I start a new round."",""How much does it cost to observe each hidden value?"",""How many hidden values am I allowed to observe in each round?"",""How is your bonus determined?"",""What does the feedback teach you?""]","[""True"",""$0.25"",""As many or as few as I wish"",""1 cent for every $1 I earn in each round"",""All of the above.""]",10116,,178953,,,survey-multi-choice,,94
,,,,"[True, True, True, True, True]",,,,,,,,,"[""True or false: The hidden values will change each time I start a new round."",""How much does it cost to observe each hidden value?"",""How many hidden values am I allowed to observe in each round?"",""How is your bonus determined?"",""What does the feedback teach you?""]","[""True"",""$4.00"",""As many or as few as I wish"",""1 cent for every $1 I earn in each round"",""All of the above.""]",35479,,195047,,,survey-multi-choice,,95
,,,,"[False, True, True, True, False]",,,,,,,,,"[""True or false: The hidden values will change each time I start a new round."",""How much does it cost to observe each hidden value?"",""How many hidden values am I allowed to observe in each round?"",""How is your bonus determined?"",""What does the feedback teach you?""]","[""False"",""$4.00"",""As many or as few as I wish"",""1 cent for every $1 I earn in each round"",""Whether I chose the move that was best.""]",29540,,211306,,,survey-multi-choice,,96
,,,,"[False, True, True, True, True]",,,,,,,,,"[""True or false: The hidden values will change each time I start a new round."",""How much does it cost to observe each hidden value?"",""How many hidden values am I allowed to observe in each round?"",""How is your bonus determined?"",""What does the feedback teach you?""]","[""False"",""$4.00"",""As many or as few as I wish"",""1 cent for every $1 I earn in each round"",""All of the above.""]",14464,,236608,,,survey-multi-choice,,96
,,,,"[True, True, True, True, False]",,,,,,,,,"[""True or false: The hidden values will change each time I start a new round."",""How much does it cost to observe each hidden value?"",""How many hidden values am I allowed to observe in each round?"",""How is your bonus determined?"",""What does the feedback teach you?""]","[""True"",""$4.00"",""As many or as few as I wish"",""1 cent for every $1 I earn in each round"",""Whether I chose the move that was best.""]",15093,,259402,,,survey-multi-choice,,96
,,,,"[True, True, True, True, False]",,,,,,,,,"[""True or false: The hidden values will change each time I start a new round."",""How much does it cost to observe each hidden value?"",""How many hidden values am I allowed to observe in each round?"",""How is your bonus determined?"",""What does the feedback teach you?""]","[""True"",""$4.00"",""As many or as few as I wish"",""1 cent for every $1 I earn in each round"",""Whether I chose the move that was best.""]",12117,,310229,,,survey-multi-choice,,96
,,,,"[True, True, True, True, True]",,,,,,,,,"[""True or false: The hidden values will change each time I start a new round."",""How much does it cost to observe each hidden value?"",""How many hidden values am I allowed to observe in each round?"",""How is your bonus determined?"",""What does the feedback teach you?""]","[""True"",""$4.00"",""As many or as few as I wish"",""1 cent for every $1 I earn in each round"",""All of the above.""]",16501,,332001,,,survey-multi-choice,,96
,,,,"[True, True, True, True, True]",,,,,,,,,"[""True or false: The hidden values will change each time I start a new round."",""How much does it cost to observe each hidden value?"",""How many hidden values am I allowed to observe in each round?"",""How is your bonus determined?"",""What does the feedback teach you?""]","[""True"",""$4.00"",""As many or as few as I wish"",""1 cent for every $1 I earn in each round"",""All of the above.""]",24454,,178283,,,survey-multi-choice,,97
,,,,"[True, False, True, True, True]",,,,,,,,,"[""True or false: The hidden values will change each time I start a new round."",""How much does it cost to observe each hidden value?"",""How many hidden values am I allowed to observe in each round?"",""How is your bonus determined?"",""What does the feedback teach you?""]","[""True"",""$0.01"",""As many or as few as I wish"",""1 cent for every $1 I earn in each round"",""All of the above.""]",72261,,196130,,,survey-multi-choice,,98
,,,,"[True, True, True, True, False]",,,,,,,,,"[""True or false: The hidden values will change each time I start a new round."",""How much does it cost to observe each hidden value?"",""How many hidden values am I allowed to observe in each round?"",""How is your bonus determined?"",""What does the feedback teach you?""]","[""True"",""$0.25"",""As many or as few as I wish"",""1 cent for every $1 I earn in each round"",""Whether I chose the move that was best.""]",26284,,272448,,,survey-multi-choice,,98
,,,,"[True, True, True, True, True]",,,,,,,,,"[""True or false: The hidden values will change each time I start a new round."",""How much does it cost to observe each hidden value?"",""How many hidden values am I allowed to observe in each round?"",""How is your bonus determined?"",""What does the feedback teach you?""]","[""True"",""$0.25"",""As many or as few as I wish"",""1 cent for every $1 I earn in each round"",""All of the above.""]",20479,,443773,,,survey-multi-choice,,98
,,,,"[True, True, True, True, True]",,,,,,,,,"[""True or false: The hidden values will change each time I start a new round."",""How much does it cost to observe each hidden value?"",""How many hidden values am I allowed to observe in each round?"",""How is your bonus determined?"",""What does the feedback teach you?""]","[""True"",""$4.00"",""As many or as few as I wish"",""1 cent for every $1 I earn in each round"",""All of the above.""]",31095,,232981,,,survey-multi-choice,,99
,,,,"[True, True, True, True, True]",,,,,,,,,"[""True or false: The hidden values will change each time I start a new round."",""How much does it cost to observe each hidden value?"",""How many hidden values am I allowed to observe in each round?"",""How is your bonus determined?"",""What does the feedback teach you?""]","[""True"",""$1.00"",""As many or as few as I wish"",""1 cent for every $1 I earn in each round"",""All of the above.""]",21241,,232211,,,survey-multi-choice,,100
,,,,"[True, True, True, True, False]",,,,,,,,,"[""True or false: The hidden values will change each time I start a new round."",""How much does it cost to observe each hidden value?"",""How many hidden values am I allowed to observe in each round?"",""How is your bonus determined?"",""What does the feedback teach you?""]","[""True"",""$0.25"",""As many or as few as I wish"",""1 cent for every $1 I earn in each round"",""Whether I chose the move that was best according to the information I had.""]",40513,,202219,,,survey-multi-choice,,101
,,,,"[True, True, True, True, True]",,,,,,,,,"[""True or false: The hidden values will change each time I start a new round."",""How much does it cost to observe each hidden value?"",""How many hidden values am I allowed to observe in each round?"",""How is your bonus determined?"",""What does the feedback teach you?""]","[""True"",""$0.25"",""As many or as few as I wish"",""1 cent for every $1 I earn in each round"",""All of the above.""]",12791,,289091,,,survey-multi-choice,,101
,,,,"[True, True, True, True, True]",,,,,,,,,"[""True or false: The hidden values will change each time I start a new round."",""How much does it cost to observe each hidden value?"",""How many hidden values am I allowed to observe in each round?"",""How is your bonus determined?"",""What does the feedback teach you?""]","[""True"",""$4.00"",""As many or as few as I wish"",""1 cent for every $1 I earn in each round"",""All of the above.""]",27155,,178630,,,survey-multi-choice,,102
,,,,"[True, True, True, True]",,,,,,,,,"[""True or false: The hidden values will change each time I start a new round."",""How much does it cost to observe each hidden value?"",""How many hidden values am I allowed to observe in each round?"",""How is your bonus determined?""]","[""True"",""$4.00"",""As many or as few as I wish"",""1 cent for every $1 I earn in each round""]",18732,,357319,,,survey-multi-choice,,103
,,,,"[True, False, False, False, True]",,,,,,,,,"[""True or false: The hidden values will change each time I start a new round."",""How much does it cost to observe each hidden value?"",""How many hidden values am I allowed to observe in each round?"",""How is your bonus determined?"",""What does the feedback teach you?""]","[""True"",""$0.01"",""At most 1"",""10% of my score on a random round"",""All of the above.""]",27650,,153536,,,survey-multi-choice,,104
,,,,"[True, True, True, True, True]",,,,,,,,,"[""True or false: The hidden values will change each time I start a new round."",""How much does it cost to observe each hidden value?"",""How many hidden values am I allowed to observe in each round?"",""How is your bonus determined?"",""What does the feedback teach you?""]","[""True"",""$4.00"",""As many or as few as I wish"",""1 cent for every $1 I earn in each round"",""All of the above.""]",24381,,270887,,,survey-multi-choice,,104
,,,,"[True, True, True, True]",,,,,,,,,"[""True or false: The hidden values will change each time I start a new round."",""How much does it cost to observe each hidden value?"",""How many hidden values am I allowed to observe in each round?"",""How is your bonus determined?""]","[""True"",""$0.25"",""As many or as few as I wish"",""1 cent for every $1 I earn in each round""]",16357,,179618,,,survey-multi-choice,,105
,,,,"[True, False, False, True]",,,,,,,,,"[""True or false: The hidden values will change each time I start a new round."",""How much does it cost to observe each hidden value?"",""How many hidden values am I allowed to observe in each round?"",""How is your bonus determined?""]","[""True"",""$4.00"",""At most 1"",""1 cent for every $1 I earn in each round""]",26919,,146582,,,survey-multi-choice,,106
,,,,"[True, True, True, True]",,,,,,,,,"[""True or false: The hidden values will change each time I start a new round."",""How much does it cost to observe each hidden value?"",""How many hidden values am I allowed to observe in each round?"",""How is your bonus determined?""]","[""True"",""$0.25"",""As many or as few as I wish"",""1 cent for every $1 I earn in each round""]",11858,,191269,,,survey-multi-choice,,106
,,,,"[False, True, True, False, True]",,,,,,,,,"[""True or false: The hidden values will change each time I start a new round."",""How much does it cost to observe each hidden value?"",""How many hidden values am I allowed to observe in each round?"",""How is your bonus determined?"",""What does the feedback teach you?""]","[""False"",""$1.00"",""As many or as few as I wish"",""10% of my score on a random round"",""All of the above.""]",63485,,279804,,,survey-multi-choice,,107
,,,,"[True, True, True, True, True]",,,,,,,,,"[""True or false: The hidden values will change each time I start a new round."",""How much does it cost to observe each hidden value?"",""How many hidden values am I allowed to observe in each round?"",""How is your bonus determined?"",""What does the feedback teach you?""]","[""True"",""$1.00"",""As many or as few as I wish"",""1 cent for every $1 I earn in each round"",""All of the above.""]",46954,,521770,,,survey-multi-choice,,107
,,,,"[True, True, True, True, False]",,,,,,,,,"[""True or false: The hidden values will change each time I start a new round."",""How much does it cost to observe each hidden value?"",""How many hidden values am I allowed to observe in each round?"",""How is your bonus determined?"",""What does the feedback teach you?""]","[""True"",""$1.00"",""As many or as few as I wish"",""1 cent for every $1 I earn in each round"",""Whether I chose the move that was best.""]",45732,,227267,,,survey-multi-choice,,108
,,,,"[True, True, True, True, True]",,,,,,,,,"[""True or false: The hidden values will change each time I start a new round."",""How much does it cost to observe each hidden value?"",""How many hidden values am I allowed to observe in each round?"",""How is your bonus determined?"",""What does the feedback teach you?""]","[""True"",""$1.00"",""As many or as few as I wish"",""1 cent for every $1 I earn in each round"",""All of the above.""]",15031,,257033,,,survey-multi-choice,,108
,,,,"[True, True, True, True, True]",,,,,,,,,"[""True or false: The hidden values will change each time I start a new round."",""How much does it cost to observe each hidden value?"",""How many hidden values am I allowed to observe in each round?"",""How is your bonus determined?"",""What does the feedback teach you?""]","[""True"",""$1.00"",""As many or as few as I wish"",""1 cent for every $1 I earn in each round"",""All of the above.""]",57562,,578966,,,survey-multi-choice,,109
,,,,"[True, True, True, True, True]",,,,,,,,,"[""True or false: The hidden values will change each time I start a new round."",""How much does it cost to observe each hidden value?"",""How many hidden values am I allowed to observe in each round?"",""How is your bonus determined?"",""What does the feedback teach you?""]","[""True"",""$0.25"",""As many or as few as I wish"",""1 cent for every $1 I earn in each round"",""All of the above.""]",39594,,222643,,,survey-multi-choice,,110
,,,,"[True, True, True, True]",,,,,,,,,"[""True or false: The hidden values will change each time I start a new round."",""How much does it cost to observe each hidden value?"",""How many hidden values am I allowed to observe in each round?"",""How is your bonus determined?""]","[""True"",""$4.00"",""As many or as few as I wish"",""1 cent for every $1 I earn in each round""]",10897,,73511,,,survey-multi-choice,,111
,,,,"[True, True, True, True, True]",,,,,,,,,"[""True or false: The hidden values will change each time I start a new round."",""How much does it cost to observe each hidden value?"",""How many hidden values am I allowed to observe in each round?"",""How is your bonus determined?"",""What does the feedback teach you?""]","[""True"",""$0.25"",""As many or as few as I wish"",""1 cent for every $1 I earn in each round"",""All of the above.""]",22102,,137407,,,survey-multi-choice,,112
,,,,"[True, True, True, True, True]",,,,,,,,,"[""True or false: The hidden values will change each time I start a new round."",""How much does it cost to observe each hidden value?"",""How many hidden values am I allowed to observe in each round?"",""How is your bonus determined?"",""What does the feedback teach you?""]","[""True"",""$1.00"",""As many or as few as I wish"",""1 cent for every $1 I earn in each round"",""All of the above.""]",37150,,263566,,,survey-multi-choice,,113
,,,,"[True, False, True, True, True]",,,,,,,,,"[""True or false: The hidden values will change each time I start a new round."",""How much does it cost to observe each hidden value?"",""How many hidden values am I allowed to observe in each round?"",""How is your bonus determined?"",""What does the feedback teach you?""]","[""True"",""$1.00"",""As many or as few as I wish"",""1 cent for every $1 I earn in each round"",""All of the above.""]",39953,,233536,,,survey-multi-choice,,114
,,,,"[True, False, False, True, False]",,,,,,,,,"[""True or false: The hidden values will change each time I start a new round."",""How much does it cost to observe each hidden value?"",""How many hidden values am I allowed to observe in each round?"",""How is your bonus determined?"",""What does the feedback teach you?""]","[""True"",""$0.01"",""At most 5"",""1 cent for every $1 I earn in each round"",""Whether I observed the rewards of relevant locations.""]",29755,,295879,,,survey-multi-choice,,114
,,,,"[True, True, True, True, True]",,,,,,,,,"[""True or false: The hidden values will change each time I start a new round."",""How much does it cost to observe each hidden value?"",""How many hidden values am I allowed to observe in each round?"",""How is your bonus determined?"",""What does the feedback teach you?""]","[""True"",""$4.00"",""As many or as few as I wish"",""1 cent for every $1 I earn in each round"",""All of the above.""]",54094,,686055,,,survey-multi-choice,,114
,,,,"[True, True, True, True]",,,,,,,,,"[""True or false: The hidden values will change each time I start a new round."",""How much does it cost to observe each hidden value?"",""How many hidden values am I allowed to observe in each round?"",""How is your bonus determined?""]","[""True"",""$0.25"",""As many or as few as I wish"",""1 cent for every $1 I earn in each round""]",19635,,143148,,,survey-multi-choice,,115
,,,,"[True, False, False, False, True]",,,,,,,,,"[""True or false: The hidden values will change each time I start a new round."",""How much does it cost to observe each hidden value?"",""How many hidden values am I allowed to observe in each round?"",""How is your bonus determined?"",""What does the feedback teach you?""]","[""True"",""$0.25"",""At most 1"",""10% of my best score on any round"",""All of the above.""]",26796,,67730,,,survey-multi-choice,,116
,,,,"[True, False, False, True, True]",,,,,,,,,"[""True or false: The hidden values will change each time I start a new round."",""How much does it cost to observe each hidden value?"",""How many hidden values am I allowed to observe in each round?"",""How is your bonus determined?"",""What does the feedback teach you?""]","[""True"",""$1.00"",""At most 1"",""1 cent for every $1 I earn in each round"",""All of the above.""]",21447,,227091,,,survey-multi-choice,,116
,,,,"[True, True, True, True, True]",,,,,,,,,"[""True or false: The hidden values will change each time I start a new round."",""How much does it cost to observe each hidden value?"",""How many hidden values am I allowed to observe in each round?"",""How is your bonus determined?"",""What does the feedback teach you?""]","[""True"",""$4.00"",""As many or as few as I wish"",""1 cent for every $1 I earn in each round"",""All of the above.""]",11946,,256739,,,survey-multi-choice,,116
,,,,"[True, False, True, True, False]",,,,,,,,,"[""True or false: The hidden values will change each time I start a new round."",""How much does it cost to observe each hidden value?"",""How many hidden values am I allowed to observe in each round?"",""How is your bonus determined?"",""What does the feedback teach you?""]","[""True"",""$0.01"",""As many or as few as I wish"",""1 cent for every $1 I earn in each round"",""Whether I chose the move that was best.""]",38712,,255643,,,survey-multi-choice,,117
,,,,"[True, True, True, True, False]",,,,,,,,,"[""True or false: The hidden values will change each time I start a new round."",""How much does it cost to observe each hidden value?"",""How many hidden values am I allowed to observe in each round?"",""How is your bonus determined?"",""What does the feedback teach you?""]","[""True"",""$1.00"",""As many or as few as I wish"",""1 cent for every $1 I earn in each round"",""Whether I chose the move that was best.""]",14504,,318723,,,survey-multi-choice,,117
,,,,"[True, True, True, True, True]",,,,,,,,,"[""True or false: The hidden values will change each time I start a new round."",""How much does it cost to observe each hidden value?"",""How many hidden values am I allowed to observe in each round?"",""How is your bonus determined?"",""What does the feedback teach you?""]","[""True"",""$1.00"",""As many or as few as I wish"",""1 cent for every $1 I earn in each round"",""All of the above.""]",19223,,421203,,,survey-multi-choice,,117
,,,,"[True, True, True, True, False]",,,,,,,,,"[""True or false: The hidden values will change each time I start a new round."",""How much does it cost to observe each hidden value?"",""How many hidden values am I allowed to observe in each round?"",""How is your bonus determined?"",""What does the feedback teach you?""]","[""True"",""$4.00"",""As many or as few as I wish"",""1 cent for every $1 I earn in each round"",""Whether I chose the move that was best.""]",33357,,180930,,,survey-multi-choice,,118
,,,,"[True, True, True, True, True]",,,,,,,,,"[""True or false: The hidden values will change each time I start a new round."",""How much does it cost to observe each hidden value?"",""How many hidden values am I allowed to observe in each round?"",""How is your bonus determined?"",""What does the feedback teach you?""]","[""True"",""$4.00"",""As many or as few as I wish"",""1 cent for every $1 I earn in each round"",""All of the above.""]",14660,,202259,,,survey-multi-choice,,118
,,,,"[True, True, True, True, True]",,,,,,,,,"[""True or false: The hidden values will change each time I start a new round."",""How much does it cost to observe each hidden value?"",""How many hidden values am I allowed to observe in each round?"",""How is your bonus determined?"",""What does the feedback teach you?""]","[""True"",""$1.00"",""As many or as few as I wish"",""1 cent for every $1 I earn in each round"",""All of the above.""]",24900,,165836,,,survey-multi-choice,,119
,,,,"[False, True, False, True, True]",,,,,,,,,"[""True or false: The hidden values will change each time I start a new round."",""How much does it cost to observe each hidden value?"",""How many hidden values am I allowed to observe in each round?"",""How is your bonus determined?"",""What does the feedback teach you?""]","[""False"",""$0.25"",""At most 5"",""1 cent for every $1 I earn in each round"",""All of the above.""]",22750,,101966,,,survey-multi-choice,,120
