p_rdata,action_times,actions,beliefs,correct,delays,information_used_correctly,key_press,meta_actions,path,planned_too_little,planned_too_much,queries,questions,responses,rt,score,time_elapsed,trial_index,trial_id,trial_type,view_history,pid
,,,,,,,,,,,,,,"{""Q0"":""I tried to click to see if I was making the most beneficial financial route hoping that the 0.25 per click would be less than my options so that I would still be in the positive."",""Q1"":""I tried without clicking and got timed-out for making a poor choice, so I made sure to calculate after clicking to see the financial credits and based my route on that."",""Q2"":""31"",""Q3"":""female""}",98416,,1059577,,,survey-text,,0
,,,,,,,,,,,,,,"{""Q0"":""I generally checked to see if the first step would cause a cost or give a bonus."",""Q1"":""Don't overanalyze everything."",""Q2"":""32"",""Q3"":""Male""}",54045,,1036662,,,survey-text,,2
,,,,,,,,,,,,,,"{""Q0"":""I clicked in a direction. If it was negative, I wouldn't go that way. I feel like I didn't really have a good strategy."",""Q1"":""Not really, unfortunately."",""Q2"":""35"",""Q3"":""male""}",44325,,1220504,,,survey-text,,3
,,,,,,,,,,,,,,"{""Q0"":""I tried to look at the 4 starting locations and if one was decent (positive), I uncovered the next arm, and so on."",""Q1"":""I think staying with a route that seemed decently profitable was better than trying to uncover other routes which probably would not yield as good a result."",""Q2"":""45"",""Q3"":""male""}",77547,,1320626,,,survey-text,,4
,,,,,,,,,,,,,,"{""Q0"":""try to find a high paying destination without spending too much on collecting data. if I found a $20 spot, stop asking and take my chances. for the last trip, decided to just go and not spend anything on data, and that didn't work too good either."",""Q1"":""probably not much, but collecting more data after I found a $20 spot was probably useless. (but I didn't get that lucky very often)."",""Q2"":""71"",""Q3"":""male""}",251177,,1453328,,,survey-text,,5
,,,,,,,,,,,,,,"{""Q0"":""At first I wanted to fly blind and see if I could notice any patterns."",""Q1"":""I needed to check at least the first four connecting points, to see if I had a chance to make more."",""Q2"":""35"",""Q3"":""Male""}",47491,,942830,,,survey-text,,6
,,,,,,,,,,,,,,"{""Q0"":""I maximized the amount of money I earned."",""Q1"":""Yes; sometimes, I had to minimize losses instead of maximizing gains."",""Q2"":""28"",""Q3"":""Male""}",27559,,834185,,,survey-text,,7
,,,,,,,,,,,,,,"{""Q0"":""I just trusted my gut and guessed the correct direction to go to."",""Q1"":""I learned from my mistakes and picked different routes."",""Q2"":""22"",""Q3"":""Female""}",53809,,1599286,,,survey-text,,8
,,,,,,,,,,,,,,"{""Q0"":""randomized"",""Q1"":""no"",""Q2"":""41"",""Q3"":""female""}",17299,,1002263,,,survey-text,,9
,,,,,,,,,,,,,,"{""Q0"":""I tried to take the cheapest route with the biggest payoff."",""Q1"":""I learned I'm bad at gambling."",""Q2"":""29"",""Q3"":""male""}",48303,,1206275,,,survey-text,,10
,,,,,,,,,,,,,,"{""Q0"":""I tried to choose the most profitable path using the fewest looks.  I wanted to keep looking until I was at least sure of a positive return."",""Q1"":""There were several times that I wished I had not looked at so many options before deciding my path.  It would be interesting to see what my score would be after rethinking my decisions today."",""Q2"":""52"",""Q3"":""female""}",187272,,1775112,,,survey-text,,11
,,,,,,,,,,,,,,"{""Q0"":""The route i took before the next"",""Q1"":""Yes, to pay very very close attention to the route order"",""Q2"":""57"",""Q3"":""female""}",326167,,1656872,,,survey-text,,12
,,,,,,,,,,,,,,"{""Q0"":""i just guess"",""Q1"":""no"",""Q2"":""27"",""Q3"":""female""}",29545,,1814601,,,survey-text,,13
,,,,,,,,,,,,,,"{""Q0"":""It was done at random"",""Q1"":""No"",""Q2"":""29"",""Q3"":""Female""}",10752,,1724973,,,survey-text,,14
,,,,,,,,,,,,,,"{""Q0"":""Each step was about maximizing profit and minimizing loss.  I always took the route that had the highest green numbers, whenever possible."",""Q1"":""Yes, I learned to minimize the extra clicking to check amounts that I did."",""Q2"":""35"",""Q3"":""female""}",128471,,1237539,,,survey-text,,15
,,,,,,,,,,,,,,"{""Q0"":""I planned my route by selecting the end node that paid the most."",""Q1"":""Yes, sometimes the cost to the end node is higher than the return."",""Q2"":""36"",""Q3"":""Female""}",64142,,3147279,,,survey-text,,16
,,,,,,,,,,,,,,"{""Q0"":""I looked at the initial route, and sometimes the second or third levels, to figure out if there was a way to make up what I'd lost. Then I just tried randomly picking a direction."",""Q1"":""No, I don't think so. I wasn't very good at this the whole way through."",""Q2"":""28"",""Q3"":""Female""}",70661,,901246,,,survey-text,,17
,,,,,,,,,,,,,,"{""Q0"":""I always tried to maximize efficiency. My goal was to find at least 20 cents per flight."",""Q1"":""It seemed like a waste after a while to start beyond the immediate 4 directional moves, since you could be wasting clicks if there is a large negative number on your way."",""Q2"":""28"",""Q3"":""male""}",87191,,1312453,,,survey-text,,19
,,,,,,,,,,,,,,"{""Q0"":""i checked all four of the first stops, and only those that showed a positive number did i continue on with.  If they all were negatives, i chose the least amount of loss.  any paths that hit me with a -20 or a -12 i tended to abandon as it would be hard to make up for that big of a loss."",""Q1"":""maybe how to identify lost causes quicker"",""Q2"":""49"",""Q3"":""female""}",155299,,1151913,,,survey-text,,20
,,,,,,,,,,,,,,"{""Q0"":""I mostly tried determining the end location by clicking the final space in the route. If it was a positive dollar amount, then I would choose it."",""Q1"":""I found that if the final space was a positive dollar amount, then I'd usually make money during that round. Even with the cost of clicking the spaces, it seemed worth the 4 dollars per click to check."",""Q2"":""23"",""Q3"":""Male""}",151986,,1319717,,,survey-text,,21
,,,,,,,,,,,,,,"{""Q0"":""almost like a gamble. I choose a location and should it go in a red zone I choose a different location until I got into the green zone"",""Q1"":""no"",""Q2"":""32"",""Q3"":""female""}",68026,,1581032,,,survey-text,,22
,,,,,,,,,,,,,,"{""Q0"":""I didnt"",""Q1"":""No"",""Q2"":""50"",""Q3"":""female""}",30204,,1433831,,,survey-text,,25
,,,,,,,,,,,,,,"{""Q0"":""Uncovering certain moves for best route"",""Q1"":""Yes. I needed to uncover more"",""Q2"":""33"",""Q3"":""female""}",77014,,1228470,,,survey-text,,26
,,,,,,,,,,,,,,"{""Q0"":""tried to not spend a lot for info up front and chose from there."",""Q1"":""i ended up selecting certain spots to get values before"",""Q2"":""44"",""Q3"":""female""}",91380,,1351569,,,survey-text,,27
,,,,,,,,,,,,,,"{""Q0"":""I clicked on the first circle and then decided from there if I wanted to go further or if I wanted to try a different direction."",""Q1"":""I learned that the best route usually was 4, 12, and 20. "",""Q2"":""33"",""Q3"":""Female""}",66735,,956873,,,survey-text,,28
,,,,,,,,,,,,,,"{""Q0"":""tried blind at first, then just looked at a couple, then more"",""Q1"":""use my moves to find best money"",""Q2"":""40"",""Q3"":""female""}",30969,,1168075,,,survey-text,,29
,,,,,,,,,,,,,,"{""Q0"":""I started by clicking the starting stops. This generally told me weather or not the route would have been good or not."",""Q1"":""Yes, in order to plan better, don't just look ahead to things supper far down the line, also look at the now."",""Q2"":""56"",""Q3"":""Female""}",86700,,1291513,,,survey-text,,30
,,,,,,,,,,,,,,"{""Q0"":""Checking first which circles paid more and following that route."",""Q1"":""I did, plan carefully! "",""Q2"":""31"",""Q3"":""Female""}",39219,,1010528,,,survey-text,,31
,,,,,,,,,,,,,,"{""Q0"":""just did randomly"",""Q1"":""not really"",""Q2"":""58"",""Q3"":""female""}",19792,,1177495,,,survey-text,,32
,,,,,,,,,,,,,,"{""Q0"":""Finding the dollar amount first and then maximizing profits."",""Q1"":""No"",""Q2"":""32"",""Q3"":""Male""}",41088,,1074295,,,survey-text,,33
,,,,,,,,,,,,,,"{""Q0"":""Based on the reward"",""Q1"":""yes, inded"",""Q2"":""32"",""Q3"":""Male""}",63398,,1526996,,,survey-text,,34
,,,,,,,,,,,,,,"{""Q0"":""guessed"",""Q1"":""no"",""Q2"":""25"",""Q3"":""male""}",31479,,1033219,,,survey-text,,35
,,,,,,,,,,,,,,"{""Q0"":""I went with the overall best sum as best as I could."",""Q1"":""I learned it was better to check as much as possible, worth the .25"",""Q2"":""41"",""Q3"":""Male""}",52896,,1113854,,,survey-text,,36
,,,,,,,,,,,,,,"{""Q0"":""It was entirely random."",""Q1"":""There was no planning involved.  This was a game of chance."",""Q2"":""62"",""Q3"":""female""}",40113,,1323177,,,survey-text,,37
,,,,,,,,,,,,,,"{""Q0"":""I tried to determine which routes would have positive values on the first step -- then I tried to mostly minimize how many I uncovered by ignoring the routes that had a large negative value as the first step, figuring it probably wouldn't pay to uncover the rest, even if the rest were positive."",""Q1"":""Well I thought I started to see a pattern that the amounts tended to be $4, $12, or $20, or negatives of those, so if I saw a first step with a -$12 then I figured it probably wouldn't be worth pursuing, if other routes started with a positive value. I also later started to uncover fewer destinations, realizing that I was eating up a lot of profits by checking all of them. It was tough though because I like to play it safe and am not comfortable taking risks!"",""Q2"":""48"",""Q3"":""female""}",226968,,1423477,,,survey-text,,38
,,,,,,,,,,,,,,"{""Q0"":""Well, going up seemed to be the most frequently \""correct\"" answer when I wasn't going that way, but when I did I often wound up in the red.  I think this was intentionally rigged to wind up with me getting a zero bonus."",""Q1"":""Not really."",""Q2"":""38"",""Q3"":""Male""}",71658,,1654322,,,survey-text,,40
,,,,,,,,,,,,,,"{""Q0"":""I calculated which would make the most money"",""Q1"":""yes"",""Q2"":""53"",""Q3"":""male""}",47452,,1275109,,,survey-text,,41
,,,,,,,,,,,,,,"{""Q0"":""I didn't have a plan."",""Q1"":""No."",""Q2"":""26"",""Q3"":""Female""}",21191,,1013318,,,survey-text,,42
,,,,,,,,,,,,,,"{""Q0"":""I didn't develop any plans, it was random."",""Q1"":""Not really"",""Q2"":""63"",""Q3"":""male""}",53482,,1044326,,,survey-text,,44
,,,,,,,,,,,,,,"{""Q0"":""I just picked a random direction."",""Q1"":""No"",""Q2"":""34"",""Q3"":""female""}",82458,,1471387,,,survey-text,,45
,,,,,,,,,,,,,,"{""Q0"":""I was just trying to make the most amount of bonus money."",""Q1"":""I feel that the entire thing was rigged as I lost almost my entire bonus in the last round doing the same actions I had done previously."",""Q2"":""39"",""Q3"":""Male""}",62855,,1359745,,,survey-text,,46
,,,,,,,,,,,,,,"{""Q0"":""I began by exposing the first step in the route. If it lost money, i would chose another route. If it was a good amount, i would expose later steps."",""Q1"":""To eliminate routes early to minimize the amount of money spent exposing amounts."",""Q2"":""27"",""Q3"":""Male""}",69407,,1192472,,,survey-text,,47
,,,,,,,,,,,,,,"{""Q0"":""Looked for a positive first step and a positive last step."",""Q1"":""Overall I think I would have been better off to fly blind and not check at all. Note, I am a pilot and that just grates."",""Q2"":""66"",""Q3"":""male""}",106297,,1283745,,,survey-text,,48
,,,,,,,,,,,,,,"{""Q0"":""I checked the spots closest to the center and then checked the spot connected to the highest paying one."",""Q1"":""No. I couldn't figure out any kind of strategy that seemed to work consistently."",""Q2"":""44"",""Q3"":""male""}",131125,,1103099,,,survey-text,,49
,,,,,,,,,,,,,,"{""Q0"":""I felt that it was totally random and a waste of money to check in advance, so I planned which route I would go while I was waiting for the timer to go down at random. "",""Q1"":""Nope"",""Q2"":""37"",""Q3"":""Male""}",44501,,896561,,,survey-text,,50
,,,,,,,,,,,,,,"{""Q0"":""I tried to play as safely as possible and aimed for minimizing money loss."",""Q1"":""I don't feel like I did."",""Q2"":""32"",""Q3"":""Male""}",45157,,1232678,,,survey-text,,51
,,,,,,,,,,,,,,"{""Q0"":""I actually just did it by chance. I really didn't plan a route until the game came up."",""Q1"":""No, I didn't pay attention to see if there was a pattern because I figured it was all random."",""Q2"":""35"",""Q3"":""female""}",42632,,1187287,,,survey-text,,52
,,,,,,,,,,,,,,"{""Q0"":""random, then targeted the nearest points trying to avoid penalties - then just targeted the end points looking for sweet spots"",""Q1"":""i wish - oh wait - have no fear about penalties and just go for the sweet spots? or is it something about probabilities? I wish you would just tell me -- this was a fun game to play"",""Q2"":""57"",""Q3"":""female""}",146149,,1615625,,,survey-text,,53
,,,,,,,,,,,,,,"{""Q0"":""The best strategy seemed to be revealing the next to last points, then next revealing the points connected to those that seemed the most valuable. If multiple ones had the same values, reveal all of those for comparison. Choose the most valuable route to travel."",""Q1"":""I learned it was best to reveal my entire route before actually trying to use that route. I also tried to reveal the least points necessary."",""Q2"":""30"",""Q3"":""female""}",284829,,1445190,,,survey-text,,54
,,,,,,,,,,,,,,"{""Q0"":""Check all first stops, then final destination of which first stops paid the most"",""Q1"":""it was worth spending the money to explore but not every choice."",""Q2"":""47"",""Q3"":""male""}",135384,,1026013,,,survey-text,,55
,,,,,,,,,,,,,,"{""Q0"":""no plan."",""Q1"":""not really. "",""Q2"":""39"",""Q3"":""female""}",30753,,1376810,,,survey-text,,56
,,,,,,,,,,,,,,"{""Q0"":""I worked from the outside to the middle. "",""Q1"":""I learned to click on the first dots because it didn't help me as much as the outside ones. "",""Q2"":""48"",""Q3"":""female""}",68927,,1035226,,,survey-text,,57
,,,,,,,,,,,,,,"{""Q0"":""Kind of clockwise"",""Q1"":""No"",""Q2"":""32"",""Q3"":""Male""}",21324,,1612491,,,survey-text,,59
,,,,,,,,,,,,,,"{""Q0"":""I tried to identify two connected high value points in the fewest number of reveals"",""Q1"":""The relatively low cost of reveals gives incentive to use them liberally"",""Q2"":""36"",""Q3"":""male""}",85081,,1166955,,,survey-text,,60
,,,,,,,,,,,,,,"{""Q0"":""At first just random guessing, but then I picked one of the final destination circles and depending on the $ amount, I went from there"",""Q1"":""A little, but I didn't perform as well as I would have liked, looking back on it. This was a fun., interesting HIT, thanks!"",""Q2"":""72"",""Q3"":""Female""}",86014,,1199317,,,survey-text,,61
,,,,,,,,,,,,,,"{""Q0"":""It was based on the most profitable route"",""Q1"":""Yes, spend a little now for larger gains later. And time is of the essence."",""Q2"":""49"",""Q3"":""male""}",142131,,1396030,,,survey-text,,62
,,,,,,,,,,,,,,"{""Q0"":""Looked for paths that started with positive monetary values."",""Q1"":""Didn't bother to explore paths that started with large negative values."",""Q2"":""40"",""Q3"":""Male""}",75643,,1046221,,,survey-text,,63
,,,,,,,,,,,,,,"{""Q0"":""I chose to view all immediately available locations. If they were positive I would view remaining locations on that route. If negative I would only check if the amount was lower."",""Q1"":""I learned to check more information in the later rounds. Sometimes $20's would be behind -$4's, making it worth it to go that route."",""Q2"":""31"",""Q3"":""Male""}",118813,,2099449,,,survey-text,,64
,,,,,,,,,,,,,,"{""Q0"":""I initially tried clicking on nodes adjacent to the central node until I found one with a positive value, then selected that. I then selected the node adjacent to the first selected node, then randomly selected one of the two remaining nodes."",""Q1"":""no; I considered finding a positive node adjacent to the central node, then clicking on the two associated destination nodes, determining if there was a destination node that was likely to yield a positive value for the complete path (taking into account the cost for looking a values of the nodes), but I didn't follow through."",""Q2"":""66"",""Q3"":""male""}",436491,,1518481,,,survey-text,,65
,,,,,,,,,,,,,,"{""Q0"":""I tried to find the route to gain the most score"",""Q1"":""no but I did get a better understanding of how the game works when I played it more times"",""Q2"":""30"",""Q3"":""male""}",76523,,1051691,,,survey-text,,66
,,,,,,,,,,,,,,"{""Q0"":""I mostly guessed because uncovering the values was too costly"",""Q1"":""Don't waste all your money uncovering the values"",""Q2"":""57"",""Q3"":""male""}",51065,,1302549,,,survey-text,,67
,,,,,,,,,,,,,,"{""Q0"":""I usually just followed the green. If there was an immediate pay-off in the one of the circles, I would reveal the rest of that particular route's values. Sometimes I would compulsively reveal more out of curiosity."",""Q1"":""Probably not. Seeing negative numbers in red ink kind of makes me panic."",""Q2"":""20"",""Q3"":""Female""}",343113,,1684808,,,survey-text,,68
,,,,,,,,,,,,,,"{""Q0"":""Went the same route most of the time and earned money on most trips"",""Q1"":""super hard to plan"",""Q2"":""31"",""Q3"":""Female""}",61009,,922831,,,survey-text,,69
,,,,,,,,,,,,,,"{""Q0"":""I could not click on the buttons for the first 5 or 6 rounds but afterwards I could and I was able to plan well so I made money"",""Q1"":""Yes.  If I could have clicked on the buttons during the first few rounds I would have done a lot better"",""Q2"":""43"",""Q3"":""female""}",55025,,1471391,,,survey-text,,70
,,,,,,,,,,,,,,"{""Q0"":""      I decided to buy the four locations surrounding the airplane at centerpoint, and go from there."",""Q1"":""     I guess that in a way I did. I learned that you should examine many options before you choose one."",""Q2"":""48"",""Q3"":""Female""}",202277,,1821433,,,survey-text,,71
,,,,,,,,,,,,,,"{""Q0"":""I started at the destination spots to see which ones had he best payouts and worked my way in"",""Q1"":""Not really.  It seems like more luck than anything"",""Q2"":""37"",""Q3"":""Male""}",122045,,1842204,,,survey-text,,72
,,,,,,,,,,,,,,"{""Q0"":""I learn that it's worth it to pay $1 to see which direction i should take. And if two routes reveal the same money, I would spend an additional $1 to see the next step."",""Q1"":""yes "",""Q2"":""23"",""Q3"":""female""}",67255,,1178488,,,survey-text,,73
,,,,,,,,,,,,,,"{""Q0"":""I clicked on the nearest square and then followed the path to try to maximize $"",""Q1"":""Try to avoid the red"",""Q2"":""52"",""Q3"":""Female""}",52542,,923983,,,survey-text,,75
,,,,,,,,,,,,,,"{""Q0"":""I tried to follow the money, and make the most money possible with out spending money to see what path to take"",""Q1"":""make sure to learn the whole path"",""Q2"":""34"",""Q3"":""Male ""}",41876,,1360453,,,survey-text,,76
,,,,,,,,,,,,,,"{""Q0"":""Guess"",""Q1"":""Not really. I couldn't see a pattern."",""Q2"":""33"",""Q3"":""Female""}",23536,,1285438,,,survey-text,,77
,,,,,,,,,,,,,,"{""Q0"":""How to make the most money."",""Q1"":""Don't click so many boxes, and when you see a -20, just stop."",""Q2"":""37"",""Q3"":""male""}",24498,,1311862,,,survey-text,,78
,,,,,,,,,,,,,,"{""Q0"":""Trying to go to as many different values as possible."",""Q1"":""No."",""Q2"":""21"",""Q3"":""Female""}",32570,,1272913,,,survey-text,,79
,,,,,,,,,,,,,,"{""Q0"":""I first paid to reveal the closest destinations to see which had the better values."",""Q1"":""I learned to go further down the line of destinations to reveal the better values."",""Q2"":""31"",""Q3"":""Male""}",70796,,943936,,,survey-text,,81
,,,,,,,,,,,,,,"{""Q0"":""AT first I just guessed. Then I decided to check the first stop on each route to see which had a profit. "",""Q1"":""Checking the profit on the first stop definitely made for at least a little better end profit than just guessing blindly."",""Q2"":""33"",""Q3"":""Female""}",79334,,3240599,,,survey-text,,82
,,,,,,,,,,,,,,"{""Q0"":""I picked the spaces randomly."",""Q1"":""Not at all."",""Q2"":""29"",""Q3"":""female""}",57625,,1622472,,,survey-text,,83
,,,,,,,,,,,,,,"{""Q0"":""I tried to look at the first 4 surrounding options, then once I found a +12 or +20 (if one existed), I explored that branch further before moving."",""Q1"":""Yes, I learned it was wiser to uncover at least one of the leaf nodes on each branch I was considering so I could make a wise guess on which direction to turn at the end to maximize profit. "",""Q2"":""25"",""Q3"":""Male""}",123570,,1163722,,,survey-text,,84
,,,,,,,,,,,,,,"{""Q0"":""I went with the route that had the highest money values!"",""Q1"":"""",""Q2"":""53"",""Q3"":""female""}",104827,,1567055,,,survey-text,,85
,,,,,,,,,,,,,,"{""Q0"":""no plans"",""Q1"":""nope"",""Q2"":""34"",""Q3"":""34""}",27640,,1146611,,,survey-text,,86
,,,,,,,,,,,,,,"{""Q0"":""I tried to figure out if there were any patterns in the game, but I couldn't find any other than moving up from the center was usually a good idea."",""Q1"":""No"",""Q2"":""47"",""Q3"":""male""}",163271,,1655119,,,survey-text,,87
,,,,,,,,,,,,,,"{""Q0"":""I tried to maximize my profit."",""Q1"":""I never saw anything greater than $20, so if I saw a path with a $20 and no deductions, I chose that."",""Q2"":""46"",""Q3"":""female""}",77149,,1049528,,,survey-text,,88
,,,,,,,,,,,,,,"{""Q0"":""Remembering the highest amounts."",""Q1"":""I get better with practice."",""Q2"":""58"",""Q3"":""Female""}",119303,,1787063,,,survey-text,,89
,,,,,,,,,,,,,,"{""Q0"":""Used the location reveal to help plan"",""Q1"":""no"",""Q2"":""34"",""Q3"":""Male""}",38438,,1681037,,,survey-text,,90
,,,,,,,,,,,,,,"{""Q0"":""I looked for a pattern and then checked on the first and last to see which was better."",""Q1"":""Look for a positive on the first trip and one on the last."",""Q2"":""27"",""Q3"":""male""}",34482,,1077275,,,survey-text,,91
,,,,,,,,,,,,,,"{""Q0"":""I tried to use the information gathering but it didn't work, so I went in blind and I still scored badly."",""Q1"":""No."",""Q2"":""29"",""Q3"":""agender""}",28534,,1104224,,,survey-text,,92
,,,,,,,,,,,,,,"{""Q0"":""I checked the end points to see the reward and losses, then proceeded to check if the path was worth pursuing after that."",""Q1"":""I felt like my planning was more or less the same, when going into the game. But as the game went on I started to learn how the game worked."",""Q2"":""24"",""Q3"":""Male""}",112689,,1139075,,,survey-text,,93
,,,,,,,,,,,,,,"{""Q0"":""I tried to decide which route was the best by revealing the four initial directions I could go and then pick between which of the four routes would be most profitable."",""Q1"":""I learned that the more quickly you clicked and revealed more information it was usually most optimal. "",""Q2"":""21"",""Q3"":""Male""}",87416,,993856,,,survey-text,,94
,,,,,,,,,,,,,,"{""Q0"":""I mostly looked at the end nodes to check prices."",""Q1"":""Sometimes it was better to chance it and go blind than trying to gather too much information."",""Q2"":""33"",""Q3"":""Male""}",45140,,1166585,,,survey-text,,95
,,,,,,,,,,,,,,"{""Q0"":""Kept going up and revealing one of the endpoints to choose right or left"",""Q1"":""No"",""Q2"":""19"",""Q3"":""Male""}",49827,,1363937,,,survey-text,,96
,,,,,,,,,,,,,,"{""Q0"":""I just guessed which way to go, sometimes I checked first to see what was in the space."",""Q1"":""Not really."",""Q2"":""28"",""Q3"":""female""}",71105,,1186029,,,survey-text,,97
,,,,,,,,,,,,,,"{""Q0"":""check all stop points and finding the most valuable way "",""Q1"":""yes that you had to pay attention to other stops on the way"",""Q2"":""29"",""Q3"":""female""}",50686,,1368747,,,survey-text,,98
,,,,,,,,,,,,,,"{""Q0"":""It just depended on how I felt, and where I thought was best. "",""Q1"":""Maybe check more before I started a route. "",""Q2"":""26"",""Q3"":""Female""}",58135,,1146798,,,survey-text,,99
,,,,,,,,,,,,,,"{""Q0"":""Tried to stick to local maximum."",""Q1"":""A bit."",""Q2"":""35"",""Q3"":""Male""}",33874,,1422374,,,survey-text,,100
,,,,,,,,,,,,,,"{""Q0"":""It seemed that 2 of the final destinations that shared the same path (for example the 2 final destinations in either one of the 4 directions) had opposite payoffs (ex. +/- $4).  I chose to uncover one in each direction then check one of the 2 intermediate stops to see the payoff.  In this way, it was unnecessary to see all payoffs before determining which route to use."",""Q1"":""The final destination and one of the two intermediate stops is all that needs to be revealed to maximize the payout."",""Q2"":""32"",""Q3"":""male""}",159742,,1234364,,,survey-text,,101
,,,,,,,,,,,,,,"{""Q0"":""I didn't really plan, I just picked. "",""Q1"":""Not really because it changed every time."",""Q2"":""30"",""Q3"":""Female""}",33141,,1039334,,,survey-text,,102
,,,,,,,,,,,,,,"{""Q0"":""I just tried to go where I earned money in the previous game; obviously, I did not do well."",""Q1"":""No, I really didn't."",""Q2"":""62"",""Q3"":""female""}",61864,,1378389,,,survey-text,,103
,,,,,,,,,,,,,,"{""Q0"":""Sometimes I looked and other times I just guessed. "",""Q1"":""No. "",""Q2"":""39"",""Q3"":""Female""}",37050,,1030601,,,survey-text,,104
,,,,,,,,,,,,,,"{""Q0"":""I tried to discover one destination that would give all positive values (regardless of the final amount) and went with it, instead of looking at all hidden values."",""Q1"":""I learned that sometimes it's better to go with a path that looks positive, instead of analyzing many paths and losing time and money."",""Q2"":""32"",""Q3"":""Male""}",107101,,1045847,,,survey-text,,105
,,,,,,,,,,,,,,"{""Q0"":""I remembered the original flight route."",""Q1"":""After the first few rounds I assumed the routes rotates clockwise by 1 and then assumed the 3rd move alternated."",""Q2"":""31"",""Q3"":""Male""}",71723,,1080294,,,survey-text,,106
,,,,,,,,,,,,,,"{""Q0"":""Just tried to go different directions each time and go in the directions it would allow."",""Q1"":""No"",""Q2"":""60"",""Q3"":""Female""}",54762,,1617104,,,survey-text,,107
,,,,,,,,,,,,,,"{""Q0"":""I just chose what felt best. No planning."",""Q1"":""Nope"",""Q2"":""30"",""Q3"":""Female""}",69430,,1624299,,,survey-text,,108
,,,,,,,,,,,,,,"{""Q0"":""First going to the inner circle and hitting some spots and then following + values outward from there."",""Q1"":""You have to choose as many positive values as possible."",""Q2"":""65"",""Q3"":""Female""}",158932,,1764716,,,survey-text,,109
,,,,,,,,,,,,,,"{""Q0"":""I tried different strategies throughout."",""Q1"":""no"",""Q2"":""28"",""Q3"":""female""}",30120,,933652,,,survey-text,,111
,,,,,,,,,,,,,,"{""Q0"":""I tried to maximize my profit, but didn't stress too much as long as I was making a decent profit. I looked at the first 4 choices, then considered the further routes for the paths that looked promising."",""Q1"":""I learned that I sometimes looked at too many choices, but as that mostly cost me time that I didn't need, I didn't care about that too much. "",""Q2"":""27"",""Q3"":""nonbinary""}",69278,,937671,,,survey-text,,112
,,,,,,,,,,,,,,"{""Q0"":""i didnt follow any certain route "",""Q1"":""no i did not"",""Q2"":""26"",""Q3"":""f""}",41122,,1557403,,,survey-text,,114
,,,,,,,,,,,,,,"{""Q0"":""By clicking as few of the circles as possible to find the best route. I winged the first few rounds and that was not optimal."",""Q1"":""yes, I feel that I was able to strategically get better as the game progressed."",""Q2"":""43"",""Q3"":""female""}",68937,,997516,,,survey-text,,115
,,,,,,,,,,,,,,"{""Q0"":""Radomly"",""Q1"":""No"",""Q2"":""32"",""Q3"":""Male""}",22919,,1247325,,,survey-text,,116
,,,,,,,,,,,,,,"{""Q0"":""i just looked at the numbers and picked the ones i new would pay"",""Q1"":""not really"",""Q2"":""34"",""Q3"":""male""}",34225,,1559732,,,survey-text,,117
,,,,,,,,,,,,,,"{""Q0"":""Checking the middle stop for the highest payout."",""Q1"":""Yes once the highest middle payout was found I should have checked the final stop to know which way would be most profitable. "",""Q2"":""33"",""Q3"":""Male""}",68574,,1281766,,,survey-text,,118
,,,,,,,,,,,,,,"{""Q0"":""tried to find a large payout endpoint without a big negative in between"",""Q1"":""don't click too much, guess a little"",""Q2"":""35"",""Q3"":""female""}",31503,,1084002,,,survey-text,,119
,,,,,,,,,,,,,,"{""Q0"":""I randomly chose where to go"",""Q1"":""No. I couldn't understand the patterns to plan with."",""Q2"":""22"",""Q3"":""Male""}",26482,,1282742,,,survey-text,,120
,,,,,,,,,,,,,,"{""Q0"":""Decided not to reveal tiles as I would already be losing too much to make money"",""Q1"":""See above. Although I noticed one round I won $60.00 but my balance did not go up by $.60"",""Q2"":""32"",""Q3"":""male""}",63629,,908304,,,survey-text,,121
,,,,,,,,,,,,,,"{""Q0"":""I get information based on it"",""Q1"":""No"",""Q2"":""34"",""Q3"":""Male""}",23217,,1276501,,,survey-text,,122
,,,,,,,,,,,,,,"{""Q0"":""First checked the areas closest to the airplane to see what was the highest value and then expanded out from there."",""Q1"":""After a few times I used the method I had just described."",""Q2"":""37"",""Q3"":""Male""}",87904,,1294910,,,survey-text,,123
,,,,,,,,,,,,,,"{""Q0"":""by trying to spend the least amount on hidden answers"",""Q1"":""no"",""Q2"":""37"",""Q3"":""male""}",39382,,1050543,,,survey-text,,124
,,,,,,,,,,,,,,"{""Q0"":""most amount gained with less money loss"",""Q1"":""yes, always check the destination before leaving "",""Q2"":""35"",""Q3"":""male""}",69913,,976884,,,survey-text,,126
,,,,,,,,,,,,,,"{""Q0"":""I was trying to open less hidden values to save some money and as soon as I saw good route I took it."",""Q1"":""I need some time to reflect about it more."",""Q2"":""27"",""Q3"":""Female""}",82776,,1364440,,,survey-text,,127
,,,,,,,,,,,,,,"{""Q0"":""I looked north to see what the payoff was.  If it was a positive number, I continued north."",""Q1"":""Obviously not since I didn't earn a bonus"",""Q2"":""54"",""Q3"":""female""}",50576,,1065477,,,survey-text,,128
,,,,,,,,,,,,,,"{""Q0"":""I tried to make as much money without spending too much discovering the costs"",""Q1"":""I just tried to discover a route that paid decent without clicking too much"",""Q2"":""40"",""Q3"":""Male""}",44231,,1089787,,,survey-text,,129
,,,,,,,,,,,,,,"{""Q0"":""I guessed"",""Q1"":""No"",""Q2"":""24"",""Q3"":""male""}",24455,,1187616,,,survey-text,,130
,,,,,,,,,,,,,,"{""Q0"":""I choose the first circles to see if there was a negative or positive amount. I would then check the last 2 circles to see if it was worth going that route. Even if it would cost me to check other circles the negative may have out-weighed the positive."",""Q1"":""Sometimes if negative amount circles were the first uncovered, even if I knew it would cost more, I wanted to see what the best outcome it would be. "",""Q2"":""35"",""Q3"":""Female""}",202077,,1593008,,,survey-text,,131
,,,,,,,,,,,,,,"{""Q0"":""Open windows to see best"",""Q1"":""Maybe, but harder sometimes than others"",""Q2"":""43"",""Q3"":""male""}",102539,,1505016,,,survey-text,,132
,,,,,,,,,,,,,,"{""Q0"":""I tried to find the route that would give me the most money."",""Q1"":""Yeah, I learned to trust the \""chokepoints\"" of the first four moves about the ending profitability of the potential route."",""Q2"":""30"",""Q3"":""Male""}",42781,,1101873,,,survey-text,,133
,,,,,,,,,,,,,,"{""Q0"":""Checking for which route had positive money to start and then going forward from there"",""Q1"":""Usually positive amounts were opposite each other at the start"",""Q2"":""25"",""Q3"":""male""}",39919,,937876,,,survey-text,,134
,,,,,,,,,,,,,,"{""Q0"":""just pressed an arrow no plan at all"",""Q1"":""no it seemed the results were absolutely random."",""Q2"":""68"",""Q3"":""male""}",97088,,1013286,,,survey-text,,135
,,,,,,,,,,,,,,"{""Q0"":""I mostly based on what the values were in front me that I could see."",""Q1"":""no not really"",""Q2"":""49"",""Q3"":""Male""}",58391,,1661024,,,survey-text,,136
,,,,,,,,,,,,,,"{""Q0"":""just guessing the whole time"",""Q1"":""no, i didn't.  I did try to find the prices of two points and hope the one i chose was going to get me the most money."",""Q2"":""40"",""Q3"":""female""}",47936,,927082,,,survey-text,,137
,,,,,,,,,,,,,,"{""Q0"":""I checked for positive amounts and tried to follow them first"",""Q1"":""Follow the positive amounts when possible"",""Q2"":""38"",""Q3"":""male""}",35738,,755910,,,survey-text,,138
,,,,,,,,,,,,,,"{""Q0"":""The most effective way"",""Q1"":""By prechecking my route"",""Q2"":""30"",""Q3"":""Female""}",44019,,1334438,,,survey-text,,140
,,,,,,,,,,,,,,"{""Q0"":""figured if the amounts were going to change each round should probably keep the same route each time to play the averages."",""Q1"":""when you could revel the amounts, after a few rounds starting to thinking more information was better - essentially paying a premium to help assist maximum payout to avoid getting the worst case scenario."",""Q2"":""33"",""Q3"":""male""}",99150,,1475125,,,survey-text,,141
,,,,,,,,,,,,,,"{""Q0"":""I viewed each routes value that had a positive balance initially, then took the route that gave me the most money."",""Q1"":""Yes, I eventually learned that money spent in the beginning to view the paths value was worth it."",""Q2"":""34"",""Q3"":""female""}",98316,,1164085,,,survey-text,,142
,,,,,,,,,,,,,,"{""Q0"":""no plan"",""Q1"":""no"",""Q2"":""45"",""Q3"":""female""}",43499,,1333210,,,survey-text,,143
,,,,,,,,,,,,,,"{""Q0"":""Gut feeling"",""Q1"":""No"",""Q2"":""34"",""Q3"":""female""}",13573,,1645206,,,survey-text,,144
,,,,,,,,,,,,,,"{""Q0"":""Pick the outside ones first, then work my way in."",""Q1"":""Sort of. You had to select a lot of them to figure out what direction to go. After picking the outside ones you could figure out which way would net the most money after picking a few inside ones."",""Q2"":""40"",""Q3"":""Male""}",103928,,1317781,,,survey-text,,146
,,,,,,,,,,,,,,"{""Q0"":""find the route with the highest pay one stop at a time."",""Q1"":""Check each first step first.  The methodically each next step."",""Q2"":""40"",""Q3"":""male""}",63151,,1016841,,,survey-text,,147
,,,,,,,,,,,,,,"{""Q0"":""I wanted to go where I would hit at 20. But I didn't always reveal it."",""Q1"":""I feel like I did better at the beginning and my planning made me do worse."",""Q2"":""37"",""Q3"":""f""}",49561,,1130535,,,survey-text,,148
,,,,,,,,,,,,,,"{""Q0"":""I chose to value the intermediate points first and evaluate for any further information."",""Q1"":""Yes, when I had the time I looked at more points."",""Q2"":""52"",""Q3"":""female""}",62205,,1068723,,,survey-text,,149
,,,,,,,,,,,,,,"{""Q0"":""I opened the first 4"",""Q1"":""I was patient"",""Q2"":""33"",""Q3"":""female""}",73332,,1469217,,,survey-text,,150
,,,,,,,,,,,,,,"{""Q0"":""I clicked around on values until a plus bonus came up. I then tried to measure how much value a route had in order to determine if it was worth going for."",""Q1"":""I attempted to do more math and balance risk, but got very unlucky during the course of the game and could not recover, so I decided to move quicker and did not care much about the results."",""Q2"":""25"",""Q3"":""Male""}",184106,,1150466,,,survey-text,,151
,,,,,,,,,,,,,,"{""Q0"":""I INITIALLY DID NOT WANT TO PAY ANY AMOUNT BUT DID LATER ON WHEN I FELT THAT WAY WAS BETTER."",""Q1"":""LEARNT THAT IT WAS EASIER TO PAY A PENALTY."",""Q2"":""53"",""Q3"":""FEMALE""}",94864,,1345938,,,survey-text,,153
,,,,,,,,,,,,,,"{""Q0"":""The first one I was confused. The next 9 I clicked most of the circles and the last six I just guessed"",""Q1"":""No"",""Q2"":""36"",""Q3"":""Female""}",88904,,1166618,,,survey-text,,154
,,,,,,,,,,,,,,"{""Q0"":""I checked to see if some of the circles were -$ or +$ and then kind of planned which route would have the  best payout."",""Q1"":""It took a while to learn which routes would have the best payouts and how many looks I could use ($-.25). "",""Q2"":""29"",""Q3"":""female""}",58414,,1151314,,,survey-text,,155
,,,,,,,,,,,,,,"{""Q0"":""I clicked on the possible final destination. If the amount was favorable then I clicked the items that would lead me to the favorable destination. If it was positive; I took that route."",""Q1"":""I learned that one must consider the final outcome before making a decision. If the final outcome is favorable then one must take that route."",""Q2"":""32"",""Q3"":""Male""}",153619,,1199602,,,survey-text,,157
,,,,,,,,,,,,,,"{""Q0"":""Choosing the last destinations first, then comparing routes that led to the top two highest paying destinations."",""Q1"":""Viewing the last destinations is better than trying all the first destinations."",""Q2"":""18"",""Q3"":""Male""}",102821,,1162390,,,survey-text,,158
,,,,,,,,,,,,,,"{""Q0"":""i just went randomly"",""Q1"":""no"",""Q2"":""24"",""Q3"":""male""}",10565,,884175,,,survey-text,,159
,,,,,,,,,,,,,,"{""Q0"":""Blind luck"",""Q1"":""Nope"",""Q2"":""68"",""Q3"":""Male""}",55543,,1941904,,,survey-text,,160
,,,,,,,,,,,,,,"{""Q0"":""I chose the path with the most $ at the beginning"",""Q1"":""Look ahead a bit"",""Q2"":""32"",""Q3"":""Female""}",51071,,981783,,,survey-text,,161
,,,,,,,,,,,,,,"{""Q0"":""It was all just a guess on the first flight. Then based off of when I actually made money, I tried to find a pattern. I did not spend $1 to check the prices."",""Q1"":""I did not get a thorough pattern"",""Q2"":""36"",""Q3"":""Female""}",94653,,1430620,,,survey-text,,162
,,,,,,,,,,,,,,"{""Q0"":""I would click the first destination in each direction to figure out which way would be negative, and then moved to the next areas that had positive income. If I guessed on the first try a direction that seemed to have high pay. I went with it. "",""Q1"":""Don't even both clicking the second destination  if the first one is negative. "",""Q2"":""30"",""Q3"":""Male""}",93287,,1357988,,,survey-text,,163
,,,,,,,,,,,,,,"{""Q0"":""I planned based on the most amount of reward"",""Q1"":""Yes I would have clicked on more spots during my first few rounds"",""Q2"":""28"",""Q3"":""female""}",52234,,1117703,,,survey-text,,164
,,,,,,,,,,,,,,"{""Q0"":""I selected the first intermediate stops looking for the positive payout. Then I selected the end destinations to see where the highest payout was."",""Q1"":""Yes, it was better to select the destinations in advance to see where the most positive payout would be."",""Q2"":""42"",""Q3"":""Femail""}",103083,,1242489,,,survey-text,,165
,,,,,,,,,,,,,,"{""Q0"":""I tried to find the route that paid the best"",""Q1"":""I learned the most important parts to plan are where to begin and where you want to end up"",""Q2"":""38"",""Q3"":""Male""}",81202,,1263978,,,survey-text,,166
,,,,,,,,,,,,,,"{""Q0"":""It was really frustrating to lose no matter what because of the expense of uncovering spots."",""Q1"":""It felt no better to uncover than pick a path blindly"",""Q2"":""54"",""Q3"":""female""}",151834,,1643512,,,survey-text,,167
,,,,,,,,,,,,,,"{""Q0"":""hit as few buttons to max. points"",""Q1"":""learning when to just stop and go with things"",""Q2"":""33"",""Q3"":""female""}",32488,,1499991,,,survey-text,,168
,,,,,,,,,,,,,,"{""Q0"":""I paid to view some of the spots before moving"",""Q1"":""That paying a small amount at the beginning gives me a better chance of getting a better payout in the end"",""Q2"":""34"",""Q3"":""male""}",40069,,956733,,,survey-text,,169
,,,,,,,,,,,,,,"{""Q0"":""I started out just picking random routes without looking at any amounts. I did okay with that but then I realized it was worth spending the dollar for potential bigger payout. Then I realized I was flipping over too many and losing money."",""Q1"":""Sometimes it is worth investing a bit to see if you can get ahead further in the end."",""Q2"":""43"",""Q3"":""Female""}",115465,,1261951,,,survey-text,,170
,,,,,,,,,,,,,,"{""Q0"":""I looked at the first stop in each direction then kept investigating the paths with good bonuses to find the best total bonus."",""Q1"":""When none of the trails looked very good I started looking at more bad paths to see if they had a $20 bonus at the end."",""Q2"":""45"",""Q3"":""Male""}",104773,,957287,,,survey-text,,171
,,,,,,,,,,,,,,"{""Q0"":""Initially it was random, I did relatively well and just hoped for the best."",""Q1"":""Don't click if you don't mean too, which I did the first time and spent money I didn't intend."",""Q2"":""38"",""Q3"":""female""}",54592,,916358,,,survey-text,,172
,,,,,,,,,,,,,,"{""Q0"":""I tried to change my direction every time and when I got feedback I would go the opposite way the next time. "",""Q1"":""I learned that it takes a lot of time and decisions are important in the amount of time you spend on something and how well you perform on a task."",""Q2"":""22"",""Q3"":""Female""}",100471,,1791320,,,survey-text,,173
,,,,,,,,,,,,,,"{""Q0"":""tried to minimize loss"",""Q1"":""no"",""Q2"":""56"",""Q3"":""female""}",32685,,967534,,,survey-text,,174
,,,,,,,,,,,,,,"{""Q0"":""In the first rounds, I just guessed.  In the 2nd rounds, I checked the dollar amounts and lost .25 each"",""Q1"":""Not really"",""Q2"":""42"",""Q3"":""Female""}",74482,,1209041,,,survey-text,,175
,,,,,,,,,,,,,,"{""Q0"":""I tried to find the most money using the least money possible"",""Q1"":""I think I need to slow down a bit"",""Q2"":""63"",""Q3"":""female""}",49351,,1259407,,,survey-text,,176
,,,,,,,,,,,,,,"{""Q0"":""I tried to follow the positive numbers when I uncovered them"",""Q1"":""I would say a little. "",""Q2"":""42"",""Q3"":""female""}",33799,,2485327,,,survey-text,,177
,,,,,,,,,,,,,,"{""Q0"":""Random"",""Q1"":""should have checked the value of each one before each game"",""Q2"":""37"",""Q3"":""female""}",52226,,1782598,,,survey-text,,178
,,,,,,,,,,,,,,"{""Q0"":""I clicked until I found a route I liked, that I felt was the best I could probably do. If my initial click was a negative amount, I clicked in a different direction in most cases."",""Q1"":""If anything, to go with my gut, when I felt it was a good path, to take it. Clicking around to see all my options did not benefit me."",""Q2"":""55"",""Q3"":""Female""}",82552,,927631,,,survey-text,,179
,,,,,,,,,,,,,,"{""Q0"":""The first couple of tries would not let me select to reveal the circles, so the first couple were guesses. After that, i was guessing as to whether the circle would be $12 or not, I didn't often find it."",""Q1"":""Not really. I never really saw a pattern."",""Q2"":""26"",""Q3"":""Female""}",99621,,2212330,,,survey-text,,180
,,,,,,,,,,,,,,"{""Q0"":""I randomly picked"",""Q1"":""no"",""Q2"":""30"",""Q3"":""female""}",20576,,1382638,,,survey-text,,181
,,,,,,,,,,,,,,"{""Q0"":""The initial goal was to minimize the average number of payments for info per round, so I decided in an ideal round I'd pick one of the four directly adjacent me, and then one of the two end destinations. If the initial adjacent choice was pretty good (e.g. 12) I'd stick with that and decide which end to journey to. If it was bad I'd try another one. Basically it would never make sense to pick one of the four just before the 'fork' at the end, because I'd have to go there anyway, unless I wanted to either gamble elsewhere (pointless, since it's an even trade but at the cost of $4) or spend way too much on info."",""Q1"":""The one true disaster round I had was when I paid way too much for info after lots of the initial reveals were bad. So I decided after that I'd only spend $8 on info, ideally."",""Q2"":""26"",""Q3"":""Male""}",202372,,1167192,,,survey-text,,182
,,,,,,,,,,,,,,"{""Q0"":""i tried to determine how may times in each direction.....however i failed  "",""Q1"":""no"",""Q2"":""50"",""Q3"":""female""}",56624,,1135952,,,survey-text,,183
,,,,,,,,,,,,,,"{""Q0"":""I clicked on most of the circles and then took the most profitable route."",""Q1"":""Click the first (inner) circle first and then just click on the secondary routes that are joined to a profitable first route."",""Q2"":""39"",""Q3"":""female""}",84443,,1005068,,,survey-text,,184
,,,,,,,,,,,,,,"{""Q0"":""I preferred to go the route that didn't start in the red.  However, there was a couple of times I had no choice.  Then proceeded to the circles with the most pay."",""Q1"":""Uh...  not really.  But it sure was fun!"",""Q2"":""63"",""Q3"":""female""}",115295,,2047347,,,survey-text,,185
,,,,,,,,,,,,,,"{""Q0"":""based off the first and closest values i saw then guessing after that"",""Q1"":""no"",""Q2"":""27"",""Q3"":""Man man man man manly man whew ha hew ha hew ha hew""}",96892,,1923979,,,survey-text,,186
,,,,,,,,,,,,,,"{""Q0"":""Randomly"",""Q1"":""Seemed that when I went up or right, I should have gone right or up."",""Q2"":""56"",""Q3"":""female""}",67482,,1725273,,,survey-text,,187
,,,,,,,,,,,,,,"{""Q0"":""Tried to see if there was a shifting pattern which would either help or harm me."",""Q1"":""Yeah, that even when i tried to stop on a spot when I had felt I had gained the most money, the timer would not let me advance to the next screen until i moved one place over. And every time I did so my balance went to either zero or negative. "",""Q2"":""32"",""Q3"":""female ""}",120079,,981238,,,survey-text,,188
,,,,,,,,,,,,,,"{""Q0"":""I just thought about the best way to make the most money"",""Q1"":""no"",""Q2"":""24"",""Q3"":""female""}",12336,,1118068,,,survey-text,,189
,,,,,,,,,,,,,,"{""Q0"":""At the end, clicking on destinations to see the values."",""Q1"":""Not really, since there was too much chance along the way."",""Q2"":""60"",""Q3"":""Male""}",70655,,978837,,,survey-text,,190
,,,,,,,,,,,,,,"{""Q0"":""observing which was the best route"",""Q1"":""yes. it was very interesting"",""Q2"":""36"",""Q3"":""male""}",102864,,1472183,,,survey-text,,191
,,,,,,,,,,,,,,"{""Q0"":""I based it on the highest net profit."",""Q1"":""No. The paths seemed too random."",""Q2"":""42"",""Q3"":""Female""}",51281,,1197306,,,survey-text,,192
,,,,,,,,,,,,,,"{""Q0"":""I opened up quite a few of  the tiles, I wanted to maximize earnings, and the cost/benefit was worth it. "",""Q1"":""Yes, I should trust my instincts when I saw larger amounts on the first row, would have saved money."",""Q2"":""32"",""Q3"":""Male""}",47478,,810080,,,survey-text,,193
,,,,,,,,,,,,,,"{""Q0"":""Looked for a positive starting and ending point."",""Q1"":"""",""Q2"":""57"",""Q3"":""male""}",48775,,1232870,,,survey-text,,194
,,,,,,,,,,,,,,"{""Q0"":""I often clicked one or two of the second circles to see. If a number was large enough and positive I felt it was optimal."",""Q1"":""At times I found success clicking one of the outermost circles in the route to see if it was a high positive number, and then ruled out others that were not on the route."",""Q2"":""54"",""Q3"":""Male""}",100271,,1222922,,,survey-text,,195
,,,,,,,,,,,,,,"{""Q0"":""I started out trying to get a good first or second landing place by revealing only those cash values and not the end destinations, but it was too random and I frequently lost bonus on the final square."",""Q1"":""I learned to reveal more cash values and accept the cost of uncovering the value of my destinations."",""Q2"":""35"",""Q3"":""Male""}",99751,,1145129,,,survey-text,,196
,,,,,,,,,,,,,,"{""Q0"":""Tried to reveal as little as I could to see the best route for the amount of money and go that way."",""Q1"":""Sometimes having all the information is too late."",""Q2"":""28"",""Q3"":""Female""}",122141,,1320506,,,survey-text,,197
,,,,,,,,,,,,,,"{""Q0"":""I clicked on the bubbles and determined which route would make me the most money. If I clicked on a path that lead to profits only, I would take that path immediately because I was happy with at least some guaranteed profit, instead of risking losses by clicking the other bubbles."",""Q1"":""I learned that it's better to just take the first path that looks like it's decently profitable than to risk losses by always trying to find the \""best\"" one. "",""Q2"":""25"",""Q3"":""Female""}",124637,,1169472,,,survey-text,,198
,,,,,,,,,,,,,,"{""Q0"":""I didnt plan much"",""Q1"":""no"",""Q2"":""33"",""Q3"":""female""}",34042,,1278590,,,survey-text,,199
,,,,,,,,,,,,,,"{""Q0"":""wild guessing. It didn't seem worth it to waste money you didn't have to peek. "",""Q1"":""no"",""Q2"":""25"",""Q3"":""female""}",100065,,1439936,,,survey-text,,200
,,,,,,,,,,,,,,"{""Q0"":""tried to make the best financial choices"",""Q1"":""use the initial cost technique to make sure my first choice was a good one"",""Q2"":""35"",""Q3"":""female""}",37794,,1475043,,,survey-text,,202
,,,,,,,,,,,,,,"{""Q0"":""I really just tried different random areas."",""Q1"":""No I did not.  I wasn't given the ability to go back so once I was in one section I was committed."",""Q2"":""35"",""Q3"":""female""}",40266,,1033683,,,survey-text,,203
,,,,,,,,,,,,,,"{""Q0"":""The first round I paid to see what all the final destinations rewarded. The second round I tried a few different strategies."",""Q1"":""I'm not sure; another round would have been nice."",""Q2"":""51"",""Q3"":""male""}",107914,,1278415,,,survey-text,,205
,,,,,,,,,,,,,,"{""Q0"":""at first random then in the second round i figured going down was better.  just try to avoid the -20 at all costs"",""Q1"":""keep the same route"",""Q2"":""32"",""Q3"":""male""}",37062,,855615,,,survey-text,,206
,,,,,,,,,,,,,,"{""Q0"":""Evaluating the second midpoint for positive amounts, then the most cost efficient way to get there. "",""Q1"":""Stick with the mostly positive routes, automatically eliminate the negative routes. "",""Q2"":""29"",""Q3"":""female""}",48877,,1120252,,,survey-text,,207
,,,,,,,,,,,,,,"{""Q0"":""First time, it was just random.  Then I started to at least tapped on the first circle to see if I should go that route or not."",""Q1"":""Yes, there were some higher negatives so it became worth spending the $4 to see if I should go that way."",""Q2"":""49"",""Q3"":""Female""}",79389,,1139752,,,survey-text,,208
,,,,,,,,,,,,,,"{""Q0"":""Yes"",""Q1"":""Yes"",""Q2"":""34"",""Q3"":""Male""}",80740,,2076614,,,survey-text,,209
,,,,,,,,,,,,,,"{""Q0"":"""",""Q1"":"""",""Q2"":""34"",""Q3"":""male""}",18402,,1274019,,,survey-text,,210
,,,,,,,,,,,,,,"{""Q0"":""i tried spending $4 to find a good path, but always ended up neg, so then i gave up and picked randomly."",""Q1"":""No.  I could not find a way to make money."",""Q2"":""45"",""Q3"":""Male""}",53592,,920607,,,survey-text,,211
,,,,,,,,,,,,,,"{""Q0"":""At first, I tried to go with few clues, but I soon realized I'd have to pay YOU if I kept that up!"",""Q1"":""Get as many facts as you can before moving forward.  But next time, I would check it out path by path, rather than randomly revealing all at once."",""Q2"":""60"",""Q3"":""Female""}",104331,,1302474,,,survey-text,,212
,,,,,,,,,,,,,,"{""Q0"":""Looking at the endpoints on each available route, i.e. the terminal points at the end of each tree. "",""Q1"":""Sometimes, there seemed to be a trade off between searching for endpoints that were positive in nature, and checking all of the endpoints for the best result. It seemed more economical to take the 'bird in hand' rather than continue to lose money on other routes that were still hidden"",""Q2"":""32"",""Q3"":""Male""}",75432,,1010297,,,survey-text,,213
,,,,,,,,,,,,,,"{""Q0"":""I revealed the first path option, all four at once. From there I chose the most positive path to the second location. If both second location spots were still positive I revealed both final destination paths. "",""Q1"":""When I saw negative numbers I stopped revealing that path."",""Q2"":""32"",""Q3"":""Male""}",151482,,1411565,,,survey-text,,214
,,,,,,,,,,,,,,"{""Q0"":""looked for consecutive positive numbers"",""Q1"":""yes and no- paying to see the value is an interesting issue to contend with, but typically once you have historical costs they don't change. In this exercise, they did. "",""Q2"":""41"",""Q3"":""male""}",93867,,1127964,,,survey-text,,217
,,,,,,,,,,,,,,"{""Q0"":""My methods changed over time, but in the end I would highlight sections from each path until I was convinced that I had found one which, if not optimal, would return a bonus above average.  I would then unveil all segments of this path to be certain there were no strong negative tiles."",""Q1"":""Initially I simply unlocked sections of all paths and then followed the one that looked best.  Afterwards, given that it was cheap to unlock tiles, I would unlock the whole map to see the optimal path.  Finally, when I had an idea of how much bonus to expect on a given stage, I worked as mentioned above, unlocking a few tiles from each path then hypothesizing which paths were good and checking them fully and pursuing if above average."",""Q2"":""24"",""Q3"":""Male""}",238537,,1045226,,,survey-text,,218
,,,,,,,,,,,,,,"{""Q0"":""Random"",""Q1"":""No"",""Q2"":""35"",""Q3"":""female""}",25225,,907937,,,survey-text,,220
,,,,,,,,,,,,,,"{""Q0"":""Mostly random, as the values reset every time, and the time delays seemed like a punishment, and really disincentivized strategizing"",""Q1"":""Not really"",""Q2"":""33"",""Q3"":""Male""}",47048,,1170842,,,survey-text,,221
,,,,,,,,,,,,,,"{""Q0"":""i took guesses"",""Q1"":""tried to go more to the right or up"",""Q2"":""38"",""Q3"":""female""}",29154,,1475920,,,survey-text,,222
,,,,,,,,,,,,,,"{""Q0"":""There wasn't really a lot of planning in the beginning, however, after a few rounds, I started to assume in a route was bad one time, it would be good the next."",""Q1"":""No, not really."",""Q2"":""57"",""Q3"":""Male""}",114481,,1434518,,,survey-text,,223
,,,,,,,,,,,,,,"{""Q0"":""I didn't know at first how to best plan a route. I then figured out that it's best to see what money you got at you final destinations then go from there."",""Q1"":""Yes. I learn to see how my destination was first then look at how it was mid way through the flight since I had to go to the middle to get to the destination."",""Q2"":""26"",""Q3"":""Male""}",169701,,1300791,,,survey-text,,224
,,,,,,,,,,,,,,"{""Q0"":""It was 100% luck so I ended up clicking the first circle to see if it was positive and going from there."",""Q1"":""Not at all. "",""Q2"":""30"",""Q3"":""Male""}",43454,,1144122,,,survey-text,,226
,,,,,,,,,,,,,,"{""Q0"":""Found the positive ones off the first branch first\nThen followed those positive ones.\n\nIf they were all bad, I tried to search for the one that would do the least damage while hoping for a +$20."",""Q1"":""Eh, not really"",""Q2"":""25"",""Q3"":""Male""}",62378,,1099971,,,survey-text,,227
,,,,,,,,,,,,,,"{""Q0"":""I don't know.  I was hoping to go up and over, but then there seemed to be a pattern."",""Q1"":""slightly; I think there was a pattern"",""Q2"":""43"",""Q3"":""female""}",41583,,2112761,,,survey-text,,228
,,,,,,,,,,,,,,"{""Q0"":""I clicked on most of the circles to see the value and traveled the way that would gain the most money."",""Q1"":""Although it required an initial investment, I was better able to plan a more valuable route by knowing the values ahead of time."",""Q2"":""42"",""Q3"":""female""}",102598,,1589093,,,survey-text,,229
,,,,,,,,,,,,,,"{""Q0"":""I revealed each point"",""Q1"":""Nope"",""Q2"":""28"",""Q3"":""Male""}",19053,,2772684,,,survey-text,,231
,,,,,,,,,,,,,,"{""Q0"":""just clicked on the first ones than tried my luck"",""Q1"":""Not really, clicking more didn't seem to help"",""Q2"":""41"",""Q3"":""male""}",54754,,1105134,,,survey-text,,232
,,,,,,,,,,,,,,"{""Q0"":""best place for money, examined a lot of spots"",""Q1"":""no"",""Q2"":""26"",""Q3"":""female""}",27096,,2030759,,,survey-text,,234
,,,,,,,,,,,,,,"{""Q0"":""checking the first four moves first then the last ones."",""Q1"":""A little bit"",""Q2"":""26"",""Q3"":""Male""}",24836,,1384993,,,survey-text,,236
,,,,,,,,,,,,,,"{""Q0"":""I tried to just find positive numbers and accept anything I had that was a profit. I didn't try and take the risk of a bigger profit."",""Q1"":""Yes. Take the profit when I can."",""Q2"":""23"",""Q3"":""Female""}",40066,,1221931,,,survey-text,,237
,,,,,,,,,,,,,,"{""Q0"":"""",""Q1"":"""",""Q2"":""26"",""Q3"":""male""}",16986,,1178200,,,survey-text,,238
,,,,,,,,,,,,,,"{""Q0"":""I first was looking for the highest payout on the first move but later just looked for any high payout and moved towards it."",""Q1"":""No. I wish the game would have shown all values once the time was up so that I could see where I went wrong and plan for the next game."",""Q2"":""35"",""Q3"":""female""}",116753,,1314007,,,survey-text,,239
,,,,,,,,,,,,,,"{""Q0"":""I clicked on four first nearest spots.  Then I chose the highest out of those to branch out.  Whichever route from those points that had the highest payout I chose to take."",""Q1"":""No"",""Q2"":""30"",""Q3"":""male""}",80776,,1288894,,,survey-text,,240
,,,,,,,,,,,,,,"{""Q0"":""I clicked on all 4 first stops then based on the first stops that looked best, clicked on the paths from there to see which one was best."",""Q1"":""Not to uncover every stop."",""Q2"":""41"",""Q3"":""female""}",52785,,1083220,,,survey-text,,241
,,,,,,,,,,,,,,"{""Q0"":""I chose the highest amount for the immediate four choices, then I just went with my gut."",""Q1"":""Not really. Because I was penalized for clicking on too many choices, I felt like winging it worked as well as planning."",""Q2"":""59"",""Q3"":""female""}",101191,,1147303,,,survey-text,,242
,,,,,,,,,,,,,,"{""Q0"":""I first checked the final destination value.  If it was green, I would follow the flight plan to check the rest of the route. "",""Q1"":""I noticed that at least one route tended to be all green.  I tried to find that route each round."",""Q2"":""32"",""Q3"":""Male""}",56290,,1022638,,,survey-text,,244
,,,,,,,,,,,,,,"{""Q0"":""I went to the corner spots (destinations), tried to find the highest ones.  The I checked some intermediary spots to see if it was worth the overall trip."",""Q1"":""Yes and no.  I came up with a strategy.  It was successful and I stayed with it."",""Q2"":""70"",""Q3"":""Male""}",144793,,1708435,,,survey-text,,245
,,,,,,,,,,,,,,"{""Q0"":""I just picked randomly. "",""Q1"":""I learned that there were some that stayed the same for a while, which made it a bit easier for that duration. "",""Q2"":""23"",""Q3"":""Female""}",43486,,1375327,,,survey-text,,246
,,,,,,,,,,,,,,"{""Q0"":""I looked for routes I knew I would make a profit on, if there was one that existed. I wanted to know what all the spaces I would go on would add in revenue or cost."",""Q1"":""The more information the better."",""Q2"":""35"",""Q3"":""Male""}",93057,,2274137,,,survey-text,,248
,,,,,,,,,,,,,,"{""Q0"":""At first I checked too many points after I was penalized I would only check 2, the path I originally planned and one of the other 2nd paths. I would pick my route based on this small amount of info. "",""Q1"":""I learned not to pick to many at first to reveal!"",""Q2"":""32"",""Q3"":""female""}",58350,,1508494,,,survey-text,,250
,,,,,,,,,,,,,,"{""Q0"":""I checked the nearest circle first and then moved on from there depending if it was a positive or negative number. If positive I moved along until I hit a negative number. "",""Q1"":""I felt that it was more luck than planning. "",""Q2"":""37"",""Q3"":""Male""}",139573,,1160227,,,survey-text,,251
,,,,,,,,,,,,,,"{""Q0"":""Mostly I clicked far too much or I guessed. I also tried to repeat the same pattern but it only worked for awhile."",""Q1"":""No."",""Q2"":""50"",""Q3"":""female""}",60588,,1028585,,,survey-text,,252
,,,,,,,,,,,,,,"{""Q0"":""by the amount of money shown"",""Q1"":""yes"",""Q2"":""43"",""Q3"":""female""}",32209,,1434209,,,survey-text,,253
,,,,,,,,,,,,,,"{""Q0"":"" I really just tried to discover the route that paid the most. "",""Q1"":"" Not really. "",""Q2"":""71"",""Q3"":""Male""}",91448,,1149868,,,survey-text,,255
,,,,,,,,,,,,,,"{""Q0"":""I gathered info"",""Q1"":""click first 4 first go with pluses"",""Q2"":""36"",""Q3"":""Male""}",45360,,1186997,,,survey-text,,256
,,,,,,,,,,,,,,"{""Q0"":""At first I just checked a few destinations and hoped I would get lucky without using my money to check.  Later I checked all or most destinations."",""Q1"":""I learned I made better choices with more information."",""Q2"":""56"",""Q3"":""female""}",138974,,1290287,,,survey-text,,257
,,,,,,,,,,,,,,"{""Q0"":""I tried to guess until I found a 20 because I didn't want to plan much."",""Q1"":""Don't always just focus on the goal"",""Q2"":""20"",""Q3"":""Male""}",48554,,1173274,,,survey-text,,258
,,,,,,,,,,,,,,"{""Q0"":""Picked from the interior circle until I got a green then traversed that section of the graph."",""Q1"":""Yeah, I didn't realize the graph was directed at first."",""Q2"":""19"",""Q3"":""male""}",35900,,2794709,,,survey-text,,259
,,,,,,,,,,,,,,"{""Q0"":""I started by looking at the possibilities, and quickly found you could barely break even. "",""Q1"":""I learned that chance was as effective as planning in this scenario."",""Q2"":""45"",""Q3"":""male""}",58973,,847225,,,survey-text,,260
,,,,,,,,,,,,,,"{""Q0"":""At first it was random then I started trying to do opposites of each other or similar patterns. "",""Q1"":""Yes."",""Q2"":""29"",""Q3"":""Male""}",57812,,1028519,,,survey-text,,261
,,,,,,,,,,,,,,"{""Q0"":""I tried to minimize my losses and maximize my gains"",""Q1"":""A negative first flight doesn't necessarily mean no gains later"",""Q2"":""55"",""Q3"":""female""}",45430,,1266684,,,survey-text,,262
,,,,,,,,,,,,,,"{""Q0"":""I just picked randomly"",""Q1"":""yes I believe I did . there seemed to be a pattern"",""Q2"":""43"",""Q3"":""female""}",58267,,1407864,,,survey-text,,263
,,,,,,,,,,,,,,"{""Q0"":""I tried to find a lane where the first two moves make a profit.  Then I'd check one \""turn\"" for a profit."",""Q1"":""I'm not sure - but after the first two or three levels, I fell into a definitive strategy."",""Q2"":""32"",""Q3"":""Male""}",74669,,1193392,,,survey-text,,264
,,,,,,,,,,,,,,"{""Q0"":""I simply tried to find a route that ultimately made money, rather than waste too much in fees trying to find the \""optimal\"" path."",""Q1"":""At first, I just observed the first row of the route I wanted to take, but a few times that got be burned."",""Q2"":""34"",""Q3"":""Male""}",58205,,1365646,,,survey-text,,265
,,,,,,,,,,,,,,"{""Q0"":""I uncovered a lot of the amounts to see what route would be most profitable."",""Q1"":""Do your best to see where you are going."",""Q2"":""41"",""Q3"":""Female""}",99142,,1700514,,,survey-text,,266
,,,,,,,,,,,,,,"{""Q0"":""Initially, I tried to guess the best route. However, every time I guessed, I got the worst penalty. Then I paid $4 to uncover good routes."",""Q1"":""Spend money ahead of time.\nAdditionally, I had issues with the quiz. I answered all questions correctly multiple times and I was told I had wrong answers. The instructions were not very clear in some cases which cost me 15 minutes of time on the quiz."",""Q2"":""39"",""Q3"":""male""}",161182,,2208707,,,survey-text,,267
,,,,,,,,,,,,,,"{""Q0"":""I tried my best to pick end points that had high dollar values, without spending too much money to check too many points."",""Q1"":""I thought I had - but as is evidenced from the fact that my bonus is ending up at zero, I was evidently wrong.. "",""Q2"":""46"",""Q3"":""male""}",50547,,1026069,,,survey-text,,268
,,,,,,,,,,,,,,"{""Q0"":""at first i thought peeking was a waste of money but i wasn't do so well so i starting peeking and did even work"",""Q1"":""basically seems like luck"",""Q2"":""32"",""Q3"":""female""}",40115,,855507,,,survey-text,,269
,,,,,,,,,,,,,,"{""Q0"":""I just randomly did it and tried to look for a pattern"",""Q1"":""no"",""Q2"":""32"",""Q3"":""female""}",34346,,1184872,,,survey-text,,270
,,,,,,,,,,,,,,"{""Q0"":""gather information and choose the route with the most money."",""Q1"":""Yes. Select all of the first moves and see which loses the most so i know which route not to go."",""Q2"":""25"",""Q3"":""Male""}",61687,,1094361,,,survey-text,,271
,,,,,,,,,,,,,,"{""Q0"":""To begin with I looked at a lot of options but that got expensive. So I chose a direction that had a positive first stop, then guessed from there."",""Q1"":""No, not really."",""Q2"":""56"",""Q3"":""male""}",40952,,1268106,,,survey-text,,272
,,,,,,,,,,,,,,"{""Q0"":""Just guessing."",""Q1"":""No"",""Q2"":""24"",""Q3"":""Female""}",14547,,840890,,,survey-text,,273
,,,,,,,,,,,,,,"{""Q0"":""I tried to gather information about the 2nd intermediates"",""Q1"":""Not really"",""Q2"":""33"",""Q3"":""Male""}",41327,,958861,,,survey-text,,274
,,,,,,,,,,,,,,"{""Q0"":""I examined the amount that I received at the end of the route and compared it to the amount I would receive at the first intermediate point."",""Q1"":""As I went along I learned how to minimize my moves so that I could earn the most and I was fine with the idea it may not have not been the most for that particular round because uncovering each additional value was 1.00 which was an automatic deduction."",""Q2"":""37"",""Q3"":""Female""}",121419,,1397063,,,survey-text,,275
,,,,,,,,,,,,,,"{""Q0"":""shouldn't of even moved to begin with"",""Q1"":""no"",""Q2"":""29"",""Q3"":""male""}",29312,,1017036,,,survey-text,,276
,,,,,,,,,,,,,,"{""Q0"":""I didn't want to spend too much investigating, so I usually just only looked into two routes."",""Q1"":""Not really, I tended to have better luck choosing up or forward paths."",""Q2"":""34"",""Q3"":""Female""}",49138,,840711,,,survey-text,,277
,,,,,,,,,,,,,,"{""Q0"":""Random"",""Q1"":""No I wish I did"",""Q2"":""31"",""Q3"":""Male""}",17658,,2006946,,,survey-text,,278
,,,,,,,,,,,,,,"{""Q0"":""Randomly mostly"",""Q1"":""No, the game is too restrictive. Unable to backtrack so once you move that's it. Also, way too much downtime waiting for the game to be any fun."",""Q2"":""64"",""Q3"":""male""}",79359,,1445551,,,survey-text,,279
,,,,,,,,,,,,,,"{""Q0"":""I just did what I thought would work and most of the time, it did not."",""Q1"":""I learned that you have to understand which way is probably better as opposed to other directions I chose."",""Q2"":""57"",""Q3"":""female""}",75772,,1488707,,,survey-text,,280
,,,,,,,,,,,,,,"{""Q0"":""I would reveal the closest spots near the airplane until I got either a 12 or a 20. Then I would follow that path with the highest and choose both options at the end unless one was a 12 or a 20. I did not push my luck any further after finding a reasonable path."",""Q1"":""I learned not to reveal them all because a $4 loss was quite substantial. I would stop when I would be guaranteed a gain, especially if the other options were not looking too well."",""Q2"":""19"",""Q3"":""Male""}",127823,,996473,,,survey-text,,281
,,,,,,,,,,,,,,"{""Q0"":""I tried to pick the path with the most money and tried to avoid showing the values of the ones I would have to take regardless. "",""Q1"":""I am not sure, but I learned that it didn't always make sense to plan more or less. I sometimes just went with my gut. "",""Q2"":""29"",""Q3"":""Male""}",129521,,1157641,,,survey-text,,282
,,,,,,,,,,,,,,"{""Q0"":""I just tried to find the most value."",""Q1"":""Yes, later I learned each move gains or loses money I did not realize this till later so then I tried go on no minus."",""Q2"":""28"",""Q3"":""Male""}",91611,,1394084,,,survey-text,,283
,,,,,,,,,,,,,,"{""Q0"":""Chance"",""Q1"":""Don't be so impatient "",""Q2"":""50"",""Q3"":""male""}",30245,,1381085,,,survey-text,,284
,,,,,,,,,,,,,,"{""Q0"":""randomly"",""Q1"":""not really"",""Q2"":""49"",""Q3"":""female""}",29120,,1457314,,,survey-text,,285
,,,,,,,,,,,,,,"{""Q0"":""I didn't"",""Q1"":""No"",""Q2"":""33"",""Q3"":""female""}",12369,,1017660,,,survey-text,,286
,,,,,,,,,,,,,,"{""Q0"":""Just random. I have no plan at all."",""Q1"":""No. I learned that the longer I clicked to reveal the prize before starting the more money I will lose."",""Q2"":""37"",""Q3"":""Female""}",104642,,1067948,,,survey-text,,287
,,,,,,,,,,,,,,"{""Q0"":""Some I guessed and others I looked first"",""Q1"":""I did better when I looked at the money earned"",""Q2"":""36"",""Q3"":""female""}",48916,,1358034,,,survey-text,,288
,,,,,,,,,,,,,,"{""Q0"":""I just went with the flow."",""Q1"":"" No"",""Q2"":""32"",""Q3"":""female""}",16762,,1454894,,,survey-text,,289
,,,,,,,,,,,,,,"{""Q0"":""When planning the route of my airplane I first would see the cost of the initial  destination and which ever has a promising gain I would continue on that path."",""Q1"":""I learned that a person can always make better decisions if they are prepared. But too much preparing can cost you time and money. "",""Q2"":""34"",""Q3"":""Female""}",174826,,1439299,,,survey-text,,290
,,,,,,,,,,,,,,"{""Q0"":""I tried to click on the fewest circles I could and end up on a path of positive gains."",""Q1"":""Only a little, a lot had to be random once I made my first direction decision."",""Q2"":""37"",""Q3"":""Female""}",37706,,1081774,,,survey-text,,291
,,,,,,,,,,,,,,"{""Q0"":""I tried to check the inner circle for positive values, then looked at the next step.  I then tried the next step.  The info was worth the $1."",""Q1"":""Paths that started positive were the way to go.  Once I found a positive path, I didn't check any other information."",""Q2"":""47"",""Q3"":""Male""}",154549,,1517279,,,survey-text,,292
,,,,,,,,,,,,,,"{""Q0"":""Tried seeing the information but cost too much so then tried to guess."",""Q1"":""Not really"",""Q2"":""38"",""Q3"":""Female""}",33493,,1145272,,,survey-text,,293
,,,,,,,,,,,,,,"{""Q0"":""I found the first positive value and went from there"",""Q1"":""yes - once the first possible positive path is found I stopped checking the other dots"",""Q2"":""33"",""Q3"":""male""}",75699,,1173151,,,survey-text,,296
,,,,,,,,,,,,,,"{""Q0"":""I tried to find a completely positive route and at least one 12 or 20"",""Q1"":""I don't think so"",""Q2"":""31"",""Q3"":""F""}",57829,,1006057,,,survey-text,,297
,,,,,,,,,,,,,,"{""Q0"":""Randomly"",""Q1"":""Look at options "",""Q2"":""46"",""Q3"":""Female""}",31553,,1380706,,,survey-text,,298
,,,,,,,,,,,,,,"{""Q0"":""find the path of least resistance. didnt realize until the end that I didnt have to find the best path, just needed a winning path."",""Q1"":""pay less by uncovering fewer destinations. try to maximize profit, not receive maximum profit."",""Q2"":""30"",""Q3"":""male""}",88112,,1154183,,,survey-text,,299
,,,,,,,,,,,,,,"{""Q0"":""I revealed enough spaces to figure out what I thought was the optimal path."",""Q1"":""I just learned early on to reveal enough spaces to figure it out."",""Q2"":""31"",""Q3"":""Male""}",50499,,909818,,,survey-text,,301
,,,,,,,,,,,,,,"{""Q0"":""I didn't. I tried to find a pattern and never saw one."",""Q1"":""No."",""Q2"":""38"",""Q3"":""Female""}",40516,,1234860,,,survey-text,,302
,,,,,,,,,,,,,,"{""Q0"":""I tried to look at the end of the goal and look at the number in between since loosing a few cents would affect me to much if the end goal yield a big reward."",""Q1"":""yes, I tried to think ahead on what the pattern might look lik in my head. "",""Q2"":""34"",""Q3"":""female""}",154149,,1329036,,,survey-text,,303
,,,,,,,,,,,,,,"{""Q0"":""I chose randomly."",""Q1"":""No, it seemed as though the amount of money on each dot changed each level of each round."",""Q2"":""25"",""Q3"":""Female""}",27502,,1113503,,,survey-text,,304
,,,,,,,,,,,,,,"{""Q0"":""I just went wherever because not only did it not give feed back each time, even when I should have earned a bonus it said I didn't."",""Q1"":""No"",""Q2"":""31"",""Q3"":""Female""}",61544,,1025249,,,survey-text,,305
