p_rdata,action_times,actions,beliefs,correct,delays,information_used_correctly,key_press,meta_actions,path,planned_too_little,planned_too_much,queries,questions,responses,rt,score,time_elapsed,trial_index,trial_id,trial_type,view_history,pid
,,,,,,,32.0,,,,,,,,7049,,705415,,,text,,0
,,,,,,,32.0,,,,,,,,9540,,715296,,,text,,2
,,,,,,,32.0,,,,,,,,7003,,895192,,,text,,3
,,,,,,,32.0,,,,,,,,2332,,873247,,,text,,4
,,,,,,,32.0,,,,,,,,6283,,646120,,,text,,6
,,,,,,,32.0,,,,,,,,4430,,565709,,,text,,7
,,,,,,,32.0,,,,,,,,39899,,1285778,,,text,,8
,,,,,,,32.0,,,,,,,,4178,,905059,,,text,,10
,,,,,,,32.0,,,,,,,,9421,,1488878,,,text,,13
,,,,,,,32.0,,,,,,,,5409,,1349355,,,text,,14
,,,,,,,32.0,,,,,,,,2637,,866477,,,text,,16
,,,,,,,32.0,,,,,,,,7898,,910638,,,text,,21
,,,,,,,32.0,,,,,,,,6821,,1187091,,,text,,22
,,,,,,,32.0,,,,,,,,6823,,1053880,,,text,,25
,,,,,,,32.0,,,,,,,,9655,,892437,,,text,,26
,,,,,,,32.0,,,,,,,,7675,,990313,,,text,,27
,,,,,,,32.0,,,,,,,,6514,,634988,,,text,,28
,,,,,,,32.0,,,,,,,,5617,,810817,,,text,,29
,,,,,,,32.0,,,,,,,,5485,,881225,,,text,,30
,,,,,,,32.0,,,,,,,,6636,,716246,,,text,,31
,,,,,,,32.0,,,,,,,,5990,,906471,,,text,,32
,,,,,,,32.0,,,,,,,,5806,,783797,,,text,,33
,,,,,,,32.0,,,,,,,,11580,,1120487,,,text,,34
,,,,,,,32.0,,,,,,,,5127,,799575,,,text,,36
,,,,,,,32.0,,,,,,,,7685,,951626,,,text,,37
,,,,,,,32.0,,,,,,,,12543,,879062,,,text,,38
,,,,,,,32.0,,,,,,,,7454,,1742314,,,text,,39
,,,,,,,32.0,,,,,,,,3909,,1271938,,,text,,40
,,,,,,,32.0,,,,,,,,11982,,965296,,,text,,41
,,,,,,,32.0,,,,,,,,64503,,1109729,,,text,,45
,,,,,,,32.0,,,,,,,,4264,,947171,,,text,,46
,,,,,,,32.0,,,,,,,,5166,,857184,,,text,,47
,,,,,,,32.0,,,,,,,,6715,,714998,,,text,,49
,,,,,,,32.0,,,,,,,,6966,,855549,,,text,,51
,,,,,,,32.0,,,,,,,,6681,,1106336,,,text,,53
,,,,,,,32.0,,,,,,,,3134,,906340,,,text,,54
,,,,,,,32.0,,,,,,,,2169,,640719,,,text,,55
,,,,,,,32.0,,,,,,,,7413,,709717,,,text,,57
,,,,,,,32.0,,,,,,,,4060,,1336961,,,text,,59
,,,,,,,32.0,,,,,,,,12164,,959245,,,text,,62
,,,,,,,32.0,,,,,,,,7536,,721332,,,text,,63
,,,,,,,32.0,,,,,,,,6196,,1663779,,,text,,64
,,,,,,,32.0,,,,,,,,7617,,988086,,,text,,67
,,,,,,,32.0,,,,,,,,7955,,1015605,,,text,,68
,,,,,,,32.0,,,,,,,,2985,,1172236,,,text,,70
,,,,,,,32.0,,,,,,,,9547,,1286071,,,text,,71
,,,,,,,32.0,,,,,,,,6800,,1389874,,,text,,72
,,,,,,,32.0,,,,,,,,14297,,801205,,,text,,73
,,,,,,,32.0,,,,,,,,5341,,901933,,,text,,76
,,,,,,,32.0,,,,,,,,4410,,934533,,,text,,77
,,,,,,,32.0,,,,,,,,3329,,954616,,,text,,78
,,,,,,,32.0,,,,,,,,7544,,990527,,,text,,79
,,,,,,,32.0,,,,,,,,7230,,1101024,,,text,,82
,,,,,,,32.0,,,,,,,,6965,,1207497,,,text,,85
,,,,,,,32.0,,,,,,,,11580,,1075243,,,text,,87
,,,,,,,32.0,,,,,,,,7582,,1416001,,,text,,89
,,,,,,,32.0,,,,,,,,2723,,1358212,,,text,,90
,,,,,,,32.0,,,,,,,,4910,,829361,,,text,,92
,,,,,,,32.0,,,,,,,,14032,,760143,,,text,,93
,,,,,,,32.0,,,,,,,,4075,,638592,,,text,,94
,,,,,,,32.0,,,,,,,,6730,,816588,,,text,,95
,,,,,,,32.0,,,,,,,,3852,,1044492,,,text,,96
,,,,,,,32.0,,,,,,,,14123,,801182,,,text,,97
,,,,,,,32.0,,,,,,,,10358,,1005893,,,text,,98
,,,,,,,32.0,,,,,,,,7571,,781302,,,text,,99
,,,,,,,32.0,,,,,,,,2270,,971882,,,text,,100
,,,,,,,32.0,,,,,,,,8135,,794016,,,text,,101
,,,,,,,32.0,,,,,,,,6871,,735190,,,text,,102
,,,,,,,32.0,,,,,,,,6690,,734623,,,text,,104
,,,,,,,32.0,,,,,,,,6459,,1248850,,,text,,107
,,,,,,,32.0,,,,,,,,2053,,1166379,,,text,,108
,,,,,,,32.0,,,,,,,,14568,,1269589,,,text,,109
,,,,,,,32.0,,,,,,,,4365,,587674,,,text,,112
,,,,,,,32.0,,,,,,,,9110,,1218650,,,text,,114
,,,,,,,32.0,,,,,,,,6404,,948549,,,text,,116
,,,,,,,32.0,,,,,,,,9199,,1203708,,,text,,117
,,,,,,,32.0,,,,,,,,7413,,866936,,,text,,118
,,,,,,,32.0,,,,,,,,5332,,740652,,,text,,119
,,,,,,,32.0,,,,,,,,5193,,939856,,,text,,120
,,,,,,,32.0,,,,,,,,4389,,936148,,,text,,122
,,,,,,,32.0,,,,,,,,8114,,946664,,,text,,123
,,,,,,,32.0,,,,,,,,4743,,788102,,,text,,129
,,,,,,,32.0,,,,,,,,16006,,820317,,,text,,130
,,,,,,,32.0,,,,,,,,19577,,1075194,,,text,,131
,,,,,,,32.0,,,,,,,,8323,,1077661,,,text,,132
,,,,,,,32.0,,,,,,,,1718,,743453,,,text,,133
,,,,,,,32.0,,,,,,,,6333,,1348533,,,text,,136
,,,,,,,32.0,,,,,,,,3815,,629319,,,text,,137
,,,,,,,32.0,,,,,,,,2347,,471207,,,text,,138
,,,,,,,32.0,,,,,,,,4001,,1029762,,,text,,140
,,,,,,,32.0,,,,,,,,5536,,1028228,,,text,,141
,,,,,,,32.0,,,,,,,,9073,,795037,,,text,,142
,,,,,,,32.0,,,,,,,,3407,,1361114,,,text,,144
,,,,,,,32.0,,,,,,,,7529,,879056,,,text,,146
,,,,,,,32.0,,,,,,,,7385,,709141,,,text,,147
,,,,,,,32.0,,,,,,,,7343,,748560,,,text,,149
,,,,,,,32.0,,,,,,,,6340,,1141274,,,text,,150
,,,,,,,32.0,,,,,,,,6573,,933673,,,text,,153
,,,,,,,32.0,,,,,,,,11942,,707062,,,text,,154
,,,,,,,32.0,,,,,,,,4038,,825970,,,text,,155
,,,,,,,32.0,,,,,,,,17394,,1571454,,,text,,160
,,,,,,,32.0,,,,,,,,8414,,662015,,,text,,161
,,,,,,,32.0,,,,,,,,2735,,957654,,,text,,163
,,,,,,,32.0,,,,,,,,10564,,819520,,,text,,164
,,,,,,,32.0,,,,,,,,6342,,823817,,,text,,165
,,,,,,,32.0,,,,,,,,9712,,930087,,,text,,166
,,,,,,,32.0,,,,,,,,8049,,1237540,,,text,,167
,,,,,,,32.0,,,,,,,,7152,,995224,,,text,,168
,,,,,,,32.0,,,,,,,,7927,,672150,,,text,,169
,,,,,,,32.0,,,,,,,,4155,,609367,,,text,,171
,,,,,,,32.0,,,,,,,,7638,,1296337,,,text,,173
,,,,,,,32.0,,,,,,,,8472,,666692,,,text,,174
,,,,,,,32.0,,,,,,,,5566,,894074,,,text,,176
,,,,,,,32.0,,,,,,,,6214,,1898208,,,text,,177
,,,,,,,32.0,,,,,,,,3196,,1475428,,,text,,178
,,,,,,,32.0,,,,,,,,5736,,599287,,,text,,179
,,,,,,,32.0,,,,,,,,71421,,1628958,,,text,,180
,,,,,,,32.0,,,,,,,,3839,,1003334,,,text,,181
,,,,,,,32.0,,,,,,,,5094,,706167,,,text,,182
,,,,,,,32.0,,,,,,,,7266,,827535,,,text,,183
,,,,,,,32.0,,,,,,,,13746,,1595648,,,text,,185
,,,,,,,32.0,,,,,,,,6040,,1331671,,,text,,187
,,,,,,,32.0,,,,,,,,2341,,792327,,,text,,189
,,,,,,,32.0,,,,,,,,10105,,828106,,,text,,192
,,,,,,,32.0,,,,,,,,2195,,519397,,,text,,193
,,,,,,,32.0,,,,,,,,3690,,871002,,,text,,195
,,,,,,,32.0,,,,,,,,4988,,730619,,,text,,196
,,,,,,,32.0,,,,,,,,4558,,936000,,,text,,197
,,,,,,,32.0,,,,,,,,6398,,703671,,,text,,198
,,,,,,,32.0,,,,,,,,5324,,996989,,,text,,200
,,,,,,,32.0,,,,,,,,1966,,1056175,,,text,,202
,,,,,,,32.0,,,,,,,,2499,,576719,,,text,,206
,,,,,,,32.0,,,,,,,,3903,,705370,,,text,,207
,,,,,,,32.0,,,,,,,,10575,,1745996,,,text,,209
,,,,,,,32.0,,,,,,,,9246,,965783,,,text,,210
,,,,,,,32.0,,,,,,,,6284,,657580,,,text,,213
,,,,,,,32.0,,,,,,,,7053,,755929,,,text,,217
,,,,,,,32.0,,,,,,,,4600,,560160,,,text,,218
,,,,,,,32.0,,,,,,,,6368,,792798,,,text,,221
,,,,,,,32.0,,,,,,,,41835,,1088088,,,text,,222
,,,,,,,32.0,,,,,,,,10828,,1056442,,,text,,223
,,,,,,,32.0,,,,,,,,9287,,726907,,,text,,227
,,,,,,,32.0,,,,,,,,3323,,1451461,,,text,,228
,,,,,,,32.0,,,,,,,,4501,,1121403,,,text,,229
,,,,,,,32.0,,,,,,,,2477,,2437648,,,text,,231
,,,,,,,32.0,,,,,,,,5689,,784737,,,text,,232
,,,,,,,32.0,,,,,,,,5231,,1696492,,,text,,234
,,,,,,,32.0,,,,,,,,6330,,1025806,,,text,,236
,,,,,,,32.0,,,,,,,,4859,,801562,,,text,,237
,,,,,,,32.0,,,,,,,,4566,,828989,,,text,,238
,,,,,,,32.0,,,,,,,,10419,,910737,,,text,,239
,,,,,,,32.0,,,,,,,,5607,,954967,,,text,,240
,,,,,,,32.0,,,,,,,,5690,,754991,,,text,,241
,,,,,,,32.0,,,,,,,,6733,,753787,,,text,,242
,,,,,,,32.0,,,,,,,,25302,,1252975,,,text,,245
,,,,,,,32.0,,,,,,,,1544,,809521,,,text,,250
,,,,,,,32.0,,,,,,,,10281,,759746,,,text,,251
,,,,,,,32.0,,,,,,,,7925,,704635,,,text,,252
,,,,,,,32.0,,,,,,,,2102,,906713,,,text,,253
,,,,,,,32.0,,,,,,,,3870,,802457,,,text,,255
,,,,,,,32.0,,,,,,,,6594,,806913,,,text,,256
,,,,,,,32.0,,,,,,,,3863,,2316743,,,text,,259
,,,,,,,32.0,,,,,,,,5930,,895987,,,text,,262
,,,,,,,32.0,,,,,,,,6638,,1059423,,,text,,263
,,,,,,,32.0,,,,,,,,3125,,904934,,,text,,265
,,,,,,,32.0,,,,,,,,12448,,1331655,,,text,,266
,,,,,,,32.0,,,,,,,,3988,,1797466,,,text,,267
,,,,,,,32.0,,,,,,,,4561,,717212,,,text,,271
,,,,,,,32.0,,,,,,,,3675,,654667,,,text,,274
,,,,,,,32.0,,,,,,,,4797,,923970,,,text,,275
,,,,,,,32.0,,,,,,,,10326,,735733,,,text,,276
,,,,,,,32.0,,,,,,,,6320,,1579761,,,text,,278
,,,,,,,32.0,,,,,,,,7307,,1120713,,,text,,279
,,,,,,,32.0,,,,,,,,7770,,756362,,,text,,282
,,,,,,,32.0,,,,,,,,5904,,1099168,,,text,,284
,,,,,,,32.0,,,,,,,,7127,,1112805,,,text,,285
,,,,,,,32.0,,,,,,,,4591,,986652,,,text,,288
,,,,,,,32.0,,,,,,,,9980,,948505,,,text,,290
,,,,,,,32.0,,,,,,,,5622,,766177,,,text,,291
,,,,,,,32.0,,,,,,,,5703,,849318,,,text,,293
,,,,,,,32.0,,,,,,,,4252,,685860,,,text,,297
,,,,,,,32.0,,,,,,,,6006,,769123,,,text,,299
,,,,,,,32.0,,,,,,,,8133,,613976,,,text,,301
,,,,,,,32.0,,,,,,,,4792,,901255,,,text,,302
,,,,,,,32.0,,,,,,,,3298,,679308,,,text,,305
