action_times,actions,block,path,queries,rewards,rt,score,simulation_mode,state_rewards,time_elapsed,trial_index,trial_id,trial_type,pid
"[22443, 27441, 28782]","[u'right', u'right', u'down']",train_basic,"[u'0', u'5', u'6', u'8']","{u'mouseover': {u'state': {u'target': [], u'time': []}, u'edge': {u'target': [], u'time': []}}, u'click': {u'state': {u'target': [], u'time': []}, u'edge': {u'target': [], u'time': []}}, u'mouseout': {u'state': {u'target': [], u'time': []}, u'edge': {u'target': [], u'time': []}}}","[-10, -10, 5]","[22439, 4490, 836]",-15.0,"[None, None, None]","[u'', 10, 10, 10, 10, -10, -10, -10, 5, 10, 10, 5, 5]",31387,0.0,1.1933479039128937e+18,mouselab-mdp,0
"[3850, 5252, 6102]","[u'up', u'up', u'left']",train_basic,"[u'0', u'1', u'2', u'4']","{u'mouseover': {u'state': {u'target': [], u'time': []}, u'edge': {u'target': [], u'time': []}}, u'click': {u'state': {u'target': [], u'time': []}, u'edge': {u'target': [], u'time': []}}, u'mouseout': {u'state': {u'target': [], u'time': []}, u'edge': {u'target': [], u'time': []}}}","[5, 10, 10]","[3849, 909, 343]",25.0,"[None, None, None]","[u'', 5, 10, 10, 10, -10, -10, 5, 10, 10, 5, 10, 5]",40981,1.0,2.0301359460781466e+18,mouselab-mdp,0
"[3670, 4761, 5583]","[u'right', u'right', u'up']",train_basic,"[u'0', u'5', u'6', u'7']","{u'mouseover': {u'state': {u'target': [], u'time': []}, u'edge': {u'target': [], u'time': []}}, u'click': {u'state': {u'target': [], u'time': []}, u'edge': {u'target': [], u'time': []}}, u'mouseout': {u'state': {u'target': [], u'time': []}, u'edge': {u'target': [], u'time': []}}}","[10, 5, 10]","[3668, 601, 324]",25.0,"[None, None, None]","[u'', -5, -10, 10, 5, 10, 5, 10, 5, 5, -10, -5, -10]",49294,2.0,3.569831271632112e+18,mouselab-mdp,0
"[4232, 5240, 5867]","[u'right', u'right', u'down']",train_basic,"[u'0', u'5', u'6', u'8']","{u'mouseover': {u'state': {u'target': [], u'time': []}, u'edge': {u'target': [], u'time': []}}, u'click': {u'state': {u'target': [], u'time': []}, u'edge': {u'target': [], u'time': []}}, u'mouseout': {u'state': {u'target': [], u'time': []}, u'edge': {u'target': [], u'time': []}}}","[10, 5, 5]","[4231, 512, 122]",20.0,"[None, None, None]","[u'', 5, -10, -5, 10, 10, 5, -10, 5, 5, -5, -5, 5]",57462,3.0,8.034619116489217e+18,mouselab-mdp,0
"[3155, 4027, 4816]","[u'up', u'up', u'right']",train_basic,"[u'0', u'1', u'2', u'3']","{u'mouseover': {u'state': {u'target': [], u'time': []}, u'edge': {u'target': [], u'time': []}}, u'click': {u'state': {u'target': [], u'time': []}, u'edge': {u'target': [], u'time': []}}, u'mouseout': {u'state': {u'target': [], u'time': []}, u'edge': {u'target': [], u'time': []}}}","[5, -5, 10]","[3153, 381, 269]",10.0,"[None, None, None]","[u'', 5, -5, 10, -10, 5, -10, 5, -5, -10, -10, 5, -5]",65040,4.0,-6.260275842353281e+18,mouselab-mdp,0
"[1262, 2068, 2874]","[u'left', u'left', u'down']",train_basic,"[u'0', u'9', u'10', u'12']","{u'mouseover': {u'state': {u'target': [], u'time': []}, u'edge': {u'target': [], u'time': []}}, u'click': {u'state': {u'target': [], u'time': []}, u'edge': {u'target': [], u'time': []}}, u'mouseout': {u'state': {u'target': [], u'time': []}, u'edge': {u'target': [], u'time': []}}}","[10, 10, 10]","[1259, 291, 296]",30.0,"[None, None, None]","[u'', 5, -5, -5, -5, -10, 5, 5, -10, 10, 10, 10, 10]",70618,5.0,6.349377679140465e+18,mouselab-mdp,0
"[3864, 4549, 5459]","[u'right', u'right', u'down']",train_basic,"[u'0', u'5', u'6', u'8']","{u'mouseover': {u'state': {u'target': [], u'time': []}, u'edge': {u'target': [], u'time': []}}, u'click': {u'state': {u'target': [], u'time': []}, u'edge': {u'target': [], u'time': []}}, u'mouseout': {u'state': {u'target': [], u'time': []}, u'edge': {u'target': [], u'time': []}}}","[10, 10, 5]","[3862, 182, 390]",25.0,"[None, None, None]","[u'', -5, 5, 5, 5, 10, 10, -10, 5, -5, 10, -10, -5]",78166,6.0,9.142111453001215e+18,mouselab-mdp,0
"[2990, 3885, 4683]","[u'up', u'up', u'right']",train_basic,"[u'0', u'1', u'2', u'3']","{u'mouseover': {u'state': {u'target': [], u'time': []}, u'edge': {u'target': [], u'time': []}}, u'click': {u'state': {u'target': [], u'time': []}, u'edge': {u'target': [], u'time': []}}, u'mouseout': {u'state': {u'target': [], u'time': []}, u'edge': {u'target': [], u'time': []}}}","[-5, 10, 10]","[2987, 396, 294]",15.0,"[None, None, None]","[u'', -5, 10, 10, 5, -5, 5, -10, 10, 10, -10, -10, -10]",85494,7.0,7.801448459840969e+18,mouselab-mdp,0
"[1564, 2458, 4615]","[u'right', u'right', u'up']",train_basic,"[u'0', u'5', u'6', u'7']","{u'mouseover': {u'state': {u'target': [], u'time': []}, u'edge': {u'target': [], u'time': []}}, u'click': {u'state': {u'target': [], u'time': []}, u'edge': {u'target': [], u'time': []}}, u'mouseout': {u'state': {u'target': [], u'time': []}, u'edge': {u'target': [], u'time': []}}}","[10, 10, 10]","[1562, 391, 1650]",30.0,"[None, None, None]","[u'', -5, 5, 5, -10, 10, 10, 10, -5, 5, -5, 5, 10]",92604,8.0,-2.6104954135648773e+18,mouselab-mdp,0
"[1137, 1949, 2978]","[u'up', u'up', u'left']",train_basic,"[u'0', u'1', u'2', u'4']","{u'mouseover': {u'state': {u'target': [], u'time': []}, u'edge': {u'target': [], u'time': []}}, u'click': {u'state': {u'target': [], u'time': []}, u'edge': {u'target': [], u'time': []}}, u'mouseout': {u'state': {u'target': [], u'time': []}, u'edge': {u'target': [], u'time': []}}}","[10, 10, 10]","[1135, 316, 512]",30.0,"[None, None, None]","[u'', 10, 10, 5, 10, -10, 10, -10, -10, -5, -10, 5, -10]",98153,9.0,4.981813421836143e+18,mouselab-mdp,0
"[12564, 13430, 14692]","[u'left', u'left', u'up']",train_hidden,"[u'0', u'9', u'10', u'11']","{u'mouseover': {u'state': {u'target': [], u'time': []}, u'edge': {u'target': [], u'time': []}}, u'click': {u'state': {u'target': [], u'time': []}, u'edge': {u'target': [], u'time': []}}, u'mouseout': {u'state': {u'target': [], u'time': []}, u'edge': {u'target': [], u'time': []}}}","[10, 10, 5]","[12561, 368, 747]",25.0,"[None, None, None]","[u'', 5, 10, -10, -10, 10, 5, -10, 10, 10, 10, 5, -10]",119311,10.0,-8.624537318595376e+18,mouselab-mdp,0
"[1769, 2483, 3736]","[u'up', u'up', u'left']",train_hidden,"[u'0', u'1', u'2', u'4']","{u'mouseover': {u'state': {u'target': [], u'time': []}, u'edge': {u'target': [], u'time': []}}, u'click': {u'state': {u'target': [], u'time': []}, u'edge': {u'target': [], u'time': []}}, u'mouseout': {u'state': {u'target': [], u'time': []}, u'edge': {u'target': [], u'time': []}}}","[10, -5, -5]","[1766, 218, 738]",0.0,"[None, None, None]","[u'', 10, -5, 5, -5, -5, -5, -5, -5, 5, -5, 10, 5]",126283,11.0,1.3034732393768448e+18,mouselab-mdp,0
"[3325, 4116, 6144]","[u'up', u'up', u'right']",train_hidden,"[u'0', u'1', u'2', u'3']","{u'mouseover': {u'state': {u'target': [], u'time': []}, u'edge': {u'target': [], u'time': []}}, u'click': {u'state': {u'target': [], u'time': []}, u'edge': {u'target': [], u'time': []}}, u'mouseout': {u'state': {u'target': [], u'time': []}, u'edge': {u'target': [], u'time': []}}}","[10, 10, -10]","[3324, 290, 1519]",10.0,"[None, None, None]","[u'', 10, 10, -10, -10, -10, 10, -10, -5, 10, 5, 5, -5]",135272,12.0,1.2413699960697694e+17,mouselab-mdp,0
"[1956, 2808, 5082]","[u'right', u'right', u'up']",train_hidden,"[u'0', u'5', u'6', u'7']","{u'mouseover': {u'state': {u'target': [], u'time': []}, u'edge': {u'target': [], u'time': []}}, u'click': {u'state': {u'target': [], u'time': []}, u'edge': {u'target': [], u'time': []}}, u'mouseout': {u'state': {u'target': [], u'time': []}, u'edge': {u'target': [], u'time': []}}}","[5, 5, 10]","[1954, 348, 1756]",20.0,"[None, None, None]","[u'', 10, -5, -10, -5, 5, 5, 10, -10, -10, 5, 10, -10]",143035,13.0,-8.642469369171842e+18,mouselab-mdp,0
"[2072, 2876, 4082]","[u'left', u'left', u'down']",train_hidden,"[u'0', u'9', u'10', u'12']","{u'mouseover': {u'state': {u'target': [], u'time': []}, u'edge': {u'target': [], u'time': []}}, u'click': {u'state': {u'target': [], u'time': []}, u'edge': {u'target': [], u'time': []}}, u'mouseout': {u'state': {u'target': [], u'time': []}, u'edge': {u'target': [], u'time': []}}}","[-10, -5, 10]","[2071, 310, 683]",-5.0,"[None, None, None]","[u'', -5, -5, 10, 5, -5, -5, -10, -5, -10, -5, 5, 10]",149993,14.0,-2.317078987107653e+18,mouselab-mdp,0
"[25368, 26776, 28459]","[u'right', u'right', u'up']",train_inspector,"[u'0', u'5', u'6', u'7']","{u'mouseover': {u'state': {u'target': [], u'time': []}, u'edge': {u'target': [], u'time': []}}, u'click': {u'state': {u'target': [u'1', u'9'], u'time': [19936, 21354]}, u'edge': {u'target': [], u'time': []}}, u'mouseout': {u'state': {u'target': [], u'time': []}, u'edge': {u'target': [], u'time': []}}}","[-5, -10, -10]","[25366, 893, 1178]",-25.0,"[None, None, None]","[u'', -10, -10, -10, -10, -5, -10, -10, 10, -5, 5, -5, -5]",184025,15.0,4.1891588108237983e+18,mouselab-mdp,0
"[4244, 5087, 6686]","[u'left', u'left', u'down']",train_inspector,"[u'0', u'9', u'10', u'12']","{u'mouseover': {u'state': {u'target': [], u'time': []}, u'edge': {u'target': [], u'time': []}}, u'click': {u'state': {u'target': [u'9'], u'time': [2229]}, u'edge': {u'target': [], u'time': []}}, u'mouseout': {u'state': {u'target': [], u'time': []}, u'edge': {u'target': [], u'time': []}}}","[10, 5, 5]","[4242, 332, 1081]",20.0,"[None, None, None]","[u'', 5, 5, -5, 10, 5, -10, -5, 10, 10, 5, 5, 5]",193360,16.0,5.627389738084794e+17,mouselab-mdp,0
"[6481, 7570, 9398]","[u'left', u'left', u'up']",train_inspector,"[u'0', u'9', u'10', u'11']","{u'mouseover': {u'state': {u'target': [], u'time': []}, u'edge': {u'target': [], u'time': []}}, u'click': {u'state': {u'target': [u'1', u'5'], u'time': [2494, 4058]}, u'edge': {u'target': [], u'time': []}}, u'mouseout': {u'state': {u'target': [], u'time': []}, u'edge': {u'target': [], u'time': []}}}","[10, -5, 5]","[6479, 569, 1313]",10.0,"[None, None, None]","[u'', -5, 5, -10, -5, -5, 5, 10, -5, 10, -5, 5, -10]",205606,17.0,8.572648276602424e+18,mouselab-mdp,0
"[3695, 4565, 6296]","[u'left', u'left', u'down']",train_inspector,"[u'0', u'9', u'10', u'12']","{u'mouseover': {u'state': {u'target': [], u'time': []}, u'edge': {u'target': [], u'time': []}}, u'click': {u'state': {u'target': [u'9'], u'time': [2085]}, u'edge': {u'target': [], u'time': []}}, u'mouseout': {u'state': {u'target': [], u'time': []}, u'edge': {u'target': [], u'time': []}}}","[10, -10, 5]","[3694, 361, 1224]",5.0,"[None, None, None]","[u'', -5, 5, -5, -5, -10, -10, 10, -5, 10, -10, -5, 5]",214404,18.0,8.077601249506434e+18,mouselab-mdp,0
"[6795, 7548, 9169]","[u'right', u'right', u'up']",train_inspector,"[u'0', u'5', u'6', u'7']","{u'mouseover': {u'state': {u'target': [], u'time': []}, u'edge': {u'target': [], u'time': []}}, u'click': {u'state': {u'target': [u'1', u'5'], u'time': [1711, 4850]}, u'edge': {u'target': [], u'time': []}}, u'mouseout': {u'state': {u'target': [], u'time': []}, u'edge': {u'target': [], u'time': []}}}","[5, -5, 5]","[6794, 237, 1106]",5.0,"[None, None, None]","[u'', 5, 5, -5, 10, 5, -5, 5, 5, 5, -5, -10, -5]",226335,19.0,7.374792400222714e+18,mouselab-mdp,0
"[16431, 18947, 21417]","[u'up', u'up', u'left']",train_inspect_cost,"[u'0', u'1', u'2', u'4']","{u'mouseover': {u'state': {u'target': [], u'time': []}, u'edge': {u'target': [], u'time': []}}, u'click': {u'state': {u'target': [], u'time': []}, u'edge': {u'target': [], u'time': []}}, u'mouseout': {u'state': {u'target': [], u'time': []}, u'edge': {u'target': [], u'time': []}}}","[-10, 5, -5]","[16429, 2020, 1958]",-10.0,"[None, None, None]","[u'', -10, 5, 5, -5, 10, 5, -10, -10, -10, -5, -10, 5]",253704,20.0,6.62653966049298e+17,mouselab-mdp,0
"[1455, 2733, 4118]","[u'right', u'right', u'down']",train_inspect_cost,"[u'0', u'5', u'6', u'8']","{u'mouseover': {u'state': {u'target': [], u'time': []}, u'edge': {u'target': [], u'time': []}}, u'click': {u'state': {u'target': [], u'time': []}, u'edge': {u'target': [], u'time': []}}, u'mouseout': {u'state': {u'target': [], u'time': []}, u'edge': {u'target': [], u'time': []}}}","[10, -10, 10]","[1454, 758, 875]",10.0,"[None, None, None]","[u'', 5, 5, -5, 5, 10, -10, -10, 10, 5, 5, -10, -5]",260767,21.0,-5.368470092922741e+18,mouselab-mdp,0
"[1742, 3303, 4785]","[u'left', u'left', u'down']",train_inspect_cost,"[u'0', u'9', u'10', u'12']","{u'mouseover': {u'state': {u'target': [], u'time': []}, u'edge': {u'target': [], u'time': []}}, u'click': {u'state': {u'target': [], u'time': []}, u'edge': {u'target': [], u'time': []}}, u'mouseout': {u'state': {u'target': [], u'time': []}, u'edge': {u'target': [], u'time': []}}}","[10, -5, -5]","[1740, 1063, 960]",0.0,"[None, None, None]","[u'', 10, -5, -10, -10, -10, 10, -10, -5, 10, -5, 10, -5]",268672,22.0,9.076059563084848e+18,mouselab-mdp,0
"[1096, 2055, 2901]","[u'left', u'left', u'up']",train_inspect_cost,"[u'0', u'9', u'10', u'11']","{u'mouseover': {u'state': {u'target': [], u'time': []}, u'edge': {u'target': [], u'time': []}}, u'click': {u'state': {u'target': [], u'time': []}, u'edge': {u'target': [], u'time': []}}, u'mouseout': {u'state': {u'target': [], u'time': []}, u'edge': {u'target': [], u'time': []}}}","[-5, 10, -5]","[1095, 467, 331]",0.0,"[None, None, None]","[u'', -5, 10, -5, 10, 5, -5, 10, 5, -5, 10, -5, -5]",274525,23.0,7.213920450040262e+18,mouselab-mdp,0
"[841, 1921, 2958]","[u'up', u'up', u'left']",train_inspect_cost,"[u'0', u'1', u'2', u'4']","{u'mouseover': {u'state': {u'target': [], u'time': []}, u'edge': {u'target': [], u'time': []}}, u'click': {u'state': {u'target': [], u'time': []}, u'edge': {u'target': [], u'time': []}}, u'mouseout': {u'state': {u'target': [], u'time': []}, u'edge': {u'target': [], u'time': []}}}","[5, 10, -5]","[839, 576, 530]",10.0,"[None, None, None]","[u'', 5, 10, 10, -5, 5, 10, -5, 5, -10, -5, -10, 5]",279965,24.0,5.25598264187708e+18,mouselab-mdp,0
"[51824, 52865, 60434]","[u'right', u'right', u'up']",train_final,"[u'0', u'5', u'6', u'7']","{u'mouseover': {u'state': {u'target': [], u'time': []}, u'edge': {u'target': [], u'time': []}}, u'click': {u'state': {u'target': [u'1', u'5'], u'time': [48412, 49447]}, u'edge': {u'target': [], u'time': []}}, u'mouseout': {u'state': {u'target': [], u'time': []}, u'edge': {u'target': [], u'time': []}}}","[5, -10, -10]","[51822, 528, 7046]",-17.0,"[None, None, None]","[u'', -5, -10, -10, -5, 5, -10, -10, 10, -5, 5, -10, -10]",351912,25.0,1.960338415622663e+18,mouselab-mdp,0
"[1230, 2286, 3399]","[u'up', u'up', u'left']",train_final,"[u'0', u'1', u'2', u'4']","{u'mouseover': {u'state': {u'target': [], u'time': []}, u'edge': {u'target': [], u'time': []}}, u'click': {u'state': {u'target': [], u'time': []}, u'edge': {u'target': [], u'time': []}}, u'mouseout': {u'state': {u'target': [], u'time': []}, u'edge': {u'target': [], u'time': []}}}","[-5, -10, 5]","[1229, 542, 592]",-10.0,"[None, None, None]","[u'', -5, -10, -10, 5, -10, -5, -5, -10, 5, -10, 5, 5]",357992,26.0,7.710656893126775e+18,mouselab-mdp,0
"[559, 1483, 3205]","[u'left', u'left', u'up']",train_final,"[u'0', u'9', u'10', u'11']","{u'mouseover': {u'state': {u'target': [], u'time': []}, u'edge': {u'target': [], u'time': []}}, u'click': {u'state': {u'target': [], u'time': []}, u'edge': {u'target': [], u'time': []}}, u'mouseout': {u'state': {u'target': [], u'time': []}, u'edge': {u'target': [], u'time': []}}}","[5, 10, -10]","[557, 426, 1232]",5.0,"[None, None, None]","[u'', -5, 10, 5, -10, 10, 5, -10, -5, 5, 10, -10, 10]",363590,27.0,-9.148803387183103e+18,mouselab-mdp,0
"[5600, 6531, 7434]","[u'up', u'up', u'right']",train_final,"[u'0', u'1', u'2', u'3']","{u'mouseover': {u'state': {u'target': [], u'time': []}, u'edge': {u'target': [], u'time': []}}, u'click': {u'state': {u'target': [], u'time': []}, u'edge': {u'target': [], u'time': []}}, u'mouseout': {u'state': {u'target': [], u'time': []}, u'edge': {u'target': [], u'time': []}}}","[-5, 10, 5]","[5599, 430, 382]",10.0,"[None, None, None]","[u'', -5, 10, 5, 10, 5, 5, -5, 5, 10, 10, 10, 5]",373681,28.0,-6.877572132778754e+18,mouselab-mdp,0
"[1064, 1952, 3769]","[u'left', u'left', u'down']",train_final,"[u'0', u'9', u'10', u'12']","{u'mouseover': {u'state': {u'target': [], u'time': []}, u'edge': {u'target': [], u'time': []}}, u'click': {u'state': {u'target': [], u'time': []}, u'edge': {u'target': [], u'time': []}}, u'mouseout': {u'state': {u'target': [], u'time': []}, u'edge': {u'target': [], u'time': []}}}","[5, 10, -10]","[1063, 372, 1310]",5.0,"[None, None, None]","[u'', -5, 10, 5, 10, 5, -5, 10, -10, 5, 10, 5, -10]",379937,29.0,7.308726088184663e+18,mouselab-mdp,0
"[9435, 10935, 13039]","[u'left', u'left', u'up']",test,"[u'0', u'9', u'10', u'11']","{u'mouseover': {u'state': {u'target': [], u'time': []}, u'edge': {u'target': [], u'time': []}}, u'click': {u'state': {u'target': [u'1'], u'time': [3843]}, u'edge': {u'target': [], u'time': []}}, u'mouseout': {u'state': {u'target': [], u'time': []}, u'edge': {u'target': [], u'time': []}}}","[5, 5, 5]","[9432, 988, 1590]",14.0,"[None, None, None]","[u'', -5, 10, 5, 10, -5, -10, 10, 10, 5, 5, 5, 10]",475622,30.0,8.130696467842232e+18,mouselab-mdp,0
"[1949, 3367, 4963]","[u'up', u'up', u'right']",test,"[u'0', u'1', u'2', u'3']","{u'mouseover': {u'state': {u'target': [], u'time': []}, u'edge': {u'target': [], u'time': []}}, u'click': {u'state': {u'target': [], u'time': []}, u'edge': {u'target': [], u'time': []}}, u'mouseout': {u'state': {u'target': [], u'time': []}, u'edge': {u'target': [], u'time': []}}}","[-5, -10, 5]","[1946, 899, 1078]",-10.0,"[None, None, None]","[u'', -5, -10, 5, 5, 5, -5, 5, -10, -5, -5, -5, -10]",483757,31.0,-7.611027172769307e+18,mouselab-mdp,0
"[4287, 5470, 6837]","[u'up', u'up', u'left']",test,"[u'0', u'1', u'2', u'4']","{u'mouseover': {u'state': {u'target': [], u'time': []}, u'edge': {u'target': [], u'time': []}}, u'click': {u'state': {u'target': [u'5'], u'time': [2230]}, u'edge': {u'target': [], u'time': []}}, u'mouseout': {u'state': {u'target': [], u'time': []}, u'edge': {u'target': [], u'time': []}}}","[-10, -5, -5]","[4286, 681, 860]",-21.0,"[None, None, None]","[u'', -10, -5, 10, -5, -10, 5, -10, 10, -5, -10, 5, 10]",493358,32.0,8.491606456270313e+18,mouselab-mdp,0
"[851, 1901, 2900]","[u'left', u'left', u'down']",test,"[u'0', u'9', u'10', u'12']","{u'mouseover': {u'state': {u'target': [], u'time': []}, u'edge': {u'target': [], u'time': []}}, u'click': {u'state': {u'target': [], u'time': []}, u'edge': {u'target': [], u'time': []}}, u'mouseout': {u'state': {u'target': [], u'time': []}, u'edge': {u'target': [], u'time': []}}}","[-5, 10, -5]","[849, 553, 500]",0.0,"[None, None, None]","[u'', -10, -10, 10, -10, -5, -10, 10, 5, -5, 10, 5, -5]",498836,33.0,5.603840126336082e+18,mouselab-mdp,0
"[4041, 4893, 6568]","[u'right', u'right', u'up']",test,"[u'0', u'5', u'6', u'7']","{u'mouseover': {u'state': {u'target': [], u'time': []}, u'edge': {u'target': [], u'time': []}}, u'click': {u'state': {u'target': [u'5'], u'time': [2364]}, u'edge': {u'target': [], u'time': []}}, u'mouseout': {u'state': {u'target': [], u'time': []}, u'edge': {u'target': [], u'time': []}}}","[5, 5, -10]","[4039, 336, 1163]",-1.0,"[None, None, None]","[u'', -5, 10, -5, 10, 5, 5, -10, 10, -5, 5, -5, -10]",508014,34.0,-1.6198589960716582e+18,mouselab-mdp,0
"[23424, 24377, 25341]","[u'up', u'up', u'left']",test,"[u'0', u'1', u'2', u'4']","{u'mouseover': {u'state': {u'target': [], u'time': []}, u'edge': {u'target': [], u'time': []}}, u'click': {u'state': {u'target': [u'9'], u'time': [21726]}, u'edge': {u'target': [], u'time': []}}, u'mouseout': {u'state': {u'target': [], u'time': []}, u'edge': {u'target': [], u'time': []}}}","[5, 5, 10]","[23422, 443, 438]",19.0,"[None, None, None]","[u'', 5, 5, 5, 10, 5, -5, -5, -10, -5, -10, 10, -10]",536523,35.0,5.189627300054367e+18,mouselab-mdp,0
"[4923, 5654, 8197]","[u'right', u'right', u'down']",test,"[u'0', u'5', u'6', u'8']","{u'mouseover': {u'state': {u'target': [], u'time': []}, u'edge': {u'target': [], u'time': []}}, u'click': {u'state': {u'target': [u'5'], u'time': [3218]}, u'edge': {u'target': [], u'time': []}}, u'mouseout': {u'state': {u'target': [], u'time': []}, u'edge': {u'target': [], u'time': []}}}","[10, -10, 5]","[4920, 208, 2023]",4.0,"[None, None, None]","[u'', -5, 5, 10, -10, 10, -10, 10, 5, -5, -10, 5, 10]",547577,36.0,4.754602433487655e+18,mouselab-mdp,0
"[4097, 4811, 6528]","[u'left', u'left', u'up']",test,"[u'0', u'9', u'10', u'11']","{u'mouseover': {u'state': {u'target': [], u'time': []}, u'edge': {u'target': [], u'time': []}}, u'click': {u'state': {u'target': [u'9'], u'time': [2109]}, u'edge': {u'target': [], u'time': []}}, u'mouseout': {u'state': {u'target': [], u'time': []}, u'edge': {u'target': [], u'time': []}}}","[10, -10, -5]","[4095, 193, 1200]",-6.0,"[None, None, None]","[u'', 10, -5, 5, 5, 10, 5, 10, -10, 10, -10, -5, 10]",556802,37.0,-3.683992464584856e+18,mouselab-mdp,0
"[5252, 6523, 8911]","[u'left', u'left', u'up']",test,"[u'0', u'9', u'10', u'11']","{u'mouseover': {u'state': {u'target': [], u'time': []}, u'edge': {u'target': [], u'time': []}}, u'click': {u'state': {u'target': [u'1'], u'time': [3397]}, u'edge': {u'target': [], u'time': []}}, u'mouseout': {u'state': {u'target': [], u'time': []}, u'edge': {u'target': [], u'time': []}}}","[-5, -5, 10]","[5251, 750, 1869]",-1.0,"[None, None, None]","[u'', -5, 10, 5, -5, -10, -5, 5, -5, -5, -5, 10, -5]",569840,38.0,6.150233340115579e+18,mouselab-mdp,0
"[2407, 3503, 5430]","[u'right', u'right', u'up']",test,"[u'0', u'5', u'6', u'7']","{u'mouseover': {u'state': {u'target': [], u'time': []}, u'edge': {u'target': [], u'time': []}}, u'click': {u'state': {u'target': [], u'time': []}, u'edge': {u'target': [], u'time': []}}, u'mouseout': {u'state': {u'target': [], u'time': []}, u'edge': {u'target': [], u'time': []}}}","[-10, 10, 10]","[2405, 568, 1402]",10.0,"[None, None, None]","[u'', 10, -5, -10, 10, -10, 10, 10, -5, 5, 5, 5, 10]",577995,39.0,-6.044130621866826e+18,mouselab-mdp,0
"[2580, 5461, 6431]","[u'right', u'right', u'up']",test,"[u'0', u'5', u'6', u'7']","{u'mouseover': {u'state': {u'target': [], u'time': []}, u'edge': {u'target': [], u'time': []}}, u'click': {u'state': {u'target': [], u'time': []}, u'edge': {u'target': [], u'time': []}}, u'mouseout': {u'state': {u'target': [], u'time': []}, u'edge': {u'target': [], u'time': []}}}","[-5, -5, 10]","[2578, 2373, 471]",0.0,"[None, None, None]","[u'', 5, -5, -10, -5, -5, -5, 10, -5, 10, 5, 10, -5]",586990,40.0,1.1475102415505539e+18,mouselab-mdp,0
"[667, 2019, 3094]","[u'up', u'up', u'right']",test,"[u'0', u'1', u'2', u'3']","{u'mouseover': {u'state': {u'target': [], u'time': []}, u'edge': {u'target': [], u'time': []}}, u'click': {u'state': {u'target': [], u'time': []}, u'edge': {u'target': [], u'time': []}}, u'mouseout': {u'state': {u'target': [], u'time': []}, u'edge': {u'target': [], u'time': []}}}","[-10, -10, -10]","[664, 821, 569]",-30.0,"[None, None, None]","[u'', -10, -10, -10, -10, 10, 5, 5, 10, -10, -5, 5, 10]",592515,41.0,-6.516136021771222e+18,mouselab-mdp,0
"[886, 1854, 3123]","[u'left', u'left', u'up']",test,"[u'0', u'9', u'10', u'11']","{u'mouseover': {u'state': {u'target': [], u'time': []}, u'edge': {u'target': [], u'time': []}}, u'click': {u'state': {u'target': [], u'time': []}, u'edge': {u'target': [], u'time': []}}, u'mouseout': {u'state': {u'target': [], u'time': []}, u'edge': {u'target': [], u'time': []}}}","[5, -5, 10]","[884, 451, 759]",10.0,"[None, None, None]","[u'', -10, -5, -5, 10, 10, -5, 5, -10, 5, -5, 10, 5]",598326,42.0,-4.641247981390103e+18,mouselab-mdp,0
"[4086, 5239, 6361]","[u'up', u'up', u'left']",test,"[u'0', u'1', u'2', u'4']","{u'mouseover': {u'state': {u'target': [], u'time': []}, u'edge': {u'target': [], u'time': []}}, u'click': {u'state': {u'target': [u'5'], u'time': [1606]}, u'edge': {u'target': [], u'time': []}}, u'mouseout': {u'state': {u'target': [], u'time': []}, u'edge': {u'target': [], u'time': []}}}","[5, -5, 10]","[4084, 650, 612]",9.0,"[None, None, None]","[u'', 5, -5, -10, 10, -10, -10, -5, -5, -10, 5, -10, 5]",607193,43.0,2.252076120381865e+18,mouselab-mdp,0
"[4783, 5543, 7431]","[u'left', u'left', u'down']",test,"[u'0', u'9', u'10', u'12']","{u'mouseover': {u'state': {u'target': [], u'time': []}, u'edge': {u'target': [], u'time': []}}, u'click': {u'state': {u'target': [u'9'], u'time': [3002]}, u'edge': {u'target': [], u'time': []}}, u'mouseout': {u'state': {u'target': [], u'time': []}, u'edge': {u'target': [], u'time': []}}}","[10, -5, 5]","[4782, 238, 1387]",9.0,"[None, None, None]","[u'', -10, -5, -10, 5, 10, 5, 10, -5, 10, -5, 10, 5]",617442,44.0,-8.549120811661888e+17,mouselab-mdp,0
"[4767, 5765, 6625]","[u'up', u'up', u'left']",test,"[u'0', u'1', u'2', u'4']","{u'mouseover': {u'state': {u'target': [], u'time': []}, u'edge': {u'target': [], u'time': []}}, u'click': {u'state': {u'target': [u'5'], u'time': [2998]}, u'edge': {u'target': [], u'time': []}}, u'mouseout': {u'state': {u'target': [], u'time': []}, u'edge': {u'target': [], u'time': []}}}","[-10, -5, -5]","[4766, 475, 346]",-21.0,"[None, None, None]","[u'', -10, -5, 5, -5, -10, 5, 5, 5, 10, 5, 10, -10]",627049,45.0,-5.4249062934784986e+17,mouselab-mdp,0
"[1128, 2029, 3147]","[u'left', u'left', u'up']",test,"[u'0', u'9', u'10', u'11']","{u'mouseover': {u'state': {u'target': [], u'time': []}, u'edge': {u'target': [], u'time': []}}, u'click': {u'state': {u'target': [], u'time': []}, u'edge': {u'target': [], u'time': []}}, u'mouseout': {u'state': {u'target': [], u'time': []}, u'edge': {u'target': [], u'time': []}}}","[5, -10, 10]","[1126, 400, 617]",5.0,"[None, None, None]","[u'', -10, -5, -5, 5, -5, 5, 5, 5, 5, -10, 10, 10]",633099,46.0,5.514906028833953e+18,mouselab-mdp,0
"[2054, 3013, 4016]","[u'left', u'left', u'up']",test,"[u'0', u'9', u'10', u'11']","{u'mouseover': {u'state': {u'target': [], u'time': []}, u'edge': {u'target': [], u'time': []}}, u'click': {u'state': {u'target': [], u'time': []}, u'edge': {u'target': [], u'time': []}}, u'mouseout': {u'state': {u'target': [], u'time': []}, u'edge': {u'target': [], u'time': []}}}","[-10, 5, 5]","[2052, 435, 501]",0.0,"[None, None, None]","[u'', -5, 10, 10, 5, 10, 10, 10, 10, -10, 5, 5, 5]",639572,47.0,-6.980762109714071e+18,mouselab-mdp,0
"[676, 1567, 2612]","[u'right', u'right', u'up']",test,"[u'0', u'5', u'6', u'7']","{u'mouseover': {u'state': {u'target': [], u'time': []}, u'edge': {u'target': [], u'time': []}}, u'click': {u'state': {u'target': [], u'time': []}, u'edge': {u'target': [], u'time': []}}, u'mouseout': {u'state': {u'target': [], u'time': []}, u'edge': {u'target': [], u'time': []}}}","[10, 10, -5]","[673, 368, 546]",15.0,"[None, None, None]","[u'', -5, -5, 5, 5, 10, 10, -5, 10, -10, -10, -10, 5]",644612,48.0,4.176600634517876e+18,mouselab-mdp,0
"[1924, 2845, 4000]","[u'right', u'right', u'down']",test,"[u'0', u'5', u'6', u'8']","{u'mouseover': {u'state': {u'target': [], u'time': []}, u'edge': {u'target': [], u'time': []}}, u'click': {u'state': {u'target': [], u'time': []}, u'edge': {u'target': [], u'time': []}}, u'mouseout': {u'state': {u'target': [], u'time': []}, u'edge': {u'target': [], u'time': []}}}","[10, -5, 5]","[1921, 409, 634]",10.0,"[None, None, None]","[u'', -10, 10, -5, -10, 10, -5, 10, 5, 10, 5, 10, -5]",650954,49.0,1.9920789159475208e+18,mouselab-mdp,0
"[9672, 12259, 13281]","[u'right', u'right', u'up']",train_basic,"[u'0', u'5', u'6', u'7']","{u'mouseover': {u'state': {u'target': [], u'time': []}, u'edge': {u'target': [], u'time': []}}, u'click': {u'state': {u'target': [], u'time': []}, u'edge': {u'target': [], u'time': []}}, u'mouseout': {u'state': {u'target': [], u'time': []}, u'edge': {u'target': [], u'time': []}}}","[10, -5, 10]","[9665, 2072, 512]",15.0,"[None, None, None]","[u'', 5, -10, 10, -10, 10, -5, 10, 5, 5, -10, -10, -10]",16433,0.0,-6.90593884411209e+17,mouselab-mdp,1
"[1379, 4734, 7046]","[u'right', u'right', u'up']",train_basic,"[u'0', u'5', u'6', u'7']","{u'mouseover': {u'state': {u'target': [], u'time': []}, u'edge': {u'target': [], u'time': []}}, u'click': {u'state': {u'target': [], u'time': []}, u'edge': {u'target': [], u'time': []}}, u'mouseout': {u'state': {u'target': [], u'time': []}, u'edge': {u'target': [], u'time': []}}}","[-10, 10, -5]","[1374, 2840, 1801]",-5.0,"[None, None, None]","[u'', 10, -10, -5, -5, -10, 10, -5, 5, -5, -10, -10, -10]",26295,1.0,-3.7612916714616883e+18,mouselab-mdp,1
"[1271, 2207, 13344]","[u'up', u'up', u'right']",train_basic,"[u'0', u'1', u'2', u'3']","{u'mouseover': {u'state': {u'target': [], u'time': []}, u'edge': {u'target': [], u'time': []}}, u'click': {u'state': {u'target': [], u'time': []}, u'edge': {u'target': [], u'time': []}}, u'mouseout': {u'state': {u'target': [], u'time': []}, u'edge': {u'target': [], u'time': []}}}","[-5, 10, 5]","[1265, 419, 10623]",10.0,"[None, None, None]","[u'', -5, 10, 5, -5, -10, -5, 5, -5, -5, -5, 10, -5]",42192,2.0,6.150233340115579e+18,mouselab-mdp,1
"[1551, 2398, 3416]","[u'left', u'left', u'up']",train_basic,"[u'0', u'9', u'10', u'11']","{u'mouseover': {u'state': {u'target': [], u'time': []}, u'edge': {u'target': [], u'time': []}}, u'click': {u'state': {u'target': [], u'time': []}, u'edge': {u'target': [], u'time': []}}, u'mouseout': {u'state': {u'target': [], u'time': []}, u'edge': {u'target': [], u'time': []}}}","[5, 5, 5]","[1544, 337, 503]",15.0,"[None, None, None]","[u'', -5, 10, 5, 10, -5, -10, 10, 10, 5, 5, 5, 10]",48305,3.0,8.130696467842232e+18,mouselab-mdp,1
"[1224, 1992, 2784]","[u'left', u'left', u'up']",train_basic,"[u'0', u'9', u'10', u'11']","{u'mouseover': {u'state': {u'target': [], u'time': []}, u'edge': {u'target': [], u'time': []}}, u'click': {u'state': {u'target': [], u'time': []}, u'edge': {u'target': [], u'time': []}}, u'mouseout': {u'state': {u'target': [], u'time': []}, u'edge': {u'target': [], u'time': []}}}","[10, 5, 10]","[1218, 246, 270]",25.0,"[None, None, None]","[u'', 5, 10, 10, 10, -10, -10, 5, 10, 10, 5, 10, 5]",53353,4.0,2.0301359460781466e+18,mouselab-mdp,1
"[878, 2029, 2669]","[u'left', u'left', u'up']",train_basic,"[u'0', u'9', u'10', u'11']","{u'mouseover': {u'state': {u'target': [], u'time': []}, u'edge': {u'target': [], u'time': []}}, u'click': {u'state': {u'target': [], u'time': []}, u'edge': {u'target': [], u'time': []}}, u'mouseout': {u'state': {u'target': [], u'time': []}, u'edge': {u'target': [], u'time': []}}}","[10, -5, 10]","[872, 635, 126]",15.0,"[None, None, None]","[u'', 10, -5, -10, -10, -10, 10, -10, -5, 10, -5, 10, -5]",58209,5.0,9.076059563084848e+18,mouselab-mdp,1
"[1087, 7176, 8464]","[u'up', u'up', u'left']",train_basic,"[u'0', u'1', u'2', u'4']","{u'mouseover': {u'state': {u'target': [], u'time': []}, u'edge': {u'target': [], u'time': []}}, u'click': {u'state': {u'target': [], u'time': []}, u'edge': {u'target': [], u'time': []}}, u'mouseout': {u'state': {u'target': [], u'time': []}, u'edge': {u'target': [], u'time': []}}}","[10, -10, -5]","[1082, 5569, 773]",-5.0,"[None, None, None]","[u'', 10, -10, -10, -5, -5, 10, 5, 10, -5, -10, -10, -5]",68721,6.0,-9.003921373543949e+18,mouselab-mdp,1
"[2260, 3132, 3820]","[u'left', u'left', u'up']",train_basic,"[u'0', u'9', u'10', u'11']","{u'mouseover': {u'state': {u'target': [], u'time': []}, u'edge': {u'target': [], u'time': []}}, u'click': {u'state': {u'target': [], u'time': []}, u'edge': {u'target': [], u'time': []}}, u'mouseout': {u'state': {u'target': [], u'time': []}, u'edge': {u'target': [], u'time': []}}}","[5, -5, 10]","[2254, 349, 179]",10.0,"[None, None, None]","[u'', -10, -5, -5, 10, 10, -5, 5, -10, 5, -5, 10, 5]",74896,7.0,-4.641247981390103e+18,mouselab-mdp,1
"[806, 1819, 2575]","[u'right', u'right', u'up']",train_basic,"[u'0', u'5', u'6', u'7']","{u'mouseover': {u'state': {u'target': [], u'time': []}, u'edge': {u'target': [], u'time': []}}, u'click': {u'state': {u'target': [], u'time': []}, u'edge': {u'target': [], u'time': []}}, u'mouseout': {u'state': {u'target': [], u'time': []}, u'edge': {u'target': [], u'time': []}}}","[10, -5, -10]","[800, 492, 235]",-5.0,"[None, None, None]","[u'', 10, 5, 10, -5, 10, -5, -10, 10, 5, -10, 10, 5]",79713,8.0,3.6441571471145324e+18,mouselab-mdp,1
"[1954, 2721, 3785]","[u'left', u'left', u'up']",train_basic,"[u'0', u'9', u'10', u'11']","{u'mouseover': {u'state': {u'target': [], u'time': []}, u'edge': {u'target': [], u'time': []}}, u'click': {u'state': {u'target': [], u'time': []}, u'edge': {u'target': [], u'time': []}}, u'mouseout': {u'state': {u'target': [], u'time': []}, u'edge': {u'target': [], u'time': []}}}","[5, -5, -5]","[1948, 251, 549]",-5.0,"[None, None, None]","[u'', -10, -5, -5, 5, -10, -10, -10, -10, 5, -5, -5, 5]",85325,9.0,-9.136662483728007e+18,mouselab-mdp,1
"[2687, 3781, 5221]","[u'up', u'up', u'right']",train_hidden,"[u'0', u'1', u'2', u'3']","{u'mouseover': {u'state': {u'target': [], u'time': []}, u'edge': {u'target': [], u'time': []}}, u'click': {u'state': {u'target': [], u'time': []}, u'edge': {u'target': [], u'time': []}}, u'mouseout': {u'state': {u'target': [], u'time': []}, u'edge': {u'target': [], u'time': []}}}","[10, 10, 5]","[2681, 564, 931]",25.0,"[None, None, None]","[u'', 10, 10, 5, 10, -10, -10, -5, -5, 10, -5, 5, 10]",94792,10.0,-3.019010559255296e+18,mouselab-mdp,1
"[402, 1115, 1780]","[u'up', u'up', u'right']",train_hidden,"[u'0', u'1', u'2', u'3']","{u'mouseover': {u'state': {u'target': [], u'time': []}, u'edge': {u'target': [], u'time': []}}, u'click': {u'state': {u'target': [], u'time': []}, u'edge': {u'target': [], u'time': []}}, u'mouseout': {u'state': {u'target': [], u'time': []}, u'edge': {u'target': [], u'time': []}}}","[-5, 5, -5]","[397, 188, 153]",-5.0,"[None, None, None]","[u'', -5, 5, -5, 10, -5, 10, 10, 10, -5, -10, -10, -5]",98401,11.0,3.7409315186213e+18,mouselab-mdp,1
"[9828, 10708, 11371]","[u'up', u'up', u'right']",train_hidden,"[u'0', u'1', u'2', u'3']","{u'mouseover': {u'state': {u'target': [], u'time': []}, u'edge': {u'target': [], u'time': []}}, u'click': {u'state': {u'target': [], u'time': []}, u'edge': {u'target': [], u'time': []}}, u'mouseout': {u'state': {u'target': [], u'time': []}, u'edge': {u'target': [], u'time': []}}}","[5, 5, 5]","[9823, 355, 152]",15.0,"[None, None, None]","[u'', 5, 5, 5, 5, -10, -10, 5, 10, -10, -5, -5, -5]",111903,12.0,-5.299628366905943e+18,mouselab-mdp,1
"[113, 681, 1305]","[u'up', u'up', u'right']",train_hidden,"[u'0', u'1', u'2', u'3']","{u'mouseover': {u'state': {u'target': [], u'time': []}, u'edge': {u'target': [], u'time': []}}, u'click': {u'state': {u'target': [], u'time': []}, u'edge': {u'target': [], u'time': []}}, u'mouseout': {u'state': {u'target': [], u'time': []}, u'edge': {u'target': [], u'time': []}}}","[5, 5, -10]","[108, 32, 85]",0.0,"[None, None, None]","[u'', 5, 5, -10, 5, -10, 10, 5, -10, 10, -10, 10, 5]",115149,13.0,7.494910043448008e+18,mouselab-mdp,1
"[478, 1158, 1814]","[u'up', u'up', u'right']",train_hidden,"[u'0', u'1', u'2', u'3']","{u'mouseover': {u'state': {u'target': [], u'time': []}, u'edge': {u'target': [], u'time': []}}, u'click': {u'state': {u'target': [], u'time': []}, u'edge': {u'target': [], u'time': []}}, u'mouseout': {u'state': {u'target': [], u'time': []}, u'edge': {u'target': [], u'time': []}}}","[-5, -10, -5]","[471, 165, 138]",-20.0,"[None, None, None]","[u'', -5, -10, -5, 10, 10, 10, 10, -10, -10, -10, -5, -10]",118904,14.0,2.356810097693599e+18,mouselab-mdp,1
"[1519, 2254, 3030]","[u'left', u'left', u'up']",train_inspector,"[u'0', u'9', u'10', u'11']","{u'mouseover': {u'state': {u'target': [], u'time': []}, u'edge': {u'target': [], u'time': []}}, u'click': {u'state': {u'target': [], u'time': []}, u'edge': {u'target': [], u'time': []}}, u'mouseout': {u'state': {u'target': [], u'time': []}, u'edge': {u'target': [], u'time': []}}}","[5, 10, -10]","[1511, 216, 258]",5.0,"[None, None, None]","[u'', 5, -5, 10, -5, -5, 5, 10, -10, 5, 10, -10, 5]",125672,15.0,4.859092002678591e+18,mouselab-mdp,1
"[636, 1219, 1818]","[u'up', u'up', u'right']",train_inspector,"[u'0', u'1', u'2', u'3']","{u'mouseover': {u'state': {u'target': [], u'time': []}, u'edge': {u'target': [], u'time': []}}, u'click': {u'state': {u'target': [], u'time': []}, u'edge': {u'target': [], u'time': []}}, u'mouseout': {u'state': {u'target': [], u'time': []}, u'edge': {u'target': [], u'time': []}}}","[-10, 10, 10]","[630, 68, 82]",10.0,"[None, None, None]","[u'', -10, 10, 10, -5, -5, 10, -5, -10, 10, 10, -5, 10]",129391,16.0,-4.1003180650031995e+18,mouselab-mdp,1
"[458, 1803, 2388]","[u'up', u'up', u'right']",train_inspector,"[u'0', u'1', u'2', u'3']","{u'mouseover': {u'state': {u'target': [], u'time': []}, u'edge': {u'target': [], u'time': []}}, u'click': {u'state': {u'target': [], u'time': []}, u'edge': {u'target': [], u'time': []}}, u'mouseout': {u'state': {u'target': [], u'time': []}, u'edge': {u'target': [], u'time': []}}}","[-10, -5, -5]","[453, 820, 69]",-20.0,"[None, None, None]","[u'', -10, -5, -5, 10, 10, 10, 5, -5, -5, 10, 5, 10]",133705,17.0,-2.464562972607473e+18,mouselab-mdp,1
"[192, 848, 1363]","[u'up', u'up', u'right']",train_inspector,"[u'0', u'1', u'2', u'3']","{u'mouseover': {u'state': {u'target': [], u'time': []}, u'edge': {u'target': [], u'time': []}}, u'click': {u'state': {u'target': [], u'time': []}, u'edge': {u'target': [], u'time': []}}, u'mouseout': {u'state': {u'target': [], u'time': []}, u'edge': {u'target': [], u'time': []}}}","[-10, 10, 5]","[187, 138, 2]",5.0,"[None, None, None]","[u'', -10, 10, 5, 5, -5, -10, -10, -5, -10, -10, 5, 5]",136832,18.0,3.4622403069545196e+18,mouselab-mdp,1
"[565, 1176, 2005]","[u'right', u'right', u'up']",train_inspector,"[u'0', u'5', u'6', u'7']","{u'mouseover': {u'state': {u'target': [], u'time': []}, u'edge': {u'target': [], u'time': []}}, u'click': {u'state': {u'target': [], u'time': []}, u'edge': {u'target': [], u'time': []}}, u'mouseout': {u'state': {u'target': [], u'time': []}, u'edge': {u'target': [], u'time': []}}}","[-10, 5, 5]","[559, 97, 309]",0.0,"[None, None, None]","[u'', 5, -5, -5, -5, -10, 5, 5, -10, 10, 10, 10, 10]",140832,19.0,6.349377679140465e+18,mouselab-mdp,1
"[2637, 3966, 4725]","[u'right', u'right', u'up']",train_inspect_cost,"[u'0', u'5', u'6', u'7']","{u'mouseover': {u'state': {u'target': [], u'time': []}, u'edge': {u'target': [], u'time': []}}, u'click': {u'state': {u'target': [], u'time': []}, u'edge': {u'target': [], u'time': []}}, u'mouseout': {u'state': {u'target': [], u'time': []}, u'edge': {u'target': [], u'time': []}}}","[10, -10, 10]","[2632, 807, 248]",10.0,"[None, None, None]","[u'', -5, -5, 10, -5, 10, -10, 10, -10, 5, -10, 5, -10]",155128,20.0,3.9686635761738235e+18,mouselab-mdp,1
"[378, 994, 1594]","[u'up', u'up', u'right']",train_inspect_cost,"[u'0', u'1', u'2', u'3']","{u'mouseover': {u'state': {u'target': [], u'time': []}, u'edge': {u'target': [], u'time': []}}, u'click': {u'state': {u'target': [], u'time': []}, u'edge': {u'target': [], u'time': []}}, u'mouseout': {u'state': {u'target': [], u'time': []}, u'edge': {u'target': [], u'time': []}}}","[-5, 5, -5]","[372, 97, 79]",-5.0,"[None, None, None]","[u'', -5, 5, -5, -5, -10, -10, 10, -5, 10, -10, -5, 5]",158728,21.0,8.077601249506434e+18,mouselab-mdp,1
"[867, 1402, 2763]","[u'up', u'up', u'left']",train_inspect_cost,"[u'0', u'1', u'2', u'4']","{u'mouseover': {u'state': {u'target': [], u'time': []}, u'edge': {u'target': [], u'time': []}}, u'click': {u'state': {u'target': [], u'time': []}, u'edge': {u'target': [], u'time': []}}, u'mouseout': {u'state': {u'target': [], u'time': []}, u'edge': {u'target': [], u'time': []}}}","[-5, 10, 5]","[860, 14, 842]",10.0,"[None, None, None]","[u'', -5, 10, 10, 5, -5, 5, -10, 10, 10, -10, -10, -10]",163433,22.0,7.801448459840969e+18,mouselab-mdp,1
"[7, 567, 1743]","[u'up', u'up', u'right']",train_inspect_cost,"[u'0', u'1', u'2', u'3']","{u'mouseover': {u'state': {u'target': [], u'time': []}, u'edge': {u'target': [], u'time': []}}, u'click': {u'state': {u'target': [], u'time': []}, u'edge': {u'target': [], u'time': []}}, u'mouseout': {u'state': {u'target': [], u'time': []}, u'edge': {u'target': [], u'time': []}}}","[10, -5, 5]","[2, 29, 639]",10.0,"[None, None, None]","[u'', 10, -5, 5, 5, 10, 5, 10, -10, 10, -10, -5, 10]",167129,23.0,-3.683992464584856e+18,mouselab-mdp,1
"[3945, 5203, 5776]","[u'up', u'up', u'right']",train_inspect_cost,"[u'0', u'1', u'2', u'3']","{u'mouseover': {u'state': {u'target': [], u'time': []}, u'edge': {u'target': [], u'time': []}}, u'click': {u'state': {u'target': [], u'time': []}, u'edge': {u'target': [], u'time': []}}, u'mouseout': {u'state': {u'target': [], u'time': []}, u'edge': {u'target': [], u'time': []}}}","[10, -5, -10]","[3940, 743, 41]",-5.0,"[None, None, None]","[u'', 10, -5, -10, -5, 5, 5, 10, -10, -10, 5, 10, -10]",175012,24.0,-8.642469369171842e+18,mouselab-mdp,1
"[3579, 4691, 5900]","[u'up', u'up', u'right']",train_final,"[u'0', u'1', u'2', u'3']","{u'mouseover': {u'state': {u'target': [], u'time': []}, u'edge': {u'target': [], u'time': []}}, u'click': {u'state': {u'target': [], u'time': []}, u'edge': {u'target': [], u'time': []}}, u'mouseout': {u'state': {u'target': [], u'time': []}, u'edge': {u'target': [], u'time': []}}}","[-5, 5, -5]","[3574, 600, 696]",-5.0,"[None, None, None]","[u'', -5, 5, -5, 5, -10, 10, -5, -10, -10, -10, 5, 5]",185769,25.0,8.808609661304966e+18,mouselab-mdp,1
"[1969, 2793, 3401]","[u'up', u'up', u'left']",train_final,"[u'0', u'1', u'2', u'4']","{u'mouseover': {u'state': {u'target': [], u'time': []}, u'edge': {u'target': [], u'time': []}}, u'click': {u'state': {u'target': [], u'time': []}, u'edge': {u'target': [], u'time': []}}, u'mouseout': {u'state': {u'target': [], u'time': []}, u'edge': {u'target': [], u'time': []}}}","[-10, -10, -10]","[1964, 307, 99]",-30.0,"[None, None, None]","[u'', -10, -10, 10, -10, -5, -10, 10, 5, -5, 10, 5, -5]",191161,26.0,5.603840126336082e+18,mouselab-mdp,1
"[1620, 2356, 3180]","[u'left', u'left', u'up']",train_final,"[u'0', u'9', u'10', u'11']","{u'mouseover': {u'state': {u'target': [], u'time': []}, u'edge': {u'target': [], u'time': []}}, u'click': {u'state': {u'target': [], u'time': []}, u'edge': {u'target': [], u'time': []}}, u'mouseout': {u'state': {u'target': [], u'time': []}, u'edge': {u'target': [], u'time': []}}}","[-5, 10, -10]","[1603, 227, 300]",-5.0,"[None, None, None]","[u'', -5, 5, 5, 5, 10, 10, -10, 5, -5, 10, -10, -5]",196273,27.0,9.142111453001215e+18,mouselab-mdp,1
"[683, 1291, 2787]","[u'right', u'right', u'up']",train_final,"[u'0', u'5', u'6', u'7']","{u'mouseover': {u'state': {u'target': [], u'time': []}, u'edge': {u'target': [], u'time': []}}, u'click': {u'state': {u'target': [], u'time': []}, u'edge': {u'target': [], u'time': []}}, u'mouseout': {u'state': {u'target': [], u'time': []}, u'edge': {u'target': [], u'time': []}}}","[10, -10, -10]","[678, 90, 981]",-10.0,"[None, None, None]","[u'', 5, 5, -5, 5, 10, -10, -10, 10, 5, 5, -10, -5]",201136,28.0,-5.368470092922741e+18,mouselab-mdp,1
"[987, 1755, 2603]","[u'right', u'right', u'up']",train_final,"[u'0', u'5', u'6', u'7']","{u'mouseover': {u'state': {u'target': [], u'time': []}, u'edge': {u'target': [], u'time': []}}, u'click': {u'state': {u'target': [], u'time': []}, u'edge': {u'target': [], u'time': []}}, u'mouseout': {u'state': {u'target': [], u'time': []}, u'edge': {u'target': [], u'time': []}}}","[-5, 5, -5]","[981, 260, 326]",-5.0,"[None, None, None]","[u'', -5, 10, 5, 5, -5, 5, -5, -10, 5, -5, 5, 10]",205697,29.0,-5.812682556850434e+18,mouselab-mdp,1
"[2229, 3508, 4076]","[u'right', u'right', u'up']",test,"[u'0', u'5', u'6', u'7']","{u'mouseover': {u'state': {u'target': [], u'time': []}, u'edge': {u'target': [], u'time': []}}, u'click': {u'state': {u'target': [], u'time': []}, u'edge': {u'target': [], u'time': []}}, u'mouseout': {u'state': {u'target': [], u'time': []}, u'edge': {u'target': [], u'time': []}}}","[-5, -10, 10]","[2223, 763, 48]",-5.0,"[None, None, None]","[u'', 5, 5, -5, 10, -5, -10, 10, 5, 10, 10, -10, -10]",277480,30.0,5.938094249628056e+18,mouselab-mdp,1
"[479, 1710, 2230]","[u'up', u'up', u'right']",test,"[u'0', u'1', u'2', u'3']","{u'mouseover': {u'state': {u'target': [], u'time': []}, u'edge': {u'target': [], u'time': []}}, u'click': {u'state': {u'target': [], u'time': []}, u'edge': {u'target': [], u'time': []}}, u'mouseout': {u'state': {u'target': [], u'time': []}, u'edge': {u'target': [], u'time': []}}}","[-10, -5, -10]","[473, 718, 2]",-25.0,"[None, None, None]","[u'', -10, -5, -10, 5, 10, 5, 10, -5, 10, -5, 10, 5]",281593,31.0,-8.549120811661888e+17,mouselab-mdp,1
"[396, 1779, 3218]","[u'up', u'up', u'left']",test,"[u'0', u'1', u'2', u'4']","{u'mouseover': {u'state': {u'target': [], u'time': []}, u'edge': {u'target': [], u'time': []}}, u'click': {u'state': {u'target': [], u'time': []}, u'edge': {u'target': [], u'time': []}}, u'mouseout': {u'state': {u'target': [], u'time': []}, u'edge': {u'target': [], u'time': []}}}","[10, 5, 5]","[391, 869, 923]",20.0,"[None, None, None]","[u'', 10, 5, 10, 5, 10, -5, 5, -10, -5, -10, -5, -10]",286896,32.0,-8.861839220469794e+18,mouselab-mdp,1
"[312, 1104, 1953]","[u'left', u'left', u'up']",test,"[u'0', u'9', u'10', u'11']","{u'mouseover': {u'state': {u'target': [], u'time': []}, u'edge': {u'target': [], u'time': []}}, u'click': {u'state': {u'target': [], u'time': []}, u'edge': {u'target': [], u'time': []}}, u'mouseout': {u'state': {u'target': [], u'time': []}, u'edge': {u'target': [], u'time': []}}}","[-5, 10, -5]","[307, 276, 324]",0.0,"[None, None, None]","[u'', 5, 10, -10, -10, -10, 10, 5, 5, -5, 10, -5, 10]",290890,33.0,-7.119666741695585e+18,mouselab-mdp,1
"[472, 1896, 2712]","[u'up', u'up', u'right']",test,"[u'0', u'1', u'2', u'3']","{u'mouseover': {u'state': {u'target': [], u'time': []}, u'edge': {u'target': [], u'time': []}}, u'click': {u'state': {u'target': [], u'time': []}, u'edge': {u'target': [], u'time': []}}, u'mouseout': {u'state': {u'target': [], u'time': []}, u'edge': {u'target': [], u'time': []}}}","[5, 10, 10]","[467, 912, 294]",25.0,"[None, None, None]","[u'', 5, 10, 10, -5, 5, 10, -5, 5, -10, -5, -10, 5]",295689,34.0,5.25598264187708e+18,mouselab-mdp,1
"[718, 1654, 2518]","[u'up', u'up', u'right']",test,"[u'0', u'1', u'2', u'3']","{u'mouseover': {u'state': {u'target': [], u'time': []}, u'edge': {u'target': [], u'time': []}}, u'click': {u'state': {u'target': [], u'time': []}, u'edge': {u'target': [], u'time': []}}, u'mouseout': {u'state': {u'target': [], u'time': []}, u'edge': {u'target': [], u'time': []}}}","[5, 10, -10]","[714, 423, 352]",5.0,"[None, None, None]","[u'', 5, 10, -10, 10, 10, 5, -5, 10, -10, -5, 10, -5]",300305,35.0,8.737010464064418e+18,mouselab-mdp,1
"[366, 1246, 2341]","[u'right', u'right', u'down']",test,"[u'0', u'5', u'6', u'8']","{u'mouseover': {u'state': {u'target': [], u'time': []}, u'edge': {u'target': [], u'time': []}}, u'click': {u'state': {u'target': [], u'time': []}, u'edge': {u'target': [], u'time': []}}, u'mouseout': {u'state': {u'target': [], u'time': []}, u'edge': {u'target': [], u'time': []}}}","[-5, 5, 10]","[360, 361, 572]",10.0,"[None, None, None]","[u'', -5, 5, -5, 10, -5, 5, -5, 10, 10, -10, 5, 10]",305008,36.0,-7.97546906179963e+18,mouselab-mdp,1
"[281, 1162, 1866]","[u'left', u'left', u'down']",test,"[u'0', u'9', u'10', u'12']","{u'mouseover': {u'state': {u'target': [], u'time': []}, u'edge': {u'target': [], u'time': []}}, u'click': {u'state': {u'target': [], u'time': []}, u'edge': {u'target': [], u'time': []}}, u'mouseout': {u'state': {u'target': [], u'time': []}, u'edge': {u'target': [], u'time': []}}}","[-10, -10, -5]","[276, 368, 189]",-25.0,"[None, None, None]","[u'', 5, -5, 10, -10, 5, -10, 5, -5, -10, -10, 5, -5]",309161,37.0,-6.260275842353281e+18,mouselab-mdp,1
"[270, 1110, 1871]","[u'left', u'left', u'up']",test,"[u'0', u'9', u'10', u'11']","{u'mouseover': {u'state': {u'target': [], u'time': []}, u'edge': {u'target': [], u'time': []}}, u'click': {u'state': {u'target': [], u'time': []}, u'edge': {u'target': [], u'time': []}}, u'mouseout': {u'state': {u'target': [], u'time': []}, u'edge': {u'target': [], u'time': []}}}","[-10, 5, -10]","[265, 321, 252]",-15.0,"[None, None, None]","[u'', 5, -5, -10, 10, -10, -10, -5, -5, -10, 5, -10, 5]",313148,38.0,2.252076120381865e+18,mouselab-mdp,1
"[129, 849, 1969]","[u'up', u'up', u'right']",test,"[u'0', u'1', u'2', u'3']","{u'mouseover': {u'state': {u'target': [], u'time': []}, u'edge': {u'target': [], u'time': []}}, u'click': {u'state': {u'target': [], u'time': []}, u'edge': {u'target': [], u'time': []}}, u'mouseout': {u'state': {u'target': [], u'time': []}, u'edge': {u'target': [], u'time': []}}}","[10, 10, -10]","[124, 213, 599]",10.0,"[None, None, None]","[u'', 10, 10, -10, -10, -10, 10, -10, -5, 10, 5, 5, -5]",317217,39.0,1.2413699960697694e+17,mouselab-mdp,1
"[659, 1395, 2042]","[u'up', u'up', u'left']",test,"[u'0', u'1', u'2', u'4']","{u'mouseover': {u'state': {u'target': [], u'time': []}, u'edge': {u'target': [], u'time': []}}, u'click': {u'state': {u'target': [], u'time': []}, u'edge': {u'target': [], u'time': []}}, u'mouseout': {u'state': {u'target': [], u'time': []}, u'edge': {u'target': [], u'time': []}}}","[5, 5, 10]","[654, 220, 106]",20.0,"[None, None, None]","[u'', 5, 5, -5, 10, 5, -10, -5, 10, 10, 5, 5, 5]",321728,40.0,5.627389738084794e+17,mouselab-mdp,1
"[1078, 2249, 2902]","[u'up', u'up', u'right']",test,"[u'0', u'1', u'2', u'3']","{u'mouseover': {u'state': {u'target': [], u'time': []}, u'edge': {u'target': [], u'time': []}}, u'click': {u'state': {u'target': [], u'time': []}, u'edge': {u'target': [], u'time': []}}, u'mouseout': {u'state': {u'target': [], u'time': []}, u'edge': {u'target': [], u'time': []}}}","[-5, 5, 5]","[1072, 656, 142]",5.0,"[None, None, None]","[u'', -5, 5, 5, -10, 10, 10, 10, -5, 5, -5, 5, 10]",326673,41.0,-2.6104954135648773e+18,mouselab-mdp,1
"[968, 1608, 2248]","[u'up', u'up', u'right']",test,"[u'0', u'1', u'2', u'3']","{u'mouseover': {u'state': {u'target': [], u'time': []}, u'edge': {u'target': [], u'time': []}}, u'click': {u'state': {u'target': [], u'time': []}, u'edge': {u'target': [], u'time': []}}, u'mouseout': {u'state': {u'target': [], u'time': []}, u'edge': {u'target': [], u'time': []}}}","[-5, 5, 10]","[963, 116, 123]",10.0,"[None, None, None]","[u'', -5, 5, 10, -10, 10, -10, 10, 5, -5, -10, 5, 10]",330841,42.0,4.754602433487655e+18,mouselab-mdp,1
"[5953, 6470, 7545]","[u'right', u'right', u'up']",test,"[u'0', u'5', u'6', u'7']","{u'mouseover': {u'state': {u'target': [], u'time': []}, u'edge': {u'target': [], u'time': []}}, u'click': {u'state': {u'target': [], u'time': []}, u'edge': {u'target': [], u'time': []}}, u'mouseout': {u'state': {u'target': [], u'time': []}, u'edge': {u'target': [], u'time': []}}}","[-10, 10, 10]","[5948, 1, 545]",10.0,"[None, None, None]","[u'', -5, 5, 5, 5, -10, 10, 10, 5, -10, 10, -10, -5]",340352,43.0,-8.511375057859465e+18,mouselab-mdp,1
"[1196, 1749, 2403]","[u'up', u'up', u'right']",test,"[u'0', u'1', u'2', u'3']","{u'mouseover': {u'state': {u'target': [], u'time': []}, u'edge': {u'target': [], u'time': []}}, u'click': {u'state': {u'target': [], u'time': []}, u'edge': {u'target': [], u'time': []}}, u'mouseout': {u'state': {u'target': [], u'time': []}, u'edge': {u'target': [], u'time': []}}}","[-5, 10, 10]","[1189, 41, 127]",15.0,"[None, None, None]","[u'', -5, 10, 10, 5, 10, 10, 10, 10, -10, 5, 5, 5]",344731,44.0,-6.980762109714071e+18,mouselab-mdp,1
"[1394, 1946, 2674]","[u'up', u'up', u'right']",test,"[u'0', u'1', u'2', u'3']","{u'mouseover': {u'state': {u'target': [], u'time': []}, u'edge': {u'target': [], u'time': []}}, u'click': {u'state': {u'target': [], u'time': []}, u'edge': {u'target': [], u'time': []}}, u'mouseout': {u'state': {u'target': [], u'time': []}, u'edge': {u'target': [], u'time': []}}}","[10, 5, 10]","[1389, 43, 202]",25.0,"[None, None, None]","[u'', 10, 5, 10, 5, 10, 10, -5, -10, 5, -5, -10, 5]",349177,45.0,4.3967390784059443e+18,mouselab-mdp,1
"[336, 1568, 2232]","[u'up', u'up', u'right']",test,"[u'0', u'1', u'2', u'3']","{u'mouseover': {u'state': {u'target': [], u'time': []}, u'edge': {u'target': [], u'time': []}}, u'click': {u'state': {u'target': [], u'time': []}, u'edge': {u'target': [], u'time': []}}, u'mouseout': {u'state': {u'target': [], u'time': []}, u'edge': {u'target': [], u'time': []}}}","[-5, 10, 5]","[333, 710, 146]",10.0,"[None, None, None]","[u'', -5, 10, 5, 10, 5, -5, 10, -10, 5, 10, 5, -10]",353226,46.0,7.308726088184663e+18,mouselab-mdp,1
"[245, 764, 1364]","[u'up', u'up', u'right']",test,"[u'0', u'1', u'2', u'3']","{u'mouseover': {u'state': {u'target': [], u'time': []}, u'edge': {u'target': [], u'time': []}}, u'click': {u'state': {u'target': [], u'time': []}, u'edge': {u'target': [], u'time': []}}, u'mouseout': {u'state': {u'target': [], u'time': []}, u'edge': {u'target': [], u'time': []}}}","[-10, 10, 10]","[240, 4, 70]",10.0,"[None, None, None]","[u'', -10, 10, 10, -10, -10, -5, -10, 10, -5, 10, 5, 10]",356400,47.0,-3.5316257003419013e+18,mouselab-mdp,1
"[43, 1011, 1612]","[u'up', u'up', u'right']",test,"[u'0', u'1', u'2', u'3']","{u'mouseover': {u'state': {u'target': [], u'time': []}, u'edge': {u'target': [], u'time': []}}, u'click': {u'state': {u'target': [], u'time': []}, u'edge': {u'target': [], u'time': []}}, u'mouseout': {u'state': {u'target': [], u'time': []}, u'edge': {u'target': [], u'time': []}}}","[-10, 5, -10]","[37, 437, 88]",-15.0,"[None, None, None]","[u'', -10, 5, -10, -5, 10, 5, 5, -10, -5, 5, 10, -10]",359849,48.0,3.5302878717738757e+18,mouselab-mdp,1
"[508, 1092, 1740]","[u'up', u'up', u'left']",test,"[u'0', u'1', u'2', u'4']","{u'mouseover': {u'state': {u'target': [], u'time': []}, u'edge': {u'target': [], u'time': []}}, u'click': {u'state': {u'target': [], u'time': []}, u'edge': {u'target': [], u'time': []}}, u'mouseout': {u'state': {u'target': [], u'time': []}, u'edge': {u'target': [], u'time': []}}}","[-10, 10, 5]","[503, 75, 131]",5.0,"[None, None, None]","[u'', -10, 10, -5, 5, 5, -10, -10, -10, -10, -5, -10, -10]",363818,49.0,6.612009546738605e+18,mouselab-mdp,1
"[27981, 30680, 35717]","[u'up', u'up', u'left']",train_basic,"[u'0', u'1', u'2', u'4']","{u'mouseover': {u'state': {u'target': [], u'time': []}, u'edge': {u'target': [], u'time': []}}, u'click': {u'state': {u'target': [], u'time': []}, u'edge': {u'target': [], u'time': []}}, u'mouseout': {u'state': {u'target': [], u'time': []}, u'edge': {u'target': [], u'time': []}}}","[-5, 10, 10]","[27967, 2180, 4518]",15.0,"[None, None, None]","[u'', -5, 10, -5, 10, 5, -5, 10, 5, -5, 10, -5, -5]",41426,0.0,7.213920450040262e+18,mouselab-mdp,2
"[7759, 10243, 11988]","[u'up', u'up', u'right']",train_basic,"[u'0', u'1', u'2', u'3']","{u'mouseover': {u'state': {u'target': [], u'time': []}, u'edge': {u'target': [], u'time': []}}, u'click': {u'state': {u'target': [], u'time': []}, u'edge': {u'target': [], u'time': []}}, u'mouseout': {u'state': {u'target': [], u'time': []}, u'edge': {u'target': [], u'time': []}}}","[5, -5, 10]","[7752, 1971, 1234]",10.0,"[None, None, None]","[u'', 5, -5, 10, -10, 5, -10, 5, -5, -10, -10, 5, -5]",59061,1.0,-6.260275842353281e+18,mouselab-mdp,2
"[13873, 15104, 16376]","[u'up', u'up', u'left']",train_basic,"[u'0', u'1', u'2', u'4']","{u'mouseover': {u'state': {u'target': [], u'time': []}, u'edge': {u'target': [], u'time': []}}, u'click': {u'state': {u'target': [], u'time': []}, u'edge': {u'target': [], u'time': []}}, u'mouseout': {u'state': {u'target': [], u'time': []}, u'edge': {u'target': [], u'time': []}}}","[5, 5, 5]","[13864, 731, 773]",15.0,"[None, None, None]","[u'', 5, 5, -5, 5, 10, -10, -10, 10, 5, 5, -10, -5]",78913,2.0,-5.368470092922741e+18,mouselab-mdp,2
"[11683, 13472, 15324]","[u'up', u'up', u'right']",train_basic,"[u'0', u'1', u'2', u'3']","{u'mouseover': {u'state': {u'target': [], u'time': []}, u'edge': {u'target': [], u'time': []}}, u'click': {u'state': {u'target': [], u'time': []}, u'edge': {u'target': [], u'time': []}}, u'mouseout': {u'state': {u'target': [], u'time': []}, u'edge': {u'target': [], u'time': []}}}","[-5, 10, 10]","[11676, 1273, 1329]",15.0,"[None, None, None]","[u'', -5, 10, 10, 5, -5, 5, -10, 10, 10, -10, -10, -10]",98481,3.0,7.801448459840969e+18,mouselab-mdp,2
"[10507, 12162, 13599]","[u'left', u'left', u'up']",train_basic,"[u'0', u'9', u'10', u'11']","{u'mouseover': {u'state': {u'target': [], u'time': []}, u'edge': {u'target': [], u'time': []}}, u'click': {u'state': {u'target': [], u'time': []}, u'edge': {u'target': [], u'time': []}}, u'mouseout': {u'state': {u'target': [], u'time': []}, u'edge': {u'target': [], u'time': []}}}","[10, -5, 10]","[10499, 1137, 931]",15.0,"[None, None, None]","[u'', -5, 5, 5, -5, 10, -10, 5, -5, 10, -5, 10, -5]",115819,4.0,3.344637441394107e+17,mouselab-mdp,2
"[7196, 8405, 9470]","[u'left', u'left', u'up']",train_basic,"[u'0', u'9', u'10', u'11']","{u'mouseover': {u'state': {u'target': [], u'time': []}, u'edge': {u'target': [], u'time': []}}, u'click': {u'state': {u'target': [], u'time': []}, u'edge': {u'target': [], u'time': []}}, u'mouseout': {u'state': {u'target': [], u'time': []}, u'edge': {u'target': [], u'time': []}}}","[-5, -10, -10]","[7190, 703, 534]",-25.0,"[None, None, None]","[u'', 10, -10, -5, -5, -10, 10, -5, 5, -5, -10, -10, -10]",136166,5.0,-3.7612916714616883e+18,mouselab-mdp,2
"[12297, 13431, 14376]","[u'left', u'left', u'up']",train_basic,"[u'0', u'9', u'10', u'11']","{u'mouseover': {u'state': {u'target': [], u'time': []}, u'edge': {u'target': [], u'time': []}}, u'click': {u'state': {u'target': [], u'time': []}, u'edge': {u'target': [], u'time': []}}, u'mouseout': {u'state': {u'target': [], u'time': []}, u'edge': {u'target': [], u'time': []}}}","[10, -5, 10]","[12289, 629, 433]",15.0,"[None, None, None]","[u'', 10, -10, 10, 5, -5, -5, 5, -5, 10, -5, 10, 10]",153514,6.0,-2.528293413986772e+18,mouselab-mdp,2
"[12526, 14353, 15338]","[u'left', u'left', u'up']",train_basic,"[u'0', u'9', u'10', u'11']","{u'mouseover': {u'state': {u'target': [], u'time': []}, u'edge': {u'target': [], u'time': []}}, u'click': {u'state': {u'target': [], u'time': []}, u'edge': {u'target': [], u'time': []}}, u'mouseout': {u'state': {u'target': [], u'time': []}, u'edge': {u'target': [], u'time': []}}}","[10, -5, 10]","[12520, 1311, 477]",15.0,"[None, None, None]","[u'', -5, 10, -5, 5, 5, -10, -10, -5, 10, -5, 10, -10]",171884,7.0,1.0826444805002026e+18,mouselab-mdp,2
"[10139, 11148, 12217]","[u'left', u'left', u'down']",train_basic,"[u'0', u'9', u'10', u'12']","{u'mouseover': {u'state': {u'target': [], u'time': []}, u'edge': {u'target': [], u'time': []}}, u'click': {u'state': {u'target': [], u'time': []}, u'edge': {u'target': [], u'time': []}}, u'mouseout': {u'state': {u'target': [], u'time': []}, u'edge': {u'target': [], u'time': []}}}","[10, 10, 5]","[10134, 508, 562]",25.0,"[None, None, None]","[u'', -10, 10, -10, 5, -5, 5, -10, -10, 10, 10, -5, 5]",189242,8.0,-4.940336971661e+18,mouselab-mdp,2
"[5956, 6991, 7819]","[u'right', u'right', u'down']",train_basic,"[u'0', u'5', u'6', u'8']","{u'mouseover': {u'state': {u'target': [], u'time': []}, u'edge': {u'target': [], u'time': []}}, u'click': {u'state': {u'target': [], u'time': []}, u'edge': {u'target': [], u'time': []}}, u'mouseout': {u'state': {u'target': [], u'time': []}, u'edge': {u'target': [], u'time': []}}}","[5, 5, 10]","[5950, 509, 328]",20.0,"[None, None, None]","[u'', -5, 10, -5, 10, 5, 5, -10, 10, -5, 5, -5, -10]",200159,9.0,-1.6198589960716582e+18,mouselab-mdp,2
"[12838, 14141, 15427]","[u'up', u'up', u'left']",train_hidden,"[u'0', u'1', u'2', u'4']","{u'mouseover': {u'state': {u'target': [], u'time': []}, u'edge': {u'target': [], u'time': []}}, u'click': {u'state': {u'target': [], u'time': []}, u'edge': {u'target': [], u'time': []}}, u'mouseout': {u'state': {u'target': [], u'time': []}, u'edge': {u'target': [], u'time': []}}}","[5, -10, 10]","[12825, 799, 764]",5.0,"[None, None, None]","[u'', 5, -10, -5, 10, 10, 5, -10, 5, 5, -5, -5, 5]",221972,10.0,8.034619116489217e+18,mouselab-mdp,2
"[3756, 4767, 6083]","[u'up', u'up', u'right']",train_hidden,"[u'0', u'1', u'2', u'3']","{u'mouseover': {u'state': {u'target': [], u'time': []}, u'edge': {u'target': [], u'time': []}}, u'click': {u'state': {u'target': [], u'time': []}, u'edge': {u'target': [], u'time': []}}, u'mouseout': {u'state': {u'target': [], u'time': []}, u'edge': {u'target': [], u'time': []}}}","[-5, 10, 5]","[3747, 499, 815]",10.0,"[None, None, None]","[u'', -5, 10, 5, 10, -5, -10, 10, 10, 5, 5, 5, 10]",233347,11.0,8.130696467842232e+18,mouselab-mdp,2
"[1974, 3052, 5143]","[u'left', u'left', u'up']",train_hidden,"[u'0', u'9', u'10', u'11']","{u'mouseover': {u'state': {u'target': [], u'time': []}, u'edge': {u'target': [], u'time': []}}, u'click': {u'state': {u'target': [], u'time': []}, u'edge': {u'target': [], u'time': []}}, u'mouseout': {u'state': {u'target': [], u'time': []}, u'edge': {u'target': [], u'time': []}}}","[-10, 5, 10]","[1967, 575, 1583]",5.0,"[None, None, None]","[u'', 5, -5, -10, 5, 5, 5, -10, 10, -10, 5, 10, -10]",242490,12.0,-4.2127595583966556e+18,mouselab-mdp,2
"[3938, 4778, 5826]","[u'right', u'right', u'down']",train_hidden,"[u'0', u'5', u'6', u'8']","{u'mouseover': {u'state': {u'target': [], u'time': []}, u'edge': {u'target': [], u'time': []}}, u'click': {u'state': {u'target': [], u'time': []}, u'edge': {u'target': [], u'time': []}}, u'mouseout': {u'state': {u'target': [], u'time': []}, u'edge': {u'target': [], u'time': []}}}","[-5, -10, 5]","[3931, 325, 540]",-10.0,"[None, None, None]","[u'', -10, -10, 10, -10, -5, -10, 10, 5, -5, 10, 5, -5]",251212,13.0,5.603840126336082e+18,mouselab-mdp,2
"[2120, 3143, 4833]","[u'up', u'up', u'left']",train_hidden,"[u'0', u'1', u'2', u'4']","{u'mouseover': {u'state': {u'target': [], u'time': []}, u'edge': {u'target': [], u'time': []}}, u'click': {u'state': {u'target': [], u'time': []}, u'edge': {u'target': [], u'time': []}}, u'mouseout': {u'state': {u'target': [], u'time': []}, u'edge': {u'target': [], u'time': []}}}","[5, 10, 10]","[2113, 513, 1184]",25.0,"[None, None, None]","[u'', 5, 10, -10, 10, 10, 5, -5, 10, -10, -5, 10, -5]",259478,14.0,8.737010464064418e+18,mouselab-mdp,2
"[42044, 44098, 46373]","[u'left', u'left', u'up']",train_inspector,"[u'0', u'9', u'10', u'11']","{u'mouseover': {u'state': {u'target': [], u'time': []}, u'edge': {u'target': [], u'time': []}}, u'click': {u'state': {u'target': [u'1', u'2', u'4', u'3', u'5', u'6', u'7', u'8', u'9', u'10', u'12', u'11'], u'time': [15534, 17357, 18607, 20225, 21676, 23054, 24276, 25600, 27719, 28744, 31574, 33136]}, u'edge': {u'target': [], u'time': []}}, u'mouseout': {u'state': {u'target': [], u'time': []}, u'edge': {u'target': [], u'time': []}}}","[5, -10, 10]","[42034, 1532, 1763]",5.0,"[None, None, None]","[u'', 5, -5, -5, -10, 10, -10, 10, -10, 5, -10, 10, -10]",312863,15.0,-5.537817334537116e+18,mouselab-mdp,2
"[25231, 26195, 27341]","[u'up', u'up', u'right']",train_inspector,"[u'0', u'1', u'2', u'3']","{u'mouseover': {u'state': {u'target': [], u'time': []}, u'edge': {u'target': [], u'time': []}}, u'click': {u'state': {u'target': [u'11', u'10', u'12', u'9', u'1', u'4', u'2', u'3', u'7', u'8', u'5', u'6'], u'time': [1965, 3242, 4249, 5442, 6513, 8739, 9922, 10956, 12300, 16438, 17696, 18746]}, u'edge': {u'target': [], u'time': []}}, u'mouseout': {u'state': {u'target': [], u'time': []}, u'edge': {u'target': [], u'time': []}}}","[-5, 10, 5]","[25221, 459, 635]",10.0,"[None, None, None]","[u'', -5, 10, 5, -5, -10, -5, 5, -5, -5, -5, 10, -5]",342532,16.0,6.150233340115579e+18,mouselab-mdp,2
"[21673, 22610, 23943]","[u'left', u'left', u'up']",train_inspector,"[u'0', u'9', u'10', u'11']","{u'mouseover': {u'state': {u'target': [], u'time': []}, u'edge': {u'target': [], u'time': []}}, u'click': {u'state': {u'target': [u'1', u'2', u'4', u'3', u'5', u'6', u'8', u'7', u'9', u'10', u'11', u'12'], u'time': [1919, 4009, 5093, 6412, 7605, 8666, 9572, 10624, 12703, 13823, 15171, 16468]}, u'edge': {u'target': [], u'time': []}}, u'mouseout': {u'state': {u'target': [], u'time': []}, u'edge': {u'target': [], u'time': []}}}","[10, -5, 5]","[21664, 418, 795]",10.0,"[None, None, None]","[u'', -5, -10, 5, 5, -5, -10, 5, -5, 10, -5, 5, -10]",369081,17.0,-8.166458029472813e+18,mouselab-mdp,2
"[11751, 12626, 13582]","[u'left', u'left', u'up']",train_inspector,"[u'0', u'9', u'10', u'11']","{u'mouseover': {u'state': {u'target': [], u'time': []}, u'edge': {u'target': [], u'time': []}}, u'click': {u'state': {u'target': [u'11', u'10', u'12', u'9', u'1', u'4'], u'time': [2071, 3151, 4508, 5724, 6772, 9452]}, u'edge': {u'target': [], u'time': []}}, u'mouseout': {u'state': {u'target': [], u'time': []}, u'edge': {u'target': [], u'time': []}}}","[10, 10, 10]","[11745, 368, 441]",30.0,"[None, None, None]","[u'', -5, 10, 5, 10, 5, 5, -5, 5, 10, 10, 10, 5]",385857,18.0,-6.877572132778754e+18,mouselab-mdp,2
"[24117, 24837, 25469]","[u'right', u'right', u'up']",train_inspector,"[u'0', u'5', u'6', u'7']","{u'mouseover': {u'state': {u'target': [], u'time': []}, u'edge': {u'target': [], u'time': []}}, u'click': {u'state': {u'target': [u'11', u'10', u'12', u'9', u'1', u'2', u'4', u'3', u'5', u'6', u'7', u'8'], u'time': [4462, 7035, 8375, 10695, 11887, 12975, 14255, 15983, 19439, 20475, 21489, 22932]}, u'edge': {u'target': [], u'time': []}}, u'mouseout': {u'state': {u'target': [], u'time': []}, u'edge': {u'target': [], u'time': []}}}","[10, 10, 10]","[24108, 216, 130]",30.0,"[None, None, None]","[u'', -5, -5, 10, -10, 10, 10, 10, 5, 5, -5, -10, -5]",415221,19.0,-6.412333170858073e+18,mouselab-mdp,2
"[38131, 38946, 40160]","[u'right', u'right', u'up']",train_inspect_cost,"[u'0', u'5', u'6', u'7']","{u'mouseover': {u'state': {u'target': [], u'time': []}, u'edge': {u'target': [], u'time': []}}, u'click': {u'state': {u'target': [u'9', u'1', u'5'], u'time': [32301, 33899, 35022]}, u'edge': {u'target': [], u'time': []}}, u'mouseout': {u'state': {u'target': [], u'time': []}, u'edge': {u'target': [], u'time': []}}}","[10, -5, 5]","[38122, 310, 704]",7.0,"[None, None, None]","[u'', 10, 5, 10, 5, 10, -5, 5, -10, -5, -10, -5, -10]",462708,20.0,-8.861839220469794e+18,mouselab-mdp,2
"[12312, 13591, 15714]","[u'right', u'right', u'up']",train_inspect_cost,"[u'0', u'5', u'6', u'7']","{u'mouseover': {u'state': {u'target': [], u'time': []}, u'edge': {u'target': [], u'time': []}}, u'click': {u'state': {u'target': [u'9', u'1', u'5'], u'time': [2141, 3301, 4487]}, u'edge': {u'target': [], u'time': []}}, u'mouseout': {u'state': {u'target': [], u'time': []}, u'edge': {u'target': [], u'time': []}}}","[10, 5, 10]","[12308, 766, 1621]",22.0,"[None, None, None]","[u'', -5, -10, 10, 5, 10, 5, 10, 5, 5, -10, -5, -10]",481491,21.0,3.569831271632112e+18,mouselab-mdp,2
"[26809, 27600, 29555]","[u'left', u'left', u'up']",train_inspect_cost,"[u'0', u'9', u'10', u'11']","{u'mouseover': {u'state': {u'target': [], u'time': []}, u'edge': {u'target': [], u'time': []}}, u'click': {u'state': {u'target': [u'9', u'1', u'5', u'10', u'12'], u'time': [16553, 17815, 18986, 20811, 23785]}, u'edge': {u'target': [], u'time': []}}, u'mouseout': {u'state': {u'target': [], u'time': []}, u'edge': {u'target': [], u'time': []}}}","[5, -10, 5]","[26800, 293, 1444]",-5.0,"[None, None, None]","[u'', -5, -10, -10, 5, -10, -5, -5, -10, 5, -10, 5, 5]",514535,22.0,7.710656893126775e+18,mouselab-mdp,2
"[12342, 12976, 14037]","[u'right', u'right', u'up']",train_inspect_cost,"[u'0', u'5', u'6', u'7']","{u'mouseover': {u'state': {u'target': [], u'time': []}, u'edge': {u'target': [], u'time': []}}, u'click': {u'state': {u'target': [u'9', u'1', u'5', u'6', u'10', u'2'], u'time': [1157, 2565, 3837, 6817, 9379, 10825]}, u'edge': {u'target': [], u'time': []}}, u'mouseout': {u'state': {u'target': [], u'time': []}, u'edge': {u'target': [], u'time': []}}}","[-5, 10, 10]","[12331, 138, 548]",9.0,"[None, None, None]","[u'', -5, 5, -5, 10, -5, 10, 10, 10, -5, -10, -10, -5]",531633,23.0,3.7409315186213e+18,mouselab-mdp,2
"[7442, 8702, 10703]","[u'left', u'left', u'up']",train_inspect_cost,"[u'0', u'9', u'10', u'11']","{u'mouseover': {u'state': {u'target': [], u'time': []}, u'edge': {u'target': [], u'time': []}}, u'click': {u'state': {u'target': [u'9', u'1', u'5'], u'time': [3453, 4924, 6192]}, u'edge': {u'target': [], u'time': []}}, u'mouseout': {u'state': {u'target': [], u'time': []}, u'edge': {u'target': [], u'time': []}}}","[10, 10, 10]","[7435, 755, 1490]",27.0,"[None, None, None]","[u'', 5, -5, -5, -5, -10, 5, 5, -10, 10, 10, 10, 10]",545481,24.0,6.349377679140465e+18,mouselab-mdp,2
"[23746, 24502, 26878]","[u'up', u'up', u'right']",train_final,"[u'0', u'1', u'2', u'3']","{u'mouseover': {u'state': {u'target': [], u'time': []}, u'edge': {u'target': [], u'time': []}}, u'click': {u'state': {u'target': [u'1', u'5', u'9'], u'time': [19398, 20898, 22095]}, u'edge': {u'target': [], u'time': []}}, u'mouseout': {u'state': {u'target': [], u'time': []}, u'edge': {u'target': [], u'time': []}}}","[10, -10, -10]","[23738, 245, 1869]",-13.0,"[None, None, None]","[u'', 10, -10, -10, -5, -5, 10, 5, 10, -5, -10, -10, -5]",577568,25.0,-9.003921373543949e+18,mouselab-mdp,2
"[7680, 8532, 9717]","[u'left', u'left', u'up']",train_final,"[u'0', u'9', u'10', u'11']","{u'mouseover': {u'state': {u'target': [], u'time': []}, u'edge': {u'target': [], u'time': []}}, u'click': {u'state': {u'target': [u'9', u'1', u'5'], u'time': [3579, 4803, 6043]}, u'edge': {u'target': [], u'time': []}}, u'mouseout': {u'state': {u'target': [], u'time': []}, u'edge': {u'target': [], u'time': []}}}","[5, -10, 10]","[7674, 338, 669]",2.0,"[None, None, None]","[u'', -10, -5, -5, 5, -5, 5, 5, 5, 5, -10, 10, 10]",591019,26.0,5.514906028833953e+18,mouselab-mdp,2
"[6268, 7113, 8383]","[u'right', u'right', u'down']",train_final,"[u'0', u'5', u'6', u'8']","{u'mouseover': {u'state': {u'target': [], u'time': []}, u'edge': {u'target': [], u'time': []}}, u'click': {u'state': {u'target': [u'9', u'1', u'5'], u'time': [1464, 3943, 5213]}, u'edge': {u'target': [], u'time': []}}, u'mouseout': {u'state': {u'target': [], u'time': []}, u'edge': {u'target': [], u'time': []}}}","[10, 10, 5]","[6263, 344, 764]",22.0,"[None, None, None]","[u'', -5, 5, 5, 5, 10, 10, -10, 5, -5, 10, -10, -5]",602240,27.0,9.142111453001215e+18,mouselab-mdp,2
"[6188, 6951, 8966]","[u'right', u'right', u'up']",train_final,"[u'0', u'5', u'6', u'7']","{u'mouseover': {u'state': {u'target': [], u'time': []}, u'edge': {u'target': [], u'time': []}}, u'click': {u'state': {u'target': [u'9', u'1', u'5'], u'time': [2203, 3359, 4544]}, u'edge': {u'target': [], u'time': []}}, u'mouseout': {u'state': {u'target': [], u'time': []}, u'edge': {u'target': [], u'time': []}}}","[10, 10, 10]","[6176, 259, 1506]",27.0,"[None, None, None]","[u'', -5, -10, -5, 10, 10, 10, 10, -10, -10, -10, -5, -10]",614243,28.0,2.356810097693599e+18,mouselab-mdp,2
"[11855, 12544, 13349]","[u'left', u'left', u'up']",train_final,"[u'0', u'9', u'10', u'11']","{u'mouseover': {u'state': {u'target': [], u'time': []}, u'edge': {u'target': [], u'time': []}}, u'click': {u'state': {u'target': [u'9', u'1', u'5', u'6', u'10'], u'time': [2070, 3493, 4583, 7493, 9778]}, u'edge': {u'target': [], u'time': []}}, u'mouseout': {u'state': {u'target': [], u'time': []}, u'edge': {u'target': [], u'time': []}}}","[10, 5, 10]","[11849, 189, 292]",20.0,"[None, None, None]","[u'', -10, 10, -5, -10, 10, -5, 10, 5, 10, 5, 10, -5]",630717,29.0,1.9920789159475208e+18,mouselab-mdp,2
"[8766, 10009, 13006]","[u'left', u'left', u'up']",test,"[u'0', u'9', u'10', u'11']","{u'mouseover': {u'state': {u'target': [], u'time': []}, u'edge': {u'target': [], u'time': []}}, u'click': {u'state': {u'target': [u'9'], u'time': [3983]}, u'edge': {u'target': [], u'time': []}}, u'mouseout': {u'state': {u'target': [], u'time': []}, u'edge': {u'target': [], u'time': []}}}","[10, 5, 10]","[8758, 742, 2486]",24.0,"[None, None, None]","[u'', 5, 10, 10, 10, -10, -10, 5, 10, 10, 5, 10, 5]",714194,30.0,2.0301359460781466e+18,mouselab-mdp,2
"[3754, 4739, 6608]","[u'up', u'up', u'left']",test,"[u'0', u'1', u'2', u'4']","{u'mouseover': {u'state': {u'target': [], u'time': []}, u'edge': {u'target': [], u'time': []}}, u'click': {u'state': {u'target': [u'1'], u'time': [2007]}, u'edge': {u'target': [], u'time': []}}, u'mouseout': {u'state': {u'target': [], u'time': []}, u'edge': {u'target': [], u'time': []}}}","[10, 5, 5]","[3746, 476, 1365]",19.0,"[None, None, None]","[u'', 10, 5, -10, 5, -5, 5, 10, -5, 10, 5, -10, 10]",725093,31.0,-6.457953215426968e+18,mouselab-mdp,2
"[3873, 4747, 6480]","[u'up', u'up', u'right']",test,"[u'0', u'1', u'2', u'3']","{u'mouseover': {u'state': {u'target': [], u'time': []}, u'edge': {u'target': [], u'time': []}}, u'click': {u'state': {u'target': [u'1'], u'time': [2208]}, u'edge': {u'target': [], u'time': []}}, u'mouseout': {u'state': {u'target': [], u'time': []}, u'edge': {u'target': [], u'time': []}}}","[10, 10, -10]","[3865, 368, 1218]",9.0,"[None, None, None]","[u'', 10, 10, -10, -10, -10, 10, -10, -5, 10, 5, 5, -5]",735476,32.0,1.2413699960697694e+17,mouselab-mdp,2
"[4058, 5255, 6879]","[u'left', u'left', u'up']",test,"[u'0', u'9', u'10', u'11']","{u'mouseover': {u'state': {u'target': [], u'time': []}, u'edge': {u'target': [], u'time': []}}, u'click': {u'state': {u'target': [u'1', u'9'], u'time': [870, 2775]}, u'edge': {u'target': [], u'time': []}}, u'mouseout': {u'state': {u'target': [], u'time': []}, u'edge': {u'target': [], u'time': []}}}","[10, -10, 10]","[4046, 686, 1111]",8.0,"[None, None, None]","[u'', 5, 5, -10, 5, -10, 10, 5, -10, 10, -10, 10, 5]",745699,33.0,7.494910043448008e+18,mouselab-mdp,2
"[9768, 10528, 12646]","[u'up', u'up', u'right']",test,"[u'0', u'1', u'2', u'3']","{u'mouseover': {u'state': {u'target': [], u'time': []}, u'edge': {u'target': [], u'time': []}}, u'click': {u'state': {u'target': [u'9', u'5', u'1'], u'time': [5219, 6707, 7964]}, u'edge': {u'target': [], u'time': []}}, u'mouseout': {u'state': {u'target': [], u'time': []}, u'edge': {u'target': [], u'time': []}}}","[10, 10, 5]","[9760, 256, 1601]",22.0,"[None, None, None]","[u'', 10, 10, 5, 10, -10, 10, -10, -10, -5, -10, 5, -10]",761230,34.0,4.981813421836143e+18,mouselab-mdp,2
"[3334, 4211, 5720]","[u'up', u'up', u'left']",test,"[u'0', u'1', u'2', u'4']","{u'mouseover': {u'state': {u'target': [], u'time': []}, u'edge': {u'target': [], u'time': []}}, u'click': {u'state': {u'target': [u'1'], u'time': [2003]}, u'edge': {u'target': [], u'time': []}}, u'mouseout': {u'state': {u'target': [], u'time': []}, u'edge': {u'target': [], u'time': []}}}","[10, 10, 5]","[3324, 351, 993]",24.0,"[None, None, None]","[u'', 10, 10, -5, 5, 10, -5, -5, 5, -10, 5, -5, 10]",771742,35.0,5.48878703662108e+18,mouselab-mdp,2
"[3133, 4032, 5650]","[u'up', u'up', u'left']",test,"[u'0', u'1', u'2', u'4']","{u'mouseover': {u'state': {u'target': [], u'time': []}, u'edge': {u'target': [], u'time': []}}, u'click': {u'state': {u'target': [u'1'], u'time': [1449]}, u'edge': {u'target': [], u'time': []}}, u'mouseout': {u'state': {u'target': [], u'time': []}, u'edge': {u'target': [], u'time': []}}}","[10, -5, 10]","[3125, 397, 1116]",14.0,"[None, None, None]","[u'', 10, -5, -10, 10, -10, 10, 10, -5, 5, 5, 5, 10]",780452,36.0,-6.044130621866826e+18,mouselab-mdp,2
"[6509, 7280, 9463]","[u'right', u'right', u'up']",test,"[u'0', u'5', u'6', u'7']","{u'mouseover': {u'state': {u'target': [], u'time': []}, u'edge': {u'target': [], u'time': []}}, u'click': {u'state': {u'target': [u'1', u'9', u'5'], u'time': [1285, 2638, 4180]}, u'edge': {u'target': [], u'time': []}}, u'mouseout': {u'state': {u'target': [], u'time': []}, u'edge': {u'target': [], u'time': []}}}","[10, -5, 10]","[6502, 260, 1674]",12.0,"[None, None, None]","[u'', 5, -10, 10, -10, 10, -5, 10, 5, 5, -10, -10, -10]",792982,37.0,-6.90593884411209e+17,mouselab-mdp,2
"[10189, 11283, 12704]","[u'left', u'left', u'up']",test,"[u'0', u'9', u'10', u'11']","{u'mouseover': {u'state': {u'target': [], u'time': []}, u'edge': {u'target': [], u'time': []}}, u'click': {u'state': {u'target': [u'1'], u'time': [1741]}, u'edge': {u'target': [], u'time': []}}, u'mouseout': {u'state': {u'target': [], u'time': []}, u'edge': {u'target': [], u'time': []}}}","[10, -10, -5]","[10180, 596, 914]",-6.0,"[None, None, None]","[u'', -5, 5, -5, -5, -10, -10, 10, -5, 10, -10, -5, 5]",821766,38.0,8.077601249506434e+18,mouselab-mdp,2
"[3141, 3998, 6676]","[u'up', u'up', u'right']",test,"[u'0', u'1', u'2', u'3']","{u'mouseover': {u'state': {u'target': [], u'time': []}, u'edge': {u'target': [], u'time': []}}, u'click': {u'state': {u'target': [u'1'], u'time': [1689]}, u'edge': {u'target': [], u'time': []}}, u'mouseout': {u'state': {u'target': [], u'time': []}, u'edge': {u'target': [], u'time': []}}}","[10, 10, 10]","[3134, 355, 2165]",29.0,"[None, None, None]","[u'', 10, 10, 10, 10, -10, -10, -10, 5, 10, 10, 5, 5]",831828,39.0,1.1933479039128937e+18,mouselab-mdp,2
"[5090, 5888, 7268]","[u'right', u'right', u'down']",test,"[u'0', u'5', u'6', u'8']","{u'mouseover': {u'state': {u'target': [], u'time': []}, u'edge': {u'target': [], u'time': []}}, u'click': {u'state': {u'target': [u'1', u'9', u'5'], u'time': [1204, 2426, 3744]}, u'edge': {u'target': [], u'time': []}}, u'mouseout': {u'state': {u'target': [], u'time': []}, u'edge': {u'target': [], u'time': []}}}","[10, 5, -5]","[5081, 285, 881]",7.0,"[None, None, None]","[u'', -5, 10, 5, -10, 10, 5, -10, -5, 5, 10, -10, 10]",841911,40.0,-9.148803387183103e+18,mouselab-mdp,2
"[4277, 5389, 6295]","[u'right', u'right', u'up']",test,"[u'0', u'5', u'6', u'7']","{u'mouseover': {u'state': {u'target': [], u'time': []}, u'edge': {u'target': [], u'time': []}}, u'click': {u'state': {u'target': [u'1', u'9'], u'time': [1212, 2468]}, u'edge': {u'target': [], u'time': []}}, u'mouseout': {u'state': {u'target': [], u'time': []}, u'edge': {u'target': [], u'time': []}}}","[10, 5, -10]","[4267, 600, 404]",3.0,"[None, None, None]","[u'', -10, 5, 5, -5, 10, 5, -10, -10, -10, -5, -10, 5]",851271,41.0,6.62653966049298e+17,mouselab-mdp,2
"[3810, 4691, 5573]","[u'right', u'right', u'down']",test,"[u'0', u'5', u'6', u'8']","{u'mouseover': {u'state': {u'target': [], u'time': []}, u'edge': {u'target': [], u'time': []}}, u'click': {u'state': {u'target': [u'1', u'9'], u'time': [1408, 2569]}, u'edge': {u'target': [], u'time': []}}, u'mouseout': {u'state': {u'target': [], u'time': []}, u'edge': {u'target': [], u'time': []}}}","[10, 10, 10]","[3802, 378, 374]",28.0,"[None, None, None]","[u'', -5, 10, 10, 5, 10, 10, 10, 10, -10, 5, 5, 5]",860297,42.0,-6.980762109714071e+18,mouselab-mdp,2
"[2530, 3350, 4259]","[u'up', u'up', u'right']",test,"[u'0', u'1', u'2', u'3']","{u'mouseover': {u'state': {u'target': [], u'time': []}, u'edge': {u'target': [], u'time': []}}, u'click': {u'state': {u'target': [u'1'], u'time': [1337]}, u'edge': {u'target': [], u'time': []}}, u'mouseout': {u'state': {u'target': [], u'time': []}, u'edge': {u'target': [], u'time': []}}}","[10, 10, 5]","[2523, 317, 408]",24.0,"[None, None, None]","[u'', 10, 10, 5, 5, -10, -5, -5, -10, 5, -5, 10, 10]",867371,43.0,8.086241799233455e+18,mouselab-mdp,2
"[6193, 6924, 7908]","[u'left', u'left', u'up']",test,"[u'0', u'9', u'10', u'11']","{u'mouseover': {u'state': {u'target': [], u'time': []}, u'edge': {u'target': [], u'time': []}}, u'click': {u'state': {u'target': [u'1', u'9', u'5'], u'time': [2525, 3819, 4992]}, u'edge': {u'target': [], u'time': []}}, u'mouseout': {u'state': {u'target': [], u'time': []}, u'edge': {u'target': [], u'time': []}}}","[5, 10, 5]","[6186, 227, 480]",17.0,"[None, None, None]","[u'', -5, 10, 5, 10, 5, -5, 10, -10, 5, 10, 5, -10]",878096,44.0,7.308726088184663e+18,mouselab-mdp,2
"[4714, 5522, 6575]","[u'left', u'left', u'up']",test,"[u'0', u'9', u'10', u'11']","{u'mouseover': {u'state': {u'target': [], u'time': []}, u'edge': {u'target': [], u'time': []}}, u'click': {u'state': {u'target': [u'1', u'9'], u'time': [1804, 3186]}, u'edge': {u'target': [], u'time': []}}, u'mouseout': {u'state': {u'target': [], u'time': []}, u'edge': {u'target': [], u'time': []}}}","[10, 10, -10]","[4708, 292, 550]",8.0,"[None, None, None]","[u'', 5, 5, -5, 10, -5, -10, 10, 5, 10, 10, -10, -10]",887664,45.0,5.938094249628056e+18,mouselab-mdp,2
"[7161, 8034, 9420]","[u'up', u'up', u'right']",test,"[u'0', u'1', u'2', u'3']","{u'mouseover': {u'state': {u'target': [], u'time': []}, u'edge': {u'target': [], u'time': []}}, u'click': {u'state': {u'target': [u'9', u'5'], u'time': [4666, 5927]}, u'edge': {u'target': [], u'time': []}}, u'mouseout': {u'state': {u'target': [], u'time': []}, u'edge': {u'target': [], u'time': []}}}","[5, 5, 5]","[7152, 362, 887]",13.0,"[None, None, None]","[u'', 5, 5, 5, 5, -10, -10, 5, 10, -10, -5, -5, -5]",900096,46.0,-5.299628366905943e+18,mouselab-mdp,2
"[4498, 5748, 7074]","[u'left', u'left', u'down']",test,"[u'0', u'9', u'10', u'12']","{u'mouseover': {u'state': {u'target': [], u'time': []}, u'edge': {u'target': [], u'time': []}}, u'click': {u'state': {u'target': [u'1', u'9'], u'time': [1675, 3478]}, u'edge': {u'target': [], u'time': []}}, u'mouseout': {u'state': {u'target': [], u'time': []}, u'edge': {u'target': [], u'time': []}}}","[10, -5, 5]","[4490, 749, 826]",8.0,"[None, None, None]","[u'', -10, -5, -10, 5, 10, 5, 10, -5, 10, -5, 10, 5]",920368,47.0,-8.549120811661888e+17,mouselab-mdp,2
"[5392, 6262, 7632]","[u'right', u'right', u'up']",test,"[u'0', u'5', u'6', u'7']","{u'mouseover': {u'state': {u'target': [], u'time': []}, u'edge': {u'target': [], u'time': []}}, u'click': {u'state': {u'target': [u'1', u'9'], u'time': [1903, 2991]}, u'edge': {u'target': [], u'time': []}}, u'mouseout': {u'state': {u'target': [], u'time': []}, u'edge': {u'target': [], u'time': []}}}","[5, -5, 5]","[5375, 360, 861]",3.0,"[None, None, None]","[u'', -5, -10, 5, 5, 5, -5, 5, -10, -5, -5, -5, -10]",930833,48.0,-7.611027172769307e+18,mouselab-mdp,2
"[3907, 4748, 5762]","[u'right', u'right', u'down']",test,"[u'0', u'5', u'6', u'8']","{u'mouseover': {u'state': {u'target': [], u'time': []}, u'edge': {u'target': [], u'time': []}}, u'click': {u'state': {u'target': [u'1', u'9'], u'time': [1417, 2596]}, u'edge': {u'target': [], u'time': []}}, u'mouseout': {u'state': {u'target': [], u'time': []}, u'edge': {u'target': [], u'time': []}}}","[10, -10, 5]","[3899, 339, 485]",3.0,"[None, None, None]","[u'', -5, 5, 10, -10, 10, -10, 10, 5, -5, -10, 5, 10]",939375,49.0,4.754602433487655e+18,mouselab-mdp,2
"[38684, 48183, 50034]","[u'left', u'left', u'up']",train_basic,"[u'0', u'9', u'10', u'11']","{u'mouseover': {u'state': {u'target': [], u'time': []}, u'edge': {u'target': [], u'time': []}}, u'click': {u'state': {u'target': [], u'time': []}, u'edge': {u'target': [], u'time': []}}, u'mouseout': {u'state': {u'target': [], u'time': []}, u'edge': {u'target': [], u'time': []}}}","[10, 5, 10]","[38676, 8994, 1327]",25.0,"[None, None, None]","[u'', 5, 10, 10, 10, -10, -10, 5, 10, 10, 5, 10, 5]",57637,0.0,2.0301359460781466e+18,mouselab-mdp,3
"[33181, 36379, 37505]","[u'left', u'left', u'up']",train_basic,"[u'0', u'9', u'10', u'11']","{u'mouseover': {u'state': {u'target': [], u'time': []}, u'edge': {u'target': [], u'time': []}}, u'click': {u'state': {u'target': [], u'time': []}, u'edge': {u'target': [], u'time': []}}, u'mouseout': {u'state': {u'target': [], u'time': []}, u'edge': {u'target': [], u'time': []}}}","[5, -10, 10]","[33176, 2684, 626]",5.0,"[None, None, None]","[u'', -10, -5, -5, 5, -5, 5, 5, 5, 5, -10, 10, 10]",100763,1.0,5.514906028833953e+18,mouselab-mdp,3
"[10218, 11159, 13244]","[u'right', u'right', u'up']",train_basic,"[u'0', u'5', u'6', u'7']","{u'mouseover': {u'state': {u'target': [], u'time': []}, u'edge': {u'target': [], u'time': []}}, u'click': {u'state': {u'target': [], u'time': []}, u'edge': {u'target': [], u'time': []}}, u'mouseout': {u'state': {u'target': [], u'time': []}, u'edge': {u'target': [], u'time': []}}}","[-5, 10, 10]","[10215, 424, 1591]",15.0,"[None, None, None]","[u'', -5, 5, -5, 10, -5, 10, 10, 10, -5, -10, -10, -5]",117793,2.0,3.7409315186213e+18,mouselab-mdp,3
"[15703, 16887, 18737]","[u'left', u'left', u'down']",train_basic,"[u'0', u'9', u'10', u'12']","{u'mouseover': {u'state': {u'target': [], u'time': []}, u'edge': {u'target': [], u'time': []}}, u'click': {u'state': {u'target': [], u'time': []}, u'edge': {u'target': [], u'time': []}}, u'mouseout': {u'state': {u'target': [], u'time': []}, u'edge': {u'target': [], u'time': []}}}","[5, 5, 10]","[15700, 660, 1346]",20.0,"[None, None, None]","[u'', 10, -5, -10, 10, -10, 10, 10, -5, 5, 5, 5, 10]",139679,3.0,-6.044130621866826e+18,mouselab-mdp,3
"[4021, 4678, 5766]","[u'up', u'up', u'right']",train_basic,"[u'0', u'1', u'2', u'3']","{u'mouseover': {u'state': {u'target': [], u'time': []}, u'edge': {u'target': [], u'time': []}}, u'click': {u'state': {u'target': [], u'time': []}, u'edge': {u'target': [], u'time': []}}, u'mouseout': {u'state': {u'target': [], u'time': []}, u'edge': {u'target': [], u'time': []}}}","[10, 5, 10]","[4018, 159, 578]",25.0,"[None, None, None]","[u'', 10, 5, 10, 5, 10, -5, 5, -10, -5, -10, -5, -10]",149519,4.0,-8.861839220469794e+18,mouselab-mdp,3
"[9997, 10617, 13413]","[u'left', u'left', u'up']",train_basic,"[u'0', u'9', u'10', u'11']","{u'mouseover': {u'state': {u'target': [], u'time': []}, u'edge': {u'target': [], u'time': []}}, u'click': {u'state': {u'target': [], u'time': []}, u'edge': {u'target': [], u'time': []}}, u'mouseout': {u'state': {u'target': [], u'time': []}, u'edge': {u'target': [], u'time': []}}}","[5, 10, -5]","[9994, 110, 2289]",10.0,"[None, None, None]","[u'', 5, -10, 10, -10, -5, 10, -10, 5, 5, 10, -5, -10]",166943,5.0,-5.616229570178317e+18,mouselab-mdp,3
"[7787, 8478, 10107]","[u'left', u'left', u'up']",train_basic,"[u'0', u'9', u'10', u'11']","{u'mouseover': {u'state': {u'target': [], u'time': []}, u'edge': {u'target': [], u'time': []}}, u'click': {u'state': {u'target': [], u'time': []}, u'edge': {u'target': [], u'time': []}}, u'mouseout': {u'state': {u'target': [], u'time': []}, u'edge': {u'target': [], u'time': []}}}","[-5, 10, 5]","[7784, 167, 1128]",10.0,"[None, None, None]","[u'', -10, -10, 10, -10, -5, -10, 10, 5, -5, 10, 5, -5]",179720,6.0,5.603840126336082e+18,mouselab-mdp,3
"[7463, 8556, 10077]","[u'left', u'left', u'up']",train_basic,"[u'0', u'9', u'10', u'11']","{u'mouseover': {u'state': {u'target': [], u'time': []}, u'edge': {u'target': [], u'time': []}}, u'click': {u'state': {u'target': [], u'time': []}, u'edge': {u'target': [], u'time': []}}, u'mouseout': {u'state': {u'target': [], u'time': []}, u'edge': {u'target': [], u'time': []}}}","[10, -5, 10]","[7462, 588, 1024]",15.0,"[None, None, None]","[u'', 10, -10, 10, 5, -5, -5, 5, -5, 10, -5, 10, 10]",192472,7.0,-2.528293413986772e+18,mouselab-mdp,3
"[4600, 5134, 6530]","[u'up', u'up', u'left']",train_basic,"[u'0', u'1', u'2', u'4']","{u'mouseover': {u'state': {u'target': [], u'time': []}, u'edge': {u'target': [], u'time': []}}, u'click': {u'state': {u'target': [], u'time': []}, u'edge': {u'target': [], u'time': []}}, u'mouseout': {u'state': {u'target': [], u'time': []}, u'edge': {u'target': [], u'time': []}}}","[5, 5, 10]","[4597, 29, 892]",20.0,"[None, None, None]","[u'', 5, 5, -5, 10, -5, -10, 10, 5, 10, 10, -10, -10]",201856,8.0,5.938094249628056e+18,mouselab-mdp,3
"[10288, 11320, 12296]","[u'right', u'right', u'down']",train_basic,"[u'0', u'5', u'6', u'8']","{u'mouseover': {u'state': {u'target': [], u'time': []}, u'edge': {u'target': [], u'time': []}}, u'click': {u'state': {u'target': [], u'time': []}, u'edge': {u'target': [], u'time': []}}, u'mouseout': {u'state': {u'target': [], u'time': []}, u'edge': {u'target': [], u'time': []}}}","[5, -10, 10]","[10286, 513, 472]",5.0,"[None, None, None]","[u'', -10, -10, -10, 5, 5, -10, -10, 10, 5, -10, -5, 5]",217212,9.0,7.530557414679124e+18,mouselab-mdp,3
"[17057, 18184, 19257]","[u'left', u'left', u'up']",train_hidden,"[u'0', u'9', u'10', u'11']","{u'mouseover': {u'state': {u'target': [], u'time': []}, u'edge': {u'target': [], u'time': []}}, u'click': {u'state': {u'target': [], u'time': []}, u'edge': {u'target': [], u'time': []}}, u'mouseout': {u'state': {u'target': [], u'time': []}, u'edge': {u'target': [], u'time': []}}}","[-10, -5, -10]","[17054, 617, 574]",-25.0,"[None, None, None]","[u'', 5, 10, 10, -5, 5, 10, -5, 5, -10, -5, -10, 5]",242902,10.0,5.25598264187708e+18,mouselab-mdp,3
"[2409, 3809, 5102]","[u'up', u'up', u'right']",train_hidden,"[u'0', u'1', u'2', u'3']","{u'mouseover': {u'state': {u'target': [], u'time': []}, u'edge': {u'target': [], u'time': []}}, u'click': {u'state': {u'target': [], u'time': []}, u'edge': {u'target': [], u'time': []}}, u'mouseout': {u'state': {u'target': [], u'time': []}, u'edge': {u'target': [], u'time': []}}}","[5, -5, -5]","[2405, 903, 796]",-5.0,"[None, None, None]","[u'', 5, -5, -5, -5, -10, 5, 5, -10, 10, 10, 10, 10]",251721,11.0,6.349377679140465e+18,mouselab-mdp,3
"[1641, 3820, 5703]","[u'right', u'right', u'up']",train_hidden,"[u'0', u'5', u'6', u'7']","{u'mouseover': {u'state': {u'target': [], u'time': []}, u'edge': {u'target': [], u'time': []}}, u'click': {u'state': {u'target': [], u'time': []}, u'edge': {u'target': [], u'time': []}}, u'mouseout': {u'state': {u'target': [], u'time': []}, u'edge': {u'target': [], u'time': []}}}","[5, 5, -5]","[1638, 1677, 1361]",5.0,"[None, None, None]","[u'', -5, 10, 5, 10, 5, 5, -5, 5, 10, 10, 10, 5]",260378,12.0,-6.877572132778754e+18,mouselab-mdp,3
"[1150, 2100, 3618]","[u'up', u'up', u'left']",train_hidden,"[u'0', u'1', u'2', u'4']","{u'mouseover': {u'state': {u'target': [], u'time': []}, u'edge': {u'target': [], u'time': []}}, u'click': {u'state': {u'target': [], u'time': []}, u'edge': {u'target': [], u'time': []}}, u'mouseout': {u'state': {u'target': [], u'time': []}, u'edge': {u'target': [], u'time': []}}}","[-10, 10, -10]","[1145, 434, 1020]",-10.0,"[None, None, None]","[u'', -10, 10, 10, -10, -10, -5, -10, 10, -5, 10, 5, 10]",267132,13.0,-3.5316257003419013e+18,mouselab-mdp,3
"[1118, 2087, 2991]","[u'right', u'right', u'down']",train_hidden,"[u'0', u'5', u'6', u'8']","{u'mouseover': {u'state': {u'target': [], u'time': []}, u'edge': {u'target': [], u'time': []}}, u'click': {u'state': {u'target': [], u'time': []}, u'edge': {u'target': [], u'time': []}}, u'mouseout': {u'state': {u'target': [], u'time': []}, u'edge': {u'target': [], u'time': []}}}","[10, 10, -10]","[1117, 472, 408]",10.0,"[None, None, None]","[u'', 10, 5, 10, 5, 10, 10, -5, -10, 5, -5, -10, 5]",273786,14.0,4.3967390784059443e+18,mouselab-mdp,3
"[25247, 26476, 27760]","[u'right', u'right', u'down']",train_inspector,"[u'0', u'5', u'6', u'8']","{u'mouseover': {u'state': {u'target': [], u'time': []}, u'edge': {u'target': [], u'time': []}}, u'click': {u'state': {u'target': [u'1', u'5', u'9'], u'time': [20339, 22256, 23319]}, u'edge': {u'target': [], u'time': []}}, u'mouseout': {u'state': {u'target': [], u'time': []}, u'edge': {u'target': [], u'time': []}}}","[-5, -10, 10]","[25235, 722, 786]",-5.0,"[None, None, None]","[u'', -10, -5, 10, -10, -5, -10, 10, 10, -10, -5, -10, 10]",307060,15.0,-7.342034422792319e+18,mouselab-mdp,3
"[4437, 5791, 7194]","[u'up', u'up', u'right']",train_inspector,"[u'0', u'1', u'2', u'3']","{u'mouseover': {u'state': {u'target': [], u'time': []}, u'edge': {u'target': [], u'time': []}}, u'click': {u'state': {u'target': [u'1'], u'time': [3047]}, u'edge': {u'target': [], u'time': []}}, u'mouseout': {u'state': {u'target': [], u'time': []}, u'edge': {u'target': [], u'time': []}}}","[10, 10, 5]","[4432, 849, 902]",25.0,"[None, None, None]","[u'', 10, 10, 5, 10, -10, -10, -5, -5, 10, -5, 5, 10]",318070,16.0,-3.019010559255296e+18,mouselab-mdp,3
"[3568, 4460, 5696]","[u'right', u'right', u'up']",train_inspector,"[u'0', u'5', u'6', u'7']","{u'mouseover': {u'state': {u'target': [], u'time': []}, u'edge': {u'target': [], u'time': []}}, u'click': {u'state': {u'target': [u'9', u'1', u'5'], u'time': [771, 1513, 2242]}, u'edge': {u'target': [], u'time': []}}, u'mouseout': {u'state': {u'target': [], u'time': []}, u'edge': {u'target': [], u'time': []}}}","[10, 5, 10]","[3564, 399, 735]",25.0,"[None, None, None]","[u'', -5, -10, 10, 5, 10, 5, 10, 5, 5, -10, -5, -10]",326612,17.0,3.569831271632112e+18,mouselab-mdp,3
"[5759, 6627, 7800]","[u'up', u'up', u'right']",train_inspector,"[u'0', u'1', u'2', u'3']","{u'mouseover': {u'state': {u'target': [], u'time': []}, u'edge': {u'target': [], u'time': []}}, u'click': {u'state': {u'target': [u'9', u'1', u'5'], u'time': [1406, 2163, 4308]}, u'edge': {u'target': [], u'time': []}}, u'mouseout': {u'state': {u'target': [], u'time': []}, u'edge': {u'target': [], u'time': []}}}","[-5, 5, 5]","[5757, 360, 666]",5.0,"[None, None, None]","[u'', -5, 5, 5, 5, -10, 10, 10, 5, -10, 10, -10, -5]",337512,18.0,-8.511375057859465e+18,mouselab-mdp,3
"[1595, 2439, 3320]","[u'up', u'up', u'right']",train_inspector,"[u'0', u'1', u'2', u'3']","{u'mouseover': {u'state': {u'target': [], u'time': []}, u'edge': {u'target': [], u'time': []}}, u'click': {u'state': {u'target': [], u'time': []}, u'edge': {u'target': [], u'time': []}}, u'mouseout': {u'state': {u'target': [], u'time': []}, u'edge': {u'target': [], u'time': []}}}","[-5, 10, -5]","[1590, 340, 374]",0.0,"[None, None, None]","[u'', -5, 10, -5, 10, 5, 5, -10, 10, -5, 5, -5, -10]",344108,19.0,-1.6198589960716582e+18,mouselab-mdp,3
"[15465, 17796, 20179]","[u'up', u'up', u'right']",train_inspect_cost,"[u'0', u'1', u'2', u'3']","{u'mouseover': {u'state': {u'target': [], u'time': []}, u'edge': {u'target': [], u'time': []}}, u'click': {u'state': {u'target': [], u'time': []}, u'edge': {u'target': [], u'time': []}}, u'mouseout': {u'state': {u'target': [], u'time': []}, u'edge': {u'target': [], u'time': []}}}","[-10, 10, -10]","[15463, 1818, 1883]",-10.0,"[None, None, None]","[u'', -10, 10, -10, 10, 5, -5, 10, -10, 5, -10, 5, -10]",371387,20.0,8.916704547234911e+18,mouselab-mdp,3
"[6690, 7297, 8874]","[u'up', u'up', u'left']",train_inspect_cost,"[u'0', u'1', u'2', u'4']","{u'mouseover': {u'state': {u'target': [], u'time': []}, u'edge': {u'target': [], u'time': []}}, u'click': {u'state': {u'target': [u'1', u'5', u'9'], u'time': [1305, 4159, 5325]}, u'edge': {u'target': [], u'time': []}}, u'mouseout': {u'state': {u'target': [], u'time': []}, u'edge': {u'target': [], u'time': []}}}","[-5, 10, -5]","[6688, 104, 1078]",-3.0,"[None, None, None]","[u'', -5, 10, 5, -5, -10, -5, 5, -5, -5, -5, 10, -5]",383537,21.0,6.150233340115579e+18,mouselab-mdp,3
"[2588, 3543, 4660]","[u'up', u'up', u'right']",train_inspect_cost,"[u'0', u'1', u'2', u'3']","{u'mouseover': {u'state': {u'target': [], u'time': []}, u'edge': {u'target': [], u'time': []}}, u'click': {u'state': {u'target': [u'1'], u'time': [830]}, u'edge': {u'target': [], u'time': []}}, u'mouseout': {u'state': {u'target': [], u'time': []}, u'edge': {u'target': [], u'time': []}}}","[5, 10, -10]","[2584, 458, 624]",4.0,"[None, None, None]","[u'', 5, 10, -10, -10, -10, 10, 5, 5, -5, 10, -5, 10]",398490,22.0,-7.119666741695585e+18,mouselab-mdp,3
"[3659, 4656, 6939]","[u'up', u'up', u'right']",train_inspect_cost,"[u'0', u'1', u'2', u'3']","{u'mouseover': {u'state': {u'target': [], u'time': []}, u'edge': {u'target': [], u'time': []}}, u'click': {u'state': {u'target': [u'9', u'1', u'5'], u'time': [1190, 1909, 2525]}, u'edge': {u'target': [], u'time': []}}, u'mouseout': {u'state': {u'target': [], u'time': []}, u'edge': {u'target': [], u'time': []}}}","[5, 5, 5]","[3656, 505, 1786]",12.0,"[None, None, None]","[u'', 5, 5, 5, 5, -10, -10, 5, 10, -10, -5, -5, -5]",409682,23.0,-5.299628366905943e+18,mouselab-mdp,3
"[7191, 8293, 9319]","[u'left', u'left', u'up']",train_inspect_cost,"[u'0', u'9', u'10', u'11']","{u'mouseover': {u'state': {u'target': [], u'time': []}, u'edge': {u'target': [], u'time': []}}, u'click': {u'state': {u'target': [u'9'], u'time': [5128]}, u'edge': {u'target': [], u'time': []}}, u'mouseout': {u'state': {u'target': [], u'time': []}, u'edge': {u'target': [], u'time': []}}}","[10, -5, 5]","[7188, 591, 532]",9.0,"[None, None, None]","[u'', -5, -10, 5, 5, -5, -10, 5, -5, 10, -5, 5, -10]",422591,24.0,-8.166458029472813e+18,mouselab-mdp,3
"[34525, 35469, 36293]","[u'up', u'up', u'right']",train_final,"[u'0', u'1', u'2', u'3']","{u'mouseover': {u'state': {u'target': [], u'time': []}, u'edge': {u'target': [], u'time': []}}, u'click': {u'state': {u'target': [u'1'], u'time': [33218]}, u'edge': {u'target': [], u'time': []}}, u'mouseout': {u'state': {u'target': [], u'time': []}, u'edge': {u'target': [], u'time': []}}}","[5, -5, -5]","[34523, 438, 332]",-6.0,"[None, None, None]","[u'', 5, -5, -5, -10, 10, -10, 10, -10, 5, -10, 10, -10]",465281,25.0,-5.537817334537116e+18,mouselab-mdp,3
"[4065, 4865, 6536]","[u'up', u'up', u'right']",train_final,"[u'0', u'1', u'2', u'3']","{u'mouseover': {u'state': {u'target': [], u'time': []}, u'edge': {u'target': [], u'time': []}}, u'click': {u'state': {u'target': [u'1'], u'time': [2445]}, u'edge': {u'target': [], u'time': []}}, u'mouseout': {u'state': {u'target': [], u'time': []}, u'edge': {u'target': [], u'time': []}}}","[10, -10, 5]","[4062, 291, 1162]",4.0,"[None, None, None]","[u'', 10, -10, 5, 5, 5, 5, -5, 5, 10, -5, 10, -10]",475057,26.0,-6.577176273229301e+18,mouselab-mdp,3
"[4340, 5108, 6336]","[u'left', u'left', u'up']",train_final,"[u'0', u'9', u'10', u'11']","{u'mouseover': {u'state': {u'target': [], u'time': []}, u'edge': {u'target': [], u'time': []}}, u'click': {u'state': {u'target': [u'1', u'5', u'9'], u'time': [2110, 2859, 3450]}, u'edge': {u'target': [], u'time': []}}, u'mouseout': {u'state': {u'target': [], u'time': []}, u'edge': {u'target': [], u'time': []}}}","[5, -5, 5]","[4337, 268, 728]",2.0,"[None, None, None]","[u'', -5, 10, 5, 5, -5, 5, -5, -10, 5, -5, 5, 10]",484707,27.0,-5.812682556850434e+18,mouselab-mdp,3
"[2397, 3177, 4253]","[u'up', u'up', u'right']",train_final,"[u'0', u'1', u'2', u'3']","{u'mouseover': {u'state': {u'target': [], u'time': []}, u'edge': {u'target': [], u'time': []}}, u'click': {u'state': {u'target': [u'1'], u'time': [1440]}, u'edge': {u'target': [], u'time': []}}, u'mouseout': {u'state': {u'target': [], u'time': []}, u'edge': {u'target': [], u'time': []}}}","[10, 5, 10]","[2396, 285, 581]",24.0,"[None, None, None]","[u'', 10, 5, 10, -5, 10, -5, -10, 10, 5, -10, 10, 5]",492753,28.0,3.6441571471145324e+18,mouselab-mdp,3
"[2186, 2799, 3782]","[u'left', u'left', u'up']",train_final,"[u'0', u'9', u'10', u'11']","{u'mouseover': {u'state': {u'target': [], u'time': []}, u'edge': {u'target': [], u'time': []}}, u'click': {u'state': {u'target': [u'9'], u'time': [1141]}, u'edge': {u'target': [], u'time': []}}, u'mouseout': {u'state': {u'target': [], u'time': []}, u'edge': {u'target': [], u'time': []}}}","[5, -5, -5]","[2183, 114, 481]",-6.0,"[None, None, None]","[u'', 5, -10, -5, 10, 10, 5, -10, 5, 5, -5, -5, 5]",499655,29.0,8.034619116489217e+18,mouselab-mdp,3
"[6284, 7694, 9449]","[u'up', u'up', u'left']",test,"[u'0', u'1', u'2', u'4']","{u'mouseover': {u'state': {u'target': [], u'time': []}, u'edge': {u'target': [], u'time': []}}, u'click': {u'state': {u'target': [u'1'], u'time': [4935]}, u'edge': {u'target': [], u'time': []}}, u'mouseout': {u'state': {u'target': [], u'time': []}, u'edge': {u'target': [], u'time': []}}}","[5, 10, -10]","[6281, 905, 1259]",4.0,"[None, None, None]","[u'', 5, 10, -10, -10, 10, 5, -10, 10, 10, 10, 5, -10]",686139,30.0,-8.624537318595376e+18,mouselab-mdp,3
"[2769, 3852, 5257]","[u'right', u'right', u'up']",test,"[u'0', u'5', u'6', u'7']","{u'mouseover': {u'state': {u'target': [], u'time': []}, u'edge': {u'target': [], u'time': []}}, u'click': {u'state': {u'target': [u'5'], u'time': [1622]}, u'edge': {u'target': [], u'time': []}}, u'mouseout': {u'state': {u'target': [], u'time': []}, u'edge': {u'target': [], u'time': []}}}","[10, 10, 10]","[2767, 586, 907]",29.0,"[None, None, None]","[u'', -5, -10, -5, 10, 10, 10, 10, -10, -10, -10, -5, -10]",694597,31.0,2.356810097693599e+18,mouselab-mdp,3
