action_times,actions,block,path,queries,rewards,rt,score,simulation_mode,state_rewards,time_elapsed,trial_index,trial_time,trial_id,trial_type,pid
"[7588, 13856, 15790]","[u'left', u'left', u'up']",test,"[u'0', u'9', u'10', u'11']","{u'mouseover': {u'state': {u'target': [], u'time': []}, u'edge': {u'target': [], u'time': []}}, u'click': {u'state': {u'target': [u'5', u'9'], u'time': [1373, 4210]}, u'edge': {u'target': [], u'time': []}}, u'mouseout': {u'state': {u'target': [], u'time': []}, u'edge': {u'target': [], u'time': []}}}","[-2, -8, -24]","[7579, 5716, 1384]",-36.0,"[None, None, None]","[u'', 4, -8, -48, -48, -4, 4, 24, 24, -2, -8, -24, 48]",73965,0.0,18299.0,-4.56949664606e+18,mouselab-mdp,5
"[2765, 4442, 5550]","[u'right', u'right', u'down']",test,"[u'0', u'5', u'6', u'8']","{u'mouseover': {u'state': {u'target': [], u'time': []}, u'edge': {u'target': [], u'time': []}}, u'click': {u'state': {u'target': [], u'time': []}, u'edge': {u'target': [], u'time': []}}, u'mouseout': {u'state': {u'target': [], u'time': []}, u'edge': {u'target': [], u'time': []}}}","[-2, -4, -24]","[2755, 1108, 558]",-30.0,"[None, None, None]","[u'', 2, 4, -24, -48, -2, -4, -24, -24, -2, 8, 24, -24]",86254,1.0,11074.0,1.18238643611e+16,mouselab-mdp,5
"[699, 2253, 3369]","[u'right', u'right', u'up']",test,"[u'0', u'5', u'6', u'7']","{u'mouseover': {u'state': {u'target': [], u'time': []}, u'edge': {u'target': [], u'time': []}}, u'click': {u'state': {u'target': [], u'time': []}, u'edge': {u'target': [], u'time': []}}, u'mouseout': {u'state': {u'target': [], u'time': []}, u'edge': {u'target': [], u'time': []}}}","[-4, -8, -48]","[688, 1002, 570]",-60.0,"[None, None, None]","[u'', 2, -4, 24, -48, -4, -8, -48, -48, -4, 4, -48, 48]",98613,2.0,11158.0,2.1183359843e+18,mouselab-mdp,5
"[511, 1886, 3046]","[u'up', u'up', u'right']",test,"[u'0', u'1', u'2', u'3']","{u'mouseover': {u'state': {u'target': [], u'time': []}, u'edge': {u'target': [], u'time': []}}, u'click': {u'state': {u'target': [], u'time': []}, u'edge': {u'target': [], u'time': []}}, u'mouseout': {u'state': {u'target': [], u'time': []}, u'edge': {u'target': [], u'time': []}}}","[-4, 4, 24]","[500, 817, 611]",24.0,"[None, None, None]","[u'', -4, 4, 24, -24, -2, 4, 48, -24, -4, -8, -48, 48]",109570,3.0,9750.0,8.58865579534e+17,mouselab-mdp,5
"[414, 1532, 3776]","[u'up', u'up', u'right']",test,"[u'0', u'1', u'2', u'3']","{u'mouseover': {u'state': {u'target': [], u'time': []}, u'edge': {u'target': [], u'time': []}}, u'click': {u'state': {u'target': [], u'time': []}, u'edge': {u'target': [], u'time': []}}, u'mouseout': {u'state': {u'target': [], u'time': []}, u'edge': {u'target': [], u'time': []}}}","[-2, 4, -48]","[404, 576, 1704]",-46.0,"[None, None, None]","[u'', -2, 4, -48, -24, 2, 4, 24, 24, -2, -4, 48, -24]",119593,4.0,8225.0,7.45732429498e+18,mouselab-mdp,5
"[472, 1482, 2359]","[u'up', u'up', u'left']",test,"[u'0', u'1', u'2', u'4']","{u'mouseover': {u'state': {u'target': [], u'time': []}, u'edge': {u'target': [], u'time': []}}, u'click': {u'state': {u'target': [], u'time': []}, u'edge': {u'target': [], u'time': []}}, u'mouseout': {u'state': {u'target': [], u'time': []}, u'edge': {u'target': [], u'time': []}}}","[2, -4, -24]","[463, 477, 321]",-26.0,"[None, None, None]","[u'', 2, -4, 24, -24, -2, 8, 24, 48, 4, -4, 48, 48]",131089,5.0,10302.0,5.2467434854e+18,mouselab-mdp,5
"[380, 1403, 2341]","[u'left', u'left', u'up']",test,"[u'0', u'9', u'10', u'11']","{u'mouseover': {u'state': {u'target': [], u'time': []}, u'edge': {u'target': [], u'time': []}}, u'click': {u'state': {u'target': [], u'time': []}, u'edge': {u'target': [], u'time': []}}, u'mouseout': {u'state': {u'target': [], u'time': []}, u'edge': {u'target': [], u'time': []}}}","[4, -8, 48]","[371, 482, 403]",44.0,"[None, None, None]","[u'', -4, 4, -24, -24, -4, -8, 24, -24, 4, -8, 48, -48]",143096,6.0,10777.0,4.60924718032e+17,mouselab-mdp,5
"[436, 1586, 2623]","[u'left', u'left', u'up']",test,"[u'0', u'9', u'10', u'11']","{u'mouseover': {u'state': {u'target': [], u'time': []}, u'edge': {u'target': [], u'time': []}}, u'click': {u'state': {u'target': [], u'time': []}, u'edge': {u'target': [], u'time': []}}, u'mouseout': {u'state': {u'target': [], u'time': []}, u'edge': {u'target': [], u'time': []}}}","[2, -8, -24]","[426, 594, 498]",-30.0,"[None, None, None]","[u'', 2, -4, 48, 24, -2, -4, 24, 24, 2, -8, -24, 24]",155216,7.0,10917.0,5.56601214792e+17,mouselab-mdp,5
"[4207, 5170, 6141]","[u'right', u'right', u'down']",test,"[u'0', u'5', u'6', u'8']","{u'mouseover': {u'state': {u'target': [], u'time': []}, u'edge': {u'target': [], u'time': []}}, u'click': {u'state': {u'target': [u'5'], u'time': [2963]}, u'edge': {u'target': [], u'time': []}}, u'mouseout': {u'state': {u'target': [], u'time': []}, u'edge': {u'target': [], u'time': []}}}","[2, 4, -48]","[4199, 407, 427]",-43.0,"[None, None, None]","[u'', 4, -4, -24, 24, 2, 4, -24, -48, 4, -8, 48, -48]",167063,8.0,9214.0,4.25168764169e+18,mouselab-mdp,5
"[1429, 2306, 3121]","[u'right', u'right', u'up']",test,"[u'0', u'5', u'6', u'7']","{u'mouseover': {u'state': {u'target': [], u'time': []}, u'edge': {u'target': [], u'time': []}}, u'click': {u'state': {u'target': [], u'time': []}, u'edge': {u'target': [], u'time': []}}, u'mouseout': {u'state': {u'target': [], u'time': []}, u'edge': {u'target': [], u'time': []}}}","[2, 8, -24]","[1418, 338, 269]",-14.0,"[None, None, None]","[u'', 2, 8, -48, -24, 2, 8, -24, -48, 4, -4, 24, -48]",177054,9.0,8794.0,4.95354184513e+17,mouselab-mdp,5
"[2114, 2961, 3675]","[u'up', u'up', u'left']",test,"[u'0', u'1', u'2', u'4']","{u'mouseover': {u'state': {u'target': [], u'time': []}, u'edge': {u'target': [], u'time': []}}, u'click': {u'state': {u'target': [u'3'], u'time': [649]}, u'edge': {u'target': [], u'time': []}}, u'mouseout': {u'state': {u'target': [], u'time': []}, u'edge': {u'target': [], u'time': []}}}","[-2, -4, -48]","[2104, 305, 169]",-55.0,"[None, None, None]","[u'', -2, -4, -48, -48, 2, -8, -24, -24, 2, 4, 24, 24]",186900,10.0,8660.0,-7.65696612779e+18,mouselab-mdp,5
"[1554, 2360, 3115]","[u'up', u'up', u'left']",test,"[u'0', u'1', u'2', u'4']","{u'mouseover': {u'state': {u'target': [], u'time': []}, u'edge': {u'target': [], u'time': []}}, u'click': {u'state': {u'target': [u'3'], u'time': [368]}, u'edge': {u'target': [], u'time': []}}, u'mouseout': {u'state': {u'target': [], u'time': []}, u'edge': {u'target': [], u'time': []}}}","[4, -4, -48]","[1546, 262, 216]",-49.0,"[None, None, None]","[u'', 4, -4, -48, -48, 4, 8, 24, -24, -2, 8, 48, -48]",197259,11.0,9158.0,-6.97855305918e+18,mouselab-mdp,5
"[1730, 2497, 3140]","[u'up', u'up', u'left']",test,"[u'0', u'1', u'2', u'4']","{u'mouseover': {u'state': {u'target': [], u'time': []}, u'edge': {u'target': [], u'time': []}}, u'click': {u'state': {u'target': [u'3'], u'time': [486]}, u'edge': {u'target': [], u'time': []}}, u'mouseout': {u'state': {u'target': [], u'time': []}, u'edge': {u'target': [], u'time': []}}}","[2, 4, -24]","[1721, 214, 91]",-19.0,"[None, None, None]","[u'', 2, 4, 24, -24, 4, 8, 24, -24, 4, 4, 24, 48]",207857,12.0,9408.0,5.95911582726e+18,mouselab-mdp,5
"[1888, 2692, 3361]","[u'right', u'right', u'up']",test,"[u'0', u'5', u'6', u'7']","{u'mouseover': {u'state': {u'target': [], u'time': []}, u'edge': {u'target': [], u'time': []}}, u'click': {u'state': {u'target': [u'12'], u'time': [632]}, u'edge': {u'target': [], u'time': []}}, u'mouseout': {u'state': {u'target': [], u'time': []}, u'edge': {u'target': [], u'time': []}}}","[-4, 8, 48]","[1878, 252, 121]",51.0,"[None, None, None]","[u'', -2, 8, -24, 24, -4, 8, 48, 24, -2, -4, 24, -48]",219394,13.0,10335.0,2.56147591953e+18,mouselab-mdp,5
"[1255, 1947, 2547]","[u'right', u'right', u'down']",test,"[u'0', u'5', u'6', u'8']","{u'mouseover': {u'state': {u'target': [], u'time': []}, u'edge': {u'target': [], u'time': []}}, u'click': {u'state': {u'target': [u'4'], u'time': [423]}, u'edge': {u'target': [], u'time': []}}, u'mouseout': {u'state': {u'target': [], u'time': []}, u'edge': {u'target': [], u'time': []}}}","[2, 4, 24]","[1245, 158, 59]",29.0,"[None, None, None]","[u'', -2, 8, 24, -48, 2, 4, -24, 24, -2, -8, 48, -24]",229176,14.0,8548.0,6.28255860945e+18,mouselab-mdp,5
"[1284, 1973, 2567]","[u'right', u'right', u'up']",test,"[u'0', u'5', u'6', u'7']","{u'mouseover': {u'state': {u'target': [], u'time': []}, u'edge': {u'target': [], u'time': []}}, u'click': {u'state': {u'target': [u'11'], u'time': [631]}, u'edge': {u'target': [], u'time': []}}, u'mouseout': {u'state': {u'target': [], u'time': []}, u'edge': {u'target': [], u'time': []}}}","[-4, 8, -48]","[1278, 131, 58]",-45.0,"[None, None, None]","[u'', -4, 8, -24, -48, -4, 8, -48, 48, 4, -8, -24, 48]",239758,15.0,9483.0,-1.41484517897e+18,mouselab-mdp,5
"[978, 1722, 2432]","[u'up', u'up', u'right']",test,"[u'0', u'1', u'2', u'3']","{u'mouseover': {u'state': {u'target': [], u'time': []}, u'edge': {u'target': [], u'time': []}}, u'click': {u'state': {u'target': [], u'time': []}, u'edge': {u'target': [], u'time': []}}, u'mouseout': {u'state': {u'target': [], u'time': []}, u'edge': {u'target': [], u'time': []}}}","[-2, -4, 48]","[968, 199, 159]",42.0,"[None, None, None]","[u'', -2, -4, 48, -24, 2, -4, 48, 24, -2, -8, -24, -24]",250344,16.0,9400.0,2.59386444745e+18,mouselab-mdp,5
"[351, 962, 1759]","[u'left', u'left', u'down']",test,"[u'0', u'9', u'10', u'12']","{u'mouseover': {u'state': {u'target': [], u'time': []}, u'edge': {u'target': [], u'time': []}}, u'click': {u'state': {u'target': [], u'time': []}, u'edge': {u'target': [], u'time': []}}, u'mouseout': {u'state': {u'target': [], u'time': []}, u'edge': {u'target': [], u'time': []}}}","[4, -4, 24]","[341, 61, 275]",24.0,"[None, None, None]","[u'', -2, -4, 24, -48, -4, 8, -24, -24, 4, -4, -48, 24]",260276,17.0,8741.0,1.39930365593e+18,mouselab-mdp,5
"[463, 1133, 1726]","[u'up', u'up', u'left']",test,"[u'0', u'1', u'2', u'4']","{u'mouseover': {u'state': {u'target': [], u'time': []}, u'edge': {u'target': [], u'time': []}}, u'click': {u'state': {u'target': [], u'time': []}, u'edge': {u'target': [], u'time': []}}, u'mouseout': {u'state': {u'target': [], u'time': []}, u'edge': {u'target': [], u'time': []}}}","[4, 4, -48]","[457, 122, 64]",-40.0,"[None, None, None]","[u'', 4, 4, 48, -48, -2, -8, 48, -24, -4, -8, 24, -48]",270909,18.0,9534.0,-4.67008033733e+18,mouselab-mdp,5
"[880, 1668, 2319]","[u'right', u'right', u'up']",test,"[u'0', u'5', u'6', u'7']","{u'mouseover': {u'state': {u'target': [], u'time': []}, u'edge': {u'target': [], u'time': []}}, u'click': {u'state': {u'target': [], u'time': []}, u'edge': {u'target': [], u'time': []}}, u'mouseout': {u'state': {u'target': [], u'time': []}, u'edge': {u'target': [], u'time': []}}}","[-2, -4, 24]","[871, 237, 121]",18.0,"[None, None, None]","[u'', 4, -4, -48, 24, -2, -4, 24, 48, 4, -4, 48, -48]",281433,19.0,9325.0,3.20588371627e+17,mouselab-mdp,5
"[2878, 3551, 4462]","[u'up', u'up', u'left']",test,"[u'0', u'1', u'2', u'4']","{u'mouseover': {u'state': {u'target': [], u'time': []}, u'edge': {u'target': [], u'time': []}}, u'click': {u'state': {u'target': [u'4'], u'time': [730]}, u'edge': {u'target': [], u'time': []}}, u'mouseout': {u'state': {u'target': [], u'time': []}, u'edge': {u'target': [], u'time': []}}}","[-2, 4, 24]","[2868, 124, 368]",25.0,"[None, None, None]","[u'', -2, 4, 48, 24, -4, 8, -48, 24, 4, -8, 24, 24]",293450,20.0,10821.0,-1.46177589383e+18,mouselab-mdp,5
"[2662, 3470, 4181]","[u'up', u'up', u'right']",test,"[u'0', u'1', u'2', u'3']","{u'mouseover': {u'state': {u'target': [], u'time': []}, u'edge': {u'target': [], u'time': []}}, u'click': {u'state': {u'target': [u'11'], u'time': [550]}, u'edge': {u'target': [], u'time': []}}, u'mouseout': {u'state': {u'target': [], u'time': []}, u'edge': {u'target': [], u'time': []}}}","[-4, -4, -48]","[2652, 251, 177]",-57.0,"[None, None, None]","[u'', -4, -4, -48, -48, -2, -8, 24, 48, 2, 4, -24, -48]",303924,21.0,9287.0,-1.84824368346e+18,mouselab-mdp,5
"[1828, 2546, 3357]","[u'right', u'right', u'down']",test,"[u'0', u'5', u'6', u'8']","{u'mouseover': {u'state': {u'target': [], u'time': []}, u'edge': {u'target': [], u'time': []}}, u'click': {u'state': {u'target': [u'8'], u'time': [1092]}, u'edge': {u'target': [], u'time': []}}, u'mouseout': {u'state': {u'target': [], u'time': []}, u'edge': {u'target': [], u'time': []}}}","[-4, -4, 24]","[1818, 177, 270]",15.0,"[None, None, None]","[u'', -4, -8, -48, -48, -4, -4, 48, 24, 4, 4, 48, -48]",314360,22.0,9239.0,-9.06308480017e+18,mouselab-mdp,5
"[1170, 2401, 3270]","[u'left', u'left', u'down']",test,"[u'0', u'9', u'10', u'12']","{u'mouseover': {u'state': {u'target': [], u'time': []}, u'edge': {u'target': [], u'time': []}}, u'click': {u'state': {u'target': [u'12'], u'time': [379]}, u'edge': {u'target': [], u'time': []}}, u'mouseout': {u'state': {u'target': [], u'time': []}, u'edge': {u'target': [], u'time': []}}}","[-2, -4, 24]","[1162, 683, 318]",17.0,"[None, None, None]","[u'', 4, 4, -48, 48, -2, 4, -48, -24, -2, -4, -48, 24]",324618,23.0,9044.0,-5.00680981918e+18,mouselab-mdp,5
"[1358, 2110, 2751]","[u'up', u'up', u'left']",test,"[u'0', u'1', u'2', u'4']","{u'mouseover': {u'state': {u'target': [], u'time': []}, u'edge': {u'target': [], u'time': []}}, u'click': {u'state': {u'target': [u'3'], u'time': [570]}, u'edge': {u'target': [], u'time': []}}, u'mouseout': {u'state': {u'target': [], u'time': []}, u'edge': {u'target': [], u'time': []}}}","[2, 4, 48]","[1348, 215, 88]",53.0,"[None, None, None]","[u'', 2, 4, -48, 48, -4, 4, -48, -48, 2, -4, 24, 48]",334111,24.0,8297.0,-5.8494341666e+18,mouselab-mdp,5
"[3207, 3892, 4533]","[u'right', u'right', u'up']",test,"[u'0', u'5', u'6', u'7']","{u'mouseover': {u'state': {u'target': [], u'time': []}, u'edge': {u'target': [], u'time': []}}, u'click': {u'state': {u'target': [u'6', u'7'], u'time': [843, 1942]}, u'edge': {u'target': [], u'time': []}}, u'mouseout': {u'state': {u'target': [], u'time': []}, u'edge': {u'target': [], u'time': []}}}","[-2, -4, 48]","[3202, 142, 100]",40.0,"[None, None, None]","[u'', -4, 4, 24, 24, -2, -4, 48, -24, -4, 8, -48, 48]",345275,25.0,10064.0,-4.8746661358e+18,mouselab-mdp,5
"[1739, 2505, 3253]","[u'left', u'left', u'up']",test,"[u'0', u'9', u'10', u'11']","{u'mouseover': {u'state': {u'target': [], u'time': []}, u'edge': {u'target': [], u'time': []}}, u'click': {u'state': {u'target': [u'11'], u'time': [418]}, u'edge': {u'target': [], u'time': []}}, u'mouseout': {u'state': {u'target': [], u'time': []}, u'edge': {u'target': [], u'time': []}}}","[-2, 8, 48]","[1729, 233, 213]",53.0,"[None, None, None]","[u'', 2, 4, -48, -24, -4, -8, 24, -48, -2, 8, 48, -24]",355763,26.0,9291.0,-8.80678964296e+18,mouselab-mdp,5
"[2496, 3195, 3809]","[u'up', u'up', u'right']",test,"[u'0', u'1', u'2', u'3']","{u'mouseover': {u'state': {u'target': [], u'time': []}, u'edge': {u'target': [], u'time': []}}, u'click': {u'state': {u'target': [u'4', u'3'], u'time': [490, 1266]}, u'edge': {u'target': [], u'time': []}}, u'mouseout': {u'state': {u'target': [], u'time': []}, u'edge': {u'target': [], u'time': []}}}","[2, 8, 48]","[2486, 170, 85]",56.0,"[None, None, None]","[u'', 2, 8, 48, -24, -4, -4, -48, 24, -4, -8, -48, -24]",366336,27.0,9365.0,2.37271076103e+18,mouselab-mdp,5
"[8237, 9107, 9975]","[u'up', u'up', u'left']",test,"[u'0', u'1', u'2', u'4']","{u'mouseover': {u'state': {u'target': [], u'time': []}, u'edge': {u'target': [], u'time': []}}, u'click': {u'state': {u'target': [u'12', u'11', u'4', u'3', u'7', u'8'], u'time': [461, 1262, 1975, 2682, 3428, 4218]}, u'edge': {u'target': [], u'time': []}}, u'mouseout': {u'state': {u'target': [], u'time': []}, u'edge': {u'target': [], u'time': []}}}","[2, 4, 24]","[8230, 321, 321]",24.0,"[None, None, None]","[u'', 2, 4, -24, 24, 4, 8, -48, -48, -4, -4, -48, -24]",379562,28.0,12017.0,-7.78403282575e+18,mouselab-mdp,5
"[5565, 6296, 6906]","[u'left', u'left', u'down']",test,"[u'0', u'9', u'10', u'12']","{u'mouseover': {u'state': {u'target': [], u'time': []}, u'edge': {u'target': [], u'time': []}}, u'click': {u'state': {u'target': [u'11', u'3', u'4', u'12'], u'time': [1503, 2457, 3234, 4442]}, u'edge': {u'target': [], u'time': []}}, u'mouseout': {u'state': {u'target': [], u'time': []}, u'edge': {u'target': [], u'time': []}}}","[-4, 8, 48]","[5556, 176, 68]",48.0,"[None, None, None]","[u'', 2, 4, 24, -24, 4, -8, 48, -24, -4, 8, -48, 48]",390129,29.0,9385.0,5.01038116734e+18,mouselab-mdp,5
"[11898, 12736, 13411]","[u'up', u'up', u'right']",test,"[u'0', u'1', u'2', u'3']","{u'mouseover': {u'state': {u'target': [], u'time': []}, u'edge': {u'target': [], u'time': []}}, u'click': {u'state': {u'target': [u'1', u'2', u'4', u'3', u'5', u'6', u'7', u'8', u'9', u'10', u'11', u'12'], u'time': [767, 1346, 2363, 3314, 3926, 4667, 5282, 6154, 7175, 7767, 8466, 9621]}, u'edge': {u'target': [], u'time': []}}, u'mouseout': {u'state': {u'target': [], u'time': []}, u'edge': {u'target': [], u'time': []}}}","[-4, 4, 48]","[11891, 339, 182]",36.0,"[None, None, None]","[u'', -4, 4, 48, -48, -4, 4, -24, 24, -4, -8, 24, 24]",134997,0.0,15626.0,-5.99530113684e+18,mouselab-mdp,6
"[11842, 13004, 13626]","[u'left', u'left', u'up']",test,"[u'0', u'9', u'10', u'11']","{u'mouseover': {u'state': {u'target': [], u'time': []}, u'edge': {u'target': [], u'time': []}}, u'click': {u'state': {u'target': [u'3', u'2', u'4', u'1', u'5', u'7', u'6', u'8', u'9', u'10', u'11', u'12'], u'time': [3037, 3680, 4295, 4831, 5347, 6702, 7169, 8134, 8860, 9490, 10128, 10783]}, u'edge': {u'target': [], u'time': []}}, u'mouseout': {u'state': {u'target': [], u'time': []}, u'edge': {u'target': [], u'time': []}}}","[-2, 8, 24]","[11837, 656, 113]",18.0,"[None, None, None]","[u'', 2, 4, -24, -48, -2, -4, -24, -24, -2, 8, 24, -24]",151102,1.0,15050.0,1.18238643611e+16,mouselab-mdp,6
"[8623, 9494, 10374]","[u'left', u'left', u'up']",test,"[u'0', u'9', u'10', u'11']","{u'mouseover': {u'state': {u'target': [], u'time': []}, u'edge': {u'target': [], u'time': []}}, u'click': {u'state': {u'target': [u'7', u'8', u'3', u'4', u'11', u'12'], u'time': [1280, 2105, 3140, 4378, 5119, 6444]}, u'edge': {u'target': [], u'time': []}}, u'mouseout': {u'state': {u'target': [], u'time': []}, u'edge': {u'target': [], u'time': []}}}","[-2, -4, 48]","[8615, 373, 387]",36.0,"[None, None, None]","[u'', -2, 4, -48, -24, 2, 4, 24, 24, -2, -4, 48, -24]",164171,2.0,12011.0,7.45732429498e+18,mouselab-mdp,6
"[10029, 10836, 11350]","[u'right', u'right', u'up']",test,"[u'0', u'5', u'6', u'7']","{u'mouseover': {u'state': {u'target': [], u'time': []}, u'edge': {u'target': [], u'time': []}}, u'click': {u'state': {u'target': [u'4', u'3', u'1', u'7', u'8', u'5', u'6'], u'time': [1382, 3454, 5393, 6482, 7089, 8749, 9365]}, u'edge': {u'target': [], u'time': []}}, u'mouseout': {u'state': {u'target': [], u'time': []}, u'edge': {u'target': [], u'time': []}}}","[-4, 4, 48]","[10027, 290, 5]",41.0,"[None, None, None]","[u'', 2, -4, 24, -48, -4, 4, 48, 48, 4, 4, -48, -24]",178284,3.0,13064.0,1.70803683189e+18,mouselab-mdp,6
"[11617, 12188, 12693]","[u'right', u'right', u'up']",test,"[u'0', u'5', u'6', u'7']","{u'mouseover': {u'state': {u'target': [], u'time': []}, u'edge': {u'target': [], u'time': []}}, u'click': {u'state': {u'target': [u'11', u'12', u'7', u'8', u'3', u'4', u'1', u'2', u'5', u'6'], u'time': [1176, 1793, 2510, 3326, 4828, 5593, 6635, 7012, 9673, 10312]}, u'edge': {u'target': [], u'time': []}}, u'mouseout': {u'state': {u'target': [], u'time': []}, u'edge': {u'target': [], u'time': []}}}","[2, -4, 48]","[11615, 70, 6]",36.0,"[None, None, None]","[u'', -2, -4, 48, -24, 2, -4, 48, 24, -2, -8, -24, -24]",193169,4.0,13841.0,2.59386444745e+18,mouselab-mdp,6
"[10105, 11140, 12139]","[u'left', u'left', u'down']",test,"[u'0', u'9', u'10', u'12']","{u'mouseover': {u'state': {u'target': [], u'time': []}, u'edge': {u'target': [], u'time': []}}, u'click': {u'state': {u'target': [u'3', u'7', u'8', u'4', u'11', u'12', u'10', u'2'], u'time': [947, 1656, 2405, 3820, 4560, 5439, 6655, 8001]}, u'edge': {u'target': [], u'time': []}}, u'mouseout': {u'state': {u'target': [], u'time': []}, u'edge': {u'target': [], u'time': []}}}","[4, 8, 48]","[10100, 514, 480]",52.0,"[None, None, None]","[u'', 2, -8, -24, 48, -2, -4, -24, -24, 4, 8, 24, 48]",208616,5.0,14377.0,6.51676073779e+18,mouselab-mdp,6
"[12259, 13191, 13710]","[u'left', u'left', u'down']",test,"[u'0', u'9', u'10', u'12']","{u'mouseover': {u'state': {u'target': [], u'time': []}, u'edge': {u'target': [], u'time': []}}, u'click': {u'state': {u'target': [u'4', u'2', u'5', u'9', u'12', u'11', u'10', u'8', u'7', u'6'], u'time': [1675, 2171, 2958, 3792, 4462, 5170, 5659, 7019, 7800, 10304]}, u'edge': {u'target': [], u'time': []}}, u'mouseout': {u'state': {u'target': [], u'time': []}, u'edge': {u'target': [], u'time': []}}}","[-4, 8, 48]","[12257, 433, 18]",42.0,"[None, None, None]","[u'', 2, 4, 24, -24, 4, -8, 48, -24, -4, 8, -48, 48]",224657,6.0,14999.0,5.01038116734e+18,mouselab-mdp,6
"[11221, 11828, 12390]","[u'right', u'right', u'down']",test,"[u'0', u'5', u'6', u'8']","{u'mouseover': {u'state': {u'target': [], u'time': []}, u'edge': {u'target': [], u'time': []}}, u'click': {u'state': {u'target': [u'4', u'3', u'11', u'7', u'8', u'6', u'12'], u'time': [2231, 2854, 3741, 4554, 5478, 7596, 9364]}, u'edge': {u'target': [], u'time': []}}, u'mouseout': {u'state': {u'target': [], u'time': []}, u'edge': {u'target': [], u'time': []}}}","[-4, -8, 48]","[11219, 110, 41]",29.0,"[None, None, None]","[u'', 4, 8, -24, -24, -4, -8, -48, 48, 2, -8, -24, -48]",240114,7.0,14416.0,2.63044322054e+18,mouselab-mdp,6
"[4510, 5462, 5995]","[u'left', u'left', u'down']",test,"[u'0', u'9', u'10', u'12']","{u'mouseover': {u'state': {u'target': [], u'time': []}, u'edge': {u'target': [], u'time': []}}, u'click': {u'state': {u'target': [u'9', u'12', u'10'], u'time': [930, 1893, 3490]}, u'edge': {u'target': [], u'time': []}}, u'mouseout': {u'state': {u'target': [], u'time': []}, u'edge': {u'target': [], u'time': []}}}","[-4, 8, 48]","[4507, 438, 21]",49.0,"[None, None, None]","[u'', -4, 4, 24, 24, -2, -4, 48, -24, -4, 8, -48, 48]",250687,8.0,9512.0,-4.8746661358e+18,mouselab-mdp,6
"[6203, 7195, 8000]","[u'right', u'right', u'down']",test,"[u'0', u'5', u'6', u'8']","{u'mouseover': {u'state': {u'target': [], u'time': []}, u'edge': {u'target': [], u'time': []}}, u'click': {u'state': {u'target': [u'4', u'3', u'7', u'8', u'6'], u'time': [1360, 2084, 2810, 3602, 5308]}, u'edge': {u'target': [], u'time': []}}, u'mouseout': {u'state': {u'target': [], u'time': []}, u'edge': {u'target': [], u'time': []}}}","[-2, 8, 48]","[6200, 482, 304]",49.0,"[None, None, None]","[u'', -4, -8, 24, -24, -2, 8, 24, 48, 4, -4, 24, -48]",260999,9.0,9266.0,-1.10044903072e+18,mouselab-mdp,6
"[4691, 5320, 5943]","[u'left', u'left', u'up']",test,"[u'0', u'9', u'10', u'11']","{u'mouseover': {u'state': {u'target': [], u'time': []}, u'edge': {u'target': [], u'time': []}}, u'click': {u'state': {u'target': [u'11', u'10'], u'time': [1067, 3473]}, u'edge': {u'target': [], u'time': []}}, u'mouseout': {u'state': {u'target': [], u'time': []}, u'edge': {u'target': [], u'time': []}}}","[-2, 4, 48]","[4666, 131, 122]",48.0,"[None, None, None]","[u'', 4, -4, 48, -48, -2, -8, 24, 24, -2, 4, 48, -48]",271375,10.0,9333.0,8.0458297312e+18,mouselab-mdp,6
"[4900, 5790, 6502]","[u'right', u'right', u'down']",test,"[u'0', u'5', u'6', u'8']","{u'mouseover': {u'state': {u'target': [], u'time': []}, u'edge': {u'target': [], u'time': []}}, u'click': {u'state': {u'target': [u'3', u'11', u'8', u'6'], u'time': [617, 2012, 3008, 3903]}, u'edge': {u'target': [], u'time': []}}, u'mouseout': {u'state': {u'target': [], u'time': []}, u'edge': {u'target': [], u'time': []}}}","[-4, 8, 48]","[4897, 373, 204]",48.0,"[None, None, None]","[u'', 2, 4, -24, 48, -4, 8, -48, 48, 2, -4, 24, -24]",282810,11.0,10394.0,-8.3276713645e+18,mouselab-mdp,6
"[8372, 9120, 9721]","[u'left', u'left', u'down']",test,"[u'0', u'9', u'10', u'12']","{u'mouseover': {u'state': {u'target': [], u'time': []}, u'edge': {u'target': [], u'time': []}}, u'click': {u'state': {u'target': [u'8', u'7', u'4', u'3', u'11', u'12', u'10'], u'time': [643, 1827, 2848, 3891, 5277, 6079, 7129]}, u'edge': {u'target': [], u'time': []}}, u'mouseout': {u'state': {u'target': [], u'time': []}, u'edge': {u'target': [], u'time': []}}}","[4, 4, 48]","[8367, 242, 95]",49.0,"[None, None, None]","[u'', 2, 4, 24, -24, 4, 8, 24, -24, 4, 4, 24, 48]",294799,12.0,10946.0,5.95911582726e+18,mouselab-mdp,6
"[5178, 5766, 6294]","[u'up', u'up', u'left']",test,"[u'0', u'1', u'2', u'4']","{u'mouseover': {u'state': {u'target': [], u'time': []}, u'edge': {u'target': [], u'time': []}}, u'click': {u'state': {u'target': [u'1', u'3', u'4', u'2'], u'time': [1077, 1902, 3209, 4472]}, u'edge': {u'target': [], u'time': []}}, u'mouseout': {u'state': {u'target': [], u'time': []}, u'edge': {u'target': [], u'time': []}}}","[4, 4, 48]","[5173, 92, 36]",52.0,"[None, None, None]","[u'', 4, 4, -48, 48, -2, 4, -48, -24, -2, -4, -48, 24]",304393,13.0,8537.0,-5.00680981918e+18,mouselab-mdp,6
"[11286, 12070, 12732]","[u'up', u'up', u'left']",test,"[u'0', u'1', u'2', u'4']","{u'mouseover': {u'state': {u'target': [], u'time': []}, u'edge': {u'target': [], u'time': []}}, u'click': {u'state': {u'target': [u'11', u'8', u'7', u'4', u'2', u'12', u'3'], u'time': [826, 1878, 2617, 3621, 4641, 5710, 10217]}, u'edge': {u'target': [], u'time': []}}, u'mouseout': {u'state': {u'target': [], u'time': []}, u'edge': {u'target': [], u'time': []}}}","[-2, -8, 48]","[11283, 275, 154]",31.0,"[None, None, None]","[u'', -2, -8, 24, 48, -2, 8, -24, -24, -2, -4, 24, -24]",319907,14.0,14470.0,-3.60340228201e+18,mouselab-mdp,6
"[20375, 20950, 21578]","[u'left', u'left', u'up']",test,"[u'0', u'9', u'10', u'11']","{u'mouseover': {u'state': {u'target': [], u'time': []}, u'edge': {u'target': [], u'time': []}}, u'click': {u'state': {u'target': [u'4', u'3', u'8', u'7', u'11', u'1', u'12', u'5', u'2', u'6', u'9', u'10'], u'time': [1077, 2286, 3903, 4706, 6046, 8211, 8996, 12767, 14309, 15389, 16575, 17399]}, u'edge': {u'target': [], u'time': []}}, u'mouseout': {u'state': {u'target': [], u'time': []}, u'edge': {u'target': [], u'time': []}}}","[2, 4, 24]","[20368, 56, 117]",18.0,"[None, None, None]","[u'', 2, -4, 24, -48, -2, -8, 24, -48, 2, 4, 24, -48]",343671,15.0,22716.0,2.65301876191e+18,mouselab-mdp,6
"[8584, 9215, 9772]","[u'left', u'left', u'down']",test,"[u'0', u'9', u'10', u'12']","{u'mouseover': {u'state': {u'target': [], u'time': []}, u'edge': {u'target': [], u'time': []}}, u'click': {u'state': {u'target': [u'11', u'8', u'7', u'4', u'3', u'12', u'10'], u'time': [867, 1676, 2719, 3707, 4696, 6409, 7507]}, u'edge': {u'target': [], u'time': []}}, u'mouseout': {u'state': {u'target': [], u'time': []}, u'edge': {u'target': [], u'time': []}}}","[-4, 4, 48]","[8580, 123, 47]",41.0,"[None, None, None]","[u'', 2, -4, 24, -48, -4, -8, -48, -48, -4, 4, -48, 48]",355849,16.0,11110.0,2.1183359843e+18,mouselab-mdp,6
"[5303, 5866, 6451]","[u'up', u'up', u'left']",test,"[u'0', u'1', u'2', u'4']","{u'mouseover': {u'state': {u'target': [], u'time': []}, u'edge': {u'target': [], u'time': []}}, u'click': {u'state': {u'target': [u'12', u'3', u'4', u'2'], u'time': [810, 1909, 2672, 4432]}, u'edge': {u'target': [], u'time': []}}, u'mouseout': {u'state': {u'target': [], u'time': []}, u'edge': {u'target': [], u'time': []}}}","[4, 4, 48]","[5299, 64, 82]",52.0,"[None, None, None]","[u'', 4, 4, -48, 48, 4, 4, -24, -24, 2, -8, 48, -24]",365023,17.0,8129.0,3.80267392762e+18,mouselab-mdp,6
"[8745, 9351, 9969]","[u'left', u'left', u'down']",test,"[u'0', u'9', u'10', u'12']","{u'mouseover': {u'state': {u'target': [], u'time': []}, u'edge': {u'target': [], u'time': []}}, u'click': {u'state': {u'target': [u'4', u'8', u'3', u'2', u'1', u'11', u'12', u'10'], u'time': [713, 1445, 2305, 3509, 4265, 5496, 6256, 7169]}, u'edge': {u'target': [], u'time': []}}, u'mouseout': {u'state': {u'target': [], u'time': []}, u'edge': {u'target': [], u'time': []}}}","[4, 8, 48]","[8742, 101, 119]",52.0,"[None, None, None]","[u'', -2, -4, 48, -48, 2, 4, -48, 24, 4, 8, -48, 48]",377028,18.0,10949.0,-2.81709899867e+18,mouselab-mdp,6
"[8447, 9235, 10012]","[u'up', u'up', u'right']",test,"[u'0', u'1', u'2', u'3']","{u'mouseover': {u'state': {u'target': [], u'time': []}, u'edge': {u'target': [], u'time': []}}, u'click': {u'state': {u'target': [u'4', u'3', u'8', u'7', u'11', u'12'], u'time': [800, 1920, 3462, 4100, 5403, 6491]}, u'edge': {u'target': [], u'time': []}}, u'mouseout': {u'state': {u'target': [], u'time': []}, u'edge': {u'target': [], u'time': []}}}","[2, -4, 24]","[8441, 284, 261]",16.0,"[None, None, None]","[u'', 2, -4, 24, 24, -4, 4, -24, -24, -2, 4, -24, -48]",388875,19.0,10796.0,7.86254308938e+18,mouselab-mdp,6
"[10362, 10975, 11596]","[u'left', u'left', u'up']",test,"[u'0', u'9', u'10', u'11']","{u'mouseover': {u'state': {u'target': [], u'time': []}, u'edge': {u'target': [], u'time': []}}, u'click': {u'state': {u'target': [u'4', u'3', u'8', u'7', u'11', u'10', u'12'], u'time': [1282, 2387, 3090, 3821, 5073, 7605, 9248]}, u'edge': {u'target': [], u'time': []}}, u'mouseout': {u'state': {u'target': [], u'time': []}, u'edge': {u'target': [], u'time': []}}}","[-2, 8, 48]","[10358, 112, 116]",47.0,"[None, None, None]","[u'', 4, -4, -48, -48, 4, 8, 24, -24, -2, 8, 48, -48]",402334,20.0,12419.0,-6.97855305918e+18,mouselab-mdp,6
"[7917, 8430, 9029]","[u'right', u'right', u'down']",test,"[u'0', u'5', u'6', u'8']","{u'mouseover': {u'state': {u'target': [], u'time': []}, u'edge': {u'target': [], u'time': []}}, u'click': {u'state': {u'target': [u'4', u'8', u'6', u'11', u'12', u'3'], u'time': [1127, 2076, 3276, 4453, 5300, 6787]}, u'edge': {u'target': [], u'time': []}}, u'mouseout': {u'state': {u'target': [], u'time': []}, u'edge': {u'target': [], u'time': []}}}","[-2, -8, 48]","[7913, 2, 67]",32.0,"[None, None, None]","[u'', -4, -4, -48, -48, -2, -8, 24, 48, 2, 4, -24, -48]",413263,21.0,9876.0,-1.84824368346e+18,mouselab-mdp,6
"[8057, 8626, 9235]","[u'left', u'left', u'up']",test,"[u'0', u'9', u'10', u'11']","{u'mouseover': {u'state': {u'target': [], u'time': []}, u'edge': {u'target': [], u'time': []}}, u'click': {u'state': {u'target': [u'3', u'4', u'7', u'8', u'11', u'12'], u'time': [944, 1775, 2620, 3357, 4338, 5040]}, u'edge': {u'target': [], u'time': []}}, u'mouseout': {u'state': {u'target': [], u'time': []}, u'edge': {u'target': [], u'time': []}}}","[4, -4, 24]","[8051, 55, 96]",18.0,"[None, None, None]","[u'', 2, 8, -48, -24, 2, 8, -24, -48, 4, -4, 24, -48]",424492,22.0,10183.0,4.95354184513e+17,mouselab-mdp,6
"[10711, 11303, 11864]","[u'up', u'up', u'left']",test,"[u'0', u'1', u'2', u'4']","{u'mouseover': {u'state': {u'target': [], u'time': []}, u'edge': {u'target': [], u'time': []}}, u'click': {u'state': {u'target': [u'11', u'8', u'7', u'3', u'4', u'12', u'2', u'10'], u'time': [1001, 2215, 3032, 4310, 5072, 7105, 8741, 9449]}, u'edge': {u'target': [], u'time': []}}, u'mouseout': {u'state': {u'target': [], u'time': []}, u'edge': {u'target': [], u'time': []}}}","[-2, 4, 24]","[10708, 94, 54]",18.0,"[None, None, None]","[u'', -2, 4, -24, 24, -2, -4, -48, -48, 4, -8, 24, 24]",438086,23.0,12550.0,2.82020194745e+17,mouselab-mdp,6
"[9095, 9710, 10369]","[u'up', u'up', u'right']",test,"[u'0', u'1', u'2', u'3']","{u'mouseover': {u'state': {u'target': [], u'time': []}, u'edge': {u'target': [], u'time': []}}, u'click': {u'state': {u'target': [u'4', u'7', u'8', u'3', u'2', u'12', u'11'], u'time': [2327, 3629, 4367, 5177, 6228, 7302, 7898]}, u'edge': {u'target': [], u'time': []}}, u'mouseout': {u'state': {u'target': [], u'time': []}, u'edge': {u'target': [], u'time': []}}}","[2, -4, 48]","[9087, 98, 141]",39.0,"[None, None, None]","[u'', 2, -4, 48, 24, -2, -4, 24, 24, 2, -8, -24, 24]",450324,24.0,11188.0,5.56601214792e+17,mouselab-mdp,6
"[9143, 9652, 10740]","[u'left', u'left', u'up']",test,"[u'0', u'9', u'10', u'11']","{u'mouseover': {u'state': {u'target': [], u'time': []}, u'edge': {u'target': [], u'time': []}}, u'click': {u'state': {u'target': [u'4', u'3', u'12', u'11', u'10', u'7', u'8'], u'time': [1170, 2157, 2951, 3527, 4725, 6120, 6876]}, u'edge': {u'target': [], u'time': []}}, u'mouseout': {u'state': {u'target': [], u'time': []}, u'edge': {u'target': [], u'time': []}}}","[-2, -8, 48]","[9141, 8, 563]",31.0,"[None, None, None]","[u'', -2, 8, 24, -48, 2, 4, -24, 24, -2, -8, 48, -24]",463068,25.0,11700.0,6.28255860945e+18,mouselab-mdp,6
"[10797, 11330, 11928]","[u'right', u'right', u'down']",test,"[u'0', u'5', u'6', u'8']","{u'mouseover': {u'state': {u'target': [], u'time': []}, u'edge': {u'target': [], u'time': []}}, u'click': {u'state': {u'target': [u'4', u'3', u'11', u'8', u'7', u'12', u'10', u'6'], u'time': [1313, 2416, 3524, 4595, 5391, 6915, 8382, 9447]}, u'edge': {u'target': [], u'time': []}}, u'mouseout': {u'state': {u'target': [], u'time': []}, u'edge': {u'target': [], u'time': []}}}","[4, 8, 24]","[10795, 36, 103]",28.0,"[None, None, None]","[u'', 2, 4, 24, -24, 4, 8, -48, 24, 4, -8, -24, 24]",476974,26.0,12855.0,8.9509461883e+18,mouselab-mdp,6
"[10791, 11485, 12068]","[u'left', u'left', u'down']",test,"[u'0', u'9', u'10', u'12']","{u'mouseover': {u'state': {u'target': [], u'time': []}, u'edge': {u'target': [], u'time': []}}, u'click': {u'state': {u'target': [u'4', u'3', u'11', u'8', u'7', u'12', u'10'], u'time': [849, 1922, 2982, 3846, 4546, 5521, 6376]}, u'edge': {u'target': [], u'time': []}}, u'mouseout': {u'state': {u'target': [], u'time': []}, u'edge': {u'target': [], u'time': []}}}","[-2, -8, 48]","[10785, 177, 76]",31.0,"[None, None, None]","[u'', 4, -8, -48, -48, -4, 4, 24, 24, -2, -8, -24, 48]",490906,27.0,12884.0,-4.56949664606e+18,mouselab-mdp,6
"[8903, 9460, 10076]","[u'right', u'right', u'down']",test,"[u'0', u'5', u'6', u'8']","{u'mouseover': {u'state': {u'target': [], u'time': []}, u'edge': {u'target': [], u'time': []}}, u'click': {u'state': {u'target': [u'11', u'12', u'8', u'6', u'2'], u'time': [1330, 2103, 3565, 4461, 7801]}, u'edge': {u'target': [], u'time': []}}, u'mouseout': {u'state': {u'target': [], u'time': []}, u'edge': {u'target': [], u'time': []}}}","[2, 4, 48]","[8902, 49, 116]",49.0,"[None, None, None]","[u'', 4, -8, 24, 24, 2, 4, 24, 48, -2, 4, 24, -48]",502813,28.0,10861.0,6.72269827856e+18,mouselab-mdp,6
"[3852, 4924, 5519]","[u'right', u'right', u'down']",test,"[u'0', u'5', u'6', u'8']","{u'mouseover': {u'state': {u'target': [], u'time': []}, u'edge': {u'target': [], u'time': []}}, u'click': {u'state': {u'target': [u'7', u'8', u'6'], u'time': [1194, 1973, 3140]}, u'edge': {u'target': [], u'time': []}}, u'mouseout': {u'state': {u'target': [], u'time': []}, u'edge': {u'target': [], u'time': []}}}","[-2, 8, 48]","[3845, 566, 93]",51.0,"[None, None, None]","[u'', 2, -4, 24, -24, -2, 8, 24, 48, 4, -4, 48, 48]",514651,29.0,10797.0,5.2467434854e+18,mouselab-mdp,6
"[33752, 34663, 35594]","[u'right', u'right', u'up']",test,"[u'0', u'5', u'6', u'7']","{u'mouseover': {u'state': {u'target': [], u'time': []}, u'edge': {u'target': [], u'time': []}}, u'click': {u'state': {u'target': [u'5', u'1', u'9', u'7', u'6', u'4'], u'time': [16816, 18710, 19813, 24292, 25368, 31696]}, u'edge': {u'target': [], u'time': []}}, u'mouseout': {u'state': {u'target': [], u'time': []}, u'edge': {u'target': [], u'time': []}}}","[4, -8, 48]","[33743, 381, 394]",38.0,"[None, None, None]","[u'', 2, 4, 24, -24, 4, -8, 48, -24, -4, 8, -48, 48]",216039,0.0,41052.0,5.01038116734e+18,mouselab-mdp,12
"[13718, 14881, 15847]","[u'right', u'right', u'down']",test,"[u'0', u'5', u'6', u'8']","{u'mouseover': {u'state': {u'target': [], u'time': []}, u'edge': {u'target': [], u'time': []}}, u'click': {u'state': {u'target': [u'4', u'11', u'7', u'8', u'6'], u'time': [3995, 7490, 8953, 10432, 12448]}, u'edge': {u'target': [], u'time': []}}, u'mouseout': {u'state': {u'target': [], u'time': []}, u'edge': {u'target': [], u'time': []}}}","[-2, 8, 48]","[13710, 624, 450]",49.0,"[None, None, None]","[u'', -4, -8, 24, -24, -2, 8, 24, 48, 4, -4, 24, -48]",236639,1.0,19503.0,-1.10044903072e+18,mouselab-mdp,12
"[20086, 20925, 21738]","[u'right', u'right', u'down']",test,"[u'0', u'5', u'6', u'8']","{u'mouseover': {u'state': {u'target': [], u'time': []}, u'edge': {u'target': [], u'time': []}}, u'click': {u'state': {u'target': [u'12', u'11', u'8', u'7', u'6', u'5', u'4', u'3', u'2', u'1'], u'time': [3692, 4953, 7083, 8289, 11928, 12837, 14330, 15501, 17210, 18053]}, u'edge': {u'target': [], u'time': []}}, u'mouseout': {u'state': {u'target': [], u'time': []}, u'edge': {u'target': [], u'time': []}}}","[4, 8, 24]","[20081, 320, 296]",26.0,"[None, None, None]","[u'', 2, 4, 24, -24, 4, 8, -48, 24, 4, -8, -24, 24]",260938,2.0,23222.0,8.9509461883e+18,mouselab-mdp,12
"[9207, 9992, 11020]","[u'left', u'left', u'up']",test,"[u'0', u'9', u'10', u'11']","{u'mouseover': {u'state': {u'target': [], u'time': []}, u'edge': {u'target': [], u'time': []}}, u'click': {u'state': {u'target': [u'8', u'3', u'11'], u'time': [2889, 5537, 7257]}, u'edge': {u'target': [], u'time': []}}, u'mouseout': {u'state': {u'target': [], u'time': []}, u'edge': {u'target': [], u'time': []}}}","[-4, -4, 48]","[9203, 274, 506]",37.0,"[None, None, None]","[u'', 2, -4, -24, -24, 4, -8, -48, -48, -4, -4, 48, 48]",275888,3.0,13854.0,-7.91360722647e+18,mouselab-mdp,12
"[13776, 14788, 15714]","[u'right', u'right', u'down']",test,"[u'0', u'5', u'6', u'8']","{u'mouseover': {u'state': {u'target': [], u'time': []}, u'edge': {u'target': [], u'time': []}}, u'click': {u'state': {u'target': [u'7', u'11', u'3', u'4', u'8', u'12', u'6'], u'time': [1672, 2950, 4030, 5404, 6697, 8531, 12559]}, u'edge': {u'target': [], u'time': []}}, u'mouseout': {u'state': {u'target': [], u'time': []}, u'edge': {u'target': [], u'time': []}}}","[-4, 4, 24]","[13773, 492, 397]",17.0,"[None, None, None]","[u'', -2, 4, 24, -24, -4, 4, -24, 24, -4, -8, -24, 24]",294085,4.0,17126.0,-3.14224207546e+18,mouselab-mdp,12
"[4572, 5478, 6431]","[u'up', u'up', u'right']",test,"[u'0', u'1', u'2', u'3']","{u'mouseover': {u'state': {u'target': [], u'time': []}, u'edge': {u'target': [], u'time': []}}, u'click': {u'state': {u'target': [u'3'], u'time': [3089]}, u'edge': {u'target': [], u'time': []}}, u'mouseout': {u'state': {u'target': [], u'time': []}, u'edge': {u'target': [], u'time': []}}}","[-4, 8, 48]","[4567, 392, 421]",51.0,"[None, None, None]","[u'', -4, 8, 48, -24, -2, -4, 24, -48, 4, 4, 48, -48]",304756,5.0,9578.0,7.26324481059e+18,mouselab-mdp,12
"[14563, 15457, 16221]","[u'left', u'left', u'down']",test,"[u'0', u'9', u'10', u'12']","{u'mouseover': {u'state': {u'target': [], u'time': []}, u'edge': {u'target': [], u'time': []}}, u'click': {u'state': {u'target': [u'3', u'4', u'5', u'10', u'11', u'7', u'8', u'12'], u'time': [1941, 3962, 7429, 8937, 10136, 11285, 12168, 13419]}, u'edge': {u'target': [], u'time': []}}, u'mouseout': {u'state': {u'target': [], u'time': []}, u'edge': {u'target': [], u'time': []}}}","[2, 4, 24]","[14553, 369, 233]",22.0,"[None, None, None]","[u'', -2, -4, -48, -48, 2, -8, -24, -24, 2, 4, 24, 24]",323662,6.0,17796.0,-7.65696612779e+18,mouselab-mdp,12
"[8682, 9543, 10608]","[u'up', u'up', u'right']",test,"[u'0', u'1', u'2', u'3']","{u'mouseover': {u'state': {u'target': [], u'time': []}, u'edge': {u'target': [], u'time': []}}, u'click': {u'state': {u'target': [u'8', u'11', u'7', u'12', u'3'], u'time': [1429, 3266, 4719, 6215, 7425]}, u'edge': {u'target': [], u'time': []}}, u'mouseout': {u'state': {u'target': [], u'time': []}, u'edge': {u'target': [], u'time': []}}}","[2, -4, 48]","[8679, 328, 552]",41.0,"[None, None, None]","[u'', 2, -4, 48, 24, -2, -4, 24, 24, 2, -8, -24, 24]",336853,7.0,12108.0,5.56601214792e+17,mouselab-mdp,12
"[4294, 5122, 5980]","[u'left', u'left', u'down']",test,"[u'0', u'9', u'10', u'12']","{u'mouseover': {u'state': {u'target': [], u'time': []}, u'edge': {u'target': [], u'time': []}}, u'click': {u'state': {u'target': [u'3', u'12'], u'time': [1073, 2633]}, u'edge': {u'target': [], u'time': []}}, u'mouseout': {u'state': {u'target': [], u'time': []}, u'edge': {u'target': [], u'time': []}}}","[-2, -8, 48]","[4289, 299, 348]",36.0,"[None, None, None]","[u'', 4, -8, -48, -48, -4, 4, 24, 24, -2, -8, -24, 48]",346728,8.0,8788.0,-4.56949664606e+18,mouselab-mdp,12
"[5207, 6041, 6852]","[u'left', u'left', u'up']",test,"[u'0', u'9', u'10', u'11']","{u'mouseover': {u'state': {u'target': [], u'time': []}, u'edge': {u'target': [], u'time': []}}, u'click': {u'state': {u'target': [u'8', u'11'], u'time': [1757, 4270]}, u'edge': {u'target': [], u'time': []}}, u'mouseout': {u'state': {u'target': [], u'time': []}, u'edge': {u'target': [], u'time': []}}}","[-2, -8, 48]","[5199, 312, 294]",36.0,"[None, None, None]","[u'', -2, 8, 24, -48, 2, 4, -24, 24, -2, -8, 48, -24]",357066,9.0,9218.0,6.28255860945e+18,mouselab-mdp,12
"[8368, 9232, 10291]","[u'up', u'up', u'right']",test,"[u'0', u'1', u'2', u'3']","{u'mouseover': {u'state': {u'target': [], u'time': []}, u'edge': {u'target': [], u'time': []}}, u'click': {u'state': {u'target': [u'11', u'7', u'3', u'4'], u'time': [2330, 3542, 5041, 6612]}, u'edge': {u'target': [], u'time': []}}, u'mouseout': {u'state': {u'target': [], u'time': []}, u'edge': {u'target': [], u'time': []}}}","[2, -4, 24]","[8363, 325, 528]",18.0,"[None, None, None]","[u'', 2, -4, 24, 24, -4, 4, -24, -24, -2, 4, -24, -48]",370192,10.0,12042.0,7.86254308938e+18,mouselab-mdp,12
"[2641, 3430, 4193]","[u'right', u'right', u'down']",test,"[u'0', u'5', u'6', u'8']","{u'mouseover': {u'state': {u'target': [], u'time': []}, u'edge': {u'target': [], u'time': []}}, u'click': {u'state': {u'target': [u'8'], u'time': [1480]}, u'edge': {u'target': [], u'time': []}}, u'mouseout': {u'state': {u'target': [], u'time': []}, u'edge': {u'target': [], u'time': []}}}","[-2, 4, 48]","[2637, 267, 249]",49.0,"[None, None, None]","[u'', 4, 8, -24, 24, -2, 4, -24, 48, 2, -8, 24, 48]",380052,11.0,8775.0,8.86605250045e+18,mouselab-mdp,12
"[9850, 10675, 11601]","[u'up', u'up', u'right']",test,"[u'0', u'1', u'2', u'3']","{u'mouseover': {u'state': {u'target': [], u'time': []}, u'edge': {u'target': [], u'time': []}}, u'click': {u'state': {u'target': [u'12', u'4', u'7', u'8', u'3'], u'time': [1947, 3693, 6001, 6980, 8832]}, u'edge': {u'target': [], u'time': []}}, u'mouseout': {u'state': {u'target': [], u'time': []}, u'edge': {u'target': [], u'time': []}}}","[-2, 4, 48]","[9843, 312, 391]",45.0,"[None, None, None]","[u'', -2, 4, 48, 24, -4, 8, -48, 24, 4, -8, 24, 24]",394471,12.0,13286.0,-1.46177589383e+18,mouselab-mdp,12
"[4782, 5472, 6057]","[u'up', u'up', u'right']",test,"[u'0', u'1', u'2', u'3']","{u'mouseover': {u'state': {u'target': [], u'time': []}, u'edge': {u'target': [], u'time': []}}, u'click': {u'state': {u'target': [u'12', u'3'], u'time': [1680, 3703]}, u'edge': {u'target': [], u'time': []}}, u'mouseout': {u'state': {u'target': [], u'time': []}, u'edge': {u'target': [], u'time': []}}}","[-2, -4, 48]","[4779, 157, 63]",40.0,"[None, None, None]","[u'', -2, -4, 48, -24, 2, -4, 48, 24, -2, -8, -24, -24]",404303,13.0,8747.0,2.59386444745e+18,mouselab-mdp,12
"[6750, 7925, 8741]","[u'left', u'left', u'down']",test,"[u'0', u'9', u'10', u'12']","{u'mouseover': {u'state': {u'target': [], u'time': []}, u'edge': {u'target': [], u'time': []}}, u'click': {u'state': {u'target': [u'4', u'8', u'12'], u'time': [2111, 4024, 5375]}, u'edge': {u'target': [], u'time': []}}, u'mouseout': {u'state': {u'target': [], u'time': []}, u'edge': {u'target': [], u'time': []}}}","[-4, 4, 48]","[6745, 647, 304]",45.0,"[None, None, None]","[u'', 2, -4, 24, -48, -4, -8, -48, -48, -4, 4, -48, 48]",416284,14.0,10903.0,2.1183359843e+18,mouselab-mdp,12
"[4039, 4648, 5439]","[u'up', u'up', u'left']",test,"[u'0', u'1', u'2', u'4']","{u'mouseover': {u'state': {u'target': [], u'time': []}, u'edge': {u'target': [], u'time': []}}, u'click': {u'state': {u'target': [u'8', u'4'], u'time': [1398, 2821]}, u'edge': {u'target': [], u'time': []}}, u'mouseout': {u'state': {u'target': [], u'time': []}, u'edge': {u'target': [], u'time': []}}}","[4, 4, 48]","[4027, 94, 266]",54.0,"[None, None, None]","[u'', 4, 4, -48, 48, -2, 4, -48, -24, -2, -4, -48, 24]",426351,15.0,8977.0,-5.00680981918e+18,mouselab-mdp,12
"[6736, 7277, 8032]","[u'right', u'right', u'up']",test,"[u'0', u'5', u'6', u'7']","{u'mouseover': {u'state': {u'target': [], u'time': []}, u'edge': {u'target': [], u'time': []}}, u'click': {u'state': {u'target': [u'4', u'8', u'12', u'7'], u'time': [1619, 2981, 4521, 5743]}, u'edge': {u'target': [], u'time': []}}, u'mouseout': {u'state': {u'target': [], u'time': []}, u'edge': {u'target': [], u'time': []}}}","[-4, -4, 48]","[6728, 13, 220]",36.0,"[None, None, None]","[u'', -4, -8, -48, -48, -4, -4, 48, 24, 4, 4, 48, -48]",436810,16.0,9316.0,-9.06308480017e+18,mouselab-mdp,12
"[4102, 4663, 5437]","[u'right', u'right', u'down']",test,"[u'0', u'5', u'6', u'8']","{u'mouseover': {u'state': {u'target': [], u'time': []}, u'edge': {u'target': [], u'time': []}}, u'click': {u'state': {u'target': [u'4', u'8'], u'time': [1668, 3101]}, u'edge': {u'target': [], u'time': []}}, u'mouseout': {u'state': {u'target': [], u'time': []}, u'edge': {u'target': [], u'time': []}}}","[-4, -8, 48]","[4096, 37, 245]",34.0,"[None, None, None]","[u'', 4, 8, -24, -24, -4, -8, -48, 48, 2, -8, -24, -48]",446360,17.0,8469.0,2.63044322054e+18,mouselab-mdp,12
"[5116, 5737, 6587]","[u'up', u'up', u'left']",test,"[u'0', u'1', u'2', u'4']","{u'mouseover': {u'state': {u'target': [], u'time': []}, u'edge': {u'target': [], u'time': []}}, u'click': {u'state': {u'target': [u'8', u'4'], u'time': [1780, 3544]}, u'edge': {u'target': [], u'time': []}}, u'mouseout': {u'state': {u'target': [], u'time': []}, u'edge': {u'target': [], u'time': []}}}","[4, 8, 48]","[5108, 105, 320]",58.0,"[None, None, None]","[u'', 4, 8, -24, 48, 2, 8, -48, -48, 2, -4, 24, -48]",457571,18.0,10095.0,-6.66851853783e+18,mouselab-mdp,12
"[8715, 9942, 10758]","[u'left', u'left', u'up']",test,"[u'0', u'9', u'10', u'11']","{u'mouseover': {u'state': {u'target': [], u'time': []}, u'edge': {u'target': [], u'time': []}}, u'click': {u'state': {u'target': [u'4', u'8', u'12', u'3', u'11'], u'time': [1852, 3161, 4225, 6341, 7569]}, u'edge': {u'target': [], u'time': []}}, u'mouseout': {u'state': {u'target': [], u'time': []}, u'edge': {u'target': [], u'time': []}}}","[4, -8, 48]","[8709, 701, 287]",39.0,"[None, None, None]","[u'', 4, -4, -24, 24, 2, 4, -24, -48, 4, -8, 48, -48]",471025,19.0,12351.0,4.25168764169e+18,mouselab-mdp,12
"[10091, 11355, 12101]","[u'left', u'left', u'up']",test,"[u'0', u'9', u'10', u'11']","{u'mouseover': {u'state': {u'target': [], u'time': []}, u'edge': {u'target': [], u'time': []}}, u'click': {u'state': {u'target': [u'4', u'8', u'12', u'7', u'3', u'11'], u'time': [1197, 2496, 4834, 6118, 7968, 9227]}, u'edge': {u'target': [], u'time': []}}, u'mouseout': {u'state': {u'target': [], u'time': []}, u'edge': {u'target': [], u'time': []}}}","[4, -8, 48]","[10088, 744, 229]",38.0,"[None, None, None]","[u'', -4, 4, -24, -24, -4, -8, 24, -24, 4, -8, 48, -48]",485741,20.0,13632.0,4.60924718032e+17,mouselab-mdp,12
"[5743, 6432, 7150]","[u'up', u'up', u'right']",test,"[u'0', u'1', u'2', u'3']","{u'mouseover': {u'state': {u'target': [], u'time': []}, u'edge': {u'target': [], u'time': []}}, u'click': {u'state': {u'target': [u'8', u'4', u'3'], u'time': [1064, 3255, 4784]}, u'edge': {u'target': [], u'time': []}}, u'mouseout': {u'state': {u'target': [], u'time': []}, u'edge': {u'target': [], u'time': []}}}","[4, -4, 48]","[5740, 166, 207]",45.0,"[None, None, None]","[u'', 4, -4, 48, -48, -2, -8, 24, 24, -2, 4, 48, -48]",495456,21.0,8648.0,8.0458297312e+18,mouselab-mdp,12
"[2630, 3734, 4460]","[u'left', u'left', u'up']",test,"[u'0', u'9', u'10', u'11']","{u'mouseover': {u'state': {u'target': [], u'time': []}, u'edge': {u'target': [], u'time': []}}, u'click': {u'state': {u'target': [u'11'], u'time': [1579]}, u'edge': {u'target': [], u'time': []}}, u'mouseout': {u'state': {u'target': [], u'time': []}, u'edge': {u'target': [], u'time': []}}}","[-2, -4, 48]","[2626, 573, 202]",41.0,"[None, None, None]","[u'', -2, 4, -48, -24, 2, 4, 24, 24, -2, -4, 48, -24]",506142,22.0,9599.0,7.45732429498e+18,mouselab-mdp,12
"[3021, 3585, 4258]","[u'right', u'right', u'up']",test,"[u'0', u'5', u'6', u'7']","{u'mouseover': {u'state': {u'target': [], u'time': []}, u'edge': {u'target': [], u'time': []}}, u'click': {u'state': {u'target': [u'7'], u'time': [1938]}, u'edge': {u'target': [], u'time': []}}, u'mouseout': {u'state': {u'target': [], u'time': []}, u'edge': {u'target': [], u'time': []}}}","[-4, 8, 48]","[3015, 36, 148]",51.0,"[None, None, None]","[u'', -2, 8, -24, 24, -4, 8, 48, 24, -2, -4, 24, -48]",515998,23.0,8767.0,2.56147591953e+18,mouselab-mdp,12
"[6966, 7977, 8751]","[u'right', u'right', u'down']",test,"[u'0', u'5', u'6', u'8']","{u'mouseover': {u'state': {u'target': [], u'time': []}, u'edge': {u'target': [], u'time': []}}, u'click': {u'state': {u'target': [u'11', u'3', u'7', u'4', u'8'], u'time': [1218, 2979, 3846, 4903, 6008]}, u'edge': {u'target': [], u'time': []}}, u'mouseout': {u'state': {u'target': [], u'time': []}, u'edge': {u'target': [], u'time': []}}}","[-2, -8, 48]","[6959, 497, 248]",33.0,"[None, None, None]","[u'', -4, -4, -48, -48, -2, -8, 24, 48, 2, 4, -24, -48]",527629,24.0,10535.0,-1.84824368346e+18,mouselab-mdp,12
"[9175, 9917, 10454]","[u'left', u'left', u'up']",test,"[u'0', u'9', u'10', u'11']","{u'mouseover': {u'state': {u'target': [], u'time': []}, u'edge': {u'target': [], u'time': []}}, u'click': {u'state': {u'target': [u'8', u'4', u'3', u'7', u'12', u'11'], u'time': [1420, 2926, 3834, 5823, 6973, 8250]}, u'edge': {u'target': [], u'time': []}}, u'mouseout': {u'state': {u'target': [], u'time': []}, u'edge': {u'target': [], u'time': []}}}","[-2, 8, 48]","[9170, 234, 7]",48.0,"[None, None, None]","[u'', 2, 4, -48, -24, -4, -8, 24, -48, -2, 8, 48, -24]",540902,25.0,12207.0,-8.80678964296e+18,mouselab-mdp,12
"[9631, 10310, 10952]","[u'left', u'left', u'up']",test,"[u'0', u'9', u'10', u'11']","{u'mouseover': {u'state': {u'target': [], u'time': []}, u'edge': {u'target': [], u'time': []}}, u'click': {u'state': {u'target': [u'3', u'8', u'7', u'4', u'12', u'11'], u'time': [2579, 4100, 5152, 6506, 7779, 8875]}, u'edge': {u'target': [], u'time': []}}, u'mouseout': {u'state': {u'target': [], u'time': []}, u'edge': {u'target': [], u'time': []}}}","[4, -4, 48]","[9627, 144, 123]",42.0,"[None, None, None]","[u'', -2, -8, -48, -48, -4, -8, 24, 24, 4, -4, 48, -24]",554458,26.0,12476.0,-3.02731726069e+18,mouselab-mdp,12
"[2062, 3076, 3676]","[u'left', u'left', u'up']",test,"[u'0', u'9', u'10', u'11']","{u'mouseover': {u'state': {u'target': [], u'time': []}, u'edge': {u'target': [], u'time': []}}, u'click': {u'state': {u'target': [u'11'], u'time': [1115]}, u'edge': {u'target': [], u'time': []}}, u'mouseout': {u'state': {u'target': [], u'time': []}, u'edge': {u'target': [], u'time': []}}}","[-4, -4, 48]","[2059, 485, 84]",39.0,"[None, None, None]","[u'', -4, 8, 48, 24, 2, -8, -48, -24, -4, -4, 48, -24]",564151,27.0,8606.0,3.41976950562e+18,mouselab-mdp,12
"[2031, 2556, 3200]","[u'right', u'right', u'up']",test,"[u'0', u'5', u'6', u'7']","{u'mouseover': {u'state': {u'target': [], u'time': []}, u'edge': {u'target': [], u'time': []}}, u'click': {u'state': {u'target': [u'7'], u'time': [1016]}, u'edge': {u'target': [], u'time': []}}, u'mouseout': {u'state': {u'target': [], u'time': []}, u'edge': {u'target': [], u'time': []}}}","[4, 8, 48]","[2027, 6, 101]",59.0,"[None, None, None]","[u'', -2, -8, -24, -24, 4, 8, 48, 24, -2, 8, -24, -48]",573813,28.0,8582.0,4.07975241014e+18,mouselab-mdp,12
"[3640, 4468, 5086]","[u'left', u'left', u'up']",test,"[u'0', u'9', u'10', u'11']","{u'mouseover': {u'state': {u'target': [], u'time': []}, u'edge': {u'target': [], u'time': []}}, u'click': {u'state': {u'target': [u'7', u'11'], u'time': [1585, 2606]}, u'edge': {u'target': [], u'time': []}}, u'mouseout': {u'state': {u'target': [], u'time': []}, u'edge': {u'target': [], u'time': []}}}","[2, -8, 48]","[3632, 305, 92]",40.0,"[None, None, None]","[u'', 4, 4, -48, 48, 4, 4, -24, -24, 2, -8, 48, -24]",583773,29.0,8866.0,3.80267392762e+18,mouselab-mdp,12
"[18206, 19248, 25433]","[u'up', u'up', u'right']",test,"[u'0', u'1', u'2', u'3']","{u'mouseover': {u'state': {u'target': [], u'time': []}, u'edge': {u'target': [], u'time': []}}, u'click': {u'state': {u'target': [u'5', u'6', u'9', u'1'], u'time': [11809, 12557, 14738, 15585]}, u'edge': {u'target': [], u'time': []}}, u'mouseout': {u'state': {u'target': [], u'time': []}, u'edge': {u'target': [], u'time': []}}}","[4, -4, 48]","[18199, 537, 5675]",44.0,"[None, None, None]","[u'', 4, -4, 48, -48, -2, -8, 24, 24, -2, 4, 48, -48]",102557,0.0,27578.0,8.0458297312e+18,mouselab-mdp,14
"[13242, 13857, 14539]","[u'right', u'right', u'up']",test,"[u'0', u'5', u'6', u'7']","{u'mouseover': {u'state': {u'target': [], u'time': []}, u'edge': {u'target': [], u'time': []}}, u'click': {u'state': {u'target': [u'1', u'9', u'5', u'10', u'2', u'11', u'4', u'12', u'3', u'7'], u'time': [1207, 2068, 2826, 4235, 5322, 6499, 7299, 8125, 9167, 12443]}, u'edge': {u'target': [], u'time': []}}, u'mouseout': {u'state': {u'target': [], u'time': []}, u'edge': {u'target': [], u'time': []}}}","[-2, 8, 48]","[13236, 109, 174]",44.0,"[None, None, None]","[u'', 2, 8, -24, -48, -2, 8, 48, 24, 4, 8, -24, -48]",119783,1.0,16162.0,7.70857757142e+18,mouselab-mdp,14
"[19644, 20175, 20809]","[u'up', u'up', u'left']",test,"[u'0', u'1', u'2', u'4']","{u'mouseover': {u'state': {u'target': [], u'time': []}, u'edge': {u'target': [], u'time': []}}, u'click': {u'state': {u'target': [u'1', u'9', u'5', u'2', u'6', u'7', u'8', u'3', u'4', u'11', u'12'], u'time': [866, 1533, 2268, 6068, 7395, 11674, 13795, 14726, 15819, 18075, 18900]}, u'edge': {u'target': [], u'time': []}}, u'mouseout': {u'state': {u'target': [], u'time': []}, u'edge': {u'target': [], u'time': []}}}","[2, 4, 24]","[19641, 22, 118]",19.0,"[None, None, None]","[u'', 2, 4, -24, 24, 4, 8, -48, -48, -4, -4, -48, -24]",143453,2.0,22628.0,-7.78403282575e+18,mouselab-mdp,14
"[3232, 3978, 4797]","[u'left', u'left', u'down']",test,"[u'0', u'9', u'10', u'12']","{u'mouseover': {u'state': {u'target': [], u'time': []}, u'edge': {u'target': [], u'time': []}}, u'click': {u'state': {u'target': [u'11', u'12'], u'time': [1024, 1886]}, u'edge': {u'target': [], u'time': []}}, u'mouseout': {u'state': {u'target': [], u'time': []}, u'edge': {u'target': [], u'time': []}}}","[-4, -8, 48]","[3228, 236, 306]",34.0,"[None, None, None]","[u'', -4, 4, 24, -24, -2, 4, 48, -24, -4, -8, -48, 48]",160616,3.0,16114.0,8.58865579534e+17,mouselab-mdp,14
"[10360, 11022, 11768]","[u'right', u'right', u'down']",test,"[u'0', u'5', u'6', u'8']","{u'mouseover': {u'state': {u'target': [], u'time': []}, u'edge': {u'target': [], u'time': []}}, u'click': {u'state': {u'target': [u'7', u'8'], u'time': [7317, 8591]}, u'edge': {u'target': [], u'time': []}}, u'mouseout': {u'state': {u'target': [], u'time': []}, u'edge': {u'target': [], u'time': []}}}","[-2, 4, 48]","[10357, 164, 223]",48.0,"[None, None, None]","[u'', 4, 8, -24, 24, -2, 4, -24, 48, 2, -8, 24, 48]",174445,4.0,12796.0,8.86605250045e+18,mouselab-mdp,14
"[7699, 8373, 9132]","[u'up', u'up', u'right']",test,"[u'0', u'1', u'2', u'3']","{u'mouseover': {u'state': {u'target': [], u'time': []}, u'edge': {u'target': [], u'time': []}}, u'click': {u'state': {u'target': [u'7', u'8', u'12', u'11', u'4', u'3'], u'time': [1292, 2393, 3623, 4418, 5205, 6791]}, u'edge': {u'target': [], u'time': []}}, u'mouseout': {u'state': {u'target': [], u'time': []}, u'edge': {u'target': [], u'time': []}}}","[2, 8, 48]","[7696, 153, 247]",52.0,"[None, None, None]","[u'', 2, 8, 48, 24, -2, 4, 24, 24, -2, -4, -48, -24]",185723,5.0,10238.0,-8.92386760362e+18,mouselab-mdp,14
"[7320, 7944, 8666]","[u'left', u'left', u'up']",test,"[u'0', u'9', u'10', u'11']","{u'mouseover': {u'state': {u'target': [], u'time': []}, u'edge': {u'target': [], u'time': []}}, u'click': {u'state': {u'target': [u'8', u'7', u'3', u'4', u'11', u'12'], u'time': [1899, 3015, 4079, 5016, 5730, 6448]}, u'edge': {u'target': [], u'time': []}}, u'mouseout': {u'state': {u'target': [], u'time': []}, u'edge': {u'target': [], u'time': []}}}","[4, -8, 48]","[7318, 127, 204]",38.0,"[None, None, None]","[u'', 4, -4, -24, 24, 2, 4, -24, -48, 4, -8, 48, -48]",196631,6.0,9874.0,4.25168764169e+18,mouselab-mdp,14
"[4145, 4753, 5423]","[u'left', u'left', u'up']",test,"[u'0', u'9', u'10', u'11']","{u'mouseover': {u'state': {u'target': [], u'time': []}, u'edge': {u'target': [], u'time': []}}, u'click': {u'state': {u'target': [u'3', u'4', u'11'], u'time': [866, 1953, 2748]}, u'edge': {u'target': [], u'time': []}}, u'mouseout': {u'state': {u'target': [], u'time': []}, u'edge': {u'target': [], u'time': []}}}","[-2, -4, 48]","[4141, 119, 154]",39.0,"[None, None, None]","[u'', -2, 4, -48, -24, 2, 4, 24, 24, -2, -4, 48, -24]",211582,7.0,13898.0,7.45732429498e+18,mouselab-mdp,14
"[6226, 6838, 7475]","[u'up', u'up', u'right']",test,"[u'0', u'1', u'2', u'3']","{u'mouseover': {u'state': {u'target': [], u'time': []}, u'edge': {u'target': [], u'time': []}}, u'click': {u'state': {u'target': [u'12', u'11', u'4', u'3'], u'time': [2961, 3794, 4649, 5399]}, u'edge': {u'target': [], u'time': []}}, u'mouseout': {u'state': {u'target': [], u'time': []}, u'edge': {u'target': [], u'time': []}}}","[-4, 4, 48]","[6224, 105, 124]",44.0,"[None, None, None]","[u'', -4, 4, 48, -48, -4, 4, -24, 24, -4, -8, 24, 24]",221074,8.0,8455.0,-5.99530113684e+18,mouselab-mdp,14
"[4490, 5058, 5763]","[u'left', u'left', u'up']",test,"[u'0', u'9', u'10', u'11']","{u'mouseover': {u'state': {u'target': [], u'time': []}, u'edge': {u'target': [], u'time': []}}, u'click': {u'state': {u'target': [u'3', u'4', u'11'], u'time': [1664, 2782, 3777]}, u'edge': {u'target': [], u'time': []}}, u'mouseout': {u'state': {u'target': [], u'time': []}, u'edge': {u'target': [], u'time': []}}}","[4, 4, 48]","[4480, 52, 187]",53.0,"[None, None, None]","[u'', -4, -8, -48, -48, -4, -4, 48, 24, 4, 4, 48, -48]",237603,9.0,15478.0,-9.06308480017e+18,mouselab-mdp,14
"[9863, 10452, 11082]","[u'up', u'up', u'left']",test,"[u'0', u'1', u'2', u'4']","{u'mouseover': {u'state': {u'target': [], u'time': []}, u'edge': {u'target': [], u'time': []}}, u'click': {u'state': {u'target': [u'4'], u'time': [9043]}, u'edge': {u'target': [], u'time': []}}, u'mouseout': {u'state': {u'target': [], u'time': []}, u'edge': {u'target': [], u'time': []}}}","[-2, -8, 48]","[9861, 75, 140]",37.0,"[None, None, None]","[u'', -2, -8, 24, 48, -2, 8, -24, -24, -2, -4, 24, -24]",250605,10.0,11966.0,-3.60340228201e+18,mouselab-mdp,14
"[15710, 16287, 16901]","[u'right', u'right', u'down']",test,"[u'0', u'5', u'6', u'8']","{u'mouseover': {u'state': {u'target': [], u'time': []}, u'edge': {u'target': [], u'time': []}}, u'click': {u'state': {u'target': [u'4', u'3', u'7', u'8', u'12', u'11', u'6', u'2', u'10'], u'time': [1632, 2403, 3063, 4091, 4952, 5672, 9660, 10978, 12132]}, u'edge': {u'target': [], u'time': []}}, u'mouseout': {u'state': {u'target': [], u'time': []}, u'edge': {u'target': [], u'time': []}}}","[4, 8, 24]","[15706, 56, 104]",27.0,"[None, None, None]","[u'', 2, 4, 24, -24, 4, 8, -48, 24, 4, -8, -24, 24]",269626,11.0,17975.0,8.9509461883e+18,mouselab-mdp,14
"[11046, 11656, 12305]","[u'up', u'up', u'left']",test,"[u'0', u'1', u'2', u'4']","{u'mouseover': {u'state': {u'target': [], u'time': []}, u'edge': {u'target': [], u'time': []}}, u'click': {u'state': {u'target': [u'11', u'12', u'4', u'3', u'7', u'8', u'10', u'2', u'6'], u'time': [768, 1689, 3076, 3863, 4709, 5444, 7903, 8817, 9588]}, u'edge': {u'target': [], u'time': []}}, u'mouseout': {u'state': {u'target': [], u'time': []}, u'edge': {u'target': [], u'time': []}}}","[-2, 4, 24]","[11044, 90, 136]",17.0,"[None, None, None]","[u'', -2, 4, -24, 24, -2, -4, -48, -48, 4, -8, 24, 24]",283811,12.0,13149.0,2.82020194745e+17,mouselab-mdp,14
"[2995, 3559, 4170]","[u'left', u'left', u'down']",test,"[u'0', u'9', u'10', u'12']","{u'mouseover': {u'state': {u'target': [], u'time': []}, u'edge': {u'target': [], u'time': []}}, u'click': {u'state': {u'target': [u'11', u'12'], u'time': [621, 2187]}, u'edge': {u'target': [], u'time': []}}, u'mouseout': {u'state': {u'target': [], u'time': []}, u'edge': {u'target': [], u'time': []}}}","[-4, 8, 48]","[2990, 44, 107]",50.0,"[None, None, None]","[u'', 2, 4, 24, -24, 4, -8, 48, -24, -4, 8, -48, 48]",299455,13.0,14592.0,5.01038116734e+18,mouselab-mdp,14
"[5090, 5660, 6272]","[u'up', u'up', u'right']",test,"[u'0', u'1', u'2', u'3']","{u'mouseover': {u'state': {u'target': [], u'time': []}, u'edge': {u'target': [], u'time': []}}, u'click': {u'state': {u'target': [u'4', u'3'], u'time': [2820, 4155]}, u'edge': {u'target': [], u'time': []}}, u'mouseout': {u'state': {u'target': [], u'time': []}, u'edge': {u'target': [], u'time': []}}}","[4, 4, 48]","[5088, 62, 110]",54.0,"[None, None, None]","[u'', 4, 4, 48, -48, -2, -8, 48, -24, -4, -8, 24, -48]",308751,14.0,8255.0,-4.67008033733e+18,mouselab-mdp,14
"[3254, 3814, 4408]","[u'up', u'up', u'right']",test,"[u'0', u'1', u'2', u'3']","{u'mouseover': {u'state': {u'target': [], u'time': []}, u'edge': {u'target': [], u'time': []}}, u'click': {u'state': {u'target': [u'4', u'3'], u'time': [775, 2461]}, u'edge': {u'target': [], u'time': []}}, u'mouseout': {u'state': {u'target': [], u'time': []}, u'edge': {u'target': [], u'time': []}}}","[2, 8, 48]","[3249, 55, 98]",56.0,"[None, None, None]","[u'', 2, 8, 48, -24, -4, -4, -48, 24, -4, -8, -48, -24]",319838,15.0,10039.0,2.37271076103e+18,mouselab-mdp,14
"[8177, 8747, 9366]","[u'left', u'left', u'down']",test,"[u'0', u'9', u'10', u'12']","{u'mouseover': {u'state': {u'target': [], u'time': []}, u'edge': {u'target': [], u'time': []}}, u'click': {u'state': {u'target': [u'3', u'4', u'7', u'8', u'12'], u'time': [1780, 3317, 4988, 5797, 6915]}, u'edge': {u'target': [], u'time': []}}, u'mouseout': {u'state': {u'target': [], u'time': []}, u'edge': {u'target': [], u'time': []}}}","[-4, 4, 48]","[8174, 54, 104]",43.0,"[None, None, None]","[u'', -4, 4, 24, 24, 2, 8, -24, 24, -4, 4, -24, 48]",331093,16.0,10216.0,5.34744023932e+18,mouselab-mdp,14
"[1571, 2569, 3219]","[u'left', u'left', u'down']",test,"[u'0', u'9', u'10', u'12']","{u'mouseover': {u'state': {u'target': [], u'time': []}, u'edge': {u'target': [], u'time': []}}, u'click': {u'state': {u'target': [u'12'], u'time': [849]}, u'edge': {u'target': [], u'time': []}}, u'mouseout': {u'state': {u'target': [], u'time': []}, u'edge': {u'target': [], u'time': []}}}","[4, -8, 48]","[1568, 478, 142]",43.0,"[None, None, None]","[u'', 2, 8, 24, -24, 2, -8, -24, -24, 4, -8, 48, 48]",341651,17.0,9522.0,-3.20049588135e+18,mouselab-mdp,14
"[8123, 8799, 10024]","[u'up', u'up', u'right']",test,"[u'0', u'1', u'2', u'3']","{u'mouseover': {u'state': {u'target': [], u'time': []}, u'edge': {u'target': [], u'time': []}}, u'click': {u'state': {u'target': [u'11', u'12', u'8', u'7', u'3', u'4'], u'time': [1330, 2813, 3938, 4688, 5467, 6157]}, u'edge': {u'target': [], u'time': []}}, u'mouseout': {u'state': {u'target': [], u'time': []}, u'edge': {u'target': [], u'time': []}}}","[2, -4, 24]","[8121, 177, 704]",16.0,"[None, None, None]","[u'', 2, -4, 24, 24, -4, 4, -24, -24, -2, 4, -24, -48]",354174,18.0,11490.0,7.86254308938e+18,mouselab-mdp,14
"[1932, 2537, 3131]","[u'up', u'up', u'left']",test,"[u'0', u'1', u'2', u'4']","{u'mouseover': {u'state': {u'target': [], u'time': []}, u'edge': {u'target': [], u'time': []}}, u'click': {u'state': {u'target': [u'4'], u'time': [1042]}, u'edge': {u'target': [], u'time': []}}, u'mouseout': {u'state': {u'target': [], u'time': []}, u'edge': {u'target': [], u'time': []}}}","[4, 8, 48]","[1928, 90, 100]",59.0,"[None, None, None]","[u'', 4, 8, -24, 48, 2, 8, -48, -48, 2, -4, 24, -48]",364744,19.0,9523.0,-6.66851853783e+18,mouselab-mdp,14
"[10971, 11534, 12200]","[u'left', u'left', u'up']",test,"[u'0', u'9', u'10', u'11']","{u'mouseover': {u'state': {u'target': [], u'time': []}, u'edge': {u'target': [], u'time': []}}, u'click': {u'state': {u'target': [u'4', u'3', u'7', u'8', u'12', u'11'], u'time': [3992, 5657, 6473, 7492, 8601, 10327]}, u'edge': {u'target': [], u'time': []}}, u'mouseout': {u'state': {u'target': [], u'time': []}, u'edge': {u'target': [], u'time': []}}}","[4, -4, 48]","[10969, 49, 146]",42.0,"[None, None, None]","[u'', -2, -8, -48, -48, -4, -8, 24, 24, 4, -4, 48, -24]",378791,20.0,13012.0,-3.02731726069e+18,mouselab-mdp,14
"[15731, 16292, 16902]","[u'right', u'right', u'up']",test,"[u'0', u'5', u'6', u'7']","{u'mouseover': {u'state': {u'target': [], u'time': []}, u'edge': {u'target': [], u'time': []}}, u'click': {u'state': {u'target': [u'11', u'12', u'8', u'7', u'3', u'4', u'2', u'6', u'5', u'1'], u'time': [1001, 1742, 2589, 3324, 4081, 4793, 7987, 9883, 12530, 14689]}, u'edge': {u'target': [], u'time': []}}, u'mouseout': {u'state': {u'target': [], u'time': []}, u'edge': {u'target': [], u'time': []}}}","[2, -4, 24]","[15728, 52, 99]",12.0,"[None, None, None]","[u'', -4, -4, -24, 24, 2, -4, 24, -48, -2, 8, -48, -48]",397628,21.0,17801.0,-1.38962569557e+18,mouselab-mdp,14
"[5105, 5696, 6300]","[u'right', u'right', u'up']",test,"[u'0', u'5', u'6', u'7']","{u'mouseover': {u'state': {u'target': [], u'time': []}, u'edge': {u'target': [], u'time': []}}, u'click': {u'state': {u'target': [u'11', u'12', u'4', u'3', u'7'], u'time': [1211, 2035, 2846, 3565, 4240]}, u'edge': {u'target': [], u'time': []}}, u'mouseout': {u'state': {u'target': [], u'time': []}, u'edge': {u'target': [], u'time': []}}}","[4, 8, 48]","[5103, 83, 81]",55.0,"[None, None, None]","[u'', -2, -8, -24, -24, 4, 8, 48, 24, -2, 8, -24, -48]",407001,22.0,8337.0,4.07975241014e+18,mouselab-mdp,14
"[5550, 6128, 6724]","[u'up', u'up', u'left']",test,"[u'0', u'1', u'2', u'4']","{u'mouseover': {u'state': {u'target': [], u'time': []}, u'edge': {u'target': [], u'time': []}}, u'click': {u'state': {u'target': [u'7', u'8', u'12', u'11', u'4'], u'time': [1380, 2064, 3045, 3899, 4589]}, u'edge': {u'target': [], u'time': []}}, u'mouseout': {u'state': {u'target': [], u'time': []}, u'edge': {u'target': [], u'time': []}}}","[4, 4, 48]","[5548, 68, 101]",51.0,"[None, None, None]","[u'', 4, 4, -48, 48, -2, 4, -48, -24, -2, -4, -48, 24]",417358,23.0,9321.0,-5.00680981918e+18,mouselab-mdp,14
"[6776, 7361, 8083]","[u'left', u'left', u'down']",test,"[u'0', u'9', u'10', u'12']","{u'mouseover': {u'state': {u'target': [], u'time': []}, u'edge': {u'target': [], u'time': []}}, u'click': {u'state': {u'target': [u'7', u'8', u'12'], u'time': [2577, 4741, 6009]}, u'edge': {u'target': [], u'time': []}}, u'mouseout': {u'state': {u'target': [], u'time': []}, u'edge': {u'target': [], u'time': []}}}","[-2, -8, 48]","[6771, 68, 204]",35.0,"[None, None, None]","[u'', 4, -8, -48, -48, -4, 4, 24, 24, -2, -8, -24, 48]",431745,24.0,13345.0,-4.56949664606e+18,mouselab-mdp,14
"[8274, 8836, 9442]","[u'left', u'left', u'up']",test,"[u'0', u'9', u'10', u'11']","{u'mouseover': {u'state': {u'target': [], u'time': []}, u'edge': {u'target': [], u'time': []}}, u'click': {u'state': {u'target': [u'12', u'11'], u'time': [6131, 7181]}, u'edge': {u'target': [], u'time': []}}, u'mouseout': {u'state': {u'target': [], u'time': []}, u'edge': {u'target': [], u'time': []}}}","[4, 4, 48]","[8268, 57, 100]",54.0,"[None, None, None]","[u'', -4, 8, 48, -24, -2, -4, 24, -48, 4, 4, 48, -48]",443184,25.0,10402.0,7.26324481059e+18,mouselab-mdp,14
"[1754, 2318, 2924]","[u'left', u'left', u'down']",test,"[u'0', u'9', u'10', u'12']","{u'mouseover': {u'state': {u'target': [], u'time': []}, u'edge': {u'target': [], u'time': []}}, u'click': {u'state': {u'target': [u'12'], u'time': [990]}, u'edge': {u'target': [], u'time': []}}, u'mouseout': {u'state': {u'target': [], u'time': []}, u'edge': {u'target': [], u'time': []}}}","[4, 8, 48]","[1751, 47, 88]",59.0,"[None, None, None]","[u'', -2, -4, 48, -48, 2, 4, -48, 24, 4, 8, -48, 48]",468189,26.0,23969.0,-2.81709899867e+18,mouselab-mdp,14
"[5507, 6136, 6771]","[u'up', u'up', u'left']",test,"[u'0', u'1', u'2', u'4']","{u'mouseover': {u'state': {u'target': [], u'time': []}, u'edge': {u'target': [], u'time': []}}, u'click': {u'state': {u'target': [u'12', u'11', u'4'], u'time': [2306, 3422, 4426]}, u'edge': {u'target': [], u'time': []}}, u'mouseout': {u'state': {u'target': [], u'time': []}, u'edge': {u'target': [], u'time': []}}}","[2, 4, 48]","[5504, 124, 142]",51.0,"[None, None, None]","[u'', 2, 4, -24, 48, -4, 8, -48, 48, 2, -4, 24, -24]",478988,27.0,9762.0,-8.3276713645e+18,mouselab-mdp,14
"[2480, 3099, 3693]","[u'right', u'right', u'down']",test,"[u'0', u'5', u'6', u'8']","{u'mouseover': {u'state': {u'target': [], u'time': []}, u'edge': {u'target': [], u'time': []}}, u'click': {u'state': {u'target': [u'8'], u'time': [1419]}, u'edge': {u'target': [], u'time': []}}, u'mouseout': {u'state': {u'target': [], u'time': []}, u'edge': {u'target': [], u'time': []}}}","[4, -8, 48]","[2476, 109, 103]",43.0,"[None, None, None]","[u'', 4, -8, 24, 48, 4, -8, -24, 48, -2, -8, 24, -24]",488416,28.0,8386.0,6.60860815513e+18,mouselab-mdp,14
"[7940, 8509, 9176]","[u'left', u'left', u'up']",test,"[u'0', u'9', u'10', u'11']","{u'mouseover': {u'state': {u'target': [], u'time': []}, u'edge': {u'target': [], u'time': []}}, u'click': {u'state': {u'target': [u'7', u'8', u'12', u'11', u'4', u'3'], u'time': [773, 2153, 3097, 3914, 4783, 5683]}, u'edge': {u'target': [], u'time': []}}, u'mouseout': {u'state': {u'target': [], u'time': []}, u'edge': {u'target': [], u'time': []}}}","[-2, 8, 24]","[7937, 73, 173]",24.0,"[None, None, None]","[u'', 2, 4, -24, -48, -2, -4, -24, -24, -2, 8, 24, -24]",499696,29.0,10247.0,1.18238643611e+16,mouselab-mdp,14
"[26585, 28589, 30531]","[u'right', u'right', u'down']",test,"[u'0', u'5', u'6', u'8']","{u'mouseover': {u'state': {u'target': [], u'time': []}, u'edge': {u'target': [], u'time': []}}, u'click': {u'state': {u'target': [u'5', u'9', u'1', u'10', u'11', u'12', u'2', u'3', u'4', u'7', u'6', u'8'], u'time': [6959, 9511, 11030, 12507, 13185, 14105, 15685, 17772, 18998, 21099, 21640, 22120]}, u'edge': {u'target': [], u'time': []}}, u'mouseout': {u'state': {u'target': [], u'time': []}, u'edge': {u'target': [], u'time': []}}}","[-2, 8, 48]","[26559, 1505, 1432]",42.0,"[None, None, None]","[u'', 2, -4, 24, -24, -2, 8, 24, 48, 4, -4, 48, 48]",106001,0.0,32353.0,5.2467434854e+18,mouselab-mdp,25
"[12925, 13750, 15967]","[u'right', u'right', u'up']",test,"[u'0', u'5', u'6', u'7']","{u'mouseover': {u'state': {u'target': [], u'time': []}, u'edge': {u'target': [], u'time': []}}, u'click': {u'state': {u'target': [u'12', u'10', u'11', u'9', u'1', u'4', u'2', u'3', u'5', u'6', u'8', u'7'], u'time': [3664, 4133, 4580, 5545, 6198, 6998, 7464, 7884, 8518, 8950, 10128, 11001]}, u'edge': {u'target': [], u'time': []}}, u'mouseout': {u'state': {u'target': [], u'time': []}, u'edge': {u'target': [], u'time': []}}}","[-2, 8, 48]","[12899, 316, 1720]",42.0,"[None, None, None]","[u'', 2, 8, -24, -48, -2, 8, 48, 24, 4, 8, -24, -48]",127599,1.0,20300.0,7.70857757142e+18,mouselab-mdp,25
"[12235, 13032, 13813]","[u'left', u'left', u'up']",test,"[u'0', u'9', u'10', u'11']","{u'mouseover': {u'state': {u'target': [], u'time': []}, u'edge': {u'target': [], u'time': []}}, u'click': {u'state': {u'target': [u'12', u'10', u'11', u'9', u'1', u'4', u'2', u'3', u'7', u'6', u'8', u'5'], u'time': [1261, 1761, 2735, 3382, 4743, 5461, 6591, 7056, 7619, 8061, 8475, 9040]}, u'edge': {u'target': [], u'time': []}}, u'mouseout': {u'state': {u'target': [], u'time': []}, u'edge': {u'target': [], u'time': []}}}","[4, 4, 48]","[12214, 288, 288]",44.0,"[None, None, None]","[u'', -4, -8, -48, -48, -4, -4, 48, 24, 4, 4, 48, -48]",144338,2.0,15564.0,-9.06308480017e+18,mouselab-mdp,25
"[13404, 14304, 15247]","[u'left', u'left', u'up']",test,"[u'0', u'9', u'10', u'11']","{u'mouseover': {u'state': {u'target': [], u'time': []}, u'edge': {u'target': [], u'time': []}}, u'click': {u'state': {u'target': [u'12', u'10', u'11', u'9', u'5', u'6', u'7', u'8', u'1', u'2', u'4', u'3'], u'time': [4626, 5125, 5522, 6059, 6702, 7114, 7547, 8209, 9130, 9600, 10043, 10475]}, u'edge': {u'target': [], u'time': []}}, u'mouseout': {u'state': {u'target': [], u'time': []}, u'edge': {u'target': [], u'time': []}}}","[-2, 8, 48]","[13393, 400, 439]",42.0,"[None, None, None]","[u'', 4, -4, -48, -48, 4, 8, 24, -24, -2, 8, 48, -48]",162180,3.0,16733.0,-6.97855305918e+18,mouselab-mdp,25
"[15556, 16389, 17313]","[u'left', u'left', u'up']",test,"[u'0', u'9', u'10', u'11']","{u'mouseover': {u'state': {u'target': [], u'time': []}, u'edge': {u'target': [], u'time': []}}, u'click': {u'state': {u'target': [u'12', u'10', u'11', u'9', u'1', u'2', u'4', u'3', u'7', u'6', u'5', u'8'], u'time': [5494, 5933, 7006, 7351, 7877, 8816, 9181, 9715, 10156, 10611, 11034, 11491]}, u'edge': {u'target': [], u'time': []}}, u'mouseout': {u'state': {u'target': [], u'time': []}, u'edge': {u'target': [], u'time': []}}}","[-2, 4, 48]","[15548, 336, 424]",38.0,"[None, None, None]","[u'', 4, -4, 48, -48, -2, -8, 24, 24, -2, 4, 48, -48]",181893,4.0,18577.0,8.0458297312e+18,mouselab-mdp,25
"[11651, 12263, 12941]","[u'left', u'left', u'up']",test,"[u'0', u'9', u'10', u'11']","{u'mouseover': {u'state': {u'target': [], u'time': []}, u'edge': {u'target': [], u'time': []}}, u'click': {u'state': {u'target': [u'10', u'12', u'11', u'9', u'5', u'7', u'6', u'8', u'3', u'2', u'4', u'1'], u'time': [4605, 5284, 5688, 6350, 6853, 7264, 7681, 8163, 8996, 9577, 9932, 10376]}, u'edge': {u'target': [], u'time': []}}, u'mouseout': {u'state': {u'target': [], u'time': []}, u'edge': {u'target': [], u'time': []}}}","[-2, 8, 24]","[11628, 120, 170]",18.0,"[None, None, None]","[u'', 2, 4, -24, -48, -2, -4, -24, -24, -2, 8, 24, -24]",197161,5.0,14016.0,1.18238643611e+16,mouselab-mdp,25
"[12903, 13617, 14287]","[u'left', u'left', u'up']",test,"[u'0', u'9', u'10', u'11']","{u'mouseover': {u'state': {u'target': [], u'time': []}, u'edge': {u'target': [], u'time': []}}, u'click': {u'state': {u'target': [u'12', u'10', u'11', u'9', u'1', u'4', u'3', u'2', u'5', u'6', u'7', u'8'], u'time': [3363, 3732, 4994, 5589, 6151, 6675, 8219, 9090, 9681, 10091, 10553, 11140]}, u'edge': {u'target': [], u'time': []}}, u'mouseout': {u'state': {u'target': [], u'time': []}, u'edge': {u'target': [], u'time': []}}}","[2, 4, 24]","[12894, 214, 169]",18.0,"[None, None, None]","[u'', 2, -4, 24, -48, -2, -8, 24, -48, 2, 4, 24, -48]",216926,6.0,18520.0,2.65301876191e+18,mouselab-mdp,25
"[11644, 12286, 13061]","[u'left', u'left', u'up']",test,"[u'0', u'9', u'10', u'11']","{u'mouseover': {u'state': {u'target': [], u'time': []}, u'edge': {u'target': [], u'time': []}}, u'click': {u'state': {u'target': [u'11', u'10', u'12', u'9', u'4', u'2', u'1', u'3', u'7', u'6', u'5', u'8'], u'time': [849, 1669, 2198, 2708, 3340, 3693, 4152, 4651, 5197, 5625, 6076, 6818]}, u'edge': {u'target': [], u'time': []}}, u'mouseout': {u'state': {u'target': [], u'time': []}, u'edge': {u'target': [], u'time': []}}}","[-2, -8, 48]","[11630, 141, 262]",26.0,"[None, None, None]","[u'', -2, 8, 24, -48, 2, 4, -24, 24, -2, -8, 48, -24]",235435,7.0,17271.0,6.28255860945e+18,mouselab-mdp,25
"[11323, 12056, 12698]","[u'left', u'left', u'down']",test,"[u'0', u'9', u'10', u'12']","{u'mouseover': {u'state': {u'target': [], u'time': []}, u'edge': {u'target': [], u'time': []}}, u'click': {u'state': {u'target': [u'11', u'10', u'12', u'9', u'1', u'4', u'2', u'3', u'7', u'6', u'5', u'8'], u'time': [2344, 2799, 3257, 3940, 4388, 5824, 6384, 6895, 7397, 7895, 8559, 9081]}, u'edge': {u'target': [], u'time': []}}, u'mouseout': {u'state': {u'target': [], u'time': []}, u'edge': {u'target': [], u'time': []}}}","[-4, 4, 48]","[11321, 234, 144]",36.0,"[None, None, None]","[u'', -4, 4, 24, 24, 2, 8, -24, 24, -4, 4, -24, 48]",250529,8.0,13906.0,5.34744023932e+18,mouselab-mdp,25
"[13582, 14387, 14975]","[u'up', u'up', u'left']",test,"[u'0', u'1', u'2', u'4']","{u'mouseover': {u'state': {u'target': [], u'time': []}, u'edge': {u'target': [], u'time': []}}, u'click': {u'state': {u'target': [u'11', u'10', u'12', u'9', u'2', u'4', u'1', u'3', u'7', u'6', u'5', u'8'], u'time': [5445, 5856, 6236, 6617, 7572, 7978, 8532, 9019, 9626, 10032, 10513, 11111]}, u'edge': {u'target': [], u'time': []}}, u'mouseout': {u'state': {u'target': [], u'time': []}, u'edge': {u'target': [], u'time': []}}}","[-2, -8, 48]","[13562, 301, 88]",26.0,"[None, None, None]","[u'', -2, -8, 24, 48, -2, 8, -24, -24, -2, -4, 24, -24]",268127,9.0,16417.0,-3.60340228201e+18,mouselab-mdp,25
"[13605, 14255, 14768]","[u'left', u'left', u'up']",test,"[u'0', u'9', u'10', u'11']","{u'mouseover': {u'state': {u'target': [], u'time': []}, u'edge': {u'target': [], u'time': []}}, u'click': {u'state': {u'target': [u'11', u'10', u'12', u'9', u'2', u'4', u'1', u'3', u'5', u'6', u'7', u'8'], u'time': [5090, 5520, 5893, 6440, 7792, 8511, 9063, 9577, 10287, 10660, 11074, 11729]}, u'edge': {u'target': [], u'time': []}}, u'mouseout': {u'state': {u'target': [], u'time': []}, u'edge': {u'target': [], u'time': []}}}","[-2, 8, 48]","[13600, 146, 8]",42.0,"[None, None, None]","[u'', 2, 4, -48, -24, -4, -8, 24, -48, -2, 8, 48, -24]",285982,10.0,16758.0,-8.80678964296e+18,mouselab-mdp,25
"[13338, 14047, 14665]","[u'up', u'up', u'left']",test,"[u'0', u'1', u'2', u'4']","{u'mouseover': {u'state': {u'target': [], u'time': []}, u'edge': {u'target': [], u'time': []}}, u'click': {u'state': {u'target': [u'12', u'10', u'11', u'9', u'1', u'2', u'4', u'3', u'7', u'6', u'5', u'8'], u'time': [5480, 5945, 6360, 6796, 7374, 8124, 8623, 9114, 9730, 10176, 10841, 12151]}, u'edge': {u'target': [], u'time': []}}, u'mouseout': {u'state': {u'target': [], u'time': []}, u'edge': {u'target': [], u'time': []}}}","[4, 8, 48]","[13318, 201, 121]",48.0,"[None, None, None]","[u'', 4, 8, -24, 48, 2, 8, -48, -48, 2, -4, 24, -48]",303320,11.0,16214.0,-6.66851853783e+18,mouselab-mdp,25
"[10238, 10821, 11355]","[u'up', u'up', u'left']",test,"[u'0', u'1', u'2', u'4']","{u'mouseover': {u'state': {u'target': [], u'time': []}, u'edge': {u'target': [], u'time': []}}, u'click': {u'state': {u'target': [u'10', u'12', u'11', u'9', u'1', u'4', u'2', u'3', u'7', u'6', u'8', u'5'], u'time': [3650, 4038, 4480, 5221, 5736, 6428, 6798, 7204, 7660, 8068, 8494, 9181]}, u'edge': {u'target': [], u'time': []}}, u'mouseout': {u'state': {u'target': [], u'time': []}, u'edge': {u'target': [], u'time': []}}}","[2, 4, 24]","[10233, 84, 34]",18.0,"[None, None, None]","[u'', 2, 4, -24, 24, 4, 8, -48, -48, -4, -4, -48, -24]",329271,12.0,24807.0,-7.78403282575e+18,mouselab-mdp,25
"[9711, 10403, 11057]","[u'left', u'left', u'up']",test,"[u'0', u'9', u'10', u'11']","{u'mouseover': {u'state': {u'target': [], u'time': []}, u'edge': {u'target': [], u'time': []}}, u'click': {u'state': {u'target': [u'12', u'11', u'10', u'9', u'1', u'4', u'2', u'3', u'7', u'6', u'5', u'8'], u'time': [2924, 3560, 4072, 4470, 5070, 5531, 5884, 6195, 6760, 7131, 7520, 8448]}, u'edge': {u'target': [], u'time': []}}, u'mouseout': {u'state': {u'target': [], u'time': []}, u'edge': {u'target': [], u'time': []}}}","[4, -4, 24]","[9668, 183, 153]",12.0,"[None, None, None]","[u'', 2, 8, -48, -24, 2, 8, -24, -48, 4, -4, 24, -48]",346361,13.0,15675.0,4.95354184513e+17,mouselab-mdp,25
"[8633, 9434, 10007]","[u'left', u'left', u'up']",test,"[u'0', u'9', u'10', u'11']","{u'mouseover': {u'state': {u'target': [], u'time': []}, u'edge': {u'target': [], u'time': []}}, u'click': {u'state': {u'target': [u'12', u'10', u'11', u'9', u'1', u'4', u'2', u'3', u'7', u'6', u'5', u'8'], u'time': [1560, 2410, 2765, 3252, 3733, 4219, 4874, 5219, 5756, 6194, 6625, 7325]}, u'edge': {u'target': [], u'time': []}}, u'mouseout': {u'state': {u'target': [], u'time': []}, u'edge': {u'target': [], u'time': []}}}","[4, -8, 48]","[8629, 293, 65]",32.0,"[None, None, None]","[u'', 4, -4, -24, 24, 2, 4, -24, -48, 4, -8, 48, -48]",359404,14.0,11836.0,4.25168764169e+18,mouselab-mdp,25
"[15434, 16168, 16745]","[u'up', u'up', u'right']",test,"[u'0', u'1', u'2', u'3']","{u'mouseover': {u'state': {u'target': [], u'time': []}, u'edge': {u'target': [], u'time': []}}, u'click': {u'state': {u'target': [u'12', u'10', u'11', u'9', u'1', u'2', u'4', u'3', u'5', u'6', u'7', u'8'], u'time': [2369, 2737, 3149, 3581, 4050, 4436, 4790, 5207, 5610, 5910, 6212, 6625]}, u'edge': {u'target': [], u'time': []}}, u'mouseout': {u'state': {u'target': [], u'time': []}, u'edge': {u'target': [], u'time': []}}}","[2, -4, 24]","[15425, 230, 69]",10.0,"[None, None, None]","[u'', 2, -4, 24, 24, -4, 4, -24, -24, -2, 4, -24, -48]",378609,15.0,18019.0,7.86254308938e+18,mouselab-mdp,25
"[10638, 11243, 11902]","[u'right', u'right', u'down']",test,"[u'0', u'5', u'6', u'8']","{u'mouseover': {u'state': {u'target': [], u'time': []}, u'edge': {u'target': [], u'time': []}}, u'click': {u'state': {u'target': [u'10', u'12', u'9', u'11', u'1', u'2', u'4', u'3', u'7', u'6', u'5', u'8'], u'time': [2328, 2696, 3123, 3524, 4080, 4768, 5410, 5910, 6282, 6619, 6970, 7511]}, u'edge': {u'target': [], u'time': []}}, u'mouseout': {u'state': {u'target': [], u'time': []}, u'edge': {u'target': [], u'time': []}}}","[2, 4, 48]","[10628, 99, 156]",42.0,"[None, None, None]","[u'', -2, -4, 48, 24, 2, 4, -48, 48, -4, 4, 48, 24]",393311,16.0,13529.0,7.94655219151e+18,mouselab-mdp,25
"[9023, 11407, 11971]","[u'left', u'left', u'down']",test,"[u'0', u'9', u'10', u'12']","{u'mouseover': {u'state': {u'target': [], u'time': []}, u'edge': {u'target': [], u'time': []}}, u'click': {u'state': {u'target': [u'11', u'10', u'12', u'9', u'1', u'2', u'4', u'3', u'7', u'6', u'5', u'8'], u'time': [824, 1145, 1907, 2391, 2896, 3261, 4330, 5290, 5830, 6618, 7071, 7595]}, u'edge': {u'target': [], u'time': []}}, u'mouseout': {u'state': {u'target': [], u'time': []}, u'edge': {u'target': [], u'time': []}}}","[-4, 8, 48]","[9002, 1752, 58]",40.0,"[None, None, None]","[u'', -4, 4, 24, 24, -2, -4, 48, -24, -4, 8, -48, 48]",408274,17.0,13606.0,-4.8746661358e+18,mouselab-mdp,25
"[10873, 11497, 12072]","[u'left', u'left', u'up']",test,"[u'0', u'9', u'10', u'11']","{u'mouseover': {u'state': {u'target': [], u'time': []}, u'edge': {u'target': [], u'time': []}}, u'click': {u'state': {u'target': [u'12', u'10', u'11', u'9', u'1', u'2', u'4', u'3', u'7', u'6', u'5', u'8'], u'time': [3670, 4217, 4579, 5085, 5615, 6068, 6457, 7008, 7456, 7837, 8976, 9563]}, u'edge': {u'target': [], u'time': []}}, u'mouseout': {u'state': {u'target': [], u'time': []}, u'edge': {u'target': [], u'time': []}}}","[4, 4, 48]","[10865, 122, 83]",44.0,"[None, None, None]","[u'', -4, 8, 48, -24, -2, -4, 24, -48, 4, 4, 48, -48]",422822,18.0,13480.0,7.26324481059e+18,mouselab-mdp,25
"[9146, 9781, 10325]","[u'up', u'up', u'right']",test,"[u'0', u'1', u'2', u'3']","{u'mouseover': {u'state': {u'target': [], u'time': []}, u'edge': {u'target': [], u'time': []}}, u'click': {u'state': {u'target': [u'12', u'10', u'11', u'9', u'1', u'2', u'4', u'3', u'7', u'6', u'5', u'8'], u'time': [1307, 1859, 2573, 3024, 3513, 4023, 4866, 5657, 6217, 6747, 7187, 7820]}, u'edge': {u'target': [], u'time': []}}, u'mouseout': {u'state': {u'target': [], u'time': []}, u'edge': {u'target': [], u'time': []}}}","[-4, 4, 48]","[9086, 134, 47]",36.0,"[None, None, None]","[u'', -4, 4, 48, -48, -4, 4, -24, 24, -4, -8, 24, 24]",435706,19.0,11771.0,-5.99530113684e+18,mouselab-mdp,25
"[10305, 10858, 11459]","[u'up', u'up', u'left']",test,"[u'0', u'1', u'2', u'4']","{u'mouseover': {u'state': {u'target': [], u'time': []}, u'edge': {u'target': [], u'time': []}}, u'click': {u'state': {u'target': [u'12', u'10', u'11', u'9', u'1', u'4', u'3', u'2', u'7', u'6', u'5', u'8'], u'time': [951, 1508, 2476, 3095, 3580, 4159, 5018, 5503, 6157, 6570, 7186, 7720]}, u'edge': {u'target': [], u'time': []}}, u'mouseout': {u'state': {u'target': [], u'time': []}, u'edge': {u'target': [], u'time': []}}}","[-2, 4, 24]","[10298, 43, 100]",14.0,"[None, None, None]","[u'', -2, 4, -24, 24, -2, -4, -48, -48, 4, -8, 24, 24]",449618,20.0,12660.0,2.82020194745e+17,mouselab-mdp,25
"[8755, 9338, 9995]","[u'right', u'right', u'down']",test,"[u'0', u'5', u'6', u'8']","{u'mouseover': {u'state': {u'target': [], u'time': []}, u'edge': {u'target': [], u'time': []}}, u'click': {u'state': {u'target': [u'11', u'10', u'12', u'9', u'1', u'4', u'2', u'3', u'5', u'6', u'7', u'8'], u'time': [1082, 1437, 2307, 2768, 3381, 3788, 4258, 4612, 5176, 5502, 5917, 6496]}, u'edge': {u'target': [], u'time': []}}, u'mouseout': {u'state': {u'target': [], u'time': []}, u'edge': {u'target': [], u'time': []}}}","[-2, -8, 48]","[8749, 90, 164]",26.0,"[None, None, None]","[u'', -4, -4, -48, -48, -2, -8, 24, 48, 2, 4, -24, -48]",462074,21.0,11304.0,-1.84824368346e+18,mouselab-mdp,25
"[9949, 10490, 11136]","[u'right', u'right', u'up']",test,"[u'0', u'5', u'6', u'7']","{u'mouseover': {u'state': {u'target': [], u'time': []}, u'edge': {u'target': [], u'time': []}}, u'click': {u'state': {u'target': [u'10', u'12', u'9', u'11', u'1', u'4', u'2', u'3', u'7', u'6', u'5', u'8'], u'time': [1588, 2481, 3088, 3813, 4464, 5075, 5604, 6106, 6850, 7410, 8090, 8620]}, u'edge': {u'target': [], u'time': []}}, u'mouseout': {u'state': {u'target': [], u'time': []}, u'edge': {u'target': [], u'time': []}}}","[-4, 4, 48]","[9940, 36, 150]",36.0,"[None, None, None]","[u'', 2, -4, 24, -48, -4, 4, 48, 48, 4, 4, -48, -24]",476428,22.0,13262.0,1.70803683189e+18,mouselab-mdp,25
"[8915, 9572, 10148]","[u'up', u'up', u'left']",test,"[u'0', u'1', u'2', u'4']","{u'mouseover': {u'state': {u'target': [], u'time': []}, u'edge': {u'target': [], u'time': []}}, u'click': {u'state': {u'target': [u'12', u'10', u'11', u'9', u'1', u'4', u'2', u'3', u'7', u'6', u'5', u'8'], u'time': [748, 1117, 1500, 1998, 2547, 3058, 4103, 4538, 5140, 6318, 6727, 7322]}, u'edge': {u'target': [], u'time': []}}, u'mouseout': {u'state': {u'target': [], u'time': []}, u'edge': {u'target': [], u'time': []}}}","[2, 4, 48]","[8903, 150, 78]",42.0,"[None, None, None]","[u'', 2, 4, -48, 48, -4, 4, -48, -48, 2, -4, 24, 48]",489538,23.0,11837.0,-5.8494341666e+18,mouselab-mdp,25
"[7913, 8558, 9099]","[u'right', u'right', u'up']",test,"[u'0', u'5', u'6', u'7']","{u'mouseover': {u'state': {u'target': [], u'time': []}, u'edge': {u'target': [], u'time': []}}, u'click': {u'state': {u'target': [u'12', u'10', u'11', u'9', u'1', u'3', u'2', u'4', u'5', u'6', u'7', u'8'], u'time': [824, 1199, 1593, 2284, 2772, 3332, 3760, 4113, 4697, 5762, 6210, 6783]}, u'edge': {u'target': [], u'time': []}}, u'mouseout': {u'state': {u'target': [], u'time': []}, u'edge': {u'target': [], u'time': []}}}","[4, 8, 48]","[7906, 138, 49]",48.0,"[None, None, None]","[u'', -2, -8, -24, -24, 4, 8, 48, 24, -2, 8, -24, -48]",502018,24.0,11347.0,4.07975241014e+18,mouselab-mdp,25
"[7496, 8029, 8542]","[u'right', u'right', u'up']",test,"[u'0', u'5', u'6', u'7']","{u'mouseover': {u'state': {u'target': [], u'time': []}, u'edge': {u'target': [], u'time': []}}, u'click': {u'state': {u'target': [u'11', u'10', u'12', u'9', u'1', u'2', u'4', u'3', u'7', u'6', u'8', u'5'], u'time': [792, 1198, 1539, 2014, 2477, 3041, 3682, 4219, 4755, 5125, 5672, 6109]}, u'edge': {u'target': [], u'time': []}}, u'mouseout': {u'state': {u'target': [], u'time': []}, u'edge': {u'target': [], u'time': []}}}","[-4, 8, 48]","[7486, 24, 4]",40.0,"[None, None, None]","[u'', -2, 8, -24, 24, -4, 8, 48, 24, -2, -4, 24, -48]",513193,25.0,10039.0,2.56147591953e+18,mouselab-mdp,25
"[9090, 9694, 10810]","[u'up', u'up', u'right']",test,"[u'0', u'1', u'2', u'3']","{u'mouseover': {u'state': {u'target': [], u'time': []}, u'edge': {u'target': [], u'time': []}}, u'click': {u'state': {u'target': [u'12', u'10', u'11', u'9', u'1', u'2', u'4', u'3', u'7', u'6', u'5', u'8'], u'time': [2549, 3022, 3425, 3955, 4495, 4995, 5445, 5991, 6536, 7073, 7552, 7977]}, u'edge': {u'target': [], u'time': []}}, u'mouseout': {u'state': {u'target': [], u'time': []}, u'edge': {u'target': [], u'time': []}}}","[4, 4, 48]","[9087, 101, 620]",44.0,"[None, None, None]","[u'', 4, 4, 48, -48, -2, -8, 48, -24, -4, -8, 24, -48]",526874,26.0,12574.0,-4.67008033733e+18,mouselab-mdp,25
"[8329, 9497, 11036]","[u'right', u'right', u'up']",test,"[u'0', u'5', u'6', u'7']","{u'mouseover': {u'state': {u'target': [], u'time': []}, u'edge': {u'target': [], u'time': []}}, u'click': {u'state': {u'target': [u'12', u'10', u'11', u'9', u'1', u'2', u'4', u'3', u'5', u'6', u'7', u'8'], u'time': [726, 1100, 1579, 2013, 2550, 3029, 3698, 4196, 4842, 5194, 5566, 6253]}, u'edge': {u'target': [], u'time': []}}, u'mouseout': {u'state': {u'target': [], u'time': []}, u'edge': {u'target': [], u'time': []}}}","[-2, 4, 48]","[8315, 665, 1037]",38.0,"[None, None, None]","[u'', -4, 4, 24, -24, -2, 4, 48, -24, -4, -8, -48, 48]",540258,27.0,12229.0,8.58865579534e+17,mouselab-mdp,25
"[8927, 9591, 10683]","[u'up', u'up', u'left']",test,"[u'0', u'1', u'2', u'4']","{u'mouseover': {u'state': {u'target': [], u'time': []}, u'edge': {u'target': [], u'time': []}}, u'click': {u'state': {u'target': [u'12', u'10', u'11', u'9', u'1', u'2', u'4', u'3', u'7', u'6', u'8', u'5'], u'time': [1061, 1438, 1838, 2227, 2661, 3206, 3785, 4350, 4830, 5246, 5649, 6233]}, u'edge': {u'target': [], u'time': []}}, u'mouseout': {u'state': {u'target': [], u'time': []}, u'edge': {u'target': [], u'time': []}}}","[2, 4, 48]","[8924, 160, 586]",42.0,"[None, None, None]","[u'', 2, 4, -24, 48, -4, 8, -48, 48, 2, -4, 24, -24]",553804,28.0,12456.0,-8.3276713645e+18,mouselab-mdp,25
"[9457, 10196, 11005]","[u'right', u'right', u'down']",test,"[u'0', u'5', u'6', u'8']","{u'mouseover': {u'state': {u'target': [], u'time': []}, u'edge': {u'target': [], u'time': []}}, u'click': {u'state': {u'target': [u'12', u'10', u'11', u'9', u'1', u'2', u'4', u'3', u'7', u'6', u'8', u'5'], u'time': [1001, 1505, 1958, 2557, 3127, 3791, 4264, 4908, 5732, 6181, 6607, 7195]}, u'edge': {u'target': [], u'time': []}}, u'mouseout': {u'state': {u'target': [], u'time': []}, u'edge': {u'target': [], u'time': []}}}","[-4, 8, 48]","[9451, 237, 312]",40.0,"[None, None, None]","[u'', -4, 8, -24, -48, -4, 8, -48, 48, 4, -8, -24, 48]",567053,29.0,12131.0,-1.41484517897e+18,mouselab-mdp,25
"[2798, 3874, 5011]","[u'left', u'left', u'down']",test,"[u'0', u'9', u'10', u'12']","{u'mouseover': {u'state': {u'target': [], u'time': []}, u'edge': {u'target': [], u'time': []}}, u'click': {u'state': {u'target': [], u'time': []}, u'edge': {u'target': [], u'time': []}}, u'mouseout': {u'state': {u'target': [], u'time': []}, u'edge': {u'target': [], u'time': []}}}","[2, -4, 48]","[2783, 561, 617]",46.0,"[None, None, None]","[u'', 2, 4, -48, 48, -4, 4, -48, -48, 2, -4, 24, 48]",54984,0.0,9980.0,-5.8494341666e+18,mouselab-mdp,28
"[653, 1928, 2978]","[u'right', u'right', u'up']",test,"[u'0', u'5', u'6', u'7']","{u'mouseover': {u'state': {u'target': [], u'time': []}, u'edge': {u'target': [], u'time': []}}, u'click': {u'state': {u'target': [], u'time': []}, u'edge': {u'target': [], u'time': []}}, u'mouseout': {u'state': {u'target': [], u'time': []}, u'edge': {u'target': [], u'time': []}}}","[-4, 8, -48]","[644, 759, 528]",-44.0,"[None, None, None]","[u'', -4, 8, -24, -48, -4, 8, -48, 48, 4, -8, -24, 48]",66941,1.0,10828.0,-1.41484517897e+18,mouselab-mdp,28
"[581, 1535, 2384]","[u'up', u'up', u'left']",test,"[u'0', u'1', u'2', u'4']","{u'mouseover': {u'state': {u'target': [], u'time': []}, u'edge': {u'target': [], u'time': []}}, u'click': {u'state': {u'target': [], u'time': []}, u'edge': {u'target': [], u'time': []}}, u'mouseout': {u'state': {u'target': [], u'time': []}, u'edge': {u'target': [], u'time': []}}}","[-4, -4, 24]","[576, 436, 333]",16.0,"[None, None, None]","[u'', -4, -4, -24, 24, 2, -4, 24, -48, -2, 8, -48, -48]",78056,2.0,10027.0,-1.38962569557e+18,mouselab-mdp,28
"[1963, 2865, 4023]","[u'left', u'left', u'down']",test,"[u'0', u'9', u'10', u'12']","{u'mouseover': {u'state': {u'target': [], u'time': []}, u'edge': {u'target': [], u'time': []}}, u'click': {u'state': {u'target': [], u'time': []}, u'edge': {u'target': [], u'time': []}}, u'mouseout': {u'state': {u'target': [], u'time': []}, u'edge': {u'target': [], u'time': []}}}","[4, -8, 24]","[1958, 381, 634]",20.0,"[None, None, None]","[u'', 2, 4, 24, -24, 4, 8, -48, 24, 4, -8, -24, 24]",88959,3.0,9818.0,8.9509461883e+18,mouselab-mdp,28
"[1660, 2458, 3152]","[u'right', u'right', u'down']",test,"[u'0', u'5', u'6', u'8']","{u'mouseover': {u'state': {u'target': [], u'time': []}, u'edge': {u'target': [], u'time': []}}, u'click': {u'state': {u'target': [], u'time': []}, u'edge': {u'target': [], u'time': []}}, u'mouseout': {u'state': {u'target': [], u'time': []}, u'edge': {u'target': [], u'time': []}}}","[-2, -8, -24]","[1652, 273, 165]",-34.0,"[None, None, None]","[u'', 4, 4, 48, -48, -2, -8, 48, -24, -4, -8, 24, -48]",100228,4.0,10192.0,-4.67008033733e+18,mouselab-mdp,28
"[380, 1059, 1821]","[u'up', u'up', u'left']",test,"[u'0', u'1', u'2', u'4']","{u'mouseover': {u'state': {u'target': [], u'time': []}, u'edge': {u'target': [], u'time': []}}, u'click': {u'state': {u'target': [], u'time': []}, u'edge': {u'target': [], u'time': []}}, u'mouseout': {u'state': {u'target': [], u'time': []}, u'edge': {u'target': [], u'time': []}}}","[2, -4, -48]","[374, 163, 240]",-50.0,"[None, None, None]","[u'', 2, -4, 24, -48, -2, -8, 24, -48, 2, 4, 24, -48]",109778,5.0,8472.0,2.65301876191e+18,mouselab-mdp,28
"[323, 1123, 2991]","[u'right', u'right', u'down']",test,"[u'0', u'5', u'6', u'8']","{u'mouseover': {u'state': {u'target': [], u'time': []}, u'edge': {u'target': [], u'time': []}}, u'click': {u'state': {u'target': [], u'time': []}, u'edge': {u'target': [], u'time': []}}, u'mouseout': {u'state': {u'target': [], u'time': []}, u'edge': {u'target': [], u'time': []}}}","[-2, -4, 24]","[310, 281, 1352]",18.0,"[None, None, None]","[u'', 2, -4, 48, 24, -2, -4, 24, 24, 2, -8, -24, 24]",118332,6.0,7405.0,5.56601214792e+17,mouselab-mdp,28
"[828, 1659, 2732]","[u'left', u'left', u'up']",test,"[u'0', u'9', u'10', u'11']","{u'mouseover': {u'state': {u'target': [], u'time': []}, u'edge': {u'target': [], u'time': []}}, u'click': {u'state': {u'target': [], u'time': []}, u'edge': {u'target': [], u'time': []}}, u'mouseout': {u'state': {u'target': [], u'time': []}, u'edge': {u'target': [], u'time': []}}}","[-2, 8, 48]","[822, 308, 548]",54.0,"[None, None, None]","[u'', 4, -4, -48, -48, 4, 8, 24, -24, -2, 8, 48, -48]",130332,7.0,10915.0,-6.97855305918e+18,mouselab-mdp,28
"[1082, 2834, 3722]","[u'up', u'up', u'left']",test,"[u'0', u'1', u'2', u'4']","{u'mouseover': {u'state': {u'target': [], u'time': []}, u'edge': {u'target': [], u'time': []}}, u'click': {u'state': {u'target': [], u'time': []}, u'edge': {u'target': [], u'time': []}}, u'mouseout': {u'state': {u'target': [], u'time': []}, u'edge': {u'target': [], u'time': []}}}","[2, 4, 48]","[1078, 1237, 375]",54.0,"[None, None, None]","[u'', 2, 4, -24, 48, -4, 8, -48, 48, 2, -4, 24, -24]",141115,8.0,9699.0,-8.3276713645e+18,mouselab-mdp,28
"[865, 2055, 3362]","[u'left', u'left', u'down']",test,"[u'0', u'9', u'10', u'12']","{u'mouseover': {u'state': {u'target': [], u'time': []}, u'edge': {u'target': [], u'time': []}}, u'click': {u'state': {u'target': [], u'time': []}, u'edge': {u'target': [], u'time': []}}, u'mouseout': {u'state': {u'target': [], u'time': []}, u'edge': {u'target': [], u'time': []}}}","[-2, 4, -48]","[858, 672, 780]",-46.0,"[None, None, None]","[u'', 2, -4, 24, 24, -4, 4, -24, -24, -2, 4, -24, -48]",150591,9.0,8395.0,7.86254308938e+18,mouselab-mdp,28
"[1073, 1715, 2546]","[u'up', u'up', u'left']",test,"[u'0', u'1', u'2', u'4']","{u'mouseover': {u'state': {u'target': [], u'time': []}, u'edge': {u'target': [], u'time': []}}, u'click': {u'state': {u'target': [], u'time': []}, u'edge': {u'target': [], u'time': []}}, u'mouseout': {u'state': {u'target': [], u'time': []}, u'edge': {u'target': [], u'time': []}}}","[2, -4, -48]","[1065, 126, 306]",-50.0,"[None, None, None]","[u'', 2, -4, 24, -48, -4, -8, -48, -48, -4, 4, -48, 48]",160967,10.0,9296.0,2.1183359843e+18,mouselab-mdp,28
"[319, 1256, 1861]","[u'up', u'up', u'left']",test,"[u'0', u'1', u'2', u'4']","{u'mouseover': {u'state': {u'target': [], u'time': []}, u'edge': {u'target': [], u'time': []}}, u'click': {u'state': {u'target': [], u'time': []}, u'edge': {u'target': [], u'time': []}}, u'mouseout': {u'state': {u'target': [], u'time': []}, u'edge': {u'target': [], u'time': []}}}","[-2, -4, -48]","[304, 415, 87]",-54.0,"[None, None, None]","[u'', -2, -4, 24, -48, -4, 8, -24, -24, 4, -4, -48, 24]",170438,11.0,8354.0,1.39930365593e+18,mouselab-mdp,28
"[949, 2442, 3243]","[u'up', u'up', u'left']",test,"[u'0', u'1', u'2', u'4']","{u'mouseover': {u'state': {u'target': [], u'time': []}, u'edge': {u'target': [], u'time': []}}, u'click': {u'state': {u'target': [], u'time': []}, u'edge': {u'target': [], u'time': []}}, u'mouseout': {u'state': {u'target': [], u'time': []}, u'edge': {u'target': [], u'time': []}}}","[4, 8, 48]","[943, 971, 274]",60.0,"[None, None, None]","[u'', 4, 8, -24, 48, 2, 8, -48, -48, 2, -4, 24, -48]",179800,12.0,8280.0,-6.66851853783e+18,mouselab-mdp,28
"[356, 1243, 2127]","[u'up', u'up', u'left']",test,"[u'0', u'1', u'2', u'4']","{u'mouseover': {u'state': {u'target': [], u'time': []}, u'edge': {u'target': [], u'time': []}}, u'click': {u'state': {u'target': [], u'time': []}, u'edge': {u'target': [], u'time': []}}, u'mouseout': {u'state': {u'target': [], u'time': []}, u'edge': {u'target': [], u'time': []}}}","[4, -8, 24]","[349, 365, 367]",20.0,"[None, None, None]","[u'', 4, -8, 24, 24, 2, 4, 24, 48, -2, 4, 24, -48]",188343,13.0,7467.0,6.72269827856e+18,mouselab-mdp,28
"[981, 4971, 7133]","[u'right', u'right', u'up']",test,"[u'0', u'5', u'6', u'7']","{u'mouseover': {u'state': {u'target': [], u'time': []}, u'edge': {u'target': [], u'time': []}}, u'click': {u'state': {u'target': [], u'time': []}, u'edge': {u'target': [], u'time': []}}, u'mouseout': {u'state': {u'target': [], u'time': []}, u'edge': {u'target': [], u'time': []}}}","[-2, 4, 24]","[971, 3466, 1648]",26.0,"[None, None, None]","[u'', 2, 8, 48, 24, -2, 4, 24, 24, -2, -4, -48, -24]",199864,14.0,10416.0,-8.92386760362e+18,mouselab-mdp,28
"[10854, 11465, 12511]","[u'left', u'left', u'down']",test,"[u'0', u'9', u'10', u'12']","{u'mouseover': {u'state': {u'target': [], u'time': []}, u'edge': {u'target': [], u'time': []}}, u'click': {u'state': {u'target': [u'9', u'10', u'12', u'11', u'5', u'6', u'8', u'7'], u'time': [1535, 2544, 3612, 5148, 6225, 7393, 8169, 9235]}, u'edge': {u'target': [], u'time': []}}, u'mouseout': {u'state': {u'target': [], u'time': []}, u'edge': {u'target': [], u'time': []}}}","[-2, -4, 24]","[10846, 97, 528]",10.0,"[None, None, None]","[u'', 4, 4, -48, 48, -2, 4, -48, -24, -2, -4, -48, 24]",214908,15.0,13960.0,-5.00680981918e+18,mouselab-mdp,28
"[5276, 5918, 6922]","[u'left', u'left', u'up']",test,"[u'0', u'9', u'10', u'11']","{u'mouseover': {u'state': {u'target': [], u'time': []}, u'edge': {u'target': [], u'time': []}}, u'click': {u'state': {u'target': [u'9', u'10', u'12', u'11'], u'time': [2096, 2908, 3569, 4464]}, u'edge': {u'target': [], u'time': []}}, u'mouseout': {u'state': {u'target': [], u'time': []}, u'edge': {u'target': [], u'time': []}}}","[4, 4, 48]","[5268, 126, 476]",52.0,"[None, None, None]","[u'', -4, 8, 48, -24, -2, -4, 24, -48, 4, 4, 48, -48]",225378,16.0,9378.0,7.26324481059e+18,mouselab-mdp,28
"[4799, 5434, 6207]","[u'right', u'right', u'up']",test,"[u'0', u'5', u'6', u'7']","{u'mouseover': {u'state': {u'target': [], u'time': []}, u'edge': {u'target': [], u'time': []}}, u'click': {u'state': {u'target': [u'5', u'6', u'7', u'8'], u'time': [1017, 1962, 2634, 3348]}, u'edge': {u'target': [], u'time': []}}, u'mouseout': {u'state': {u'target': [], u'time': []}, u'edge': {u'target': [], u'time': []}}}","[2, -4, 48]","[4792, 106, 264]",42.0,"[None, None, None]","[u'', -2, -4, 48, -24, 2, -4, 48, 24, -2, -8, -24, -24]",234745,17.0,8261.0,2.59386444745e+18,mouselab-mdp,28
