action_times,actions,block,path,queries,rewards,rt,score,simulation_mode,state_rewards,time_elapsed,trial_index,trial_time,trial_id,trial_type,pid
"[12270, 19394, 20379, 22975, 24892]","[u'right', u'right', u'right', u'up', u'left']",pre_test,"[u'0', u'12', u'13', u'14', u'15', u'18']","{u'mouseover': {u'state': {u'target': [], u'time': []}, u'edge': {u'target': [], u'time': []}}, u'click': {u'state': {u'target': [], u'time': []}, u'edge': {u'target': [], u'time': []}}, u'mouseout': {u'state': {u'target': [], u'time': []}, u'edge': {u'target': [], u'time': []}}}","[0, 3, 3, -3, 52]","[12259, 6614, 480, 2079, 1413]",55.0,"[None, None, None, None, None]","[u'', -1, -2, -6, 7, -14, 35, -26, 5, 45, -3, -36, 0, 3, 3, -3, -56, 23, 52, 13, 14, -6, -25, -1, -3, 9, 0, 76, -2, -52, 15, -28, -14, 53]",105950,0.0,27802.0,-6.29884450587e+18,mouselab-mdp,0
"[24086, 24898, 25647]","[u'up', u'up', u'left']",training,"[u'0', u'1', u'2', u'4']","{u'mouseover': {u'state': {u'target': [], u'time': []}, u'edge': {u'target': [], u'time': []}}, u'click': {u'state': {u'target': [u'5', u'1', u'2', u'4', u'9', u'10', u'11', u'7', u'3', u'8'], u'time': [3815, 6635, 7958, 9232, 11649, 13243, 14035, 18006, 20848, 21972]}, u'edge': {u'target': [], u'time': []}}, u'mouseout': {u'state': {u'target': [], u'time': []}, u'edge': {u'target': [], u'time': []}}}","[2, -8, 48]","[24083, 297, 229]",32.0,"[None, None, None]","[u'', 2, -8, -24, 48, -2, -4, -24, -24, 4, 8, 24, 48]",153296,1.0,27739.0,6.51676073779e+18,mouselab-mdp,0
"[15841, 16491, 17166]","[u'left', u'left', u'down']",training,"[u'0', u'9', u'10', u'12']","{u'mouseover': {u'state': {u'target': [], u'time': []}, u'edge': {u'target': [], u'time': []}}, u'click': {u'state': {u'target': [u'7', u'11', u'12', u'3', u'4', u'8'], u'time': [3860, 6467, 7441, 12315, 13179, 14207]}, u'edge': {u'target': [], u'time': []}}, u'mouseout': {u'state': {u'target': [], u'time': []}, u'edge': {u'target': [], u'time': []}}}","[-2, -8, 48]","[15835, 143, 185]",32.0,"[None, None, None]","[u'', 4, -8, -48, -48, -4, 4, 24, 24, -2, -8, -24, 48]",173345,2.0,18986.0,-4.56949664606e+18,mouselab-mdp,0
"[9714, 10290, 11016]","[u'left', u'left', u'down']",training,"[u'0', u'9', u'10', u'12']","{u'mouseover': {u'state': {u'target': [], u'time': []}, u'edge': {u'target': [], u'time': []}}, u'click': {u'state': {u'target': [u'3', u'6', u'11', u'12'], u'time': [2668, 5743, 7008, 7723]}, u'edge': {u'target': [], u'time': []}}, u'mouseout': {u'state': {u'target': [], u'time': []}, u'edge': {u'target': [], u'time': []}}}","[-4, -8, 48]","[9708, 73, 216]",32.0,"[None, None, None]","[u'', -4, 4, 24, -24, -2, 4, 48, -24, -4, -8, -48, 48]",186786,3.0,12395.0,8.58865579534e+17,mouselab-mdp,0
"[12765, 13438, 14145]","[u'up', u'up', u'right']",training,"[u'0', u'1', u'2', u'3']","{u'mouseover': {u'state': {u'target': [], u'time': []}, u'edge': {u'target': [], u'time': []}}, u'click': {u'state': {u'target': [u'7', u'8', u'12', u'11', u'4', u'3', u'1'], u'time': [4459, 5415, 6361, 7019, 7910, 9657, 10915]}, u'edge': {u'target': [], u'time': []}}, u'mouseout': {u'state': {u'target': [], u'time': []}, u'edge': {u'target': [], u'time': []}}}","[-4, 4, 48]","[12755, 162, 186]",41.0,"[None, None, None]","[u'', -4, 4, 48, -48, -4, 4, -24, 24, -4, -8, 24, 24]",203690,4.0,15843.0,-5.99530113684e+18,mouselab-mdp,0
"[4340, 5174, 6106]","[u'left', u'left', u'up']",training,"[u'0', u'9', u'10', u'11']","{u'mouseover': {u'state': {u'target': [], u'time': []}, u'edge': {u'target': [], u'time': []}}, u'click': {u'state': {u'target': [u'11'], u'time': [2284]}, u'edge': {u'target': [], u'time': []}}, u'mouseout': {u'state': {u'target': [], u'time': []}, u'edge': {u'target': [], u'time': []}}}","[4, -8, 48]","[4336, 340, 422]",43.0,"[None, None, None]","[u'', 4, -4, -24, 24, 2, 4, -24, -48, 4, -8, 48, -48]",212495,5.0,7757.0,4.25168764169e+18,mouselab-mdp,0
"[4204, 4968, 5858]","[u'left', u'left', u'up']",training,"[u'0', u'9', u'10', u'11']","{u'mouseover': {u'state': {u'target': [], u'time': []}, u'edge': {u'target': [], u'time': []}}, u'click': {u'state': {u'target': [u'7', u'12', u'11'], u'time': [919, 2172, 2883]}, u'edge': {u'target': [], u'time': []}}, u'mouseout': {u'state': {u'target': [], u'time': []}, u'edge': {u'target': [], u'time': []}}}","[-4, -4, 48]","[4198, 274, 398]",37.0,"[None, None, None]","[u'', -4, 8, 48, 24, 2, -8, -48, -24, -4, -4, 48, -24]",224924,6.0,11378.0,3.41976950562e+18,mouselab-mdp,0
"[17738, 18320, 19030]","[u'up', u'up', u'right']",training,"[u'0', u'1', u'2', u'3']","{u'mouseover': {u'state': {u'target': [], u'time': []}, u'edge': {u'target': [], u'time': []}}, u'click': {u'state': {u'target': [u'8', u'3', u'4', u'11', u'12', u'6', u'10', u'7', u'2', u'1', u'5'], u'time': [1397, 2990, 4123, 4898, 5437, 6372, 7125, 8685, 9680, 14178, 14709]}, u'edge': {u'target': [], u'time': []}}, u'mouseout': {u'state': {u'target': [], u'time': []}, u'edge': {u'target': [], u'time': []}}}","[-2, 4, 24]","[17732, 77, 187]",15.0,"[None, None, None]","[u'', -2, 4, 24, -24, -4, 4, -24, 24, -4, -8, -24, 24]",247462,7.0,21464.0,-3.14224207546e+18,mouselab-mdp,0
"[7890, 8541, 9410]","[u'right', u'right', u'down']",training,"[u'0', u'5', u'6', u'8']","{u'mouseover': {u'state': {u'target': [], u'time': []}, u'edge': {u'target': [], u'time': []}}, u'click': {u'state': {u'target': [u'11', u'8'], u'time': [1896, 3809]}, u'edge': {u'target': [], u'time': []}}, u'mouseout': {u'state': {u'target': [], u'time': []}, u'edge': {u'target': [], u'time': []}}}","[4, -8, 48]","[7882, 159, 360]",42.0,"[None, None, None]","[u'', 4, -8, 24, 48, 4, -8, -24, 48, -2, -8, 24, -24]",259447,8.0,10939.0,6.60860815513e+18,mouselab-mdp,0
"[6063, 7118, 7817]","[u'left', u'left', u'up']",training,"[u'0', u'9', u'10', u'11']","{u'mouseover': {u'state': {u'target': [], u'time': []}, u'edge': {u'target': [], u'time': []}}, u'click': {u'state': {u'target': [u'11', u'10'], u'time': [1738, 5156]}, u'edge': {u'target': [], u'time': []}}, u'mouseout': {u'state': {u'target': [], u'time': []}, u'edge': {u'target': [], u'time': []}}}","[4, -8, 48]","[6058, 557, 208]",42.0,"[None, None, None]","[u'', -4, 4, -24, -24, -4, -8, 24, -24, 4, -8, 48, -48]",269979,9.0,9482.0,4.60924718032e+17,mouselab-mdp,0
"[14889, 15571, 16154]","[u'right', u'right', u'up']",training,"[u'0', u'5', u'6', u'7']","{u'mouseover': {u'state': {u'target': [], u'time': []}, u'edge': {u'target': [], u'time': []}}, u'click': {u'state': {u'target': [u'3', u'12', u'7', u'11', u'8', u'4', u'10', u'6', u'2', u'5', u'1'], u'time': [1128, 2009, 3079, 3867, 4591, 5587, 6855, 7512, 8095, 10212, 13521]}, u'edge': {u'target': [], u'time': []}}, u'mouseout': {u'state': {u'target': [], u'time': []}, u'edge': {u'target': [], u'time': []}}}","[2, -4, 24]","[14882, 167, 83]",11.0,"[None, None, None]","[u'', -4, -4, -24, 24, 2, -4, 24, -48, -2, 8, -48, -48]",288852,10.0,17798.0,-1.38962569557e+18,mouselab-mdp,0
"[10419, 14422, 17026, 25696, 28903]","[u'right', u'right', u'right', u'down', u'down']",pre_test,"[u'0', u'12', u'13', u'14', u'19', u'21']","{u'mouseover': {u'state': {u'target': [], u'time': []}, u'edge': {u'target': [], u'time': []}}, u'click': {u'state': {u'target': [u'23', u'12', u'1'], u'time': [3533, 4818, 6481]}, u'edge': {u'target': [], u'time': []}}, u'mouseout': {u'state': {u'target': [], u'time': []}, u'edge': {u'target': [], u'time': []}}}","[2, 1, 5, -2, -6]","[10405, 3476, 2043, 8167, 2688]",-3.0,"[None, None, None, None, None]","[u'', 1, -1, -3, -3, -34, 1, -32, -7, 10, -18, -7, 2, 1, 5, 4, 19, -43, -18, -2, -14, -6, 5, 0, 1, -1, 9, 0, -19, -40, -6, -8, 38, -41]",95223,0.0,32805.0,5.01968822029e+18,mouselab-mdp,1
"[12606, 58921, 60410]","[u'up', u'up', u'right']",training,"[u'0', u'1', u'2', u'3']","{u'mouseover': {u'state': {u'target': [], u'time': []}, u'edge': {u'target': [], u'time': []}}, u'click': {u'state': {u'target': [u'9'], u'time': [5123]}, u'edge': {u'target': [], u'time': []}}, u'mouseout': {u'state': {u'target': [], u'time': []}, u'edge': {u'target': [], u'time': []}}}","[-2, -8, -24]","[12599, 3785, 965]",-35.0,"[None, None, None]","[u'', -2, -8, -24, -24, 4, 8, 48, 24, -2, 8, -24, -48]",171221,1.0,63228.0,4.07975241014e+18,mouselab-mdp,1
"[12256, 13746, 15241]","[u'up', u'up', u'right']",training,"[u'0', u'1', u'2', u'3']","{u'mouseover': {u'state': {u'target': [], u'time': []}, u'edge': {u'target': [], u'time': []}}, u'click': {u'state': {u'target': [u'12', u'7', u'3'], u'time': [6189, 7524, 9709]}, u'edge': {u'target': [], u'time': []}}, u'mouseout': {u'state': {u'target': [], u'time': []}, u'edge': {u'target': [], u'time': []}}}","[-4, 8, 48]","[12251, 979, 977]",49.0,"[None, None, None]","[u'', -4, 8, 48, 24, 2, -8, -48, -24, -4, -4, 48, -24]",191209,2.0,18895.0,3.41976950562e+18,mouselab-mdp,1
"[26209, 32266, 33453]","[u'left', u'left', u'down']",training,"[u'0', u'9', u'10', u'12']","{u'mouseover': {u'state': {u'target': [], u'time': []}, u'edge': {u'target': [], u'time': []}}, u'click': {u'state': {u'target': [u'12', u'8', u'4', u'3', u'7', u'11'], u'time': [2654, 7301, 10214, 12309, 13460, 18121]}, u'edge': {u'target': [], u'time': []}}, u'mouseout': {u'state': {u'target': [], u'time': []}, u'edge': {u'target': [], u'time': []}}}","[-4, 8, 48]","[26201, 1532, 672]",46.0,"[None, None, None]","[u'', 2, 4, 24, -24, 4, -8, 48, -24, -4, 8, -48, 48]",228246,3.0,35958.0,5.01038116734e+18,mouselab-mdp,1
"[24974, 26040, 26802]","[u'up', u'up', u'right']",training,"[u'0', u'1', u'2', u'3']","{u'mouseover': {u'state': {u'target': [], u'time': []}, u'edge': {u'target': [], u'time': []}}, u'click': {u'state': {u'target': [u'12', u'11', u'8', u'7', u'3', u'4', u'10', u'6', u'2'], u'time': [3644, 6988, 8838, 10565, 12348, 13731, 17619, 18851, 20363]}, u'edge': {u'target': [], u'time': []}}, u'mouseout': {u'state': {u'target': [], u'time': []}, u'edge': {u'target': [], u'time': []}}}","[-2, 4, 48]","[24967, 552, 248]",41.0,"[None, None, None]","[u'', -2, 4, 48, 24, -4, 8, -48, 24, 4, -8, 24, 24]",259029,4.0,29676.0,-1.46177589383e+18,mouselab-mdp,1
"[22038, 23206, 24374]","[u'right', u'right', u'up']",training,"[u'0', u'5', u'6', u'7']","{u'mouseover': {u'state': {u'target': [], u'time': []}, u'edge': {u'target': [], u'time': []}}, u'click': {u'state': {u'target': [u'12', u'11', u'4', u'3', u'7', u'8', u'6', u'2', u'5', u'1'], u'time': [3581, 4541, 5460, 6309, 7164, 8008, 12165, 13053, 17663, 18444]}, u'edge': {u'target': [], u'time': []}}, u'mouseout': {u'state': {u'target': [], u'time': []}, u'edge': {u'target': [], u'time': []}}}","[2, -4, 24]","[22030, 653, 656]",12.0,"[None, None, None]","[u'', -4, -4, -24, 24, 2, -4, 24, -48, -2, 8, -48, -48]",286500,5.0,26372.0,-1.38962569557e+18,mouselab-mdp,1
"[15295, 16199, 16834]","[u'up', u'up', u'right']",training,"[u'0', u'1', u'2', u'3']","{u'mouseover': {u'state': {u'target': [], u'time': []}, u'edge': {u'target': [], u'time': []}}, u'click': {u'state': {u'target': [u'12', u'11', u'4', u'3', u'7', u'8', u'10', u'2', u'6', u'1'], u'time': [2167, 2941, 3701, 4510, 5180, 5989, 9318, 10382, 11606, 12711]}, u'edge': {u'target': [], u'time': []}}, u'mouseout': {u'state': {u'target': [], u'time': []}, u'edge': {u'target': [], u'time': []}}}","[2, 8, 48]","[15285, 388, 125]",48.0,"[None, None, None]","[u'', 2, 8, 48, -24, -4, -4, -48, 24, -4, -8, -48, -24]",306840,6.0,19250.0,2.37271076103e+18,mouselab-mdp,1
"[10773, 11557, 13734]","[u'left', u'left', u'up']",training,"[u'0', u'9', u'10', u'11']","{u'mouseover': {u'state': {u'target': [], u'time': []}, u'edge': {u'target': [], u'time': []}}, u'click': {u'state': {u'target': [u'12', u'11', u'4', u'3', u'7', u'8', u'10'], u'time': [2008, 2833, 3503, 4151, 4735, 5543, 7975]}, u'edge': {u'target': [], u'time': []}}, u'mouseout': {u'state': {u'target': [], u'time': []}, u'edge': {u'target': [], u'time': []}}}","[-2, -4, 48]","[10766, 263, 1658]",35.0,"[None, None, None]","[u'', -2, 4, -48, -24, 2, 4, 24, 24, -2, -4, 48, -24]",323960,7.0,16028.0,7.45732429498e+18,mouselab-mdp,1
"[8841, 9599, 11548]","[u'left', u'left', u'up']",training,"[u'0', u'9', u'10', u'11']","{u'mouseover': {u'state': {u'target': [], u'time': []}, u'edge': {u'target': [], u'time': []}}, u'click': {u'state': {u'target': [u'12', u'11', u'4', u'3', u'7', u'8'], u'time': [1456, 2137, 2967, 3576, 4231, 4856]}, u'edge': {u'target': [], u'time': []}}, u'mouseout': {u'state': {u'target': [], u'time': []}, u'edge': {u'target': [], u'time': []}}}","[4, -8, 48]","[8834, 248, 1430]",38.0,"[None, None, None]","[u'', -4, 4, -24, -24, -4, -8, 24, -24, 4, -8, 48, -48]",338361,8.0,13310.0,4.60924718032e+17,mouselab-mdp,1
"[6885, 7771, 8639]","[u'right', u'right', u'down']",training,"[u'0', u'5', u'6', u'8']","{u'mouseover': {u'state': {u'target': [], u'time': []}, u'edge': {u'target': [], u'time': []}}, u'click': {u'state': {u'target': [u'12', u'11', u'4', u'3', u'7', u'8'], u'time': [1834, 2387, 2994, 3586, 4162, 4803]}, u'edge': {u'target': [], u'time': []}}, u'mouseout': {u'state': {u'target': [], u'time': []}, u'edge': {u'target': [], u'time': []}}}","[-4, -8, 48]","[6862, 369, 356]",30.0,"[None, None, None]","[u'', 4, 8, -24, -24, -4, -8, -48, 48, 2, -8, -24, -48]",351044,9.0,11595.0,2.63044322054e+18,mouselab-mdp,1
"[14798, 15671, 16810]","[u'left', u'left', u'down']",training,"[u'0', u'9', u'10', u'12']","{u'mouseover': {u'state': {u'target': [], u'time': []}, u'edge': {u'target': [], u'time': []}}, u'click': {u'state': {u'target': [u'12', u'11', u'4', u'3', u'7', u'8', u'10', u'2', u'1', u'9'], u'time': [2082, 3300, 3907, 4941, 5667, 6379, 9068, 10124, 11516, 12578]}, u'edge': {u'target': [], u'time': []}}, u'mouseout': {u'state': {u'target': [], u'time': []}, u'edge': {u'target': [], u'time': []}}}","[4, -4, 24]","[14793, 363, 620]",14.0,"[None, None, None]","[u'', -2, -4, 24, -48, -4, 8, -24, -24, 4, -4, -48, 24]",370925,10.0,18796.0,1.39930365593e+18,mouselab-mdp,1
"[56441, 57201, 57929, 58779, 59664]","[u'left', u'left', u'left', u'down', u'left']",test,"[u'0', u'23', u'24', u'25', u'30', u'33']","{u'mouseover': {u'state': {u'target': [], u'time': []}, u'edge': {u'target': [], u'time': []}}, u'click': {u'state': {u'target': [u'23', u'12', u'1', u'14', u'25', u'3', u'6', u'5', u'11', u'9', u'10', u'7', u'16', u'18', u'17', u'20', u'22', u'21', u'32', u'31', u'33', u'29', u'28', u'27', u'24', u'26'], u'time': [2483, 3648, 4729, 6538, 9617, 12802, 14632, 15583, 16943, 18246, 20231, 21335, 25407, 26231, 26919, 27703, 28430, 29599, 30839, 31496, 32223, 33071, 33953, 34706, 36775, 37584]}, u'edge': {u'target': [], u'time': []}}, u'mouseout': {u'state': {u'target': [], u'time': []}, u'edge': {u'target': [], u'time': []}}}","[1, -2, -2, 5, 66]","[56426, 226, 206, 324, 361]",42.0,"[None, None, None, None, None]","[u'', -3, 1, 3, -12, 3, 9, 11, -4, 3, 19, -57, 1, -1, 3, -6, -55, 38, 53, -15, -41, 3, -34, 1, -2, -2, 2, -70, -10, 64, 5, -32, 33, 66]",86582,0.0,61954.0,-7.40831087289e+18,mouselab-mdp,1
"[21459, 22415, 23241, 24469, 25470]","[u'up', u'up', u'up', u'right', u'down']",test,"[u'0', u'1', u'2', u'3', u'4', u'7']","{u'mouseover': {u'state': {u'target': [], u'time': []}, u'edge': {u'target': [], u'time': []}}, u'click': {u'state': {u'target': [u'25', u'27', u'29', u'28', u'33', u'31', u'32', u'14', u'22', u'20', u'21', u'17', u'18', u'16', u'3', u'6', u'5', u'9', u'11', u'7'], u'time': [1860, 2923, 3580, 4196, 4885, 5467, 6563, 8106, 8731, 9315, 9962, 10755, 11370, 12043, 13386, 14291, 14899, 15611, 16283, 18980]}, u'edge': {u'target': [], u'time': []}}, u'mouseout': {u'state': {u'target': [], u'time': []}, u'edge': {u'target': [], u'time': []}}}","[0, 0, -1, 8, 106]","[21439, 442, 304, 700, 485]",93.0,"[None, None, None, None, None]","[u'', 0, 0, -1, 8, 31, 23, 106, -5, -12, -32, 14, -1, -5, -5, 1, 32, -50, -20, -1, -23, 17, 0, 0, -1, 6, 0, 41, -14, 19, -5, -30, -23, -1]",119003,1.0,31068.0,-7.6395338963e+18,mouselab-mdp,1
"[20288, 21300, 22347, 23310, 24931]","[u'right', u'right', u'right', u'down', u'right']",test,"[u'0', u'12', u'13', u'14', u'19', u'20']","{u'mouseover': {u'state': {u'target': [], u'time': []}, u'edge': {u'target': [], u'time': []}}, u'click': {u'state': {u'target': [u'25', u'9', u'5', u'16', u'17', u'20', u'21', u'32', u'27', u'29', u'33', u'7', u'10', u'6', u'11'], u'time': [1688, 2759, 3567, 4312, 4895, 5711, 6369, 7823, 9199, 9816, 10416, 13368, 14175, 15288, 16040]}, u'edge': {u'target': [], u'time': []}}, u'mouseout': {u'state': {u'target': [], u'time': []}, u'edge': {u'target': [], u'time': []}}}","[0, -3, 1, 8, 45]","[20279, 493, 525, 441, 1107]",36.0,"[None, None, None, None, None]","[u'', -1, -2, 1, 3, 10, -18, -26, 1, -13, 33, 37, 0, -3, 1, -5, 26, 22, -34, 8, 45, 12, 20, -1, -2, 5, 2, -3, -2, 24, -2, -16, -10, -5]",147414,2.0,27061.0,-6.91601907848e+18,mouselab-mdp,1
"[25375, 26103, 26960, 27704, 28490]","[u'right', u'right', u'right', u'down', u'left']",test,"[u'0', u'12', u'13', u'14', u'19', u'22']","{u'mouseover': {u'state': {u'target': [], u'time': []}, u'edge': {u'target': [], u'time': []}}, u'click': {u'state': {u'target': [u'3', u'14', u'25', u'33', u'29', u'27', u'11', u'6', u'17', u'20', u'21', u'16', u'18', u'22', u'12', u'13'], u'time': [2512, 4071, 5078, 5799, 6502, 7096, 8687, 9775, 12342, 14103, 15831, 16774, 19479, 20055, 22455, 23111]}, u'edge': {u'target': [], u'time': []}}, u'mouseout': {u'state': {u'target': [], u'time': []}, u'edge': {u'target': [], u'time': []}}}","[0, 2, 0, 0, 52]","[25360, 208, 333, 227, 264]",38.0,"[None, None, None, None, None]","[u'', 0, -3, -2, -9, 14, -20, 25, 4, -8, 3, 29, 0, 2, 0, 2, 26, 43, 17, 0, 23, -49, 52, -1, 2, -2, 4, -4, 10, -26, -17, 13, -19, -21]",179467,3.0,30738.0,-2.59993630193e+18,mouselab-mdp,1
"[17710, 18633, 19605, 20516, 23576]","[u'up', u'up', u'up', u'right', u'up']",test,"[u'0', u'1', u'2', u'3', u'4', u'5']","{u'mouseover': {u'state': {u'target': [], u'time': []}, u'edge': {u'target': [], u'time': []}}, u'click': {u'state': {u'target': [u'25', u'14', u'5', u'9', u'33', u'20', u'21', u'32', u'29', u'17', u'16', u'10', u'7'], u'time': [1552, 2527, 3952, 5000, 6287, 7576, 8335, 9047, 10128, 10992, 11999, 13840, 14441]}, u'edge': {u'target': [], u'time': []}}, u'mouseout': {u'state': {u'target': [], u'time': []}, u'edge': {u'target': [], u'time': []}}}","[0, 1, 5, 1, 17]","[17699, 392, 449, 396, 2540]",11.0,"[None, None, None, None, None]","[u'', 0, 1, 5, 1, 17, -10, -43, -10, 2, -6, -21, 0, -2, 0, 0, -27, -74, 47, 3, -85, -14, 13, 0, 1, -4, 1, -2, -6, -7, 2, 30, -17, -13]",206611,4.0,25746.0,2.94409503949e+18,mouselab-mdp,1
"[13838, 14650, 15507, 16620, 17490]","[u'up', u'up', u'up', u'right', u'up']",test,"[u'0', u'1', u'2', u'3', u'4', u'5']","{u'mouseover': {u'state': {u'target': [], u'time': []}, u'edge': {u'target': [], u'time': []}}, u'click': {u'state': {u'target': [u'25', u'14', u'5', u'4', u'3', u'2', u'1', u'11', u'9'], u'time': [1398, 2286, 3175, 5135, 6831, 8279, 8759, 11303, 11799]}, u'edge': {u'target': [], u'time': []}}, u'mouseout': {u'state': {u'target': [], u'time': []}, u'edge': {u'target': [], u'time': []}}}","[0, 3, 2, -13, 127]","[13827, 289, 332, 596, 351]",110.0,"[None, None, None, None, None]","[u'', 0, 3, 2, -13, 127, 21, 3, -11, 3, -15, 21, 0, 4, 1, 4, 12, -5, -6, 9, 25, -20, -36, 0, 2, 0, 14, -25, 5, -81, -5, -10, 16, 55]",227861,5.0,19852.0,-7.72010987048e+18,mouselab-mdp,1
"[55303, 56041, 56820, 57762, 58519]","[u'right', u'right', u'right', u'up', u'up']",test,"[u'0', u'12', u'13', u'14', u'15', u'16']","{u'mouseover': {u'state': {u'target': [], u'time': []}, u'edge': {u'target': [], u'time': []}}, u'click': {u'state': {u'target': [u'25', u'14', u'5', u'6', u'9', u'11', u'10', u'7', u'17', u'29', u'33', u'31', u'27', u'32', u'21', u'20', u'22', u'18', u'16', u'15', u'23', u'24', u'30', u'3', u'8', u'2', u'28', u'13', u'12'], u'time': [1318, 2134, 3622, 4679, 5438, 6127, 7894, 8431, 9207, 10366, 10903, 11431, 12447, 13679, 14352, 14863, 15421, 16632, 17279, 19528, 23775, 24320, 24847, 34543, 35072, 35560, 38392, 52489, 53553]}, u'edge': {u'target': [], u'time': []}}, u'mouseout': {u'state': {u'target': [], u'time': []}, u'edge': {u'target': [], u'time': []}}}","[2, 1, 5, 4, 19]","[55261, 209, 256, 417, 223]",2.0,"[None, None, None, None, None]","[u'', 1, -1, -3, -3, -34, 1, -32, -7, 10, -18, -7, 2, 1, 5, 4, 19, -43, -18, -2, -14, -6, 5, 0, 1, -1, 9, 0, -19, -40, -6, -8, 38, -41]",291006,6.0,61845.0,5.01968822029e+18,mouselab-mdp,1
"[11251, 12039, 12978, 14148, 15017]","[u'right', u'right', u'right', u'up', u'right']",test,"[u'0', u'12', u'13', u'14', u'15', u'17']","{u'mouseover': {u'state': {u'target': [], u'time': []}, u'edge': {u'target': [], u'time': []}}, u'click': {u'state': {u'target': [u'25', u'9', u'5', u'6', u'16', u'17', u'14', u'12', u'13', u'15'], u'time': [1472, 2776, 3308, 3850, 4386, 4865, 6850, 7786, 8266, 8802]}, u'edge': {u'target': [], u'time': []}}, u'mouseout': {u'state': {u'target': [], u'time': []}, u'edge': {u'target': [], u'time': []}}}","[-1, -2, -7, 11, 61]","[11241, 264, 421, 643, 346]",52.0,"[None, None, None, None, None]","[u'', 1, -1, 0, 9, 2, -26, -23, -5, 0, 27, -43, -1, -2, -7, 11, -1, 61, -46, 10, -22, -13, -32, -1, -3, 1, -11, -8, 0, 21, 1, 10, 16, -1]",309971,7.0,17517.0,3.45966285876e+18,mouselab-mdp,1
"[30506, 31387, 32516, 34115, 34871]","[u'left', u'left', u'left', u'up', u'up']",test,"[u'0', u'23', u'24', u'25', u'26', u'27']","{u'mouseover': {u'state': {u'target': [], u'time': []}, u'edge': {u'target': [], u'time': []}}, u'click': {u'state': {u'target': [u'25', u'14', u'16', u'17', u'20', u'21', u'22', u'18', u'19', u'13', u'12', u'32', u'33', u'29', u'27', u'26', u'24', u'23', u'9', u'5', u'6', u'7', u'11', u'10'], u'time': [1394, 2218, 2867, 3684, 4331, 5042, 5827, 6402, 8243, 9659, 10178, 11499, 12155, 13235, 13675, 15435, 20915, 21395, 24555, 25283, 25851, 26468, 27219, 28283]}, u'edge': {u'target': [], u'time': []}}, u'mouseout': {u'state': {u'target': [], u'time': []}, u'edge': {u'target': [], u'time': []}}}","[1, -2, 2, 3, 52]","[30492, 364, 611, 1079, 236]",32.0,"[None, None, None, None, None]","[u'', 1, 3, 3, 0, 13, 40, -4, 6, -24, 12, -41, -1, 4, 1, 9, -86, -8, -6, -4, 4, -28, 40, 1, -2, 2, 3, 52, 34, -36, -6, 32, -42, 19]",348738,8.0,37405.0,8.69278459424e+18,mouselab-mdp,1
"[29754, 30432, 31285, 31915, 32843]","[u'right', u'right', u'right', u'down', u'left']",test,"[u'0', u'12', u'13', u'14', u'19', u'22']","{u'mouseover': {u'state': {u'target': [], u'time': []}, u'edge': {u'target': [], u'time': []}}, u'click': {u'state': {u'target': [u'25', u'14', u'5', u'9', u'32', u'21', u'17', u'16', u'18', u'15', u'13', u'12', u'29', u'27', u'28', u'33', u'31', u'20', u'22', u'19', u'10', u'7', u'6', u'11'], u'time': [1339, 2242, 3450, 4131, 5394, 6403, 7556, 8212, 9011, 10075, 10813, 11348, 12355, 12950, 13508, 14084, 15396, 16916, 17684, 19460, 25380, 26182, 26948, 27780]}, u'edge': {u'target': [], u'time': []}}, u'mouseout': {u'state': {u'target': [], u'time': []}, u'edge': {u'target': [], u'time': []}}}","[1, 1, 1, -2, 70]","[29745, 155, 327, 110, 404]",47.0,"[None, None, None, None, None]","[u'', -1, 1, 3, -5, 17, -37, 26, 0, -6, -3, 28, 1, 1, 1, 1, 20, 7, 22, -2, -78, 33, 70, 0, 0, -1, -1, 1, -36, -17, -8, 8, -9, 16]",385217,9.0,35061.0,2.56897496286e+18,mouselab-mdp,1
"[28763, 29602, 30391, 31892, 32565]","[u'up', u'up', u'up', u'left', u'left']",test,"[u'0', u'1', u'2', u'3', u'8', u'11']","{u'mouseover': {u'state': {u'target': [], u'time': []}, u'edge': {u'target': [], u'time': []}}, u'click': {u'state': {u'target': [u'25', u'14', u'5', u'9', u'11', u'10', u'7', u'6', u'16', u'17', u'18', u'22', u'20', u'21', u'31', u'33', u'32', u'29', u'27', u'28', u'3', u'1', u'2', u'8', u'4'], u'time': [1219, 1851, 2796, 3308, 3787, 4276, 5036, 6052, 6988, 7518, 8076, 8851, 9604, 10436, 11980, 13077, 13725, 14596, 15028, 15532, 18676, 20333, 20717, 21525, 25343]}, u'edge': {u'target': [], u'time': []}}, u'mouseout': {u'state': {u'target': [], u'time': []}, u'edge': {u'target': [], u'time': []}}}","[0, 0, 4, 1, 53]","[28754, 319, 259, 978, 151]",33.0,"[None, None, None, None, None]","[u'', 0, 0, 4, 4, -39, 45, 32, 1, 5, 43, 53, 1, -2, 0, 7, -27, -39, 0, 1, 12, 39, -70, 0, 0, 0, 1, 33, 18, -1, 1, 3, -4, 42]",421300,10.0,34673.0,-6.00893554297e+18,mouselab-mdp,1
"[20018, 20938, 21935, 23275, 25616]","[u'up', u'up', u'up', u'left', u'up']",test,"[u'0', u'1', u'2', u'3', u'8', u'9']","{u'mouseover': {u'state': {u'target': [], u'time': []}, u'edge': {u'target': [], u'time': []}}, u'click': {u'state': {u'target': [u'25', u'14', u'5', u'9', u'11', u'6', u'3', u'10', u'7', u'29', u'27', u'28', u'17', u'16', u'18', u'32', u'33', u'31', u'21', u'20', u'22'], u'time': [1151, 1942, 2814, 3510, 4310, 5078, 5799, 7423, 7966, 10823, 11222, 11639, 12401, 12990, 13534, 14728, 15255, 15998, 16719, 17278, 17879]}, u'edge': {u'target': [], u'time': []}}, u'mouseout': {u'state': {u'target': [], u'time': []}, u'edge': {u'target': [], u'time': []}}}","[0, -2, 2, -5, 65]","[20005, 399, 482, 823, 1815]",39.0,"[None, None, None, None, None]","[u'', 0, -2, 2, -2, -20, -29, -2, -5, 65, 51, -9, 1, 2, -1, 15, 30, -3, -58, -8, 10, -14, -1, -1, 0, -2, -12, -11, -18, -50, 11, -2, -10, 24]",450776,11.0,28080.0,-1.88830785645e+18,mouselab-mdp,1
"[38705, 39555, 40455, 41259, 42768]","[u'up', u'up', u'up', u'right', u'up']",test,"[u'0', u'1', u'2', u'3', u'4', u'5']","{u'mouseover': {u'state': {u'target': [], u'time': []}, u'edge': {u'target': [], u'time': []}}, u'click': {u'state': {u'target': [u'25', u'14', u'5', u'9', u'11', u'6', u'3', u'32', u'33', u'31', u'22', u'20', u'21', u'16', u'17', u'18', u'29', u'27', u'28', u'7', u'10', u'19'], u'time': [1529, 2280, 3424, 4144, 5257, 5969, 6832, 8457, 9361, 9888, 10561, 10961, 11537, 12585, 13017, 13705, 14521, 15073, 15513, 18425, 19754, 30332]}, u'edge': {u'target': [], u'time': []}}, u'mouseout': {u'state': {u'target': [], u'time': []}, u'edge': {u'target': [], u'time': []}}}","[0, 2, -4, -1, 46]","[38695, 328, 378, 283, 979]",21.0,"[None, None, None, None, None]","[u'', 0, 2, -4, -1, 46, -20, -65, -16, -80, -68, -13, 1, -1, 1, -1, 0, -5, -6, 4, -38, 32, 29, 0, 2, -3, -4, 5, -6, -14, -5, -18, 30, -62]",497221,12.0,45136.0,-3.13580120687e+18,mouselab-mdp,1
"[13549, 14412, 15385, 16778, 22039]","[u'right', u'right', u'right', u'up', u'up']",test,"[u'0', u'12', u'13', u'14', u'15', u'16']","{u'mouseover': {u'state': {u'target': [], u'time': []}, u'edge': {u'target': [], u'time': []}}, u'click': {u'state': {u'target': [u'25', u'14', u'5', u'9', u'11', u'6', u'21', u'32', u'33', u'29', u'17', u'20', u'16', u'27'], u'time': [1213, 1869, 2677, 3332, 3805, 4360, 5605, 6396, 7173, 8013, 8821, 9390, 11109, 11909]}, u'edge': {u'target': [], u'time': []}}, u'mouseout': {u'state': {u'target': [], u'time': []}, u'edge': {u'target': [], u'time': []}}}","[-1, 0, 8, -11, 42]","[13528, 344, 452, 864, 4743]",24.0,"[None, None, None, None, None]","[u'', -1, 1, 4, 8, -97, -52, 64, -2, -5, 37, 6, -1, 0, 8, -11, 42, -10, -9, 15, -21, 27, -12, -1, 0, 5, -1, 18, 6, 1, -3, 4, -65, -14]",522542,13.0,23981.0,6.45819709428e+18,mouselab-mdp,1
"[24714, 25621, 26680, 27564, 28553]","[u'left', u'left', u'left', u'down', u'down']",test,"[u'0', u'23', u'24', u'25', u'30', u'32']","{u'mouseover': {u'state': {u'target': [], u'time': []}, u'edge': {u'target': [], u'time': []}}, u'click': {u'state': {u'target': [u'25', u'14', u'5', u'9', u'11', u'6', u'29', u'33', u'31', u'22', u'20', u'32', u'21', u'10', u'7', u'18', u'16', u'17', u'27', u'28'], u'time': [1013, 1668, 2348, 2956, 3484, 4045, 5237, 5661, 6108, 6836, 7494, 9125, 9876, 14326, 15749, 16799, 17173, 17622, 18375, 18758]}, u'edge': {u'target': [], u'time': []}}, u'mouseout': {u'state': {u'target': [], u'time': []}, u'edge': {u'target': [], u'time': []}}}","[1, 1, 4, 2, 36]","[24703, 379, 540, 376, 465]",24.0,"[None, None, None, None, None]","[u'', 1, -2, -1, 5, 11, -3, -31, 1, 23, -23, 2, 2, 1, 2, -8, -18, -10, -27, -10, -50, -7, 27, 1, 1, 4, -7, -22, -8, -29, 2, -21, 36, -28]",553962,14.0,30113.0,8.08344173605e+18,mouselab-mdp,1
"[25112, 26289, 27291, 28201, 30937]","[u'up', u'up', u'up', u'right', u'right']",test,"[u'0', u'1', u'2', u'3', u'4', u'6']","{u'mouseover': {u'state': {u'target': [], u'time': []}, u'edge': {u'target': [], u'time': []}}, u'click': {u'state': {u'target': [u'25', u'14', u'5', u'9', u'6', u'11', u'3', u'21', u'32', u'29', u'27', u'28', u'16', u'17'], u'time': [1721, 2546, 3354, 3906, 5001, 5736, 8001, 9961, 12305, 19928, 20481, 21033, 22433, 23097]}, u'edge': {u'target': [], u'time': []}}, u'mouseout': {u'state': {u'target': [], u'time': []}, u'edge': {u'target': [], u'time': []}}}","[0, -3, 1, -2, 51]","[25094, 650, 487, 381, 2219]",33.0,"[None, None, None, None, None]","[u'', 0, -3, 1, -2, -24, 51, 2, 0, -8, -13, 6, 0, 6, -4, 1, -15, -22, -21, 0, 30, 38, 22, 0, 4, 7, 14, -15, 20, 23, 5, 18, 18, -10]",588284,15.0,33015.0,-7.86346020655e+18,mouselab-mdp,1
"[16336, 17348, 18332, 19218, 20109]","[u'left', u'left', u'left', u'up', u'right']",test,"[u'0', u'23', u'24', u'25', u'26', u'28']","{u'mouseover': {u'state': {u'target': [], u'time': []}, u'edge': {u'target': [], u'time': []}}, u'click': {u'state': {u'target': [u'25', u'14', u'5', u'9', u'11', u'6', u'3', u'4', u'1', u'2', u'29', u'28', u'26'], u'time': [1315, 2138, 2963, 3579, 4026, 4619, 6394, 7379, 8579, 9067, 11092, 11684, 13988]}, u'edge': {u'target': [], u'time': []}}, u'mouseout': {u'state': {u'target': [], u'time': []}, u'edge': {u'target': [], u'time': []}}}","[2, 1, 6, 1, 78]","[16326, 494, 463, 368, 361]",75.0,"[None, None, None, None, None]","[u'', 1, 2, -2, 7, -18, 63, -43, -14, -53, -28, -36, 2, -1, -5, 9, -19, -40, 28, 5, -14, 45, 4, 2, 1, 6, 1, -39, 78, -17, -2, -22, -7, 8]",611936,16.0,22286.0,6.04957788595e+18,mouselab-mdp,1
"[17807, 18735, 19751, 20708, 22319]","[u'right', u'right', u'right', u'up', u'left']",test,"[u'0', u'12', u'13', u'14', u'15', u'18']","{u'mouseover': {u'state': {u'target': [], u'time': []}, u'edge': {u'target': [], u'time': []}}, u'click': {u'state': {u'target': [u'25', u'14', u'6', u'9', u'11', u'5', u'29', u'27', u'28', u'10', u'7', u'18', u'16', u'17', u'20', u'22', u'21', u'32', u'33', u'31'], u'time': [1267, 2027, 2786, 3907, 4591, 5275, 6179, 6675, 7211, 7819, 8388, 8907, 9707, 10307, 11058, 11659, 12148, 12868, 13579, 14083]}, u'edge': {u'target': [], u'time': []}}, u'mouseout': {u'state': {u'target': [], u'time': []}, u'edge': {u'target': [], u'time': []}}}","[0, -3, -3, 5, 58]","[17797, 404, 488, 430, 1090]",37.0,"[None, None, None, None, None]","[u'', 0, 1, 7, -1, -39, -38, -21, -13, 26, -16, -10, 0, -3, -3, 5, 20, -14, 58, -10, -11, -7, -89, 2, 1, -4, 16, 19, 14, -19, 1, -49, 25, -12]",637500,17.0,24266.0,-2.39631317689e+18,mouselab-mdp,1
"[18729, 19686, 20574, 21406, 22296]","[u'right', u'right', u'right', u'down', u'right']",test,"[u'0', u'12', u'13', u'14', u'19', u'20']","{u'mouseover': {u'state': {u'target': [], u'time': []}, u'edge': {u'target': [], u'time': []}}, u'click': {u'state': {u'target': [u'25', u'14', u'29', u'17', u'16', u'5', u'6', u'9', u'11', u'27', u'33', u'32', u'31', u'22', u'20', u'21', u'19', u'13'], u'time': [1338, 2558, 3653, 4729, 5393, 6097, 6745, 7370, 8026, 8553, 11929, 12610, 13217, 13937, 14362, 15609, 16658, 17354]}, u'edge': {u'target': [], u'time': []}}, u'mouseout': {u'state': {u'target': [], u'time': []}, u'edge': {u'target': [], u'time': []}}}","[1, 0, -5, -4, 120]","[18719, 428, 368, 302, 359]",94.0,"[None, None, None, None, None]","[u'', -1, 2, 0, 0, 25, -13, -8, 9, -44, -28, -4, 1, 0, -5, -7, 54, 10, -20, -4, 120, 43, -52, 0, 1, -1, 9, 56, 0, 9, -1, 28, 48, 30]",663250,18.0,24399.0,6.33441295976e+18,mouselab-mdp,1
"[26518, 27479, 28465, 29324, 30300]","[u'right', u'right', u'right', u'down', u'right']",test,"[u'0', u'12', u'13', u'14', u'19', u'20']","{u'mouseover': {u'state': {u'target': [], u'time': []}, u'edge': {u'target': [], u'time': []}}, u'click': {u'state': {u'target': [u'25', u'14', u'5', u'6', u'9', u'11', u'29', u'27', u'33', u'32', u'31', u'28', u'18', u'16', u'17', u'20', u'22', u'21', u'10', u'7', u'3', u'19'], u'time': [1517, 2316, 3620, 4245, 5044, 5581, 6573, 7085, 7990, 9213, 9669, 10405, 11029, 11517, 12029, 12606, 13214, 13749, 15909, 16373, 20645, 22877]}, u'edge': {u'target': [], u'time': []}}, u'mouseout': {u'state': {u'target': [], u'time': []}, u'edge': {u'target': [], u'time': []}}}","[-2, 2, 4, 7, 58]","[26504, 439, 462, 338, 449]",47.0,"[None, None, None, None, None]","[u'', -1, 0, -1, -7, 16, -15, 52, 7, -28, -1, -7, -2, 2, 4, 7, -15, 34, -7, 7, 58, 4, -45, 0, 1, 5, -9, -6, 7, 14, 7, -30, -14, 32]",696596,19.0,32044.0,-8.01578187763e+18,mouselab-mdp,1
"[10633, 12560, 14279, 18872, 21990]","[u'right', u'right', u'right', u'down', u'right']",pre_test,"[u'0', u'12', u'13', u'14', u'19', u'20']","{u'mouseover': {u'state': {u'target': [], u'time': []}, u'edge': {u'target': [], u'time': []}}, u'click': {u'state': {u'target': [u'13'], u'time': [6737]}, u'edge': {u'target': [], u'time': []}}, u'mouseout': {u'state': {u'target': [], u'time': []}, u'edge': {u'target': [], u'time': []}}}","[1, 0, 10, 5, 15]","[10619, 1417, 1201, 4091, 2593]",30.0,"[None, None, None, None, None]","[u'', 0, 1, 6, 0, 65, -20, -17, 3, -11, 38, -21, 1, 0, 10, -4, -6, 5, -70, 5, 15, 3, -49, -2, 1, 5, 13, -29, -33, -9, -16, -19, 27, 52]",151484,0.0,26183.0,-1.64462434052e+18,mouselab-mdp,2
"[9615, 10840, 11687]","[u'up', u'up', u'right']",training,"[u'0', u'1', u'2', u'3']","{u'mouseover': {u'state': {u'target': [], u'time': []}, u'edge': {u'target': [], u'time': []}}, u'click': {u'state': {u'target': [u'2', u'6', u'10', u'9'], u'time': [2034, 4062, 5289, 7472]}, u'edge': {u'target': [], u'time': []}}, u'mouseout': {u'state': {u'target': [], u'time': []}, u'edge': {u'target': [], u'time': []}}}","[-4, 4, 24]","[9607, 713, 346]",20.0,"[None, None, None]","[u'', -4, 4, 24, 24, -2, -4, 48, -24, -4, 8, -48, 48]",196045,1.0,38791.0,-4.8746661358e+18,mouselab-mdp,2
"[10856, 11382, 11935]","[u'up', u'up', u'left']",training,"[u'0', u'1', u'2', u'4']","{u'mouseover': {u'state': {u'target': [], u'time': []}, u'edge': {u'target': [], u'time': []}}, u'click': {u'state': {u'target': [u'6', u'10', u'2', u'3', u'1'], u'time': [2593, 3673, 4421, 6327, 9384]}, u'edge': {u'target': [], u'time': []}}, u'mouseout': {u'state': {u'target': [], u'time': []}, u'edge': {u'target': [], u'time': []}}}","[4, 8, 24]","[10851, 26, 43]",31.0,"[None, None, None]","[u'', 4, 8, -24, 24, -2, 4, -24, 48, 2, -8, 24, 48]",210692,2.0,13423.0,8.86605250045e+18,mouselab-mdp,2
"[33327, 33834, 34367]","[u'up', u'up', u'left']",training,"[u'0', u'1', u'2', u'4']","{u'mouseover': {u'state': {u'target': [], u'time': []}, u'edge': {u'target': [], u'time': []}}, u'click': {u'state': {u'target': [u'10', u'6', u'2', u'4'], u'time': [28916, 29565, 30226, 31656]}, u'edge': {u'target': [], u'time': []}}, u'mouseout': {u'state': {u'target': [], u'time': []}, u'edge': {u'target': [], u'time': []}}}","[2, 4, 24]","[33321, 3, 20]",26.0,"[None, None, None]","[u'', 2, 4, -24, 24, 4, 8, -48, -48, -4, -4, -48, -24]",247284,3.0,35503.0,-7.78403282575e+18,mouselab-mdp,2
"[4299, 4906, 5465]","[u'right', u'right', u'up']",training,"[u'0', u'5', u'6', u'7']","{u'mouseover': {u'state': {u'target': [], u'time': []}, u'edge': {u'target': [], u'time': []}}, u'click': {u'state': {u'target': [u'8', u'7', u'6'], u'time': [1017, 1677, 2360]}, u'edge': {u'target': [], u'time': []}}, u'mouseout': {u'state': {u'target': [], u'time': []}, u'edge': {u'target': [], u'time': []}}}","[-4, 8, 48]","[4294, 107, 48]",49.0,"[None, None, None]","[u'', -2, 8, -24, 24, -4, 8, 48, 24, -2, -4, 24, -48]",257667,4.0,9288.0,2.56147591953e+18,mouselab-mdp,2
"[6792, 7367, 8152]","[u'up', u'up', u'left']",training,"[u'0', u'1', u'2', u'4']","{u'mouseover': {u'state': {u'target': [], u'time': []}, u'edge': {u'target': [], u'time': []}}, u'click': {u'state': {u'target': [u'10', u'6', u'8', u'7', u'3', u'2', u'9', u'4'], u'time': [688, 1302, 1693, 2185, 3125, 3855, 4487, 4903]}, u'edge': {u'target': [], u'time': []}}, u'mouseout': {u'state': {u'target': [], u'time': []}, u'edge': {u'target': [], u'time': []}}}","[4, 8, 48]","[6788, 63, 272]",52.0,"[None, None, None]","[u'', 4, 8, -24, 48, 2, 8, -48, -48, 2, -4, 24, -48]",268075,5.0,9310.0,-6.66851853783e+18,mouselab-mdp,2
"[7148, 8091, 8716]","[u'up', u'up', u'left']",training,"[u'0', u'1', u'2', u'4']","{u'mouseover': {u'state': {u'target': [], u'time': []}, u'edge': {u'target': [], u'time': []}}, u'click': {u'state': {u'target': [u'1', u'2', u'6', u'10', u'11', u'7', u'8', u'4'], u'time': [492, 817, 2487, 3274, 3818, 4338, 5082, 6162]}, u'edge': {u'target': [], u'time': []}}, u'mouseout': {u'state': {u'target': [], u'time': []}, u'edge': {u'target': [], u'time': []}}}","[4, 4, 48]","[7144, 442, 115]",48.0,"[None, None, None]","[u'', 4, 4, -48, 48, -2, 4, -48, -24, -2, -4, -48, 24]",278861,6.0,9716.0,-5.00680981918e+18,mouselab-mdp,2
"[32599, 33454, 34094]","[u'left', u'left', u'up']",training,"[u'0', u'9', u'10', u'11']","{u'mouseover': {u'state': {u'target': [], u'time': []}, u'edge': {u'target': [], u'time': []}}, u'click': {u'state': {u'target': [u'6', u'3', u'4', u'1', u'12', u'11', u'10'], u'time': [27778, 28278, 28777, 29323, 29969, 30361, 31105]}, u'edge': {u'target': [], u'time': []}}, u'mouseout': {u'state': {u'target': [], u'time': []}, u'edge': {u'target': [], u'time': []}}}","[4, -8, 48]","[32597, 343, 136]",37.0,"[None, None, None]","[u'', 2, 8, 24, -24, 2, -8, -24, -24, 4, -8, 48, 48]",315579,7.0,35645.0,-3.20049588135e+18,mouselab-mdp,2
"[8417, 9203, 9763]","[u'up', u'up', u'right']",training,"[u'0', u'1', u'2', u'3']","{u'mouseover': {u'state': {u'target': [], u'time': []}, u'edge': {u'target': [], u'time': []}}, u'click': {u'state': {u'target': [u'7', u'6', u'8', u'3', u'1', u'2', u'4', u'11', u'12', u'10', u'9'], u'time': [1819, 2188, 2569, 3174, 3692, 4017, 4770, 5530, 6219, 6976, 7364]}, u'edge': {u'target': [], u'time': []}}, u'mouseout': {u'state': {u'target': [], u'time': []}, u'edge': {u'target': [], u'time': []}}}","[4, 4, 48]","[8414, 275, 50]",45.0,"[None, None, None]","[u'', 4, 4, 48, -48, -2, -8, 48, -24, -4, -8, 24, -48]",328397,8.0,11715.0,-4.67008033733e+18,mouselab-mdp,2
"[9241, 9929, 10585]","[u'up', u'up', u'right']",training,"[u'0', u'1', u'2', u'3']","{u'mouseover': {u'state': {u'target': [], u'time': []}, u'edge': {u'target': [], u'time': []}}, u'click': {u'state': {u'target': [u'6', u'10', u'4', u'3', u'2'], u'time': [5002, 5887, 6655, 7177, 8042]}, u'edge': {u'target': [], u'time': []}}, u'mouseout': {u'state': {u'target': [], u'time': []}, u'edge': {u'target': [], u'time': []}}}","[-2, -4, 48]","[9236, 2, 137]",37.0,"[None, None, None]","[u'', -2, -4, 48, 24, 2, 4, -48, 48, -4, 4, 48, 24]",342068,9.0,12576.0,7.94655219151e+18,mouselab-mdp,2
"[12427, 13089, 13673]","[u'up', u'up', u'right']",training,"[u'0', u'1', u'2', u'3']","{u'mouseover': {u'state': {u'target': [], u'time': []}, u'edge': {u'target': [], u'time': []}}, u'click': {u'state': {u'target': [u'12', u'8', u'7', u'11', u'4', u'3', u'6', u'10', u'2'], u'time': [5147, 5837, 6368, 6885, 7377, 7713, 8130, 8913, 11737]}, u'edge': {u'target': [], u'time': []}}, u'mouseout': {u'state': {u'target': [], u'time': []}, u'edge': {u'target': [], u'time': []}}}","[2, 4, 24]","[12424, 155, 84]",21.0,"[None, None, None]","[u'', 2, 4, 24, -24, 4, 8, -48, 24, 4, -8, -24, 24]",357764,10.0,14625.0,8.9509461883e+18,mouselab-mdp,2
"[23103, 25287, 25966, 29310, 32863]","[u'up', u'up', u'up', u'left', u'down']",pre_test,"[u'0', u'1', u'2', u'3', u'8', u'10']","{u'mouseover': {u'state': {u'target': [], u'time': []}, u'edge': {u'target': [], u'time': []}}, u'click': {u'state': {u'target': [u'12'], u'time': [12922]}, u'edge': {u'target': [], u'time': []}}, u'mouseout': {u'state': {u'target': [], u'time': []}, u'edge': {u'target': [], u'time': []}}}","[1, -4, 0, 12, 70]","[23093, 1665, 157, 2817, 3028]",78.0,"[None, None, None, None, None]","[u'', 1, -4, 0, -9, 17, 58, -17, 12, -30, 70, -26, 0, 1, -6, 12, -34, 20, -41, 1, 0, -12, 16, -1, 3, 1, -22, 64, 14, 50, -1, -72, -13, -39]",91345,0.0,36767.0,4.95921045901e+18,mouselab-mdp,3
"[3097, 51345, 52864]","[u'left', u'left', u'up']",training,"[u'0', u'9', u'10', u'11']","{u'mouseover': {u'state': {u'target': [], u'time': []}, u'edge': {u'target': [], u'time': []}}, u'click': {u'state': {u'target': [], u'time': []}, u'edge': {u'target': [], u'time': []}}, u'mouseout': {u'state': {u'target': [], u'time': []}, u'edge': {u'target': [], u'time': []}}}","[4, 8, -24]","[3092, 5709, 1000]",-12.0,"[None, None, None]","[u'', 2, 8, -24, -48, -2, 8, 48, 24, 4, 8, -24, -48]",155822,1.0,55016.0,7.70857757142e+18,mouselab-mdp,3
"[8267, 51594, 52354]","[u'up', u'up', u'right']",training,"[u'0', u'1', u'2', u'3']","{u'mouseover': {u'state': {u'target': [], u'time': []}, u'edge': {u'target': [], u'time': []}}, u'click': {u'state': {u'target': [u'9'], u'time': [4733]}, u'edge': {u'target': [], u'time': []}}, u'mouseout': {u'state': {u'target': [], u'time': []}, u'edge': {u'target': [], u'time': []}}}","[4, 4, -48]","[8263, 798, 241]",-41.0,"[None, None, None]","[u'', 4, 4, -48, 48, -2, 4, -48, -24, -2, -4, -48, 24]",211092,2.0,54186.0,-5.00680981918e+18,mouselab-mdp,3
"[7533, 49498, 50779]","[u'left', u'left', u'up']",training,"[u'0', u'9', u'10', u'11']","{u'mouseover': {u'state': {u'target': [], u'time': []}, u'edge': {u'target': [], u'time': []}}, u'click': {u'state': {u'target': [u'8'], u'time': [3821]}, u'edge': {u'target': [], u'time': []}}, u'mouseout': {u'state': {u'target': [], u'time': []}, u'edge': {u'target': [], u'time': []}}}","[-2, -4, 24]","[7529, 1435, 763]",17.0,"[None, None, None]","[u'', -2, -8, 24, 48, -2, 8, -24, -24, -2, -4, 24, -24]",265314,3.0,53146.0,-3.60340228201e+18,mouselab-mdp,3
"[12225, 12984, 13679]","[u'up', u'up', u'right']",training,"[u'0', u'1', u'2', u'3']","{u'mouseover': {u'state': {u'target': [], u'time': []}, u'edge': {u'target': [], u'time': []}}, u'click': {u'state': {u'target': [u'12', u'11', u'4', u'3'], u'time': [3203, 5675, 7459, 9032]}, u'edge': {u'target': [], u'time': []}}, u'mouseout': {u'state': {u'target': [], u'time': []}, u'edge': {u'target': [], u'time': []}}}","[-2, -4, 48]","[12220, 240, 186]",38.0,"[None, None, None]","[u'', -2, -4, 48, -24, 2, -4, 48, 24, -2, -8, -24, -24]",281963,4.0,15585.0,2.59386444745e+18,mouselab-mdp,3
"[7202, 7816, 8489]","[u'left', u'left', u'down']",training,"[u'0', u'9', u'10', u'12']","{u'mouseover': {u'state': {u'target': [], u'time': []}, u'edge': {u'target': [], u'time': []}}, u'click': {u'state': {u'target': [u'7', u'8', u'3', u'12'], u'time': [2201, 3253, 4570, 5777]}, u'edge': {u'target': [], u'time': []}}, u'mouseout': {u'state': {u'target': [], u'time': []}, u'edge': {u'target': [], u'time': []}}}","[-4, -4, 48]","[7199, 94, 152]",36.0,"[None, None, None]","[u'', 2, -4, -24, -24, 4, -8, -48, -48, -4, -4, 48, 48]",293497,5.0,10472.0,-7.91360722647e+18,mouselab-mdp,3
"[5835, 6489, 7154]","[u'right', u'right', u'up']",training,"[u'0', u'5', u'6', u'7']","{u'mouseover': {u'state': {u'target': [], u'time': []}, u'edge': {u'target': [], u'time': []}}, u'click': {u'state': {u'target': [u'4', u'3', u'7'], u'time': [2232, 3557, 4588]}, u'edge': {u'target': [], u'time': []}}, u'mouseout': {u'state': {u'target': [], u'time': []}, u'edge': {u'target': [], u'time': []}}}","[-2, -4, 48]","[5831, 130, 147]",39.0,"[None, None, None]","[u'', -4, 4, 24, 24, -2, -4, 48, -24, -4, 8, -48, 48]",304425,6.0,9849.0,-4.8746661358e+18,mouselab-mdp,3
"[7221, 7771, 8509]","[u'left', u'left', u'down']",training,"[u'0', u'9', u'10', u'12']","{u'mouseover': {u'state': {u'target': [], u'time': []}, u'edge': {u'target': [], u'time': []}}, u'click': {u'state': {u'target': [u'4', u'3', u'7', u'8', u'12'], u'time': [1761, 2643, 3768, 4624, 5762]}, u'edge': {u'target': [], u'time': []}}, u'mouseout': {u'state': {u'target': [], u'time': []}, u'edge': {u'target': [], u'time': []}}}","[4, -8, 48]","[7217, 31, 220]",39.0,"[None, None, None]","[u'', 2, 8, 24, -24, 2, -8, -24, -24, 4, -8, 48, 48]",315826,7.0,10341.0,-3.20049588135e+18,mouselab-mdp,3
"[8082, 8953, 9848]","[u'left', u'left', u'up']",training,"[u'0', u'9', u'10', u'11']","{u'mouseover': {u'state': {u'target': [], u'time': []}, u'edge': {u'target': [], u'time': []}}, u'click': {u'state': {u'target': [u'4', u'3', u'7', u'12', u'8', u'11'], u'time': [1750, 2766, 3486, 4757, 5525, 6606]}, u'edge': {u'target': [], u'time': []}}, u'mouseout': {u'state': {u'target': [], u'time': []}, u'edge': {u'target': [], u'time': []}}}","[-2, 8, 24]","[8079, 364, 376]",24.0,"[None, None, None]","[u'', 2, 4, -24, -48, -2, -4, -24, -24, -2, 8, 24, -24]",328472,8.0,11576.0,1.18238643611e+16,mouselab-mdp,3
"[2448, 3138, 3863]","[u'left', u'left', u'down']",training,"[u'0', u'9', u'10', u'12']","{u'mouseover': {u'state': {u'target': [], u'time': []}, u'edge': {u'target': [], u'time': []}}, u'click': {u'state': {u'target': [u'12'], u'time': [1540]}, u'edge': {u'target': [], u'time': []}}, u'mouseout': {u'state': {u'target': [], u'time': []}, u'edge': {u'target': [], u'time': []}}}","[-2, -8, 48]","[2445, 171, 213]",37.0,"[None, None, None]","[u'', 4, -8, -48, -48, -4, 4, 24, 24, -2, -8, -24, 48]",338132,9.0,8576.0,-4.56949664606e+18,mouselab-mdp,3
"[5787, 7321, 8233]","[u'up', u'up', u'right']",training,"[u'0', u'1', u'2', u'3']","{u'mouseover': {u'state': {u'target': [], u'time': []}, u'edge': {u'target': [], u'time': []}}, u'click': {u'state': {u'target': [u'8', u'7', u'3'], u'time': [1998, 3688, 4653]}, u'edge': {u'target': [], u'time': []}}, u'mouseout': {u'state': {u'target': [], u'time': []}, u'edge': {u'target': [], u'time': []}}}","[4, -4, 48]","[5785, 1028, 401]",45.0,"[None, None, None]","[u'', 4, -4, 48, -48, -2, -8, 24, 24, -2, 4, 48, -48]",349096,10.0,9898.0,8.0458297312e+18,mouselab-mdp,3
"[30104, 31015, 32810, 33608, 34415]","[u'up', u'up', u'up', u'right', u'up']",test,"[u'0', u'1', u'2', u'3', u'4', u'5']","{u'mouseover': {u'state': {u'target': [], u'time': []}, u'edge': {u'target': [], u'time': []}}, u'click': {u'state': {u'target': [u'21', u'20', u'22', u'17', u'16', u'18', u'6', u'7', u'5', u'9', u'11', u'10', u'28', u'27', u'29', u'33', u'32', u'31'], u'time': [4305, 5467, 7520, 8775, 9547, 10402, 14650, 15437, 16374, 17976, 18878, 19841, 22036, 22587, 23273, 24131, 24927, 25644]}, u'edge': {u'target': [], u'time': []}}, u'mouseout': {u'state': {u'target': [], u'time': []}, u'edge': {u'target': [], u'time': []}}}","[-1, -1, 4, -6, 37]","[30092, 392, 1264, 283, 284]",15.0,"[None, None, None, None, None]","[u'', -1, -1, 4, -6, 37, 17, -50, 1, -47, 30, -54, -2, -2, -3, 11, -1, 9, 34, -6, -19, -27, 25, 2, 1, -2, -4, -36, 23, -34, -2, -37, -61, -81]",56690,0.0,37400.0,6.03787457509e+18,mouselab-mdp,3
"[8102, 8633, 9237, 9895, 10981]","[u'up', u'up', u'up', u'left', u'down']",test,"[u'0', u'1', u'2', u'3', u'8', u'10']","{u'mouseover': {u'state': {u'target': [], u'time': []}, u'edge': {u'target': [], u'time': []}}, u'click': {u'state': {u'target': [u'5', u'6', u'7', u'9', u'11', u'10'], u'time': [2151, 2896, 3482, 4608, 5901, 6514]}, u'edge': {u'target': [], u'time': []}}, u'mouseout': {u'state': {u'target': [], u'time': []}, u'edge': {u'target': [], u'time': []}}}","[0, -1, 1, -14, 53]","[8094, 5, 97, 136, 568]",33.0,"[None, None, None, None, None]","[u'', 0, -1, 1, -14, 2, -15, 20, -14, -14, 53, -38, 1, 3, 0, 8, 33, 50, -12, -1, 26, -24, 2, -1, -5, 1, 14, -12, 3, -14, -6, 4, 34, 71]",71312,1.0,13141.0,-4.53999299154e+18,mouselab-mdp,3
"[6387, 7578, 8258, 8988, 9770]","[u'up', u'up', u'up', u'right', u'down']",test,"[u'0', u'1', u'2', u'3', u'4', u'7']","{u'mouseover': {u'state': {u'target': [], u'time': []}, u'edge': {u'target': [], u'time': []}}, u'click': {u'state': {u'target': [u'9', u'11', u'10', u'5', u'6', u'7'], u'time': [1617, 2264, 3216, 3959, 4438, 5012]}, u'edge': {u'target': [], u'time': []}}, u'mouseout': {u'state': {u'target': [], u'time': []}, u'edge': {u'target': [], u'time': []}}}","[-1, 0, -1, -7, 52]","[6379, 662, 161, 207, 256]",37.0,"[None, None, None, None, None]","[u'', -1, 0, -1, -7, 16, -15, 52, 7, -28, -1, -7, -2, 2, 4, 7, -15, 34, -7, 7, 58, 4, -45, 0, 1, 5, -9, -6, 7, 14, 7, -30, -14, 32]",85496,2.0,12666.0,-8.01578187763e+18,mouselab-mdp,3
"[16353, 17240, 17945, 18714, 19531]","[u'left', u'left', u'left', u'up', u'left']",test,"[u'0', u'23', u'24', u'25', u'26', u'29']","{u'mouseover': {u'state': {u'target': [], u'time': []}, u'edge': {u'target': [], u'time': []}}, u'click': {u'state': {u'target': [u'9', u'11', u'10', u'5', u'6', u'7', u'16', u'17', u'18', u'20', u'21', u'22', u'32', u'33', u'31', u'29'], u'time': [1615, 2222, 2784, 3884, 4508, 5187, 6009, 6897, 7610, 9820, 10422, 11002, 12127, 12813, 13353, 14480]}, u'edge': {u'target': [], u'time': []}}, u'mouseout': {u'state': {u'target': [], u'time': []}, u'edge': {u'target': [], u'time': []}}}","[0, 0, -1, -7, 57]","[16347, 373, 171, 242, 283]",33.0,"[None, None, None, None, None]","[u'', 0, 0, 3, 4, -89, 19, 10, 0, -15, 27, -13, 2, 1, 9, -6, -56, 23, 27, 0, -49, -14, 20, 0, 0, -1, -7, -17, -46, 57, -4, 15, -33, 25]",109728,3.0,22705.0,-3.34502625076e+18,mouselab-mdp,3
"[17014, 17736, 18456, 19757, 20943]","[u'left', u'left', u'left', u'up', u'left']",test,"[u'0', u'23', u'24', u'25', u'26', u'29']","{u'mouseover': {u'state': {u'target': [], u'time': []}, u'edge': {u'target': [], u'time': []}}, u'click': {u'state': {u'target': [u'9', u'11', u'10', u'5', u'6', u'7', u'27', u'29', u'28', u'31', u'32', u'33', u'22', u'21', u'20', u'17', u'16', u'18'], u'time': [1431, 2122, 2577, 3448, 4145, 4648, 5809, 6521, 7058, 8272, 8827, 9340, 10431, 11004, 11538, 13525, 14171, 14664]}, u'edge': {u'target': [], u'time': []}}, u'mouseout': {u'state': {u'target': [], u'time': []}, u'edge': {u'target': [], u'time': []}}}","[-1, 5, 8, -11, 24]","[17008, 196, 198, 785, 669]",7.0,"[None, None, None, None, None]","[u'', 0, -6, -2, -8, 22, -15, -11, 11, -34, 10, -61, 0, 1, 3, -7, 10, 10, -1, 1, 15, 13, -32, -1, 5, 8, -11, 14, 20, 24, 1, -30, -6, -16]",133905,4.0,22648.0,-4.98814993479e+18,mouselab-mdp,3
"[3959, 5103, 5911, 6744, 7712]","[u'up', u'up', u'up', u'left', u'down']",test,"[u'0', u'1', u'2', u'3', u'8', u'10']","{u'mouseover': {u'state': {u'target': [], u'time': []}, u'edge': {u'target': [], u'time': []}}, u'click': {u'state': {u'target': [u'9', u'11', u'10'], u'time': [1378, 2150, 2589]}, u'edge': {u'target': [], u'time': []}}, u'mouseout': {u'state': {u'target': [], u'time': []}, u'edge': {u'target': [], u'time': []}}}","[2, -1, -5, -15, 62]","[3953, 623, 289, 308, 441]",40.0,"[None, None, None, None, None]","[u'', 2, -1, -5, -5, -27, -15, 26, -15, -65, 62, -26, 1, -4, 3, -11, -32, -45, 17, -8, -32, 22, 50, 0, 1, 3, 13, -8, -31, 59, 11, -39, 26, 13]",144998,5.0,9663.0,2.31359358032e+18,mouselab-mdp,3
"[16627, 17371, 18075, 19018, 19906]","[u'right', u'right', u'right', u'down', u'down']",test,"[u'0', u'12', u'13', u'14', u'19', u'21']","{u'mouseover': {u'state': {u'target': [], u'time': []}, u'edge': {u'target': [], u'time': []}}, u'click': {u'state': {u'target': [u'33', u'32', u'31', u'27', u'29', u'28', u'11', u'9', u'10', u'5', u'6', u'7', u'16', u'17', u'18', u'20', u'21'], u'time': [1703, 2228, 2782, 3615, 4122, 5223, 6465, 7195, 7776, 9008, 9542, 10052, 11096, 11790, 13071, 13997, 14590]}, u'edge': {u'target': [], u'time': []}}, u'mouseout': {u'state': {u'target': [], u'time': []}, u'edge': {u'target': [], u'time': []}}}","[-1, 2, -9, 4, 49]","[16620, 219, 170, 420, 359]",28.0,"[None, None, None, None, None]","[u'', -2, 1, 1, -6, 26, 13, 9, -3, 15, 34, -21, -1, 2, -9, -21, -58, 6, 5, 4, 2, 49, 50, 1, -2, 1, -7, -16, -33, 0, 4, 3, -38, -49]",167853,6.0,21378.0,-3.69733404644e+18,mouselab-mdp,3
"[8547, 9072, 9683, 10419, 11116]","[u'up', u'up', u'up', u'left', u'left']",test,"[u'0', u'1', u'2', u'3', u'8', u'11']","{u'mouseover': {u'state': {u'target': [], u'time': []}, u'edge': {u'target': [], u'time': []}}, u'click': {u'state': {u'target': [u'27', u'29', u'28', u'33', u'32', u'31', u'11'], u'time': [1436, 1972, 3758, 4677, 5419, 6099, 7140]}, u'edge': {u'target': [], u'time': []}}, u'mouseout': {u'state': {u'target': [], u'time': []}, u'edge': {u'target': [], u'time': []}}}","[0, 2, -7, -10, 47]","[8541, 6, 107, 219, 182]",25.0,"[None, None, None, None, None]","[u'', 0, 2, -7, 2, -4, 0, -28, -10, -15, -8, 47, 0, 0, 3, -13, 23, 29, 29, -3, -40, -32, 8, 1, 3, 6, 7, 1, 8, -8, 8, 19, 7, -40]",182062,7.0,12692.0,7.63808305668e+17,mouselab-mdp,3
"[7822, 8560, 9182, 9926, 10640]","[u'right', u'right', u'right', u'up', u'up']",test,"[u'0', u'12', u'13', u'14', u'15', u'16']","{u'mouseover': {u'state': {u'target': [], u'time': []}, u'edge': {u'target': [], u'time': []}}, u'click': {u'state': {u'target': [u'9', u'11', u'10', u'5', u'6', u'7', u'16', u'17'], u'time': [928, 1757, 2236, 3448, 4157, 4637, 5671, 6122]}, u'edge': {u'target': [], u'time': []}}, u'mouseout': {u'state': {u'target': [], u'time': []}, u'edge': {u'target': [], u'time': []}}}","[-1, -3, 5, -2, 45]","[7817, 205, 99, 225, 188]",36.0,"[None, None, None, None, None]","[u'', 0, 2, 1, 2, 9, -23, 27, 12, 24, 28, -28, -1, -3, 5, -2, 45, -25, -14, 1, 29, 2, 7, 0, 0, -4, 1, -6, -2, 16, -5, -3, -10, 13]",195412,8.0,11782.0,-7.36145656423e+18,mouselab-mdp,3
"[4130, 4865, 5531, 6249, 7067]","[u'up', u'up', u'up', u'left', u'down']",test,"[u'0', u'1', u'2', u'3', u'8', u'10']","{u'mouseover': {u'state': {u'target': [], u'time': []}, u'edge': {u'target': [], u'time': []}}, u'click': {u'state': {u'target': [u'9', u'11', u'10'], u'time': [1160, 1779, 2238]}, u'edge': {u'target': [], u'time': []}}, u'mouseout': {u'state': {u'target': [], u'time': []}, u'edge': {u'target': [], u'time': []}}}","[-1, 1, 4, -11, 51]","[4125, 214, 146, 196, 294]",41.0,"[None, None, None, None, None]","[u'', -1, 1, 4, -7, 8, 35, -12, -11, 2, 51, -29, 0, -2, -1, 2, 47, -23, -23, -7, -35, -49, -27, 0, 0, 5, -7, -25, -24, 6, -1, 25, -25, 29]",205485,9.0,8674.0,-6.34024467263e+18,mouselab-mdp,3
"[87998, 88900, 89605, 90485, 91429]","[u'left', u'left', u'left', u'up', u'right']",test,"[u'0', u'23', u'24', u'25', u'26', u'28']","{u'mouseover': {u'state': {u'target': [], u'time': []}, u'edge': {u'target': [], u'time': []}}, u'click': {u'state': {u'target': [u'32', u'31', u'33', u'29', u'27', u'28'], u'time': [83406, 84009, 84650, 85387, 85978, 86488]}, u'edge': {u'target': [], u'time': []}}, u'mouseout': {u'state': {u'target': [], u'time': []}, u'edge': {u'target': [], u'time': []}}}","[2, 1, 6, 1, 78]","[87992, 368, 179, 354, 415]",82.0,"[None, None, None, None, None]","[u'', 1, 2, -2, 7, -18, 63, -43, -14, -53, -28, -36, 2, -1, -5, 9, -19, -40, 28, 5, -14, 45, 4, 2, 1, 6, 1, -39, 78, -17, -2, -22, -7, 8]",299758,10.0,92783.0,6.04957788595e+18,mouselab-mdp,3
"[5302, 6231, 7070, 8022, 8769]","[u'up', u'up', u'up', u'right', u'right']",test,"[u'0', u'1', u'2', u'3', u'4', u'6']","{u'mouseover': {u'state': {u'target': [], u'time': []}, u'edge': {u'target': [], u'time': []}}, u'click': {u'state': {u'target': [u'9', u'11', u'10', u'5', u'6', u'7'], u'time': [1247, 1849, 2332, 3121, 3699, 4142]}, u'edge': {u'target': [], u'time': []}}, u'mouseout': {u'state': {u'target': [], u'time': []}, u'edge': {u'target': [], u'time': []}}}","[0, 2, 1, 5, 47]","[5295, 413, 321, 435, 223]",49.0,"[None, None, None, None, None]","[u'', 0, 2, 1, 5, 2, 47, -64, 3, -10, -31, -26, -1, 1, -4, -1, 9, -37, 36, 19, -22, 29, -10, 1, 0, 9, -3, 25, 19, -35, -17, 19, 27, -17]",311169,11.0,9846.0,7.71696205605e+18,mouselab-mdp,3
"[8206, 9358, 10031, 10702, 11454]","[u'up', u'up', u'up', u'right', u'up']",test,"[u'0', u'1', u'2', u'3', u'4', u'5']","{u'mouseover': {u'state': {u'target': [], u'time': []}, u'edge': {u'target': [], u'time': []}}, u'click': {u'state': {u'target': [u'21', u'20', u'22', u'17', u'16', u'18', u'6', u'5'], u'time': [2005, 2641, 3242, 4172, 4734, 5316, 6269, 6953]}, u'edge': {u'target': [], u'time': []}}, u'mouseout': {u'state': {u'target': [], u'time': []}, u'edge': {u'target': [], u'time': []}}}","[0, 3, 2, -13, 127]","[8197, 624, 148, 151, 231]",111.0,"[None, None, None, None, None]","[u'', 0, 3, 2, -13, 127, 21, 3, -11, 3, -15, 21, 0, 4, 1, 4, 12, -5, -6, 9, 25, -20, -36, 0, 2, 0, 14, -25, 5, -81, -5, -10, 16, 55]",325217,12.0,12494.0,-7.72010987048e+18,mouselab-mdp,3
"[23465, 24381, 25155, 25964, 26849]","[u'right', u'right', u'right', u'down', u'down']",test,"[u'0', u'12', u'13', u'14', u'19', u'21']","{u'mouseover': {u'state': {u'target': [], u'time': []}, u'edge': {u'target': [], u'time': []}}, u'click': {u'state': {u'target': [u'32', u'33', u'31', u'29', u'27', u'28', u'9', u'11', u'10', u'5', u'6', u'7', u'16', u'17', u'18', u'20', u'21'], u'time': [1716, 2621, 3160, 4084, 5913, 6616, 12386, 13151, 14056, 14998, 15602, 17061, 17890, 18612, 19307, 20869, 21473]}, u'edge': {u'target': [], u'time': []}}, u'mouseout': {u'state': {u'target': [], u'time': []}, u'edge': {u'target': [], u'time': []}}}","[-1, 1, 6, 3, 52]","[23459, 385, 258, 285, 366]",44.0,"[None, None, None, None, None]","[u'', -2, -3, 6, 5, 20, 37, -65, 12, -37, -31, 33, -1, 1, 6, -5, -19, 22, 29, 3, -51, 52, 20, -2, -2, -4, -6, 8, -23, 39, 9, 2, -34, 0]",355712,13.0,29057.0,-2.21831823842e+18,mouselab-mdp,3
"[22188, 23362, 24114, 24930, 25705]","[u'right', u'right', u'right', u'down', u'down']",test,"[u'0', u'12', u'13', u'14', u'19', u'21']","{u'mouseover': {u'state': {u'target': [], u'time': []}, u'edge': {u'target': [], u'time': []}}, u'click': {u'state': {u'target': [u'9', u'11', u'10', u'5', u'6', u'7', u'16', u'17', u'18', u'20', u'21', u'22', u'31', u'32', u'33', u'27', u'29', u'28'], u'time': [1698, 3227, 3740, 4825, 5470, 5918, 6715, 7510, 8271, 9585, 10867, 11988, 13387, 14134, 14804, 15998, 17426, 18136]}, u'edge': {u'target': [], u'time': []}}, u'mouseout': {u'state': {u'target': [], u'time': []}, u'edge': {u'target': [], u'time': []}}}","[0, -4, 4, -4, 39]","[22180, 649, 231, 293, 252]",17.0,"[None, None, None, None, None]","[u'', -1, 1, 4, 5, -1, -27, 3, 3, -11, 19, 10, 0, -4, 4, 14, -13, -47, 20, -4, -31, 39, -44, 1, -2, 6, 4, -8, 5, 19, 7, 26, 17, -15]",384649,14.0,27450.0,-3.07615105557e+17,mouselab-mdp,3
"[15672, 16262, 16956, 17900, 18637]","[u'left', u'left', u'left', u'down', u'down']",test,"[u'0', u'23', u'24', u'25', u'30', u'32']","{u'mouseover': {u'state': {u'target': [], u'time': []}, u'edge': {u'target': [], u'time': []}}, u'click': {u'state': {u'target': [u'9', u'11', u'10', u'5', u'6', u'7', u'16', u'17', u'18', u'20', u'21', u'22', u'27', u'29', u'28', u'33', u'32', u'31'], u'time': [2432, 2958, 3455, 4321, 4983, 5564, 6157, 6684, 7153, 8575, 9096, 9596, 10919, 11408, 12036, 13608, 14110, 14792]}, u'edge': {u'target': [], u'time': []}}, u'mouseout': {u'state': {u'target': [], u'time': []}, u'edge': {u'target': [], u'time': []}}}","[0, 1, -1, -6, 38]","[15662, 72, 163, 399, 207]",14.0,"[None, None, None, None, None]","[u'', 1, -1, -3, -3, -34, 1, -32, -7, 10, -18, -7, 2, 1, 5, 4, 19, -43, -18, -2, -14, -6, 5, 0, 1, -1, 9, 0, -19, -40, -6, -8, 38, -41]",406822,15.0,20668.0,5.01968822029e+18,mouselab-mdp,3
"[5411, 6132, 6771, 7547, 11733]","[u'up', u'up', u'up', u'right', u'right']",test,"[u'0', u'1', u'2', u'3', u'4', u'6']","{u'mouseover': {u'state': {u'target': [], u'time': []}, u'edge': {u'target': [], u'time': []}}, u'click': {u'state': {u'target': [u'9', u'11', u'10', u'5', u'6'], u'time': [912, 1446, 1910, 2846, 3411]}, u'edge': {u'target': [], u'time': []}}, u'mouseout': {u'state': {u'target': [], u'time': []}, u'edge': {u'target': [], u'time': []}}}","[0, -3, 1, -2, 51]","[5405, 196, 119, 261, 3660]",42.0,"[None, None, None, None, None]","[u'', 0, -3, 1, -2, -24, 51, 2, 0, -8, -13, 6, 0, 6, -4, 1, -15, -22, -21, 0, 30, 38, 22, 0, 4, 7, 14, -15, 20, 23, 5, 18, 18, -10]",423046,16.0,14731.0,-7.86346020655e+18,mouselab-mdp,3
"[2667, 3367, 4124, 4902, 5645]","[u'left', u'left', u'left', u'up', u'up']",test,"[u'0', u'23', u'24', u'25', u'26', u'27']","{u'mouseover': {u'state': {u'target': [], u'time': []}, u'edge': {u'target': [], u'time': []}}, u'click': {u'state': {u'target': [u'27'], u'time': [1424]}, u'edge': {u'target': [], u'time': []}}, u'mouseout': {u'state': {u'target': [], u'time': []}, u'edge': {u'target': [], u'time': []}}}","[0, -2, 2, 3, 61]","[2658, 180, 239, 250, 224]",63.0,"[None, None, None, None, None]","[u'', 0, 2, -2, 1, -32, -15, 37, 13, -11, -8, -24, -2, 1, 2, 5, 1, 17, 5, 10, 12, 46, 34, 0, -2, 2, 3, 61, 24, -36, -6, 31, -6, -38]",436704,17.0,11988.0,-1.11961650931e+18,mouselab-mdp,3
"[8712, 9826, 10664, 11488, 12201]","[u'right', u'right', u'right', u'up', u'up']",test,"[u'0', u'12', u'13', u'14', u'15', u'16']","{u'mouseover': {u'state': {u'target': [], u'time': []}, u'edge': {u'target': [], u'time': []}}, u'click': {u'state': {u'target': [u'9', u'11', u'10', u'5', u'6', u'7', u'16', u'17', u'18'], u'time': [1650, 2143, 2622, 3545, 4088, 4668, 5769, 6279, 6870]}, u'edge': {u'target': [], u'time': []}}, u'mouseout': {u'state': {u'target': [], u'time': []}, u'edge': {u'target': [], u'time': []}}}","[0, 0, 2, 6, 48]","[8704, 588, 311, 300, 194]",47.0,"[None, None, None, None, None]","[u'', 0, 1, 2, 0, -19, 5, 18, 0, 4, -5, 29, 0, 0, 2, 6, 48, 22, 19, -12, 19, 73, -27, -1, 0, 4, 4, -15, -1, 33, 5, 78, 32, 11]",451703,18.0,13449.0,-3.59807723996e+18,mouselab-mdp,3
"[13258, 13951, 14576, 15263, 16000]","[u'right', u'right', u'right', u'up', u'left']",test,"[u'0', u'12', u'13', u'14', u'15', u'18']","{u'mouseover': {u'state': {u'target': [], u'time': []}, u'edge': {u'target': [], u'time': []}}, u'click': {u'state': {u'target': [u'33', u'32', u'31', u'27', u'29', u'25', u'11', u'9', u'10', u'5', u'6', u'7', u'16', u'17', u'18'], u'time': [1450, 1969, 2647, 3767, 4557, 5192, 6356, 6876, 7597, 8567, 9050, 9528, 10370, 11239, 12065]}, u'edge': {u'target': [], u'time': []}}, u'mouseout': {u'state': {u'target': [], u'time': []}, u'edge': {u'target': [], u'time': []}}}","[0, -3, -3, 5, 58]","[13251, 175, 100, 169, 210]",42.0,"[None, None, None, None, None]","[u'', 0, 1, 7, -1, -39, -38, -21, -13, 26, -16, -10, 0, -3, -3, 5, 20, -14, 58, -10, -11, -7, -89, 2, 1, -4, 16, 19, 14, -19, 1, -49, 25, -12]",470536,19.0,17299.0,-2.39631317689e+18,mouselab-mdp,3
"[90613, 92157, 93493, 95126, 96446]","[u'right', u'right', u'right', u'down', u'left']",pre_test,"[u'0', u'12', u'13', u'14', u'19', u'22']","{u'mouseover': {u'state': {u'target': [], u'time': []}, u'edge': {u'target': [], u'time': []}}, u'click': {u'state': {u'target': [u'23', u'12', u'1', u'2', u'13', u'14', u'18', u'15', u'17', u'16', u'20', u'21', u'22', u'19', u'7', u'6', u'5', u'9', u'11', u'10', u'28', u'31', u'32', u'33', u'29', u'27', u'25', u'26', u'30'], u'time': [31809, 32842, 34016, 36083, 38587, 40471, 44146, 45348, 46109, 50308, 52932, 53869, 54852, 56845, 66651, 67534, 68494, 70516, 71293, 71956, 73811, 74596, 75269, 76022, 76818, 77451, 80976, 82119, 82839]}, u'edge': {u'target': [], u'time': []}}, u'mouseout': {u'state': {u'target': [], u'time': []}, u'edge': {u'target': [], u'time': []}}}","[0, 0, -7, 0, 72]","[90599, 1034, 830, 1129, 806]",36.0,"[None, None, None, None, None]","[u'', 0, -2, -6, -4, -2, 53, -45, 8, 7, 26, 65, 0, 0, -7, -5, 50, 65, 5, 0, 15, 10, 72, -1, -3, -3, -11, 4, 2, -48, 0, -9, 8, -21]",291269,0.0,107870.0,-5.12551101719e+18,mouselab-mdp,4
"[31765, 32500, 33660]","[u'left', u'left', u'down']",training,"[u'0', u'9', u'10', u'12']","{u'mouseover': {u'state': {u'target': [], u'time': []}, u'edge': {u'target': [], u'time': []}}, u'click': {u'state': {u'target': [u'7', u'8', u'3', u'4', u'11', u'12', u'9', u'10'], u'time': [10754, 16569, 17931, 19015, 19886, 25945, 28075, 29433]}, u'edge': {u'target': [], u'time': []}}, u'mouseout': {u'state': {u'target': [], u'time': []}, u'edge': {u'target': [], u'time': []}}}","[4, 4, 48]","[31757, 223, 661]",48.0,"[None, None, None]","[u'', 2, 4, 24, -24, 4, 8, 24, -24, 4, 4, 24, 48]",364666,1.0,41713.0,5.95911582726e+18,mouselab-mdp,4
"[15546, 16234, 17162]","[u'left', u'left', u'up']",training,"[u'0', u'9', u'10', u'11']","{u'mouseover': {u'state': {u'target': [], u'time': []}, u'edge': {u'target': [], u'time': []}}, u'click': {u'state': {u'target': [u'11', u'12', u'8', u'7', u'4', u'3', u'9', u'10'], u'time': [3242, 3870, 4886, 5470, 7670, 8365, 11572, 12766]}, u'edge': {u'target': [], u'time': []}}, u'mouseout': {u'state': {u'target': [], u'time': []}, u'edge': {u'target': [], u'time': []}}}","[4, -8, 48]","[15538, 178, 422]",36.0,"[None, None, None]","[u'', -4, 4, -24, -24, -4, -8, 24, -24, 4, -8, 48, -48]",388676,2.0,22920.0,4.60924718032e+17,mouselab-mdp,4
"[12594, 13628, 15229]","[u'up', u'up', u'right']",training,"[u'0', u'1', u'2', u'3']","{u'mouseover': {u'state': {u'target': [], u'time': []}, u'edge': {u'target': [], u'time': []}}, u'click': {u'state': {u'target': [u'11', u'12', u'8', u'7', u'4', u'3'], u'time': [3252, 4218, 5420, 6020, 7011, 7706]}, u'edge': {u'target': [], u'time': []}}, u'mouseout': {u'state': {u'target': [], u'time': []}, u'edge': {u'target': [], u'time': []}}}","[2, -4, 48]","[12588, 521, 1088]",40.0,"[None, None, None]","[u'', 2, -4, 48, 24, -2, -4, 24, 24, 2, -8, -24, 24]",408492,3.0,18731.0,5.56601214792e+17,mouselab-mdp,4
"[7570, 9025, 10440]","[u'up', u'up', u'left']",training,"[u'0', u'1', u'2', u'4']","{u'mouseover': {u'state': {u'target': [], u'time': []}, u'edge': {u'target': [], u'time': []}}, u'click': {u'state': {u'target': [u'3', u'4'], u'time': [3334, 4087]}, u'edge': {u'target': [], u'time': []}}, u'mouseout': {u'state': {u'target': [], u'time': []}, u'edge': {u'target': [], u'time': []}}}","[-2, -8, 48]","[7562, 955, 914]",36.0,"[None, None, None]","[u'', -2, -8, 24, 48, -2, 8, -24, -24, -2, -4, 24, -24]",426978,4.0,17366.0,-3.60340228201e+18,mouselab-mdp,4
"[12401, 13729, 16168]","[u'left', u'left', u'up']",training,"[u'0', u'9', u'10', u'11']","{u'mouseover': {u'state': {u'target': [], u'time': []}, u'edge': {u'target': [], u'time': []}}, u'click': {u'state': {u'target': [u'4', u'3', u'8', u'7', u'11', u'12'], u'time': [1553, 2303, 3695, 4214, 5305, 9922]}, u'edge': {u'target': [], u'time': []}}, u'mouseout': {u'state': {u'target': [], u'time': []}, u'edge': {u'target': [], u'time': []}}}","[-2, 8, 48]","[12392, 814, 1934]",48.0,"[None, None, None]","[u'', 2, 4, -48, -24, -4, -8, 24, -48, -2, 8, 48, -24]",447088,5.0,19004.0,-8.80678964296e+18,mouselab-mdp,4
"[7295, 8288, 9759]","[u'left', u'left', u'down']",training,"[u'0', u'9', u'10', u'12']","{u'mouseover': {u'state': {u'target': [], u'time': []}, u'edge': {u'target': [], u'time': []}}, u'click': {u'state': {u'target': [u'11', u'12'], u'time': [3364, 4279]}, u'edge': {u'target': [], u'time': []}}, u'mouseout': {u'state': {u'target': [], u'time': []}, u'edge': {u'target': [], u'time': []}}}","[-4, 8, 48]","[7288, 479, 963]",50.0,"[None, None, None]","[u'', -4, 4, 24, 24, -2, -4, 48, -24, -4, 8, -48, 48]",462141,6.0,13968.0,-4.8746661358e+18,mouselab-mdp,4
"[3978, 4905, 5962]","[u'left', u'left', u'down']",training,"[u'0', u'9', u'10', u'12']","{u'mouseover': {u'state': {u'target': [], u'time': []}, u'edge': {u'target': [], u'time': []}}, u'click': {u'state': {u'target': [u'12'], u'time': [1418]}, u'edge': {u'target': [], u'time': []}}, u'mouseout': {u'state': {u'target': [], u'time': []}, u'edge': {u'target': [], u'time': []}}}","[2, -4, 48]","[3967, 417, 552]",45.0,"[None, None, None]","[u'', 2, 4, -48, 48, -4, 4, -48, -48, 2, -4, 24, 48]",478237,7.0,14969.0,-5.8494341666e+18,mouselab-mdp,4
"[26916, 27716, 28508]","[u'left', u'left', u'up']",training,"[u'0', u'9', u'10', u'11']","{u'mouseover': {u'state': {u'target': [], u'time': []}, u'edge': {u'target': [], u'time': []}}, u'click': {u'state': {u'target': [u'12', u'11', u'8', u'7', u'4', u'3', u'1', u'2', u'10', u'6', u'9'], u'time': [1460, 2699, 3714, 4330, 5355, 6042, 13430, 19703, 20870, 21668, 23906]}, u'edge': {u'target': [], u'time': []}}, u'mouseout': {u'state': {u'target': [], u'time': []}, u'edge': {u'target': [], u'time': []}}}","[2, 4, 24]","[26907, 281, 293]",19.0,"[None, None, None]","[u'', 2, -4, 24, -48, -2, -8, 24, -48, 2, 4, 24, -48]",512842,8.0,33481.0,2.65301876191e+18,mouselab-mdp,4
"[7307, 7979, 9560]","[u'left', u'left', u'down']",training,"[u'0', u'9', u'10', u'12']","{u'mouseover': {u'state': {u'target': [], u'time': []}, u'edge': {u'target': [], u'time': []}}, u'click': {u'state': {u'target': [u'11', u'12'], u'time': [1547, 4377]}, u'edge': {u'target': [], u'time': []}}, u'mouseout': {u'state': {u'target': [], u'time': []}, u'edge': {u'target': [], u'time': []}}}","[4, 8, 48]","[7301, 163, 1074]",58.0,"[None, None, None]","[u'', 2, -8, -24, 48, -2, -4, -24, -24, 4, 8, 24, 48]",526183,9.0,12237.0,6.51676073779e+18,mouselab-mdp,4
"[16274, 17376, 20603]","[u'left', u'left', u'up']",training,"[u'0', u'9', u'10', u'11']","{u'mouseover': {u'state': {u'target': [], u'time': []}, u'edge': {u'target': [], u'time': []}}, u'click': {u'state': {u'target': [u'12', u'11', u'4', u'3', u'7', u'8'], u'time': [4578, 6119, 7175, 7896, 8600, 9505]}, u'edge': {u'target': [], u'time': []}}, u'mouseout': {u'state': {u'target': [], u'time': []}, u'edge': {u'target': [], u'time': []}}}","[2, 4, 24]","[16267, 585, 2725]",24.0,"[None, None, None]","[u'', -2, -4, -48, -48, 2, -8, -24, -24, 2, 4, 24, 24]",557282,10.0,30015.0,-7.65696612779e+18,mouselab-mdp,4
"[33151, 33893, 34637, 35710, 36526]","[u'left', u'left', u'left', u'down', u'right']",test,"[u'0', u'23', u'24', u'25', u'30', u'31']","{u'mouseover': {u'state': {u'target': [], u'time': []}, u'edge': {u'target': [], u'time': []}}, u'click': {u'state': {u'target': [u'27', u'29', u'28', u'33', u'32', u'31', u'30', u'25', u'24', u'23'], u'time': [6863, 8170, 9883, 11480, 12558, 13113, 19299, 21246, 22104, 22741]}, u'edge': {u'target': [], u'time': []}}, u'mouseout': {u'state': {u'target': [], u'time': []}, u'edge': {u'target': [], u'time': []}}}","[0, -2, 5, -7, 30]","[33130, 228, 239, 547, 300]",16.0,"[None, None, None, None, None]","[u'', 0, 1, -1, 12, -67, -17, -10, -12, -25, -70, 6, -1, 1, -1, -7, -50, -22, 10, -1, 21, -25, 51, 0, -2, 5, 11, -3, -15, 29, -7, 30, -44, -3]",128788,0.0,45574.0,-7.79491914243e+18,mouselab-mdp,4
"[30711, 31398, 32181, 33221, 33989]","[u'right', u'right', u'right', u'up', u'right']",test,"[u'0', u'12', u'13', u'14', u'15', u'17']","{u'mouseover': {u'state': {u'target': [], u'time': []}, u'edge': {u'target': [], u'time': []}}, u'click': {u'state': {u'target': [u'29', u'27', u'28', u'33', u'32', u'31', u'10', u'1', u'8', u'3', u'2', u'16', u'17', u'14', u'13', u'12', u'15'], u'time': [4621, 5557, 6277, 7298, 7962, 8602, 10778, 16714, 17706, 18411, 18915, 23811, 24574, 26748, 27401, 27963, 28875]}, u'edge': {u'target': [], u'time': []}}, u'mouseout': {u'state': {u'target': [], u'time': []}, u'edge': {u'target': [], u'time': []}}}","[-1, -2, 3, -2, 51]","[30700, 173, 272, 531, 262]",32.0,"[None, None, None, None, None]","[u'', 1, -5, -2, -2, -65, 14, 39, -16, -50, 30, 36, -1, -2, 3, -2, -17, 51, 10, -15, 8, -45, 24, 1, 1, 4, 16, 23, -12, -35, 2, -33, -46, -15]",171892,1.0,41662.0,-5.05047603298e+18,mouselab-mdp,4
"[42441, 43064, 43872, 44648, 46160]","[u'left', u'left', u'left', u'up', u'left']",test,"[u'0', u'23', u'24', u'25', u'26', u'29']","{u'mouseover': {u'state': {u'target': [], u'time': []}, u'edge': {u'target': [], u'time': []}}, u'click': {u'state': {u'target': [u'9', u'5', u'6', u'7', u'10', u'11', u'16', u'18', u'17', u'20', u'21', u'22', u'32', u'33', u'31', u'29', u'27', u'28', u'23', u'24', u'25', u'26'], u'time': [7205, 9211, 10156, 10652, 11708, 12412, 13332, 13909, 14655, 15804, 16317, 16997, 17941, 18519, 19191, 19908, 20565, 21174, 39008, 39751, 40299, 40928]}, u'edge': {u'target': [], u'time': []}}, u'mouseout': {u'state': {u'target': [], u'time': []}, u'edge': {u'target': [], u'time': []}}}","[0, 2, 5, 1, 14]","[42431, 109, 302, 272, 995]",0.0,"[None, None, None, None, None]","[u'', 1, 3, 9, -11, -46, -16, 5, 7, 10, -65, -10, 1, 0, 3, -2, -6, 6, 13, 2, 4, -21, 12, 0, 2, 5, 1, -12, -20, 14, 1, -11, 1, -20]",223228,2.0,49872.0,-6.93444865984e+18,mouselab-mdp,4
"[13737, 14311, 15056, 15839, 16720]","[u'left', u'left', u'left', u'down', u'down']",test,"[u'0', u'23', u'24', u'25', u'30', u'32']","{u'mouseover': {u'state': {u'target': [], u'time': []}, u'edge': {u'target': [], u'time': []}}, u'click': {u'state': {u'target': [u'29', u'27', u'28', u'31', u'32', u'25', u'24', u'23', u'30'], u'time': [1741, 2516, 3157, 3748, 4395, 8880, 10548, 11284, 12507]}, u'edge': {u'target': [], u'time': []}}, u'mouseout': {u'state': {u'target': [], u'time': []}, u'edge': {u'target': [], u'time': []}}}","[0, 2, 3, 8, 44]","[13728, 71, 230, 278, 374]",48.0,"[None, None, None, None, None]","[u'', 0, -6, 2, -12, 19, -31, -47, 4, -48, -14, 7, 1, 1, 0, -7, 62, -19, 58, -4, 37, 34, -33, 0, 2, 3, -2, 10, -13, -37, 8, -18, 44, 19]",249786,3.0,25143.0,-7.70136888106e+18,mouselab-mdp,4
"[14965, 15732, 16501, 18070, 18916]","[u'up', u'up', u'up', u'left', u'up']",test,"[u'0', u'1', u'2', u'3', u'8', u'9']","{u'mouseover': {u'state': {u'target': [], u'time': []}, u'edge': {u'target': [], u'time': []}}, u'click': {u'state': {u'target': [u'29', u'27', u'28', u'33', u'32', u'31', u'9', u'8', u'3', u'2', u'1'], u'time': [3728, 4544, 5145, 6016, 6946, 7537, 9656, 11578, 12233, 12729, 13171]}, u'edge': {u'target': [], u'time': []}}, u'mouseout': {u'state': {u'target': [], u'time': []}, u'edge': {u'target': [], u'time': []}}}","[0, 0, 4, -3, 26]","[14955, 259, 256, 1056, 333]",16.0,"[None, None, None, None, None]","[u'', 0, 0, 4, -10, 35, -22, 23, -3, 26, 25, -47, 0, 0, -1, -6, 59, 7, 50, -5, -34, 4, -18, 2, 0, 5, -2, -10, -1, 11, 7, -4, -22, -34]",274347,4.0,23189.0,-5.49423358378e+18,mouselab-mdp,4
"[7709, 8316, 8980, 9612, 10268]","[u'up', u'up', u'up', u'left', u'left']",test,"[u'0', u'1', u'2', u'3', u'8', u'11']","{u'mouseover': {u'state': {u'target': [], u'time': []}, u'edge': {u'target': [], u'time': []}}, u'click': {u'state': {u'target': [u'9', u'11', u'8', u'3', u'2', u'1'], u'time': [2303, 3124, 4385, 5089, 5543, 5999]}, u'edge': {u'target': [], u'time': []}}, u'mouseout': {u'state': {u'target': [], u'time': []}, u'edge': {u'target': [], u'time': []}}}","[-1, -1, 0, -2, 54]","[7696, 94, 151, 117, 155]",44.0,"[None, None, None, None, None]","[u'', -1, -1, 0, -9, 8, 53, 24, -2, -28, -24, 54, 0, -1, 1, 17, 4, 20, 10, -3, -37, -11, -7, 1, 2, 4, 2, 28, -24, 40, 4, -10, 16, -2]",289195,5.0,13444.0,-8.14198867507e+18,mouselab-mdp,4
"[18785, 19560, 22769, 23497, 24248]","[u'right', u'right', u'right', u'up', u'right']",test,"[u'0', u'12', u'13', u'14', u'15', u'17']","{u'mouseover': {u'state': {u'target': [], u'time': []}, u'edge': {u'target': [], u'time': []}}, u'click': {u'state': {u'target': [u'11', u'10', u'9', u'8', u'3', u'2', u'5', u'6', u'16', u'18', u'17', u'14', u'15', u'13', u'12'], u'time': [1283, 1890, 2475, 3888, 4419, 5035, 6083, 6596, 8266, 9005, 9604, 11067, 14012, 16286, 16992]}, u'edge': {u'target': [], u'time': []}}, u'mouseout': {u'state': {u'target': [], u'time': []}, u'edge': {u'target': [], u'time': []}}}","[1, 1, -1, 5, 31]","[18775, 261, 2701, 216, 250]",22.0,"[None, None, None, None, None]","[u'', 1, -2, -6, 10, 10, -20, -34, -6, 39, -1, -45, 1, 1, -1, 5, -26, 31, -46, -7, -44, -13, -24, 0, 0, 2, 1, 8, 51, -9, -12, 30, 59, 6]",317628,6.0,26929.0,-7.446303972e+18,mouselab-mdp,4
"[11062, 11774, 12501, 13422, 14454]","[u'left', u'left', u'left', u'up', u'left']",test,"[u'0', u'23', u'24', u'25', u'26', u'29']","{u'mouseover': {u'state': {u'target': [], u'time': []}, u'edge': {u'target': [], u'time': []}}, u'click': {u'state': {u'target': [u'29', u'27', u'28', u'26', u'25', u'24', u'23'], u'time': [2538, 3385, 4002, 7193, 8791, 9406, 9856]}, u'edge': {u'target': [], u'time': []}}, u'mouseout': {u'state': {u'target': [], u'time': []}, u'edge': {u'target': [], u'time': []}}}","[0, 4, 7, 14, 23]","[11055, 210, 216, 419, 512]",41.0,"[None, None, None, None, None]","[u'', 0, -3, 1, -2, -24, 51, 2, 0, -8, -13, 6, 0, 6, -4, 1, -15, -22, -21, 0, 30, 38, 22, 0, 4, 7, 14, -15, 20, 23, 5, 18, 18, -10]",336636,7.0,17629.0,-7.86346020655e+18,mouselab-mdp,4
"[13673, 14338, 15025, 16025, 16688]","[u'right', u'right', u'right', u'up', u'up']",test,"[u'0', u'12', u'13', u'14', u'15', u'16']","{u'mouseover': {u'state': {u'target': [], u'time': []}, u'edge': {u'target': [], u'time': []}}, u'click': {u'state': {u'target': [u'17', u'16', u'15', u'14', u'12', u'13'], u'time': [3165, 3964, 5373, 6605, 8572, 9149]}, u'edge': {u'target': [], u'time': []}}, u'mouseout': {u'state': {u'target': [], u'time': []}, u'edge': {u'target': [], u'time': []}}}","[-1, -3, 5, -2, 45]","[13642, 164, 183, 493, 154]",38.0,"[None, None, None, None, None]","[u'', 0, 2, 1, 2, 9, -23, 27, 12, 24, 28, -28, -1, -3, 5, -2, 45, -25, -14, 1, 29, 2, 7, 0, 0, -4, 1, -6, -2, 16, -5, -3, -10, 13]",356923,8.0,18952.0,-7.36145656423e+18,mouselab-mdp,4
"[16331, 17083, 18283, 19139, 20163]","[u'right', u'right', u'right', u'down', u'down']",test,"[u'0', u'12', u'13', u'14', u'19', u'21']","{u'mouseover': {u'state': {u'target': [], u'time': []}, u'edge': {u'target': [], u'time': []}}, u'click': {u'state': {u'target': [u'27', u'29', u'28', u'33', u'32', u'31', u'20', u'14', u'21', u'19', u'13', u'12'], u'time': [2175, 2766, 3422, 4436, 4878, 5441, 7743, 8639, 9133, 11463, 12935, 13459]}, u'edge': {u'target': [], u'time': []}}, u'mouseout': {u'state': {u'target': [], u'time': []}, u'edge': {u'target': [], u'time': []}}}","[-1, 2, -9, 4, 49]","[16323, 239, 683, 356, 511]",33.0,"[None, None, None, None, None]","[u'', -2, 1, 1, -6, 26, 13, 9, -3, 15, 34, -21, -1, 2, -9, -21, -58, 6, 5, 4, 2, 49, 50, 1, -2, 1, -7, -16, -33, 0, 4, 3, -38, -49]",380236,9.0,21955.0,-3.69733404644e+18,mouselab-mdp,4
"[12374, 14333, 15317, 16189, 17302]","[u'right', u'right', u'right', u'up', u'left']",test,"[u'0', u'12', u'13', u'14', u'15', u'18']","{u'mouseover': {u'state': {u'target': [], u'time': []}, u'edge': {u'target': [], u'time': []}}, u'click': {u'state': {u'target': [u'16', u'17', u'18', u'15', u'14', u'13'], u'time': [2306, 3080, 3810, 7730, 9077, 9634]}, u'edge': {u'target': [], u'time': []}}, u'mouseout': {u'state': {u'target': [], u'time': []}, u'edge': {u'target': [], u'time': []}}}","[0, 1, -2, 1, 28]","[12350, 1449, 474, 360, 600]",22.0,"[None, None, None, None, None]","[u'', -3, 2, 1, -2, -4, -8, 14, -1, -57, -6, 72, 0, 1, -2, 1, 6, -8, 28, -7, -4, 16, -9, -1, 1, -4, -4, -27, -4, -14, -4, 22, 56, -11]",401083,10.0,19461.0,-4.46091857561e+18,mouselab-mdp,4
"[7625, 8977, 11354, 12161, 12929]","[u'up', u'up', u'up', u'left', u'left']",test,"[u'0', u'1', u'2', u'3', u'8', u'11']","{u'mouseover': {u'state': {u'target': [], u'time': []}, u'edge': {u'target': [], u'time': []}}, u'click': {u'state': {u'target': [u'10', u'11', u'8', u'3'], u'time': [2285, 3339, 4677, 5598]}, u'edge': {u'target': [], u'time': []}}, u'mouseout': {u'state': {u'target': [], u'time': []}, u'edge': {u'target': [], u'time': []}}}","[0, 0, -2, -8, 54]","[7616, 848, 1868, 303, 267]",40.0,"[None, None, None, None, None]","[u'', 0, 0, -2, -4, 64, 0, 55, -8, 24, 0, 54, 0, 4, -2, 0, -37, -1, -7, -9, -59, 29, 16, -1, 0, -3, -1, 8, 11, -16, -2, 17, -21, -18]",418076,11.0,15642.0,-2.3421757787e+18,mouselab-mdp,4
"[5861, 6884, 8300, 9540, 10484]","[u'up', u'up', u'up', u'left', u'up']",test,"[u'0', u'1', u'2', u'3', u'8', u'9']","{u'mouseover': {u'state': {u'target': [], u'time': []}, u'edge': {u'target': [], u'time': []}}, u'click': {u'state': {u'target': [u'11', u'9', u'8', u'3'], u'time': [1662, 2270, 3482, 4345]}, u'edge': {u'target': [], u'time': []}}, u'mouseout': {u'state': {u'target': [], u'time': []}, u'edge': {u'target': [], u'time': []}}}","[0, -2, 2, -5, 65]","[5852, 510, 904, 737, 427]",56.0,"[None, None, None, None, None]","[u'', 0, -2, 2, -2, -20, -29, -2, -5, 65, 51, -9, 1, 2, -1, 15, 30, -3, -58, -8, 10, -14, -1, -1, 0, -2, -12, -11, -18, -50, 11, -2, -10, 24]",432692,12.0,13300.0,-1.88830785645e+18,mouselab-mdp,4
"[14212, 15091, 15964, 16804, 17780]","[u'up', u'up', u'up', u'left', u'left']",test,"[u'0', u'1', u'2', u'3', u'8', u'11']","{u'mouseover': {u'state': {u'target': [], u'time': []}, u'edge': {u'target': [], u'time': []}}, u'click': {u'state': {u'target': [u'9', u'5', u'6', u'7', u'4', u'10', u'11', u'8', u'3'], u'time': [3368, 4086, 5671, 6239, 7622, 8808, 9443, 10624, 11783]}, u'edge': {u'target': [], u'time': []}}, u'mouseout': {u'state': {u'target': [], u'time': []}, u'edge': {u'target': [], u'time': []}}}","[0, -3, -2, 4, 29]","[14203, 355, 366, 324, 465]",19.0,"[None, None, None, None, None]","[u'', 0, -3, -2, -9, 14, -20, 25, 4, -8, 3, 29, 0, 2, 0, 2, 26, 43, 17, 0, 23, -49, 52, -1, 2, -2, 4, -4, 10, -26, -17, 13, -19, -21]",454556,13.0,20500.0,-2.59993630193e+18,mouselab-mdp,4
"[20186, 20945, 22138, 23810, 24850]","[u'right', u'right', u'right', u'down', u'right']",test,"[u'0', u'12', u'13', u'14', u'19', u'20']","{u'mouseover': {u'state': {u'target': [], u'time': []}, u'edge': {u'target': [], u'time': []}}, u'click': {u'state': {u'target': [u'29', u'27', u'28', u'33', u'32', u'31', u'11', u'9', u'10', u'7', u'6', u'5', u'16', u'17', u'18', u'22', u'21', u'20', u'19'], u'time': [4446, 5070, 5597, 6556, 7182, 7845, 8909, 9576, 10525, 11494, 12040, 12576, 13399, 14120, 14672, 15472, 16099, 16791, 17911]}, u'edge': {u'target': [], u'time': []}}, u'mouseout': {u'state': {u'target': [], u'time': []}, u'edge': {u'target': [], u'time': []}}}","[0, -2, 9, -7, 52]","[20179, 243, 682, 1156, 524]",33.0,"[None, None, None, None, None]","[u'', 1, 3, -5, -4, -25, -34, 8, 4, -23, -16, 8, 0, -2, 9, -2, 3, -20, -8, -7, 52, -59, -6, 1, -3, 2, 11, 9, 0, -1, -2, 19, -28, 10]",483965,14.0,28051.0,-7.29297814771e+18,mouselab-mdp,4
"[13949, 14851, 15955, 16880, 18012]","[u'up', u'up', u'up', u'left', u'down']",test,"[u'0', u'1', u'2', u'3', u'8', u'10']","{u'mouseover': {u'state': {u'target': [], u'time': []}, u'edge': {u'target': [], u'time': []}}, u'click': {u'state': {u'target': [u'11', u'9', u'10', u'8', u'3'], u'time': [4712, 5550, 8265, 9664, 12236]}, u'edge': {u'target': [], u'time': []}}, u'mouseout': {u'state': {u'target': [], u'time': []}, u'edge': {u'target': [], u'time': []}}}","[0, 1, 6, 3, 38]","[13935, 391, 592, 413, 626]",43.0,"[None, None, None, None, None]","[u'', 0, 1, 6, 0, 65, -20, -17, 3, -11, 38, -21, 1, 0, 10, -4, -6, 5, -70, 5, 15, 3, -49, -2, 1, 5, 13, -29, -33, -9, -16, -19, 27, 52]",505580,15.0,20300.0,-1.64462434052e+18,mouselab-mdp,4
"[5450, 6275, 7234, 8065, 8962]","[u'up', u'up', u'up', u'left', u'up']",test,"[u'0', u'1', u'2', u'3', u'8', u'9']","{u'mouseover': {u'state': {u'target': [], u'time': []}, u'edge': {u'target': [], u'time': []}}, u'click': {u'state': {u'target': [u'11', u'9', u'8', u'3'], u'time': [1488, 2167, 3280, 3943]}, u'edge': {u'target': [], u'time': []}}, u'mouseout': {u'state': {u'target': [], u'time': []}, u'edge': {u'target': [], u'time': []}}}","[-1, 0, -1, 2, 66]","[5441, 323, 447, 323, 379]",62.0,"[None, None, None, None, None]","[u'', -1, 0, -1, -2, -34, -30, -34, 2, 66, -4, -44, 1, -2, 2, -4, 3, 110, -24, -5, 12, -1, -13, -1, 1, 4, -8, -36, 59, -46, 6, 14, -35, 24]",518676,16.0,11658.0,8.1969743017e+18,mouselab-mdp,4
"[6429, 7149, 7869, 8684, 9533]","[u'up', u'up', u'up', u'left', u'left']",test,"[u'0', u'1', u'2', u'3', u'8', u'11']","{u'mouseover': {u'state': {u'target': [], u'time': []}, u'edge': {u'target': [], u'time': []}}, u'click': {u'state': {u'target': [u'9', u'11', u'10', u'8', u'3'], u'time': [1545, 2881, 3490, 4257, 5055]}, u'edge': {u'target': [], u'time': []}}, u'mouseout': {u'state': {u'target': [], u'time': []}, u'edge': {u'target': [], u'time': []}}}","[0, 0, 4, 1, 53]","[6416, 210, 213, 308, 335]",53.0,"[None, None, None, None, None]","[u'', 0, 0, 4, 4, -39, 45, 32, 1, 5, 43, 53, 1, -2, 0, 7, -27, -39, 0, 1, 12, 39, -70, 0, 0, 0, 1, 33, 18, -1, 1, 3, -4, 42]",541981,17.0,21966.0,-6.00893554297e+18,mouselab-mdp,4
"[9174, 9981, 11581, 13101, 13908]","[u'up', u'up', u'up', u'left', u'left']",test,"[u'0', u'1', u'2', u'3', u'8', u'11']","{u'mouseover': {u'state': {u'target': [], u'time': []}, u'edge': {u'target': [], u'time': []}}, u'click': {u'state': {u'target': [u'11', u'8', u'3'], u'time': [4898, 6242, 8055]}, u'edge': {u'target': [], u'time': []}}, u'mouseout': {u'state': {u'target': [], u'time': []}, u'edge': {u'target': [], u'time': []}}}","[-2, -3, 6, 12, 33]","[9162, 293, 1091, 1004, 283]",43.0,"[None, None, None, None, None]","[u'', -2, -3, 6, 5, 20, 37, -65, 12, -37, -31, 33, -1, 1, 6, -5, -19, 22, 29, 3, -51, 52, 20, -2, -2, -4, -6, 8, -23, 39, 9, 2, -34, 0]",560075,18.0,16820.0,-2.21831823842e+18,mouselab-mdp,4
"[4987, 5722, 6634, 8170, 9417]","[u'up', u'up', u'up', u'left', u'left']",test,"[u'0', u'1', u'2', u'3', u'8', u'11']","{u'mouseover': {u'state': {u'target': [], u'time': []}, u'edge': {u'target': [], u'time': []}}, u'click': {u'state': {u'target': [u'11', u'8'], u'time': [2470, 3685]}, u'edge': {u'target': [], u'time': []}}, u'mouseout': {u'state': {u'target': [], u'time': []}, u'edge': {u'target': [], u'time': []}}}","[-1, 1, 2, -1, 61]","[4975, 234, 401, 1023, 736]",60.0,"[None, None, None, None, None]","[u'', -1, 1, 2, 3, -24, 1, 39, -1, 14, 53, 61, 2, 0, 0, -1, -16, -5, -45, 5, -9, 36, 34, 1, -2, -1, -6, -50, -21, -25, 9, -88, 16, -8]",585517,19.0,24163.0,-3.56832491871e+18,mouselab-mdp,4
"[37520, 38438, 39238, 40087, 40888]","[u'right', u'right', u'right', u'up', u'up']",test,"[u'0', u'12', u'13', u'14', u'15', u'16']","{u'mouseover': {u'state': {u'target': [], u'time': []}, u'edge': {u'target': [], u'time': []}}, u'click': {u'state': {u'target': [u'11', u'6', u'9', u'10', u'7', u'5', u'16', u'17', u'18', u'20', u'21', u'22', u'31', u'32', u'33', u'29', u'27', u'28', u'15', u'14', u'13', u'12'], u'time': [7152, 9068, 12879, 14386, 15253, 16067, 18619, 19425, 20003, 21524, 22211, 23300, 24923, 25551, 26207, 27967, 30239, 30968, 32903, 33722, 34475, 35002]}, u'edge': {u'target': [], u'time': []}}, u'mouseout': {u'state': {u'target': [], u'time': []}, u'edge': {u'target': [], u'time': []}}}","[0, 2, -7, 13, 45]","[37504, 422, 304, 353, 301]",31.0,"[None, None, None, None, None]","[u'', 1, -1, -4, 1, 16, -45, -17, -3, 9, -8, 14, 0, 2, -7, 13, 45, 2, 21, 5, -24, 5, 25, 0, 2, 0, 1, -25, -12, -15, 14, 8, -32, 13]",81429,0.0,45315.0,1.0491821684e+18,mouselab-mdp,5
"[16761, 17567, 18201, 18869, 19671]","[u'right', u'right', u'right', u'down', u'left']",test,"[u'0', u'12', u'13', u'14', u'19', u'22']","{u'mouseover': {u'state': {u'target': [], u'time': []}, u'edge': {u'target': [], u'time': []}}, u'click': {u'state': {u'target': [u'9', u'11', u'10', u'7', u'5', u'6', u'16', u'17', u'18', u'22', u'14', u'19', u'13', u'12'], u'time': [2134, 2894, 3494, 4262, 5181, 5933, 6677, 7394, 8062, 8809, 10868, 11393, 12621, 13127]}, u'edge': {u'target': [], u'time': []}}, u'mouseout': {u'state': {u'target': [], u'time': []}, u'edge': {u'target': [], u'time': []}}}","[-1, 1, -1, 4, 68]","[16749, 301, 134, 169, 296]",57.0,"[None, None, None, None, None]","[u'', 1, 3, -2, 6, -40, -18, 10, 17, 24, 9, -5, -1, 1, -1, 2, -28, 4, -49, 4, 42, 29, 68, 0, 1, 2, -7, 69, 32, -8, -7, 19, 27, 4]",105962,1.0,23183.0,-6.59883208131e+18,mouselab-mdp,5
"[30034, 30746, 31403, 32094, 32777]","[u'up', u'up', u'up', u'left', u'left']",test,"[u'0', u'1', u'2', u'3', u'8', u'11']","{u'mouseover': {u'state': {u'target': [], u'time': []}, u'edge': {u'target': [], u'time': []}}, u'click': {u'state': {u'target': [u'27', u'29', u'28', u'31', u'32', u'33', u'11', u'9', u'10', u'5', u'6', u'7', u'16', u'17', u'18', u'22', u'21', u'20', u'8', u'3', u'2', u'1'], u'time': [2525, 3468, 5632, 6649, 7328, 7922, 9828, 10452, 11363, 12372, 12908, 13451, 14512, 15159, 15769, 16711, 17455, 18023, 22978, 24766, 25438, 26061]}, u'edge': {u'target': [], u'time': []}}, u'mouseout': {u'state': {u'target': [], u'time': []}, u'edge': {u'target': [], u'time': []}}}","[0, -1, -1, -6, 46]","[30017, 207, 162, 187, 185]",16.0,"[None, None, None, None, None]","[u'', 0, -1, -1, 8, 39, -38, -15, -6, 39, -2, 46, 0, 0, -5, 10, -12, -48, -19, -18, -1, 4, 9, 1, -1, 3, 2, -6, -66, 30, -4, 1, -41, 9]",144278,2.0,36992.0,-3.87051221313e+18,mouselab-mdp,5
"[11325, 12047, 12690, 13389, 14045]","[u'up', u'up', u'up', u'right', u'down']",test,"[u'0', u'1', u'2', u'3', u'4', u'7']","{u'mouseover': {u'state': {u'target': [], u'time': []}, u'edge': {u'target': [], u'time': []}}, u'click': {u'state': {u'target': [u'9', u'11', u'10', u'5', u'6', u'7', u'4', u'3', u'2', u'1'], u'time': [1940, 2740, 3588, 5352, 6088, 6791, 8471, 9171, 9700, 10299]}, u'edge': {u'target': [], u'time': []}}, u'mouseout': {u'state': {u'target': [], u'time': []}, u'edge': {u'target': [], u'time': []}}}","[0, 0, -1, 8, 106]","[11315, 222, 151, 198, 153]",103.0,"[None, None, None, None, None]","[u'', 0, 0, -1, 8, 31, 23, 106, -5, -12, -32, 14, -1, -5, -5, 1, 32, -50, -20, -1, -23, 17, 0, 0, -1, 6, 0, 41, -14, 19, -5, -30, -23, -1]",163631,3.0,18011.0,-7.6395338963e+18,mouselab-mdp,5
"[29622, 30266, 30873, 31540, 32226]","[u'up', u'up', u'up', u'right', u'up']",test,"[u'0', u'1', u'2', u'3', u'4', u'5']","{u'mouseover': {u'state': {u'target': [], u'time': []}, u'edge': {u'target': [], u'time': []}}, u'click': {u'state': {u'target': [u'32', u'33', u'31', u'29', u'27', u'28', u'11', u'9', u'10', u'5', u'6', u'7', u'18', u'16', u'17', u'20', u'21', u'22', u'4', u'3', u'2', u'1'], u'time': [5146, 6026, 6665, 9941, 10581, 11318, 12322, 13001, 13826, 14689, 15281, 15905, 17108, 18068, 18612, 19548, 20167, 20735, 22204, 22808, 23891, 24360]}, u'edge': {u'target': [], u'time': []}}, u'mouseout': {u'state': {u'target': [], u'time': []}, u'edge': {u'target': [], u'time': []}}}","[0, 3, -5, -9, 54]","[29608, 135, 109, 159, 178]",21.0,"[None, None, None, None, None]","[u'', 0, 3, -5, -9, 54, 19, -60, 4, 8, -69, -12, 0, 1, 4, 1, 33, -5, -27, -7, 17, -63, 22, -1, -1, 2, 10, -62, -26, 2, -5, 28, -67, 12]",199567,4.0,34576.0,-6.44000697273e+18,mouselab-mdp,5
"[20564, 21191, 21864, 22567, 23241]","[u'up', u'up', u'up', u'right', u'right']",test,"[u'0', u'1', u'2', u'3', u'4', u'6']","{u'mouseover': {u'state': {u'target': [], u'time': []}, u'edge': {u'target': [], u'time': []}}, u'click': {u'state': {u'target': [u'16', u'17', u'18', u'22', u'21', u'20', u'6', u'5', u'7', u'9', u'11', u'10', u'27', u'28', u'29', u'33', u'32', u'31', u'4', u'3', u'2', u'1'], u'time': [1553, 2213, 3102, 4217, 4773, 5388, 6625, 7207, 7782, 9639, 10681, 11289, 12227, 12667, 13307, 14018, 14587, 15163, 17007, 17582, 18598, 19030]}, u'edge': {u'target': [], u'time': []}}, u'mouseout': {u'state': {u'target': [], u'time': []}, u'edge': {u'target': [], u'time': []}}}","[1, 1, 0, -1, 56]","[20553, 127, 168, 204, 177]",35.0,"[None, None, None, None, None]","[u'', 1, 1, 0, -1, 14, 56, 28, -4, 25, -4, -6, 2, -1, -2, -16, -45, 14, -22, 4, -36, -25, 22, 1, 1, 5, 14, 33, -29, -3, 5, -13, 14, -51]",226379,5.0,25469.0,-3.97653490919e+18,mouselab-mdp,5
"[36405, 37029, 37651, 38340, 38980]","[u'up', u'up', u'up', u'left', u'left']",test,"[u'0', u'1', u'2', u'3', u'8', u'11']","{u'mouseover': {u'state': {u'target': [], u'time': []}, u'edge': {u'target': [], u'time': []}}, u'click': {u'state': {u'target': [u'9', u'11', u'10', u'5', u'6', u'7', u'18', u'16', u'17', u'20', u'21', u'22', u'31', u'32', u'33', u'29', u'27', u'28', u'1', u'2', u'3', u'4', u'8'], u'time': [3866, 4619, 5590, 6445, 6998, 7573, 8829, 9421, 10600, 11443, 12168, 12688, 13789, 14392, 15156, 16182, 17180, 17693, 20889, 21373, 21912, 24861, 25781]}, u'edge': {u'target': [], u'time': []}}, u'mouseout': {u'state': {u'target': [], u'time': []}, u'edge': {u'target': [], u'time': []}}}","[2, -1, -2, -6, 47]","[36389, 108, 115, 186, 143]",17.0,"[None, None, None, None, None]","[u'', 2, -1, -2, -9, 28, -74, 56, -6, 10, -8, 47, -2, -1, -2, 9, -35, -6, -28, 0, 19, -35, 37, 1, 1, 4, -5, -4, -30, -9, 4, -22, -13, -22]",268731,6.0,41054.0,3.65628160379e+18,mouselab-mdp,5
"[19421, 20075, 20666, 21275, 21862]","[u'left', u'left', u'left', u'up', u'up']",test,"[u'0', u'23', u'24', u'25', u'26', u'27']","{u'mouseover': {u'state': {u'target': [], u'time': []}, u'edge': {u'target': [], u'time': []}}, u'click': {u'state': {u'target': [u'21', u'20', u'22', u'17', u'16', u'18', u'6', u'5', u'7', u'9', u'11', u'10', u'27', u'28', u'29', u'33', u'32', u'31', u'25', u'26', u'24', u'23'], u'time': [1580, 2203, 2814, 3628, 4197, 4651, 5427, 6007, 6693, 7511, 7998, 8511, 9367, 9871, 10369, 11098, 11763, 12362, 16339, 17563, 18138, 18579]}, u'edge': {u'target': [], u'time': []}}, u'mouseout': {u'state': {u'target': [], u'time': []}, u'edge': {u'target': [], u'time': []}}}","[0, 3, 4, 13, 39]","[19411, 150, 91, 114, 86]",37.0,"[None, None, None, None, None]","[u'', 0, 1, -6, -9, 23, -1, -7, -1, 16, -19, 16, -1, -1, 4, 9, -35, 27, -33, 6, -61, -36, -16, 0, 3, 4, 13, 39, -9, -9, 9, 1, -5, -43]",294212,7.0,24132.0,6.02334654885e+18,mouselab-mdp,5
"[20422, 21004, 21527, 22088, 22809]","[u'up', u'up', u'up', u'left', u'down']",test,"[u'0', u'1', u'2', u'3', u'8', u'10']","{u'mouseover': {u'state': {u'target': [], u'time': []}, u'edge': {u'target': [], u'time': []}}, u'click': {u'state': {u'target': [u'32', u'31', u'33', u'28', u'27', u'29', u'9', u'11', u'10', u'7', u'6', u'5', u'8', u'3', u'2', u'1'], u'time': [3046, 3775, 4454, 5948, 6546, 7473, 8830, 9322, 9798, 10514, 12297, 12973, 17016, 17436, 17900, 18387]}, u'edge': {u'target': [], u'time': []}}, u'mouseout': {u'state': {u'target': [], u'time': []}, u'edge': {u'target': [], u'time': []}}}","[1, -4, 0, 12, 70]","[20406, 85, 24, 68, 221]",63.0,"[None, None, None, None, None]","[u'', 1, -4, 0, -9, 17, 58, -17, 12, -30, 70, -26, 0, 1, -6, 12, -34, 20, -41, 1, 0, -12, 16, -1, 3, 1, -22, 64, 14, 50, -1, -72, -13, -39]",319688,8.0,24142.0,4.95921045901e+18,mouselab-mdp,5
"[16793, 17427, 18072, 18720, 19337]","[u'left', u'left', u'left', u'down', u'down']",test,"[u'0', u'23', u'24', u'25', u'30', u'32']","{u'mouseover': {u'state': {u'target': [], u'time': []}, u'edge': {u'target': [], u'time': []}}, u'click': {u'state': {u'target': [u'5', u'6', u'7', u'9', u'11', u'10', u'8', u'3', u'27', u'29', u'28', u'33', u'32', u'31', u'30', u'25', u'24', u'23'], u'time': [2730, 3232, 3882, 4933, 5516, 6237, 6716, 7124, 8946, 9402, 9920, 11605, 12127, 12928, 13660, 14107, 14542, 15435]}, u'edge': {u'target': [], u'time': []}}, u'mouseout': {u'state': {u'target': [], u'time': []}, u'edge': {u'target': [], u'time': []}}}","[0, 0, -3, -5, 78]","[16784, 133, 146, 140, 123]",52.0,"[None, None, None, None, None]","[u'', -1, 4, -2, 3, -37, 49, -18, -21, 87, -35, 42, 1, 1, -1, 2, 39, -10, 8, 7, 3, -14, 46, 0, 0, -3, -8, 29, 30, -69, -5, 31, 78, 69]",341514,9.0,20529.0,-1.55008755606e+18,mouselab-mdp,5
"[21084, 21790, 22362, 23021, 23686]","[u'up', u'up', u'up', u'left', u'down']",test,"[u'0', u'1', u'2', u'3', u'8', u'10']","{u'mouseover': {u'state': {u'target': [], u'time': []}, u'edge': {u'target': [], u'time': []}}, u'click': {u'state': {u'target': [u'16', u'17', u'18', u'22', u'21', u'20', u'6', u'5', u'7', u'9', u'11', u'10', u'27', u'28', u'29', u'33', u'32', u'31', u'3', u'8', u'2', u'1'], u'time': [1799, 2487, 3283, 4074, 4571, 5124, 6602, 7158, 7814, 8646, 9142, 9678, 11693, 12149, 12662, 13370, 14109, 14801, 17185, 18132, 19237, 19717]}, u'edge': {u'target': [], u'time': []}}, u'mouseout': {u'state': {u'target': [], u'time': []}, u'edge': {u'target': [], u'time': []}}}","[-1, 0, -2, 0, 55]","[21071, 199, 53, 161, 159]",30.0,"[None, None, None, None, None]","[u'', -1, 0, -2, 1, 18, 17, 42, 0, 31, 55, -39, 1, -2, -6, 13, 36, 17, -15, 12, -44, 2, 16, 1, -3, -12, 1, 10, 6, -28, 0, -49, 13, 29]",368442,10.0,25625.0,-5.25678087456e+18,mouselab-mdp,5
"[37393, 37983, 38540, 39107, 39734]","[u'right', u'right', u'right', u'up', u'left']",test,"[u'0', u'12', u'13', u'14', u'15', u'18']","{u'mouseover': {u'state': {u'target': [], u'time': []}, u'edge': {u'target': [], u'time': []}}, u'click': {u'state': {u'target': [u'27', u'29', u'28', u'33', u'32', u'31', u'11', u'9', u'10', u'7', u'6', u'5', u'16', u'17', u'18', u'22', u'21', u'20', u'4', u'3', u'2', u'15', u'14', u'13', u'12', u'1'], u'time': [5695, 6798, 7736, 8713, 9242, 9883, 11436, 12813, 13268, 14093, 14613, 15477, 16317, 16756, 17213, 18000, 18544, 19152, 20520, 21064, 21575, 27742, 28358, 28926, 31774, 32794]}, u'edge': {u'target': [], u'time': []}}, u'mouseout': {u'state': {u'target': [], u'time': []}, u'edge': {u'target': [], u'time': []}}}","[0, 1, -8, 2, 36]","[37380, 96, 52, 71, 130]",5.0,"[None, None, None, None, None]","[u'', 0, 2, -6, -8, 17, 48, 1, 2, -26, -1, -23, 0, 1, -8, 2, -26, -21, 36, 2, 30, -56, -13, 0, -1, 2, 7, -35, -31, -40, 9, -16, -3, -11]",412055,11.0,42296.0,5.46654630961e+18,mouselab-mdp,5
"[14272, 14856, 15430, 16046, 16726]","[u'left', u'left', u'left', u'down', u'left']",test,"[u'0', u'23', u'24', u'25', u'30', u'33']","{u'mouseover': {u'state': {u'target': [], u'time': []}, u'edge': {u'target': [], u'time': []}}, u'click': {u'state': {u'target': [u'27', u'29', u'28', u'33', u'31', u'32', u'30', u'25', u'24', u'23'], u'time': [2975, 3599, 4312, 5048, 6514, 7093, 11381, 11966, 12390, 12832]}, u'edge': {u'target': [], u'time': []}}, u'mouseout': {u'state': {u'target': [], u'time': []}, u'edge': {u'target': [], u'time': []}}}","[1, 0, 1, -5, 58]","[14261, 83, 76, 107, 167]",45.0,"[None, None, None, None, None]","[u'', 0, 1, 0, 7, -3, 60, -35, 7, 32, 41, -4, 0, 3, 2, -5, 27, 51, 21, -6, 31, -49, 25, 1, 0, 1, 1, -17, -27, -9, -5, 48, -43, 58]",431209,12.0,17860.0,2.45129555479e+18,mouselab-mdp,5
"[22943, 23466, 24115, 24667, 25222]","[u'left', u'left', u'left', u'up', u'left']",test,"[u'0', u'23', u'24', u'25', u'26', u'29']","{u'mouseover': {u'state': {u'target': [], u'time': []}, u'edge': {u'target': [], u'time': []}}, u'click': {u'state': {u'target': [u'16', u'17', u'18', u'22', u'21', u'20', u'6', u'5', u'7', u'9', u'11', u'10', u'28', u'27', u'29', u'33', u'32', u'31', u'25', u'26', u'24', u'23'], u'time': [1531, 2178, 2827, 3594, 4146, 4611, 5713, 6646, 7302, 8030, 9063, 9542, 10194, 10618, 11098, 12756, 13380, 13873, 19754, 20738, 21169, 22241]}, u'edge': {u'target': [], u'time': []}}, u'mouseout': {u'state': {u'target': [], u'time': []}, u'edge': {u'target': [], u'time': []}}}","[0, 2, 5, 1, 14]","[22930, 18, 150, 52, 55]",0.0,"[None, None, None, None, None]","[u'', 1, 3, 9, -11, -46, -16, 5, 7, 10, -65, -10, 1, 0, 3, -2, -6, 6, 13, 2, 4, -21, 12, 0, 2, 5, 1, -12, -20, 14, 1, -11, 1, -20]",460393,13.0,27876.0,-6.93444865984e+18,mouselab-mdp,5
"[19675, 20394, 20951, 21538, 22126]","[u'up', u'up', u'up', u'right', u'down']",test,"[u'0', u'1', u'2', u'3', u'4', u'7']","{u'mouseover': {u'state': {u'target': [], u'time': []}, u'edge': {u'target': [], u'time': []}}, u'click': {u'state': {u'target': [u'29', u'28', u'27', u'33', u'32', u'31', u'22', u'21', u'20', u'17', u'16', u'18', u'6', u'5', u'7', u'10', u'11', u'9', u'3', u'4', u'2', u'1'], u'time': [2236, 3907, 4555, 5291, 5884, 6355, 7752, 8927, 9591, 10406, 10850, 11820, 12675, 13387, 13876, 14570, 15149, 16059, 16848, 17712, 18232, 18798]}, u'edge': {u'target': [], u'time': []}}, u'mouseout': {u'state': {u'target': [], u'time': []}, u'edge': {u'target': [], u'time': []}}}","[1, 2, 2, 9, 43]","[19661, 227, 49, 86, 90]",35.0,"[None, None, None, None, None]","[u'', 1, 2, 2, 9, -14, -2, 43, 16, -53, 30, -40, 0, -1, 1, -2, 13, 21, -11, 5, -9, 22, 38, 0, 0, -7, -6, -20, -5, -45, -10, -2, 7, 32]",485557,14.0,23841.0,-6.28758616178e+18,mouselab-mdp,5
