action_times,actions,block,path,queries,rewards,rt,score,simulation_mode,state_rewards,time_elapsed,trial_index,trial_time,trial_id,trial_type,pid
"[10419, 14422, 17026, 25696, 28903]","[u'right', u'right', u'right', u'down', u'down']",pre_test,"[u'0', u'12', u'13', u'14', u'19', u'21']","{u'mouseover': {u'state': {u'target': [], u'time': []}, u'edge': {u'target': [], u'time': []}}, u'click': {u'state': {u'target': [u'23', u'12', u'1'], u'time': [3533, 4818, 6481]}, u'edge': {u'target': [], u'time': []}}, u'mouseout': {u'state': {u'target': [], u'time': []}, u'edge': {u'target': [], u'time': []}}}","[2, 1, 5, -2, -6]","[10405, 3476, 2043, 8167, 2688]",-3.0,"[None, None, None, None, None]","[u'', 1, -1, -3, -3, -34, 1, -32, -7, 10, -18, -7, 2, 1, 5, 4, 19, -43, -18, -2, -14, -6, 5, 0, 1, -1, 9, 0, -19, -40, -6, -8, 38, -41]",95223,0.0,32805.0,5.01968822029e+18,mouselab-mdp,0
"[12606, 58921, 60410]","[u'up', u'up', u'right']",training,"[u'0', u'1', u'2', u'3']","{u'mouseover': {u'state': {u'target': [], u'time': []}, u'edge': {u'target': [], u'time': []}}, u'click': {u'state': {u'target': [u'9'], u'time': [5123]}, u'edge': {u'target': [], u'time': []}}, u'mouseout': {u'state': {u'target': [], u'time': []}, u'edge': {u'target': [], u'time': []}}}","[-2, -8, -24]","[12599, 3785, 965]",-35.0,"[None, None, None]","[u'', -2, -8, -24, -24, 4, 8, 48, 24, -2, 8, -24, -48]",171221,1.0,63228.0,4.07975241014e+18,mouselab-mdp,0
"[12256, 13746, 15241]","[u'up', u'up', u'right']",training,"[u'0', u'1', u'2', u'3']","{u'mouseover': {u'state': {u'target': [], u'time': []}, u'edge': {u'target': [], u'time': []}}, u'click': {u'state': {u'target': [u'12', u'7', u'3'], u'time': [6189, 7524, 9709]}, u'edge': {u'target': [], u'time': []}}, u'mouseout': {u'state': {u'target': [], u'time': []}, u'edge': {u'target': [], u'time': []}}}","[-4, 8, 48]","[12251, 979, 977]",49.0,"[None, None, None]","[u'', -4, 8, 48, 24, 2, -8, -48, -24, -4, -4, 48, -24]",191209,2.0,18895.0,3.41976950562e+18,mouselab-mdp,0
"[26209, 32266, 33453]","[u'left', u'left', u'down']",training,"[u'0', u'9', u'10', u'12']","{u'mouseover': {u'state': {u'target': [], u'time': []}, u'edge': {u'target': [], u'time': []}}, u'click': {u'state': {u'target': [u'12', u'8', u'4', u'3', u'7', u'11'], u'time': [2654, 7301, 10214, 12309, 13460, 18121]}, u'edge': {u'target': [], u'time': []}}, u'mouseout': {u'state': {u'target': [], u'time': []}, u'edge': {u'target': [], u'time': []}}}","[-4, 8, 48]","[26201, 1532, 672]",46.0,"[None, None, None]","[u'', 2, 4, 24, -24, 4, -8, 48, -24, -4, 8, -48, 48]",228246,3.0,35958.0,5.01038116734e+18,mouselab-mdp,0
"[24974, 26040, 26802]","[u'up', u'up', u'right']",training,"[u'0', u'1', u'2', u'3']","{u'mouseover': {u'state': {u'target': [], u'time': []}, u'edge': {u'target': [], u'time': []}}, u'click': {u'state': {u'target': [u'12', u'11', u'8', u'7', u'3', u'4', u'10', u'6', u'2'], u'time': [3644, 6988, 8838, 10565, 12348, 13731, 17619, 18851, 20363]}, u'edge': {u'target': [], u'time': []}}, u'mouseout': {u'state': {u'target': [], u'time': []}, u'edge': {u'target': [], u'time': []}}}","[-2, 4, 48]","[24967, 552, 248]",41.0,"[None, None, None]","[u'', -2, 4, 48, 24, -4, 8, -48, 24, 4, -8, 24, 24]",259029,4.0,29676.0,-1.46177589383e+18,mouselab-mdp,0
"[22038, 23206, 24374]","[u'right', u'right', u'up']",training,"[u'0', u'5', u'6', u'7']","{u'mouseover': {u'state': {u'target': [], u'time': []}, u'edge': {u'target': [], u'time': []}}, u'click': {u'state': {u'target': [u'12', u'11', u'4', u'3', u'7', u'8', u'6', u'2', u'5', u'1'], u'time': [3581, 4541, 5460, 6309, 7164, 8008, 12165, 13053, 17663, 18444]}, u'edge': {u'target': [], u'time': []}}, u'mouseout': {u'state': {u'target': [], u'time': []}, u'edge': {u'target': [], u'time': []}}}","[2, -4, 24]","[22030, 653, 656]",12.0,"[None, None, None]","[u'', -4, -4, -24, 24, 2, -4, 24, -48, -2, 8, -48, -48]",286500,5.0,26372.0,-1.38962569557e+18,mouselab-mdp,0
"[15295, 16199, 16834]","[u'up', u'up', u'right']",training,"[u'0', u'1', u'2', u'3']","{u'mouseover': {u'state': {u'target': [], u'time': []}, u'edge': {u'target': [], u'time': []}}, u'click': {u'state': {u'target': [u'12', u'11', u'4', u'3', u'7', u'8', u'10', u'2', u'6', u'1'], u'time': [2167, 2941, 3701, 4510, 5180, 5989, 9318, 10382, 11606, 12711]}, u'edge': {u'target': [], u'time': []}}, u'mouseout': {u'state': {u'target': [], u'time': []}, u'edge': {u'target': [], u'time': []}}}","[2, 8, 48]","[15285, 388, 125]",48.0,"[None, None, None]","[u'', 2, 8, 48, -24, -4, -4, -48, 24, -4, -8, -48, -24]",306840,6.0,19250.0,2.37271076103e+18,mouselab-mdp,0
"[10773, 11557, 13734]","[u'left', u'left', u'up']",training,"[u'0', u'9', u'10', u'11']","{u'mouseover': {u'state': {u'target': [], u'time': []}, u'edge': {u'target': [], u'time': []}}, u'click': {u'state': {u'target': [u'12', u'11', u'4', u'3', u'7', u'8', u'10'], u'time': [2008, 2833, 3503, 4151, 4735, 5543, 7975]}, u'edge': {u'target': [], u'time': []}}, u'mouseout': {u'state': {u'target': [], u'time': []}, u'edge': {u'target': [], u'time': []}}}","[-2, -4, 48]","[10766, 263, 1658]",35.0,"[None, None, None]","[u'', -2, 4, -48, -24, 2, 4, 24, 24, -2, -4, 48, -24]",323960,7.0,16028.0,7.45732429498e+18,mouselab-mdp,0
"[8841, 9599, 11548]","[u'left', u'left', u'up']",training,"[u'0', u'9', u'10', u'11']","{u'mouseover': {u'state': {u'target': [], u'time': []}, u'edge': {u'target': [], u'time': []}}, u'click': {u'state': {u'target': [u'12', u'11', u'4', u'3', u'7', u'8'], u'time': [1456, 2137, 2967, 3576, 4231, 4856]}, u'edge': {u'target': [], u'time': []}}, u'mouseout': {u'state': {u'target': [], u'time': []}, u'edge': {u'target': [], u'time': []}}}","[4, -8, 48]","[8834, 248, 1430]",38.0,"[None, None, None]","[u'', -4, 4, -24, -24, -4, -8, 24, -24, 4, -8, 48, -48]",338361,8.0,13310.0,4.60924718032e+17,mouselab-mdp,0
"[6885, 7771, 8639]","[u'right', u'right', u'down']",training,"[u'0', u'5', u'6', u'8']","{u'mouseover': {u'state': {u'target': [], u'time': []}, u'edge': {u'target': [], u'time': []}}, u'click': {u'state': {u'target': [u'12', u'11', u'4', u'3', u'7', u'8'], u'time': [1834, 2387, 2994, 3586, 4162, 4803]}, u'edge': {u'target': [], u'time': []}}, u'mouseout': {u'state': {u'target': [], u'time': []}, u'edge': {u'target': [], u'time': []}}}","[-4, -8, 48]","[6862, 369, 356]",30.0,"[None, None, None]","[u'', 4, 8, -24, -24, -4, -8, -48, 48, 2, -8, -24, -48]",351044,9.0,11595.0,2.63044322054e+18,mouselab-mdp,0
"[14798, 15671, 16810]","[u'left', u'left', u'down']",training,"[u'0', u'9', u'10', u'12']","{u'mouseover': {u'state': {u'target': [], u'time': []}, u'edge': {u'target': [], u'time': []}}, u'click': {u'state': {u'target': [u'12', u'11', u'4', u'3', u'7', u'8', u'10', u'2', u'1', u'9'], u'time': [2082, 3300, 3907, 4941, 5667, 6379, 9068, 10124, 11516, 12578]}, u'edge': {u'target': [], u'time': []}}, u'mouseout': {u'state': {u'target': [], u'time': []}, u'edge': {u'target': [], u'time': []}}}","[4, -4, 24]","[14793, 363, 620]",14.0,"[None, None, None]","[u'', -2, -4, 24, -48, -4, 8, -24, -24, 4, -4, -48, 24]",370925,10.0,18796.0,1.39930365593e+18,mouselab-mdp,0
"[56441, 57201, 57929, 58779, 59664]","[u'left', u'left', u'left', u'down', u'left']",test,"[u'0', u'23', u'24', u'25', u'30', u'33']","{u'mouseover': {u'state': {u'target': [], u'time': []}, u'edge': {u'target': [], u'time': []}}, u'click': {u'state': {u'target': [u'23', u'12', u'1', u'14', u'25', u'3', u'6', u'5', u'11', u'9', u'10', u'7', u'16', u'18', u'17', u'20', u'22', u'21', u'32', u'31', u'33', u'29', u'28', u'27', u'24', u'26'], u'time': [2483, 3648, 4729, 6538, 9617, 12802, 14632, 15583, 16943, 18246, 20231, 21335, 25407, 26231, 26919, 27703, 28430, 29599, 30839, 31496, 32223, 33071, 33953, 34706, 36775, 37584]}, u'edge': {u'target': [], u'time': []}}, u'mouseout': {u'state': {u'target': [], u'time': []}, u'edge': {u'target': [], u'time': []}}}","[1, -2, -2, 5, 66]","[56426, 226, 206, 324, 361]",42.0,"[None, None, None, None, None]","[u'', -3, 1, 3, -12, 3, 9, 11, -4, 3, 19, -57, 1, -1, 3, -6, -55, 38, 53, -15, -41, 3, -34, 1, -2, -2, 2, -70, -10, 64, 5, -32, 33, 66]",86582,0.0,61954.0,-7.40831087289e+18,mouselab-mdp,0
"[21459, 22415, 23241, 24469, 25470]","[u'up', u'up', u'up', u'right', u'down']",test,"[u'0', u'1', u'2', u'3', u'4', u'7']","{u'mouseover': {u'state': {u'target': [], u'time': []}, u'edge': {u'target': [], u'time': []}}, u'click': {u'state': {u'target': [u'25', u'27', u'29', u'28', u'33', u'31', u'32', u'14', u'22', u'20', u'21', u'17', u'18', u'16', u'3', u'6', u'5', u'9', u'11', u'7'], u'time': [1860, 2923, 3580, 4196, 4885, 5467, 6563, 8106, 8731, 9315, 9962, 10755, 11370, 12043, 13386, 14291, 14899, 15611, 16283, 18980]}, u'edge': {u'target': [], u'time': []}}, u'mouseout': {u'state': {u'target': [], u'time': []}, u'edge': {u'target': [], u'time': []}}}","[0, 0, -1, 8, 106]","[21439, 442, 304, 700, 485]",93.0,"[None, None, None, None, None]","[u'', 0, 0, -1, 8, 31, 23, 106, -5, -12, -32, 14, -1, -5, -5, 1, 32, -50, -20, -1, -23, 17, 0, 0, -1, 6, 0, 41, -14, 19, -5, -30, -23, -1]",119003,1.0,31068.0,-7.6395338963e+18,mouselab-mdp,0
"[20288, 21300, 22347, 23310, 24931]","[u'right', u'right', u'right', u'down', u'right']",test,"[u'0', u'12', u'13', u'14', u'19', u'20']","{u'mouseover': {u'state': {u'target': [], u'time': []}, u'edge': {u'target': [], u'time': []}}, u'click': {u'state': {u'target': [u'25', u'9', u'5', u'16', u'17', u'20', u'21', u'32', u'27', u'29', u'33', u'7', u'10', u'6', u'11'], u'time': [1688, 2759, 3567, 4312, 4895, 5711, 6369, 7823, 9199, 9816, 10416, 13368, 14175, 15288, 16040]}, u'edge': {u'target': [], u'time': []}}, u'mouseout': {u'state': {u'target': [], u'time': []}, u'edge': {u'target': [], u'time': []}}}","[0, -3, 1, 8, 45]","[20279, 493, 525, 441, 1107]",36.0,"[None, None, None, None, None]","[u'', -1, -2, 1, 3, 10, -18, -26, 1, -13, 33, 37, 0, -3, 1, -5, 26, 22, -34, 8, 45, 12, 20, -1, -2, 5, 2, -3, -2, 24, -2, -16, -10, -5]",147414,2.0,27061.0,-6.91601907848e+18,mouselab-mdp,0
"[25375, 26103, 26960, 27704, 28490]","[u'right', u'right', u'right', u'down', u'left']",test,"[u'0', u'12', u'13', u'14', u'19', u'22']","{u'mouseover': {u'state': {u'target': [], u'time': []}, u'edge': {u'target': [], u'time': []}}, u'click': {u'state': {u'target': [u'3', u'14', u'25', u'33', u'29', u'27', u'11', u'6', u'17', u'20', u'21', u'16', u'18', u'22', u'12', u'13'], u'time': [2512, 4071, 5078, 5799, 6502, 7096, 8687, 9775, 12342, 14103, 15831, 16774, 19479, 20055, 22455, 23111]}, u'edge': {u'target': [], u'time': []}}, u'mouseout': {u'state': {u'target': [], u'time': []}, u'edge': {u'target': [], u'time': []}}}","[0, 2, 0, 0, 52]","[25360, 208, 333, 227, 264]",38.0,"[None, None, None, None, None]","[u'', 0, -3, -2, -9, 14, -20, 25, 4, -8, 3, 29, 0, 2, 0, 2, 26, 43, 17, 0, 23, -49, 52, -1, 2, -2, 4, -4, 10, -26, -17, 13, -19, -21]",179467,3.0,30738.0,-2.59993630193e+18,mouselab-mdp,0
"[17710, 18633, 19605, 20516, 23576]","[u'up', u'up', u'up', u'right', u'up']",test,"[u'0', u'1', u'2', u'3', u'4', u'5']","{u'mouseover': {u'state': {u'target': [], u'time': []}, u'edge': {u'target': [], u'time': []}}, u'click': {u'state': {u'target': [u'25', u'14', u'5', u'9', u'33', u'20', u'21', u'32', u'29', u'17', u'16', u'10', u'7'], u'time': [1552, 2527, 3952, 5000, 6287, 7576, 8335, 9047, 10128, 10992, 11999, 13840, 14441]}, u'edge': {u'target': [], u'time': []}}, u'mouseout': {u'state': {u'target': [], u'time': []}, u'edge': {u'target': [], u'time': []}}}","[0, 1, 5, 1, 17]","[17699, 392, 449, 396, 2540]",11.0,"[None, None, None, None, None]","[u'', 0, 1, 5, 1, 17, -10, -43, -10, 2, -6, -21, 0, -2, 0, 0, -27, -74, 47, 3, -85, -14, 13, 0, 1, -4, 1, -2, -6, -7, 2, 30, -17, -13]",206611,4.0,25746.0,2.94409503949e+18,mouselab-mdp,0
"[13838, 14650, 15507, 16620, 17490]","[u'up', u'up', u'up', u'right', u'up']",test,"[u'0', u'1', u'2', u'3', u'4', u'5']","{u'mouseover': {u'state': {u'target': [], u'time': []}, u'edge': {u'target': [], u'time': []}}, u'click': {u'state': {u'target': [u'25', u'14', u'5', u'4', u'3', u'2', u'1', u'11', u'9'], u'time': [1398, 2286, 3175, 5135, 6831, 8279, 8759, 11303, 11799]}, u'edge': {u'target': [], u'time': []}}, u'mouseout': {u'state': {u'target': [], u'time': []}, u'edge': {u'target': [], u'time': []}}}","[0, 3, 2, -13, 127]","[13827, 289, 332, 596, 351]",110.0,"[None, None, None, None, None]","[u'', 0, 3, 2, -13, 127, 21, 3, -11, 3, -15, 21, 0, 4, 1, 4, 12, -5, -6, 9, 25, -20, -36, 0, 2, 0, 14, -25, 5, -81, -5, -10, 16, 55]",227861,5.0,19852.0,-7.72010987048e+18,mouselab-mdp,0
"[55303, 56041, 56820, 57762, 58519]","[u'right', u'right', u'right', u'up', u'up']",test,"[u'0', u'12', u'13', u'14', u'15', u'16']","{u'mouseover': {u'state': {u'target': [], u'time': []}, u'edge': {u'target': [], u'time': []}}, u'click': {u'state': {u'target': [u'25', u'14', u'5', u'6', u'9', u'11', u'10', u'7', u'17', u'29', u'33', u'31', u'27', u'32', u'21', u'20', u'22', u'18', u'16', u'15', u'23', u'24', u'30', u'3', u'8', u'2', u'28', u'13', u'12'], u'time': [1318, 2134, 3622, 4679, 5438, 6127, 7894, 8431, 9207, 10366, 10903, 11431, 12447, 13679, 14352, 14863, 15421, 16632, 17279, 19528, 23775, 24320, 24847, 34543, 35072, 35560, 38392, 52489, 53553]}, u'edge': {u'target': [], u'time': []}}, u'mouseout': {u'state': {u'target': [], u'time': []}, u'edge': {u'target': [], u'time': []}}}","[2, 1, 5, 4, 19]","[55261, 209, 256, 417, 223]",2.0,"[None, None, None, None, None]","[u'', 1, -1, -3, -3, -34, 1, -32, -7, 10, -18, -7, 2, 1, 5, 4, 19, -43, -18, -2, -14, -6, 5, 0, 1, -1, 9, 0, -19, -40, -6, -8, 38, -41]",291006,6.0,61845.0,5.01968822029e+18,mouselab-mdp,0
"[11251, 12039, 12978, 14148, 15017]","[u'right', u'right', u'right', u'up', u'right']",test,"[u'0', u'12', u'13', u'14', u'15', u'17']","{u'mouseover': {u'state': {u'target': [], u'time': []}, u'edge': {u'target': [], u'time': []}}, u'click': {u'state': {u'target': [u'25', u'9', u'5', u'6', u'16', u'17', u'14', u'12', u'13', u'15'], u'time': [1472, 2776, 3308, 3850, 4386, 4865, 6850, 7786, 8266, 8802]}, u'edge': {u'target': [], u'time': []}}, u'mouseout': {u'state': {u'target': [], u'time': []}, u'edge': {u'target': [], u'time': []}}}","[-1, -2, -7, 11, 61]","[11241, 264, 421, 643, 346]",52.0,"[None, None, None, None, None]","[u'', 1, -1, 0, 9, 2, -26, -23, -5, 0, 27, -43, -1, -2, -7, 11, -1, 61, -46, 10, -22, -13, -32, -1, -3, 1, -11, -8, 0, 21, 1, 10, 16, -1]",309971,7.0,17517.0,3.45966285876e+18,mouselab-mdp,0
"[30506, 31387, 32516, 34115, 34871]","[u'left', u'left', u'left', u'up', u'up']",test,"[u'0', u'23', u'24', u'25', u'26', u'27']","{u'mouseover': {u'state': {u'target': [], u'time': []}, u'edge': {u'target': [], u'time': []}}, u'click': {u'state': {u'target': [u'25', u'14', u'16', u'17', u'20', u'21', u'22', u'18', u'19', u'13', u'12', u'32', u'33', u'29', u'27', u'26', u'24', u'23', u'9', u'5', u'6', u'7', u'11', u'10'], u'time': [1394, 2218, 2867, 3684, 4331, 5042, 5827, 6402, 8243, 9659, 10178, 11499, 12155, 13235, 13675, 15435, 20915, 21395, 24555, 25283, 25851, 26468, 27219, 28283]}, u'edge': {u'target': [], u'time': []}}, u'mouseout': {u'state': {u'target': [], u'time': []}, u'edge': {u'target': [], u'time': []}}}","[1, -2, 2, 3, 52]","[30492, 364, 611, 1079, 236]",32.0,"[None, None, None, None, None]","[u'', 1, 3, 3, 0, 13, 40, -4, 6, -24, 12, -41, -1, 4, 1, 9, -86, -8, -6, -4, 4, -28, 40, 1, -2, 2, 3, 52, 34, -36, -6, 32, -42, 19]",348738,8.0,37405.0,8.69278459424e+18,mouselab-mdp,0
"[29754, 30432, 31285, 31915, 32843]","[u'right', u'right', u'right', u'down', u'left']",test,"[u'0', u'12', u'13', u'14', u'19', u'22']","{u'mouseover': {u'state': {u'target': [], u'time': []}, u'edge': {u'target': [], u'time': []}}, u'click': {u'state': {u'target': [u'25', u'14', u'5', u'9', u'32', u'21', u'17', u'16', u'18', u'15', u'13', u'12', u'29', u'27', u'28', u'33', u'31', u'20', u'22', u'19', u'10', u'7', u'6', u'11'], u'time': [1339, 2242, 3450, 4131, 5394, 6403, 7556, 8212, 9011, 10075, 10813, 11348, 12355, 12950, 13508, 14084, 15396, 16916, 17684, 19460, 25380, 26182, 26948, 27780]}, u'edge': {u'target': [], u'time': []}}, u'mouseout': {u'state': {u'target': [], u'time': []}, u'edge': {u'target': [], u'time': []}}}","[1, 1, 1, -2, 70]","[29745, 155, 327, 110, 404]",47.0,"[None, None, None, None, None]","[u'', -1, 1, 3, -5, 17, -37, 26, 0, -6, -3, 28, 1, 1, 1, 1, 20, 7, 22, -2, -78, 33, 70, 0, 0, -1, -1, 1, -36, -17, -8, 8, -9, 16]",385217,9.0,35061.0,2.56897496286e+18,mouselab-mdp,0
"[28763, 29602, 30391, 31892, 32565]","[u'up', u'up', u'up', u'left', u'left']",test,"[u'0', u'1', u'2', u'3', u'8', u'11']","{u'mouseover': {u'state': {u'target': [], u'time': []}, u'edge': {u'target': [], u'time': []}}, u'click': {u'state': {u'target': [u'25', u'14', u'5', u'9', u'11', u'10', u'7', u'6', u'16', u'17', u'18', u'22', u'20', u'21', u'31', u'33', u'32', u'29', u'27', u'28', u'3', u'1', u'2', u'8', u'4'], u'time': [1219, 1851, 2796, 3308, 3787, 4276, 5036, 6052, 6988, 7518, 8076, 8851, 9604, 10436, 11980, 13077, 13725, 14596, 15028, 15532, 18676, 20333, 20717, 21525, 25343]}, u'edge': {u'target': [], u'time': []}}, u'mouseout': {u'state': {u'target': [], u'time': []}, u'edge': {u'target': [], u'time': []}}}","[0, 0, 4, 1, 53]","[28754, 319, 259, 978, 151]",33.0,"[None, None, None, None, None]","[u'', 0, 0, 4, 4, -39, 45, 32, 1, 5, 43, 53, 1, -2, 0, 7, -27, -39, 0, 1, 12, 39, -70, 0, 0, 0, 1, 33, 18, -1, 1, 3, -4, 42]",421300,10.0,34673.0,-6.00893554297e+18,mouselab-mdp,0
"[20018, 20938, 21935, 23275, 25616]","[u'up', u'up', u'up', u'left', u'up']",test,"[u'0', u'1', u'2', u'3', u'8', u'9']","{u'mouseover': {u'state': {u'target': [], u'time': []}, u'edge': {u'target': [], u'time': []}}, u'click': {u'state': {u'target': [u'25', u'14', u'5', u'9', u'11', u'6', u'3', u'10', u'7', u'29', u'27', u'28', u'17', u'16', u'18', u'32', u'33', u'31', u'21', u'20', u'22'], u'time': [1151, 1942, 2814, 3510, 4310, 5078, 5799, 7423, 7966, 10823, 11222, 11639, 12401, 12990, 13534, 14728, 15255, 15998, 16719, 17278, 17879]}, u'edge': {u'target': [], u'time': []}}, u'mouseout': {u'state': {u'target': [], u'time': []}, u'edge': {u'target': [], u'time': []}}}","[0, -2, 2, -5, 65]","[20005, 399, 482, 823, 1815]",39.0,"[None, None, None, None, None]","[u'', 0, -2, 2, -2, -20, -29, -2, -5, 65, 51, -9, 1, 2, -1, 15, 30, -3, -58, -8, 10, -14, -1, -1, 0, -2, -12, -11, -18, -50, 11, -2, -10, 24]",450776,11.0,28080.0,-1.88830785645e+18,mouselab-mdp,0
"[38705, 39555, 40455, 41259, 42768]","[u'up', u'up', u'up', u'right', u'up']",test,"[u'0', u'1', u'2', u'3', u'4', u'5']","{u'mouseover': {u'state': {u'target': [], u'time': []}, u'edge': {u'target': [], u'time': []}}, u'click': {u'state': {u'target': [u'25', u'14', u'5', u'9', u'11', u'6', u'3', u'32', u'33', u'31', u'22', u'20', u'21', u'16', u'17', u'18', u'29', u'27', u'28', u'7', u'10', u'19'], u'time': [1529, 2280, 3424, 4144, 5257, 5969, 6832, 8457, 9361, 9888, 10561, 10961, 11537, 12585, 13017, 13705, 14521, 15073, 15513, 18425, 19754, 30332]}, u'edge': {u'target': [], u'time': []}}, u'mouseout': {u'state': {u'target': [], u'time': []}, u'edge': {u'target': [], u'time': []}}}","[0, 2, -4, -1, 46]","[38695, 328, 378, 283, 979]",21.0,"[None, None, None, None, None]","[u'', 0, 2, -4, -1, 46, -20, -65, -16, -80, -68, -13, 1, -1, 1, -1, 0, -5, -6, 4, -38, 32, 29, 0, 2, -3, -4, 5, -6, -14, -5, -18, 30, -62]",497221,12.0,45136.0,-3.13580120687e+18,mouselab-mdp,0
"[13549, 14412, 15385, 16778, 22039]","[u'right', u'right', u'right', u'up', u'up']",test,"[u'0', u'12', u'13', u'14', u'15', u'16']","{u'mouseover': {u'state': {u'target': [], u'time': []}, u'edge': {u'target': [], u'time': []}}, u'click': {u'state': {u'target': [u'25', u'14', u'5', u'9', u'11', u'6', u'21', u'32', u'33', u'29', u'17', u'20', u'16', u'27'], u'time': [1213, 1869, 2677, 3332, 3805, 4360, 5605, 6396, 7173, 8013, 8821, 9390, 11109, 11909]}, u'edge': {u'target': [], u'time': []}}, u'mouseout': {u'state': {u'target': [], u'time': []}, u'edge': {u'target': [], u'time': []}}}","[-1, 0, 8, -11, 42]","[13528, 344, 452, 864, 4743]",24.0,"[None, None, None, None, None]","[u'', -1, 1, 4, 8, -97, -52, 64, -2, -5, 37, 6, -1, 0, 8, -11, 42, -10, -9, 15, -21, 27, -12, -1, 0, 5, -1, 18, 6, 1, -3, 4, -65, -14]",522542,13.0,23981.0,6.45819709428e+18,mouselab-mdp,0
"[24714, 25621, 26680, 27564, 28553]","[u'left', u'left', u'left', u'down', u'down']",test,"[u'0', u'23', u'24', u'25', u'30', u'32']","{u'mouseover': {u'state': {u'target': [], u'time': []}, u'edge': {u'target': [], u'time': []}}, u'click': {u'state': {u'target': [u'25', u'14', u'5', u'9', u'11', u'6', u'29', u'33', u'31', u'22', u'20', u'32', u'21', u'10', u'7', u'18', u'16', u'17', u'27', u'28'], u'time': [1013, 1668, 2348, 2956, 3484, 4045, 5237, 5661, 6108, 6836, 7494, 9125, 9876, 14326, 15749, 16799, 17173, 17622, 18375, 18758]}, u'edge': {u'target': [], u'time': []}}, u'mouseout': {u'state': {u'target': [], u'time': []}, u'edge': {u'target': [], u'time': []}}}","[1, 1, 4, 2, 36]","[24703, 379, 540, 376, 465]",24.0,"[None, None, None, None, None]","[u'', 1, -2, -1, 5, 11, -3, -31, 1, 23, -23, 2, 2, 1, 2, -8, -18, -10, -27, -10, -50, -7, 27, 1, 1, 4, -7, -22, -8, -29, 2, -21, 36, -28]",553962,14.0,30113.0,8.08344173605e+18,mouselab-mdp,0
"[25112, 26289, 27291, 28201, 30937]","[u'up', u'up', u'up', u'right', u'right']",test,"[u'0', u'1', u'2', u'3', u'4', u'6']","{u'mouseover': {u'state': {u'target': [], u'time': []}, u'edge': {u'target': [], u'time': []}}, u'click': {u'state': {u'target': [u'25', u'14', u'5', u'9', u'6', u'11', u'3', u'21', u'32', u'29', u'27', u'28', u'16', u'17'], u'time': [1721, 2546, 3354, 3906, 5001, 5736, 8001, 9961, 12305, 19928, 20481, 21033, 22433, 23097]}, u'edge': {u'target': [], u'time': []}}, u'mouseout': {u'state': {u'target': [], u'time': []}, u'edge': {u'target': [], u'time': []}}}","[0, -3, 1, -2, 51]","[25094, 650, 487, 381, 2219]",33.0,"[None, None, None, None, None]","[u'', 0, -3, 1, -2, -24, 51, 2, 0, -8, -13, 6, 0, 6, -4, 1, -15, -22, -21, 0, 30, 38, 22, 0, 4, 7, 14, -15, 20, 23, 5, 18, 18, -10]",588284,15.0,33015.0,-7.86346020655e+18,mouselab-mdp,0
"[16336, 17348, 18332, 19218, 20109]","[u'left', u'left', u'left', u'up', u'right']",test,"[u'0', u'23', u'24', u'25', u'26', u'28']","{u'mouseover': {u'state': {u'target': [], u'time': []}, u'edge': {u'target': [], u'time': []}}, u'click': {u'state': {u'target': [u'25', u'14', u'5', u'9', u'11', u'6', u'3', u'4', u'1', u'2', u'29', u'28', u'26'], u'time': [1315, 2138, 2963, 3579, 4026, 4619, 6394, 7379, 8579, 9067, 11092, 11684, 13988]}, u'edge': {u'target': [], u'time': []}}, u'mouseout': {u'state': {u'target': [], u'time': []}, u'edge': {u'target': [], u'time': []}}}","[2, 1, 6, 1, 78]","[16326, 494, 463, 368, 361]",75.0,"[None, None, None, None, None]","[u'', 1, 2, -2, 7, -18, 63, -43, -14, -53, -28, -36, 2, -1, -5, 9, -19, -40, 28, 5, -14, 45, 4, 2, 1, 6, 1, -39, 78, -17, -2, -22, -7, 8]",611936,16.0,22286.0,6.04957788595e+18,mouselab-mdp,0
"[17807, 18735, 19751, 20708, 22319]","[u'right', u'right', u'right', u'up', u'left']",test,"[u'0', u'12', u'13', u'14', u'15', u'18']","{u'mouseover': {u'state': {u'target': [], u'time': []}, u'edge': {u'target': [], u'time': []}}, u'click': {u'state': {u'target': [u'25', u'14', u'6', u'9', u'11', u'5', u'29', u'27', u'28', u'10', u'7', u'18', u'16', u'17', u'20', u'22', u'21', u'32', u'33', u'31'], u'time': [1267, 2027, 2786, 3907, 4591, 5275, 6179, 6675, 7211, 7819, 8388, 8907, 9707, 10307, 11058, 11659, 12148, 12868, 13579, 14083]}, u'edge': {u'target': [], u'time': []}}, u'mouseout': {u'state': {u'target': [], u'time': []}, u'edge': {u'target': [], u'time': []}}}","[0, -3, -3, 5, 58]","[17797, 404, 488, 430, 1090]",37.0,"[None, None, None, None, None]","[u'', 0, 1, 7, -1, -39, -38, -21, -13, 26, -16, -10, 0, -3, -3, 5, 20, -14, 58, -10, -11, -7, -89, 2, 1, -4, 16, 19, 14, -19, 1, -49, 25, -12]",637500,17.0,24266.0,-2.39631317689e+18,mouselab-mdp,0
"[18729, 19686, 20574, 21406, 22296]","[u'right', u'right', u'right', u'down', u'right']",test,"[u'0', u'12', u'13', u'14', u'19', u'20']","{u'mouseover': {u'state': {u'target': [], u'time': []}, u'edge': {u'target': [], u'time': []}}, u'click': {u'state': {u'target': [u'25', u'14', u'29', u'17', u'16', u'5', u'6', u'9', u'11', u'27', u'33', u'32', u'31', u'22', u'20', u'21', u'19', u'13'], u'time': [1338, 2558, 3653, 4729, 5393, 6097, 6745, 7370, 8026, 8553, 11929, 12610, 13217, 13937, 14362, 15609, 16658, 17354]}, u'edge': {u'target': [], u'time': []}}, u'mouseout': {u'state': {u'target': [], u'time': []}, u'edge': {u'target': [], u'time': []}}}","[1, 0, -5, -4, 120]","[18719, 428, 368, 302, 359]",94.0,"[None, None, None, None, None]","[u'', -1, 2, 0, 0, 25, -13, -8, 9, -44, -28, -4, 1, 0, -5, -7, 54, 10, -20, -4, 120, 43, -52, 0, 1, -1, 9, 56, 0, 9, -1, 28, 48, 30]",663250,18.0,24399.0,6.33441295976e+18,mouselab-mdp,0
"[26518, 27479, 28465, 29324, 30300]","[u'right', u'right', u'right', u'down', u'right']",test,"[u'0', u'12', u'13', u'14', u'19', u'20']","{u'mouseover': {u'state': {u'target': [], u'time': []}, u'edge': {u'target': [], u'time': []}}, u'click': {u'state': {u'target': [u'25', u'14', u'5', u'6', u'9', u'11', u'29', u'27', u'33', u'32', u'31', u'28', u'18', u'16', u'17', u'20', u'22', u'21', u'10', u'7', u'3', u'19'], u'time': [1517, 2316, 3620, 4245, 5044, 5581, 6573, 7085, 7990, 9213, 9669, 10405, 11029, 11517, 12029, 12606, 13214, 13749, 15909, 16373, 20645, 22877]}, u'edge': {u'target': [], u'time': []}}, u'mouseout': {u'state': {u'target': [], u'time': []}, u'edge': {u'target': [], u'time': []}}}","[-2, 2, 4, 7, 58]","[26504, 439, 462, 338, 449]",47.0,"[None, None, None, None, None]","[u'', -1, 0, -1, -7, 16, -15, 52, 7, -28, -1, -7, -2, 2, 4, 7, -15, 34, -7, 7, 58, 4, -45, 0, 1, 5, -9, -6, 7, 14, 7, -30, -14, 32]",696596,19.0,32044.0,-8.01578187763e+18,mouselab-mdp,0
"[10633, 12560, 14279, 18872, 21990]","[u'right', u'right', u'right', u'down', u'right']",pre_test,"[u'0', u'12', u'13', u'14', u'19', u'20']","{u'mouseover': {u'state': {u'target': [], u'time': []}, u'edge': {u'target': [], u'time': []}}, u'click': {u'state': {u'target': [u'13'], u'time': [6737]}, u'edge': {u'target': [], u'time': []}}, u'mouseout': {u'state': {u'target': [], u'time': []}, u'edge': {u'target': [], u'time': []}}}","[1, 0, 10, 5, 15]","[10619, 1417, 1201, 4091, 2593]",30.0,"[None, None, None, None, None]","[u'', 0, 1, 6, 0, 65, -20, -17, 3, -11, 38, -21, 1, 0, 10, -4, -6, 5, -70, 5, 15, 3, -49, -2, 1, 5, 13, -29, -33, -9, -16, -19, 27, 52]",151484,0.0,26183.0,-1.64462434052e+18,mouselab-mdp,1
"[9615, 10840, 11687]","[u'up', u'up', u'right']",training,"[u'0', u'1', u'2', u'3']","{u'mouseover': {u'state': {u'target': [], u'time': []}, u'edge': {u'target': [], u'time': []}}, u'click': {u'state': {u'target': [u'2', u'6', u'10', u'9'], u'time': [2034, 4062, 5289, 7472]}, u'edge': {u'target': [], u'time': []}}, u'mouseout': {u'state': {u'target': [], u'time': []}, u'edge': {u'target': [], u'time': []}}}","[-4, 4, 24]","[9607, 713, 346]",20.0,"[None, None, None]","[u'', -4, 4, 24, 24, -2, -4, 48, -24, -4, 8, -48, 48]",196045,1.0,38791.0,-4.8746661358e+18,mouselab-mdp,1
"[10856, 11382, 11935]","[u'up', u'up', u'left']",training,"[u'0', u'1', u'2', u'4']","{u'mouseover': {u'state': {u'target': [], u'time': []}, u'edge': {u'target': [], u'time': []}}, u'click': {u'state': {u'target': [u'6', u'10', u'2', u'3', u'1'], u'time': [2593, 3673, 4421, 6327, 9384]}, u'edge': {u'target': [], u'time': []}}, u'mouseout': {u'state': {u'target': [], u'time': []}, u'edge': {u'target': [], u'time': []}}}","[4, 8, 24]","[10851, 26, 43]",31.0,"[None, None, None]","[u'', 4, 8, -24, 24, -2, 4, -24, 48, 2, -8, 24, 48]",210692,2.0,13423.0,8.86605250045e+18,mouselab-mdp,1
"[33327, 33834, 34367]","[u'up', u'up', u'left']",training,"[u'0', u'1', u'2', u'4']","{u'mouseover': {u'state': {u'target': [], u'time': []}, u'edge': {u'target': [], u'time': []}}, u'click': {u'state': {u'target': [u'10', u'6', u'2', u'4'], u'time': [28916, 29565, 30226, 31656]}, u'edge': {u'target': [], u'time': []}}, u'mouseout': {u'state': {u'target': [], u'time': []}, u'edge': {u'target': [], u'time': []}}}","[2, 4, 24]","[33321, 3, 20]",26.0,"[None, None, None]","[u'', 2, 4, -24, 24, 4, 8, -48, -48, -4, -4, -48, -24]",247284,3.0,35503.0,-7.78403282575e+18,mouselab-mdp,1
"[4299, 4906, 5465]","[u'right', u'right', u'up']",training,"[u'0', u'5', u'6', u'7']","{u'mouseover': {u'state': {u'target': [], u'time': []}, u'edge': {u'target': [], u'time': []}}, u'click': {u'state': {u'target': [u'8', u'7', u'6'], u'time': [1017, 1677, 2360]}, u'edge': {u'target': [], u'time': []}}, u'mouseout': {u'state': {u'target': [], u'time': []}, u'edge': {u'target': [], u'time': []}}}","[-4, 8, 48]","[4294, 107, 48]",49.0,"[None, None, None]","[u'', -2, 8, -24, 24, -4, 8, 48, 24, -2, -4, 24, -48]",257667,4.0,9288.0,2.56147591953e+18,mouselab-mdp,1
"[6792, 7367, 8152]","[u'up', u'up', u'left']",training,"[u'0', u'1', u'2', u'4']","{u'mouseover': {u'state': {u'target': [], u'time': []}, u'edge': {u'target': [], u'time': []}}, u'click': {u'state': {u'target': [u'10', u'6', u'8', u'7', u'3', u'2', u'9', u'4'], u'time': [688, 1302, 1693, 2185, 3125, 3855, 4487, 4903]}, u'edge': {u'target': [], u'time': []}}, u'mouseout': {u'state': {u'target': [], u'time': []}, u'edge': {u'target': [], u'time': []}}}","[4, 8, 48]","[6788, 63, 272]",52.0,"[None, None, None]","[u'', 4, 8, -24, 48, 2, 8, -48, -48, 2, -4, 24, -48]",268075,5.0,9310.0,-6.66851853783e+18,mouselab-mdp,1
"[7148, 8091, 8716]","[u'up', u'up', u'left']",training,"[u'0', u'1', u'2', u'4']","{u'mouseover': {u'state': {u'target': [], u'time': []}, u'edge': {u'target': [], u'time': []}}, u'click': {u'state': {u'target': [u'1', u'2', u'6', u'10', u'11', u'7', u'8', u'4'], u'time': [492, 817, 2487, 3274, 3818, 4338, 5082, 6162]}, u'edge': {u'target': [], u'time': []}}, u'mouseout': {u'state': {u'target': [], u'time': []}, u'edge': {u'target': [], u'time': []}}}","[4, 4, 48]","[7144, 442, 115]",48.0,"[None, None, None]","[u'', 4, 4, -48, 48, -2, 4, -48, -24, -2, -4, -48, 24]",278861,6.0,9716.0,-5.00680981918e+18,mouselab-mdp,1
"[32599, 33454, 34094]","[u'left', u'left', u'up']",training,"[u'0', u'9', u'10', u'11']","{u'mouseover': {u'state': {u'target': [], u'time': []}, u'edge': {u'target': [], u'time': []}}, u'click': {u'state': {u'target': [u'6', u'3', u'4', u'1', u'12', u'11', u'10'], u'time': [27778, 28278, 28777, 29323, 29969, 30361, 31105]}, u'edge': {u'target': [], u'time': []}}, u'mouseout': {u'state': {u'target': [], u'time': []}, u'edge': {u'target': [], u'time': []}}}","[4, -8, 48]","[32597, 343, 136]",37.0,"[None, None, None]","[u'', 2, 8, 24, -24, 2, -8, -24, -24, 4, -8, 48, 48]",315579,7.0,35645.0,-3.20049588135e+18,mouselab-mdp,1
"[8417, 9203, 9763]","[u'up', u'up', u'right']",training,"[u'0', u'1', u'2', u'3']","{u'mouseover': {u'state': {u'target': [], u'time': []}, u'edge': {u'target': [], u'time': []}}, u'click': {u'state': {u'target': [u'7', u'6', u'8', u'3', u'1', u'2', u'4', u'11', u'12', u'10', u'9'], u'time': [1819, 2188, 2569, 3174, 3692, 4017, 4770, 5530, 6219, 6976, 7364]}, u'edge': {u'target': [], u'time': []}}, u'mouseout': {u'state': {u'target': [], u'time': []}, u'edge': {u'target': [], u'time': []}}}","[4, 4, 48]","[8414, 275, 50]",45.0,"[None, None, None]","[u'', 4, 4, 48, -48, -2, -8, 48, -24, -4, -8, 24, -48]",328397,8.0,11715.0,-4.67008033733e+18,mouselab-mdp,1
"[9241, 9929, 10585]","[u'up', u'up', u'right']",training,"[u'0', u'1', u'2', u'3']","{u'mouseover': {u'state': {u'target': [], u'time': []}, u'edge': {u'target': [], u'time': []}}, u'click': {u'state': {u'target': [u'6', u'10', u'4', u'3', u'2'], u'time': [5002, 5887, 6655, 7177, 8042]}, u'edge': {u'target': [], u'time': []}}, u'mouseout': {u'state': {u'target': [], u'time': []}, u'edge': {u'target': [], u'time': []}}}","[-2, -4, 48]","[9236, 2, 137]",37.0,"[None, None, None]","[u'', -2, -4, 48, 24, 2, 4, -48, 48, -4, 4, 48, 24]",342068,9.0,12576.0,7.94655219151e+18,mouselab-mdp,1
"[12427, 13089, 13673]","[u'up', u'up', u'right']",training,"[u'0', u'1', u'2', u'3']","{u'mouseover': {u'state': {u'target': [], u'time': []}, u'edge': {u'target': [], u'time': []}}, u'click': {u'state': {u'target': [u'12', u'8', u'7', u'11', u'4', u'3', u'6', u'10', u'2'], u'time': [5147, 5837, 6368, 6885, 7377, 7713, 8130, 8913, 11737]}, u'edge': {u'target': [], u'time': []}}, u'mouseout': {u'state': {u'target': [], u'time': []}, u'edge': {u'target': [], u'time': []}}}","[2, 4, 24]","[12424, 155, 84]",21.0,"[None, None, None]","[u'', 2, 4, 24, -24, 4, 8, -48, 24, 4, -8, -24, 24]",357764,10.0,14625.0,8.9509461883e+18,mouselab-mdp,1
"[23103, 25287, 25966, 29310, 32863]","[u'up', u'up', u'up', u'left', u'down']",pre_test,"[u'0', u'1', u'2', u'3', u'8', u'10']","{u'mouseover': {u'state': {u'target': [], u'time': []}, u'edge': {u'target': [], u'time': []}}, u'click': {u'state': {u'target': [u'12'], u'time': [12922]}, u'edge': {u'target': [], u'time': []}}, u'mouseout': {u'state': {u'target': [], u'time': []}, u'edge': {u'target': [], u'time': []}}}","[1, -4, 0, 12, 70]","[23093, 1665, 157, 2817, 3028]",78.0,"[None, None, None, None, None]","[u'', 1, -4, 0, -9, 17, 58, -17, 12, -30, 70, -26, 0, 1, -6, 12, -34, 20, -41, 1, 0, -12, 16, -1, 3, 1, -22, 64, 14, 50, -1, -72, -13, -39]",91345,0.0,36767.0,4.95921045901e+18,mouselab-mdp,2
"[3097, 51345, 52864]","[u'left', u'left', u'up']",training,"[u'0', u'9', u'10', u'11']","{u'mouseover': {u'state': {u'target': [], u'time': []}, u'edge': {u'target': [], u'time': []}}, u'click': {u'state': {u'target': [], u'time': []}, u'edge': {u'target': [], u'time': []}}, u'mouseout': {u'state': {u'target': [], u'time': []}, u'edge': {u'target': [], u'time': []}}}","[4, 8, -24]","[3092, 5709, 1000]",-12.0,"[None, None, None]","[u'', 2, 8, -24, -48, -2, 8, 48, 24, 4, 8, -24, -48]",155822,1.0,55016.0,7.70857757142e+18,mouselab-mdp,2
"[8267, 51594, 52354]","[u'up', u'up', u'right']",training,"[u'0', u'1', u'2', u'3']","{u'mouseover': {u'state': {u'target': [], u'time': []}, u'edge': {u'target': [], u'time': []}}, u'click': {u'state': {u'target': [u'9'], u'time': [4733]}, u'edge': {u'target': [], u'time': []}}, u'mouseout': {u'state': {u'target': [], u'time': []}, u'edge': {u'target': [], u'time': []}}}","[4, 4, -48]","[8263, 798, 241]",-41.0,"[None, None, None]","[u'', 4, 4, -48, 48, -2, 4, -48, -24, -2, -4, -48, 24]",211092,2.0,54186.0,-5.00680981918e+18,mouselab-mdp,2
"[7533, 49498, 50779]","[u'left', u'left', u'up']",training,"[u'0', u'9', u'10', u'11']","{u'mouseover': {u'state': {u'target': [], u'time': []}, u'edge': {u'target': [], u'time': []}}, u'click': {u'state': {u'target': [u'8'], u'time': [3821]}, u'edge': {u'target': [], u'time': []}}, u'mouseout': {u'state': {u'target': [], u'time': []}, u'edge': {u'target': [], u'time': []}}}","[-2, -4, 24]","[7529, 1435, 763]",17.0,"[None, None, None]","[u'', -2, -8, 24, 48, -2, 8, -24, -24, -2, -4, 24, -24]",265314,3.0,53146.0,-3.60340228201e+18,mouselab-mdp,2
"[12225, 12984, 13679]","[u'up', u'up', u'right']",training,"[u'0', u'1', u'2', u'3']","{u'mouseover': {u'state': {u'target': [], u'time': []}, u'edge': {u'target': [], u'time': []}}, u'click': {u'state': {u'target': [u'12', u'11', u'4', u'3'], u'time': [3203, 5675, 7459, 9032]}, u'edge': {u'target': [], u'time': []}}, u'mouseout': {u'state': {u'target': [], u'time': []}, u'edge': {u'target': [], u'time': []}}}","[-2, -4, 48]","[12220, 240, 186]",38.0,"[None, None, None]","[u'', -2, -4, 48, -24, 2, -4, 48, 24, -2, -8, -24, -24]",281963,4.0,15585.0,2.59386444745e+18,mouselab-mdp,2
"[7202, 7816, 8489]","[u'left', u'left', u'down']",training,"[u'0', u'9', u'10', u'12']","{u'mouseover': {u'state': {u'target': [], u'time': []}, u'edge': {u'target': [], u'time': []}}, u'click': {u'state': {u'target': [u'7', u'8', u'3', u'12'], u'time': [2201, 3253, 4570, 5777]}, u'edge': {u'target': [], u'time': []}}, u'mouseout': {u'state': {u'target': [], u'time': []}, u'edge': {u'target': [], u'time': []}}}","[-4, -4, 48]","[7199, 94, 152]",36.0,"[None, None, None]","[u'', 2, -4, -24, -24, 4, -8, -48, -48, -4, -4, 48, 48]",293497,5.0,10472.0,-7.91360722647e+18,mouselab-mdp,2
"[5835, 6489, 7154]","[u'right', u'right', u'up']",training,"[u'0', u'5', u'6', u'7']","{u'mouseover': {u'state': {u'target': [], u'time': []}, u'edge': {u'target': [], u'time': []}}, u'click': {u'state': {u'target': [u'4', u'3', u'7'], u'time': [2232, 3557, 4588]}, u'edge': {u'target': [], u'time': []}}, u'mouseout': {u'state': {u'target': [], u'time': []}, u'edge': {u'target': [], u'time': []}}}","[-2, -4, 48]","[5831, 130, 147]",39.0,"[None, None, None]","[u'', -4, 4, 24, 24, -2, -4, 48, -24, -4, 8, -48, 48]",304425,6.0,9849.0,-4.8746661358e+18,mouselab-mdp,2
"[7221, 7771, 8509]","[u'left', u'left', u'down']",training,"[u'0', u'9', u'10', u'12']","{u'mouseover': {u'state': {u'target': [], u'time': []}, u'edge': {u'target': [], u'time': []}}, u'click': {u'state': {u'target': [u'4', u'3', u'7', u'8', u'12'], u'time': [1761, 2643, 3768, 4624, 5762]}, u'edge': {u'target': [], u'time': []}}, u'mouseout': {u'state': {u'target': [], u'time': []}, u'edge': {u'target': [], u'time': []}}}","[4, -8, 48]","[7217, 31, 220]",39.0,"[None, None, None]","[u'', 2, 8, 24, -24, 2, -8, -24, -24, 4, -8, 48, 48]",315826,7.0,10341.0,-3.20049588135e+18,mouselab-mdp,2
"[8082, 8953, 9848]","[u'left', u'left', u'up']",training,"[u'0', u'9', u'10', u'11']","{u'mouseover': {u'state': {u'target': [], u'time': []}, u'edge': {u'target': [], u'time': []}}, u'click': {u'state': {u'target': [u'4', u'3', u'7', u'12', u'8', u'11'], u'time': [1750, 2766, 3486, 4757, 5525, 6606]}, u'edge': {u'target': [], u'time': []}}, u'mouseout': {u'state': {u'target': [], u'time': []}, u'edge': {u'target': [], u'time': []}}}","[-2, 8, 24]","[8079, 364, 376]",24.0,"[None, None, None]","[u'', 2, 4, -24, -48, -2, -4, -24, -24, -2, 8, 24, -24]",328472,8.0,11576.0,1.18238643611e+16,mouselab-mdp,2
"[2448, 3138, 3863]","[u'left', u'left', u'down']",training,"[u'0', u'9', u'10', u'12']","{u'mouseover': {u'state': {u'target': [], u'time': []}, u'edge': {u'target': [], u'time': []}}, u'click': {u'state': {u'target': [u'12'], u'time': [1540]}, u'edge': {u'target': [], u'time': []}}, u'mouseout': {u'state': {u'target': [], u'time': []}, u'edge': {u'target': [], u'time': []}}}","[-2, -8, 48]","[2445, 171, 213]",37.0,"[None, None, None]","[u'', 4, -8, -48, -48, -4, 4, 24, 24, -2, -8, -24, 48]",338132,9.0,8576.0,-4.56949664606e+18,mouselab-mdp,2
"[5787, 7321, 8233]","[u'up', u'up', u'right']",training,"[u'0', u'1', u'2', u'3']","{u'mouseover': {u'state': {u'target': [], u'time': []}, u'edge': {u'target': [], u'time': []}}, u'click': {u'state': {u'target': [u'8', u'7', u'3'], u'time': [1998, 3688, 4653]}, u'edge': {u'target': [], u'time': []}}, u'mouseout': {u'state': {u'target': [], u'time': []}, u'edge': {u'target': [], u'time': []}}}","[4, -4, 48]","[5785, 1028, 401]",45.0,"[None, None, None]","[u'', 4, -4, 48, -48, -2, -8, 24, 24, -2, 4, 48, -48]",349096,10.0,9898.0,8.0458297312e+18,mouselab-mdp,2
"[30104, 31015, 32810, 33608, 34415]","[u'up', u'up', u'up', u'right', u'up']",test,"[u'0', u'1', u'2', u'3', u'4', u'5']","{u'mouseover': {u'state': {u'target': [], u'time': []}, u'edge': {u'target': [], u'time': []}}, u'click': {u'state': {u'target': [u'21', u'20', u'22', u'17', u'16', u'18', u'6', u'7', u'5', u'9', u'11', u'10', u'28', u'27', u'29', u'33', u'32', u'31'], u'time': [4305, 5467, 7520, 8775, 9547, 10402, 14650, 15437, 16374, 17976, 18878, 19841, 22036, 22587, 23273, 24131, 24927, 25644]}, u'edge': {u'target': [], u'time': []}}, u'mouseout': {u'state': {u'target': [], u'time': []}, u'edge': {u'target': [], u'time': []}}}","[-1, -1, 4, -6, 37]","[30092, 392, 1264, 283, 284]",15.0,"[None, None, None, None, None]","[u'', -1, -1, 4, -6, 37, 17, -50, 1, -47, 30, -54, -2, -2, -3, 11, -1, 9, 34, -6, -19, -27, 25, 2, 1, -2, -4, -36, 23, -34, -2, -37, -61, -81]",56690,0.0,37400.0,6.03787457509e+18,mouselab-mdp,2
"[8102, 8633, 9237, 9895, 10981]","[u'up', u'up', u'up', u'left', u'down']",test,"[u'0', u'1', u'2', u'3', u'8', u'10']","{u'mouseover': {u'state': {u'target': [], u'time': []}, u'edge': {u'target': [], u'time': []}}, u'click': {u'state': {u'target': [u'5', u'6', u'7', u'9', u'11', u'10'], u'time': [2151, 2896, 3482, 4608, 5901, 6514]}, u'edge': {u'target': [], u'time': []}}, u'mouseout': {u'state': {u'target': [], u'time': []}, u'edge': {u'target': [], u'time': []}}}","[0, -1, 1, -14, 53]","[8094, 5, 97, 136, 568]",33.0,"[None, None, None, None, None]","[u'', 0, -1, 1, -14, 2, -15, 20, -14, -14, 53, -38, 1, 3, 0, 8, 33, 50, -12, -1, 26, -24, 2, -1, -5, 1, 14, -12, 3, -14, -6, 4, 34, 71]",71312,1.0,13141.0,-4.53999299154e+18,mouselab-mdp,2
"[6387, 7578, 8258, 8988, 9770]","[u'up', u'up', u'up', u'right', u'down']",test,"[u'0', u'1', u'2', u'3', u'4', u'7']","{u'mouseover': {u'state': {u'target': [], u'time': []}, u'edge': {u'target': [], u'time': []}}, u'click': {u'state': {u'target': [u'9', u'11', u'10', u'5', u'6', u'7'], u'time': [1617, 2264, 3216, 3959, 4438, 5012]}, u'edge': {u'target': [], u'time': []}}, u'mouseout': {u'state': {u'target': [], u'time': []}, u'edge': {u'target': [], u'time': []}}}","[-1, 0, -1, -7, 52]","[6379, 662, 161, 207, 256]",37.0,"[None, None, None, None, None]","[u'', -1, 0, -1, -7, 16, -15, 52, 7, -28, -1, -7, -2, 2, 4, 7, -15, 34, -7, 7, 58, 4, -45, 0, 1, 5, -9, -6, 7, 14, 7, -30, -14, 32]",85496,2.0,12666.0,-8.01578187763e+18,mouselab-mdp,2
"[16353, 17240, 17945, 18714, 19531]","[u'left', u'left', u'left', u'up', u'left']",test,"[u'0', u'23', u'24', u'25', u'26', u'29']","{u'mouseover': {u'state': {u'target': [], u'time': []}, u'edge': {u'target': [], u'time': []}}, u'click': {u'state': {u'target': [u'9', u'11', u'10', u'5', u'6', u'7', u'16', u'17', u'18', u'20', u'21', u'22', u'32', u'33', u'31', u'29'], u'time': [1615, 2222, 2784, 3884, 4508, 5187, 6009, 6897, 7610, 9820, 10422, 11002, 12127, 12813, 13353, 14480]}, u'edge': {u'target': [], u'time': []}}, u'mouseout': {u'state': {u'target': [], u'time': []}, u'edge': {u'target': [], u'time': []}}}","[0, 0, -1, -7, 57]","[16347, 373, 171, 242, 283]",33.0,"[None, None, None, None, None]","[u'', 0, 0, 3, 4, -89, 19, 10, 0, -15, 27, -13, 2, 1, 9, -6, -56, 23, 27, 0, -49, -14, 20, 0, 0, -1, -7, -17, -46, 57, -4, 15, -33, 25]",109728,3.0,22705.0,-3.34502625076e+18,mouselab-mdp,2
"[17014, 17736, 18456, 19757, 20943]","[u'left', u'left', u'left', u'up', u'left']",test,"[u'0', u'23', u'24', u'25', u'26', u'29']","{u'mouseover': {u'state': {u'target': [], u'time': []}, u'edge': {u'target': [], u'time': []}}, u'click': {u'state': {u'target': [u'9', u'11', u'10', u'5', u'6', u'7', u'27', u'29', u'28', u'31', u'32', u'33', u'22', u'21', u'20', u'17', u'16', u'18'], u'time': [1431, 2122, 2577, 3448, 4145, 4648, 5809, 6521, 7058, 8272, 8827, 9340, 10431, 11004, 11538, 13525, 14171, 14664]}, u'edge': {u'target': [], u'time': []}}, u'mouseout': {u'state': {u'target': [], u'time': []}, u'edge': {u'target': [], u'time': []}}}","[-1, 5, 8, -11, 24]","[17008, 196, 198, 785, 669]",7.0,"[None, None, None, None, None]","[u'', 0, -6, -2, -8, 22, -15, -11, 11, -34, 10, -61, 0, 1, 3, -7, 10, 10, -1, 1, 15, 13, -32, -1, 5, 8, -11, 14, 20, 24, 1, -30, -6, -16]",133905,4.0,22648.0,-4.98814993479e+18,mouselab-mdp,2
"[3959, 5103, 5911, 6744, 7712]","[u'up', u'up', u'up', u'left', u'down']",test,"[u'0', u'1', u'2', u'3', u'8', u'10']","{u'mouseover': {u'state': {u'target': [], u'time': []}, u'edge': {u'target': [], u'time': []}}, u'click': {u'state': {u'target': [u'9', u'11', u'10'], u'time': [1378, 2150, 2589]}, u'edge': {u'target': [], u'time': []}}, u'mouseout': {u'state': {u'target': [], u'time': []}, u'edge': {u'target': [], u'time': []}}}","[2, -1, -5, -15, 62]","[3953, 623, 289, 308, 441]",40.0,"[None, None, None, None, None]","[u'', 2, -1, -5, -5, -27, -15, 26, -15, -65, 62, -26, 1, -4, 3, -11, -32, -45, 17, -8, -32, 22, 50, 0, 1, 3, 13, -8, -31, 59, 11, -39, 26, 13]",144998,5.0,9663.0,2.31359358032e+18,mouselab-mdp,2
"[16627, 17371, 18075, 19018, 19906]","[u'right', u'right', u'right', u'down', u'down']",test,"[u'0', u'12', u'13', u'14', u'19', u'21']","{u'mouseover': {u'state': {u'target': [], u'time': []}, u'edge': {u'target': [], u'time': []}}, u'click': {u'state': {u'target': [u'33', u'32', u'31', u'27', u'29', u'28', u'11', u'9', u'10', u'5', u'6', u'7', u'16', u'17', u'18', u'20', u'21'], u'time': [1703, 2228, 2782, 3615, 4122, 5223, 6465, 7195, 7776, 9008, 9542, 10052, 11096, 11790, 13071, 13997, 14590]}, u'edge': {u'target': [], u'time': []}}, u'mouseout': {u'state': {u'target': [], u'time': []}, u'edge': {u'target': [], u'time': []}}}","[-1, 2, -9, 4, 49]","[16620, 219, 170, 420, 359]",28.0,"[None, None, None, None, None]","[u'', -2, 1, 1, -6, 26, 13, 9, -3, 15, 34, -21, -1, 2, -9, -21, -58, 6, 5, 4, 2, 49, 50, 1, -2, 1, -7, -16, -33, 0, 4, 3, -38, -49]",167853,6.0,21378.0,-3.69733404644e+18,mouselab-mdp,2
"[8547, 9072, 9683, 10419, 11116]","[u'up', u'up', u'up', u'left', u'left']",test,"[u'0', u'1', u'2', u'3', u'8', u'11']","{u'mouseover': {u'state': {u'target': [], u'time': []}, u'edge': {u'target': [], u'time': []}}, u'click': {u'state': {u'target': [u'27', u'29', u'28', u'33', u'32', u'31', u'11'], u'time': [1436, 1972, 3758, 4677, 5419, 6099, 7140]}, u'edge': {u'target': [], u'time': []}}, u'mouseout': {u'state': {u'target': [], u'time': []}, u'edge': {u'target': [], u'time': []}}}","[0, 2, -7, -10, 47]","[8541, 6, 107, 219, 182]",25.0,"[None, None, None, None, None]","[u'', 0, 2, -7, 2, -4, 0, -28, -10, -15, -8, 47, 0, 0, 3, -13, 23, 29, 29, -3, -40, -32, 8, 1, 3, 6, 7, 1, 8, -8, 8, 19, 7, -40]",182062,7.0,12692.0,7.63808305668e+17,mouselab-mdp,2
"[7822, 8560, 9182, 9926, 10640]","[u'right', u'right', u'right', u'up', u'up']",test,"[u'0', u'12', u'13', u'14', u'15', u'16']","{u'mouseover': {u'state': {u'target': [], u'time': []}, u'edge': {u'target': [], u'time': []}}, u'click': {u'state': {u'target': [u'9', u'11', u'10', u'5', u'6', u'7', u'16', u'17'], u'time': [928, 1757, 2236, 3448, 4157, 4637, 5671, 6122]}, u'edge': {u'target': [], u'time': []}}, u'mouseout': {u'state': {u'target': [], u'time': []}, u'edge': {u'target': [], u'time': []}}}","[-1, -3, 5, -2, 45]","[7817, 205, 99, 225, 188]",36.0,"[None, None, None, None, None]","[u'', 0, 2, 1, 2, 9, -23, 27, 12, 24, 28, -28, -1, -3, 5, -2, 45, -25, -14, 1, 29, 2, 7, 0, 0, -4, 1, -6, -2, 16, -5, -3, -10, 13]",195412,8.0,11782.0,-7.36145656423e+18,mouselab-mdp,2
"[4130, 4865, 5531, 6249, 7067]","[u'up', u'up', u'up', u'left', u'down']",test,"[u'0', u'1', u'2', u'3', u'8', u'10']","{u'mouseover': {u'state': {u'target': [], u'time': []}, u'edge': {u'target': [], u'time': []}}, u'click': {u'state': {u'target': [u'9', u'11', u'10'], u'time': [1160, 1779, 2238]}, u'edge': {u'target': [], u'time': []}}, u'mouseout': {u'state': {u'target': [], u'time': []}, u'edge': {u'target': [], u'time': []}}}","[-1, 1, 4, -11, 51]","[4125, 214, 146, 196, 294]",41.0,"[None, None, None, None, None]","[u'', -1, 1, 4, -7, 8, 35, -12, -11, 2, 51, -29, 0, -2, -1, 2, 47, -23, -23, -7, -35, -49, -27, 0, 0, 5, -7, -25, -24, 6, -1, 25, -25, 29]",205485,9.0,8674.0,-6.34024467263e+18,mouselab-mdp,2
"[87998, 88900, 89605, 90485, 91429]","[u'left', u'left', u'left', u'up', u'right']",test,"[u'0', u'23', u'24', u'25', u'26', u'28']","{u'mouseover': {u'state': {u'target': [], u'time': []}, u'edge': {u'target': [], u'time': []}}, u'click': {u'state': {u'target': [u'32', u'31', u'33', u'29', u'27', u'28'], u'time': [83406, 84009, 84650, 85387, 85978, 86488]}, u'edge': {u'target': [], u'time': []}}, u'mouseout': {u'state': {u'target': [], u'time': []}, u'edge': {u'target': [], u'time': []}}}","[2, 1, 6, 1, 78]","[87992, 368, 179, 354, 415]",82.0,"[None, None, None, None, None]","[u'', 1, 2, -2, 7, -18, 63, -43, -14, -53, -28, -36, 2, -1, -5, 9, -19, -40, 28, 5, -14, 45, 4, 2, 1, 6, 1, -39, 78, -17, -2, -22, -7, 8]",299758,10.0,92783.0,6.04957788595e+18,mouselab-mdp,2
"[5302, 6231, 7070, 8022, 8769]","[u'up', u'up', u'up', u'right', u'right']",test,"[u'0', u'1', u'2', u'3', u'4', u'6']","{u'mouseover': {u'state': {u'target': [], u'time': []}, u'edge': {u'target': [], u'time': []}}, u'click': {u'state': {u'target': [u'9', u'11', u'10', u'5', u'6', u'7'], u'time': [1247, 1849, 2332, 3121, 3699, 4142]}, u'edge': {u'target': [], u'time': []}}, u'mouseout': {u'state': {u'target': [], u'time': []}, u'edge': {u'target': [], u'time': []}}}","[0, 2, 1, 5, 47]","[5295, 413, 321, 435, 223]",49.0,"[None, None, None, None, None]","[u'', 0, 2, 1, 5, 2, 47, -64, 3, -10, -31, -26, -1, 1, -4, -1, 9, -37, 36, 19, -22, 29, -10, 1, 0, 9, -3, 25, 19, -35, -17, 19, 27, -17]",311169,11.0,9846.0,7.71696205605e+18,mouselab-mdp,2
"[8206, 9358, 10031, 10702, 11454]","[u'up', u'up', u'up', u'right', u'up']",test,"[u'0', u'1', u'2', u'3', u'4', u'5']","{u'mouseover': {u'state': {u'target': [], u'time': []}, u'edge': {u'target': [], u'time': []}}, u'click': {u'state': {u'target': [u'21', u'20', u'22', u'17', u'16', u'18', u'6', u'5'], u'time': [2005, 2641, 3242, 4172, 4734, 5316, 6269, 6953]}, u'edge': {u'target': [], u'time': []}}, u'mouseout': {u'state': {u'target': [], u'time': []}, u'edge': {u'target': [], u'time': []}}}","[0, 3, 2, -13, 127]","[8197, 624, 148, 151, 231]",111.0,"[None, None, None, None, None]","[u'', 0, 3, 2, -13, 127, 21, 3, -11, 3, -15, 21, 0, 4, 1, 4, 12, -5, -6, 9, 25, -20, -36, 0, 2, 0, 14, -25, 5, -81, -5, -10, 16, 55]",325217,12.0,12494.0,-7.72010987048e+18,mouselab-mdp,2
"[23465, 24381, 25155, 25964, 26849]","[u'right', u'right', u'right', u'down', u'down']",test,"[u'0', u'12', u'13', u'14', u'19', u'21']","{u'mouseover': {u'state': {u'target': [], u'time': []}, u'edge': {u'target': [], u'time': []}}, u'click': {u'state': {u'target': [u'32', u'33', u'31', u'29', u'27', u'28', u'9', u'11', u'10', u'5', u'6', u'7', u'16', u'17', u'18', u'20', u'21'], u'time': [1716, 2621, 3160, 4084, 5913, 6616, 12386, 13151, 14056, 14998, 15602, 17061, 17890, 18612, 19307, 20869, 21473]}, u'edge': {u'target': [], u'time': []}}, u'mouseout': {u'state': {u'target': [], u'time': []}, u'edge': {u'target': [], u'time': []}}}","[-1, 1, 6, 3, 52]","[23459, 385, 258, 285, 366]",44.0,"[None, None, None, None, None]","[u'', -2, -3, 6, 5, 20, 37, -65, 12, -37, -31, 33, -1, 1, 6, -5, -19, 22, 29, 3, -51, 52, 20, -2, -2, -4, -6, 8, -23, 39, 9, 2, -34, 0]",355712,13.0,29057.0,-2.21831823842e+18,mouselab-mdp,2
"[22188, 23362, 24114, 24930, 25705]","[u'right', u'right', u'right', u'down', u'down']",test,"[u'0', u'12', u'13', u'14', u'19', u'21']","{u'mouseover': {u'state': {u'target': [], u'time': []}, u'edge': {u'target': [], u'time': []}}, u'click': {u'state': {u'target': [u'9', u'11', u'10', u'5', u'6', u'7', u'16', u'17', u'18', u'20', u'21', u'22', u'31', u'32', u'33', u'27', u'29', u'28'], u'time': [1698, 3227, 3740, 4825, 5470, 5918, 6715, 7510, 8271, 9585, 10867, 11988, 13387, 14134, 14804, 15998, 17426, 18136]}, u'edge': {u'target': [], u'time': []}}, u'mouseout': {u'state': {u'target': [], u'time': []}, u'edge': {u'target': [], u'time': []}}}","[0, -4, 4, -4, 39]","[22180, 649, 231, 293, 252]",17.0,"[None, None, None, None, None]","[u'', -1, 1, 4, 5, -1, -27, 3, 3, -11, 19, 10, 0, -4, 4, 14, -13, -47, 20, -4, -31, 39, -44, 1, -2, 6, 4, -8, 5, 19, 7, 26, 17, -15]",384649,14.0,27450.0,-3.07615105557e+17,mouselab-mdp,2
"[15672, 16262, 16956, 17900, 18637]","[u'left', u'left', u'left', u'down', u'down']",test,"[u'0', u'23', u'24', u'25', u'30', u'32']","{u'mouseover': {u'state': {u'target': [], u'time': []}, u'edge': {u'target': [], u'time': []}}, u'click': {u'state': {u'target': [u'9', u'11', u'10', u'5', u'6', u'7', u'16', u'17', u'18', u'20', u'21', u'22', u'27', u'29', u'28', u'33', u'32', u'31'], u'time': [2432, 2958, 3455, 4321, 4983, 5564, 6157, 6684, 7153, 8575, 9096, 9596, 10919, 11408, 12036, 13608, 14110, 14792]}, u'edge': {u'target': [], u'time': []}}, u'mouseout': {u'state': {u'target': [], u'time': []}, u'edge': {u'target': [], u'time': []}}}","[0, 1, -1, -6, 38]","[15662, 72, 163, 399, 207]",14.0,"[None, None, None, None, None]","[u'', 1, -1, -3, -3, -34, 1, -32, -7, 10, -18, -7, 2, 1, 5, 4, 19, -43, -18, -2, -14, -6, 5, 0, 1, -1, 9, 0, -19, -40, -6, -8, 38, -41]",406822,15.0,20668.0,5.01968822029e+18,mouselab-mdp,2
"[5411, 6132, 6771, 7547, 11733]","[u'up', u'up', u'up', u'right', u'right']",test,"[u'0', u'1', u'2', u'3', u'4', u'6']","{u'mouseover': {u'state': {u'target': [], u'time': []}, u'edge': {u'target': [], u'time': []}}, u'click': {u'state': {u'target': [u'9', u'11', u'10', u'5', u'6'], u'time': [912, 1446, 1910, 2846, 3411]}, u'edge': {u'target': [], u'time': []}}, u'mouseout': {u'state': {u'target': [], u'time': []}, u'edge': {u'target': [], u'time': []}}}","[0, -3, 1, -2, 51]","[5405, 196, 119, 261, 3660]",42.0,"[None, None, None, None, None]","[u'', 0, -3, 1, -2, -24, 51, 2, 0, -8, -13, 6, 0, 6, -4, 1, -15, -22, -21, 0, 30, 38, 22, 0, 4, 7, 14, -15, 20, 23, 5, 18, 18, -10]",423046,16.0,14731.0,-7.86346020655e+18,mouselab-mdp,2
"[2667, 3367, 4124, 4902, 5645]","[u'left', u'left', u'left', u'up', u'up']",test,"[u'0', u'23', u'24', u'25', u'26', u'27']","{u'mouseover': {u'state': {u'target': [], u'time': []}, u'edge': {u'target': [], u'time': []}}, u'click': {u'state': {u'target': [u'27'], u'time': [1424]}, u'edge': {u'target': [], u'time': []}}, u'mouseout': {u'state': {u'target': [], u'time': []}, u'edge': {u'target': [], u'time': []}}}","[0, -2, 2, 3, 61]","[2658, 180, 239, 250, 224]",63.0,"[None, None, None, None, None]","[u'', 0, 2, -2, 1, -32, -15, 37, 13, -11, -8, -24, -2, 1, 2, 5, 1, 17, 5, 10, 12, 46, 34, 0, -2, 2, 3, 61, 24, -36, -6, 31, -6, -38]",436704,17.0,11988.0,-1.11961650931e+18,mouselab-mdp,2
"[8712, 9826, 10664, 11488, 12201]","[u'right', u'right', u'right', u'up', u'up']",test,"[u'0', u'12', u'13', u'14', u'15', u'16']","{u'mouseover': {u'state': {u'target': [], u'time': []}, u'edge': {u'target': [], u'time': []}}, u'click': {u'state': {u'target': [u'9', u'11', u'10', u'5', u'6', u'7', u'16', u'17', u'18'], u'time': [1650, 2143, 2622, 3545, 4088, 4668, 5769, 6279, 6870]}, u'edge': {u'target': [], u'time': []}}, u'mouseout': {u'state': {u'target': [], u'time': []}, u'edge': {u'target': [], u'time': []}}}","[0, 0, 2, 6, 48]","[8704, 588, 311, 300, 194]",47.0,"[None, None, None, None, None]","[u'', 0, 1, 2, 0, -19, 5, 18, 0, 4, -5, 29, 0, 0, 2, 6, 48, 22, 19, -12, 19, 73, -27, -1, 0, 4, 4, -15, -1, 33, 5, 78, 32, 11]",451703,18.0,13449.0,-3.59807723996e+18,mouselab-mdp,2
"[13258, 13951, 14576, 15263, 16000]","[u'right', u'right', u'right', u'up', u'left']",test,"[u'0', u'12', u'13', u'14', u'15', u'18']","{u'mouseover': {u'state': {u'target': [], u'time': []}, u'edge': {u'target': [], u'time': []}}, u'click': {u'state': {u'target': [u'33', u'32', u'31', u'27', u'29', u'25', u'11', u'9', u'10', u'5', u'6', u'7', u'16', u'17', u'18'], u'time': [1450, 1969, 2647, 3767, 4557, 5192, 6356, 6876, 7597, 8567, 9050, 9528, 10370, 11239, 12065]}, u'edge': {u'target': [], u'time': []}}, u'mouseout': {u'state': {u'target': [], u'time': []}, u'edge': {u'target': [], u'time': []}}}","[0, -3, -3, 5, 58]","[13251, 175, 100, 169, 210]",42.0,"[None, None, None, None, None]","[u'', 0, 1, 7, -1, -39, -38, -21, -13, 26, -16, -10, 0, -3, -3, 5, 20, -14, 58, -10, -11, -7, -89, 2, 1, -4, 16, 19, 14, -19, 1, -49, 25, -12]",470536,19.0,17299.0,-2.39631317689e+18,mouselab-mdp,2
"[12680, 13480, 14271, 15039, 15823]","[u'left', u'left', u'left', u'up', u'left']",test,"[u'0', u'23', u'24', u'25', u'26', u'29']","{u'mouseover': {u'state': {u'target': [], u'time': []}, u'edge': {u'target': [], u'time': []}}, u'click': {u'state': {u'target': [u'5', u'17', u'29'], u'time': [5285, 7133, 9693]}, u'edge': {u'target': [], u'time': []}}, u'mouseout': {u'state': {u'target': [], u'time': []}, u'edge': {u'target': [], u'time': []}}}","[1, 2, 4, 2, 40]","[12672, 292, 284, 266, 277]",46.0,"[None, None, None, None, None]","[u'', -1, -1, 0, -9, 8, 53, 24, -2, -28, -24, 54, 0, -1, 1, 17, 4, 20, 10, -3, -37, -11, -7, 1, 2, 4, 2, 28, -24, 40, 4, -10, 16, -2]",73099,0.0,18400.0,-8.14198867507e+18,mouselab-mdp,3
"[10283, 10907, 11498, 12083, 12659]","[u'left', u'left', u'left', u'up', u'left']",test,"[u'0', u'23', u'24', u'25', u'26', u'29']","{u'mouseover': {u'state': {u'target': [], u'time': []}, u'edge': {u'target': [], u'time': []}}, u'click': {u'state': {u'target': [u'9', u'21', u'17', u'27', u'29', u'33'], u'time': [1926, 3159, 4006, 5694, 6495, 8375]}, u'edge': {u'target': [], u'time': []}}, u'mouseout': {u'state': {u'target': [], u'time': []}, u'edge': {u'target': [], u'time': []}}}","[0, 0, -1, -7, 57]","[10275, 120, 84, 83, 73]",43.0,"[None, None, None, None, None]","[u'', 0, 0, 3, 4, -89, 19, 10, 0, -15, 27, -13, 2, 1, 9, -6, -56, 23, 27, 0, -49, -14, 20, 0, 0, -1, -7, -17, -46, 57, -4, 15, -33, 25]",89010,1.0,14770.0,-3.34502625076e+18,mouselab-mdp,3
"[12047, 13046, 13711, 14262, 14855]","[u'up', u'up', u'up', u'right', u'up']",test,"[u'0', u'1', u'2', u'3', u'4', u'5']","{u'mouseover': {u'state': {u'target': [], u'time': []}, u'edge': {u'target': [], u'time': []}}, u'click': {u'state': {u'target': [u'5', u'33', u'17', u'29', u'9', u'20'], u'time': [1915, 4922, 6146, 7162, 8218, 10625]}, u'edge': {u'target': [], u'time': []}}, u'mouseout': {u'state': {u'target': [], u'time': []}, u'edge': {u'target': [], u'time': []}}}","[1, -1, -4, 1, 16]","[12045, 494, 158, 44, 89]",7.0,"[None, None, None, None, None]","[u'', 1, -1, -4, 1, 16, -45, -17, -3, 9, -8, 14, 0, 2, -7, 13, 45, 2, 21, 5, -24, 5, 25, 0, 2, 0, 1, -25, -12, -15, 14, 8, -32, 13]",106994,2.0,16846.0,1.0491821684e+18,mouselab-mdp,3
"[3521, 4264, 4937, 5553, 6304]","[u'up', u'up', u'up', u'right', u'up']",test,"[u'0', u'1', u'2', u'3', u'4', u'5']","{u'mouseover': {u'state': {u'target': [], u'time': []}, u'edge': {u'target': [], u'time': []}}, u'click': {u'state': {u'target': [u'5'], u'time': [1932]}, u'edge': {u'target': [], u'time': []}}, u'mouseout': {u'state': {u'target': [], u'time': []}, u'edge': {u'target': [], u'time': []}}}","[0, -1, 2, -1, 76]","[3511, 238, 164, 113, 252]",75.0,"[None, None, None, None, None]","[u'', 0, -1, 2, -1, 76, 6, -15, -4, -7, 51, 17, 1, -3, -2, 1, -6, 22, 34, -3, -92, -30, -38, 1, 4, 1, 15, 11, 36, 10, 6, -30, -10, 48]",120195,3.0,12097.0,-5.96010147556e+18,mouselab-mdp,3
"[10775, 11414, 12222, 13023, 14087]","[u'left', u'left', u'left', u'down', u'left']",test,"[u'0', u'23', u'24', u'25', u'30', u'33']","{u'mouseover': {u'state': {u'target': [], u'time': []}, u'edge': {u'target': [], u'time': []}}, u'click': {u'state': {u'target': [u'29', u'16', u'20', u'33', u'9', u'5'], u'time': [2074, 3697, 4794, 6714, 8041, 9146]}, u'edge': {u'target': [], u'time': []}}, u'mouseout': {u'state': {u'target': [], u'time': []}, u'edge': {u'target': [], u'time': []}}}","[0, 0, 0, 1, 42]","[10771, 132, 301, 302, 550]",37.0,"[None, None, None, None, None]","[u'', 0, 0, 4, 4, -39, 45, 32, 1, 5, 43, 53, 1, -2, 0, 7, -27, -39, 0, 1, 12, 39, -70, 0, 0, 0, 1, 33, 18, -1, 1, 3, -4, 42]",137530,4.0,16214.0,-6.00893554297e+18,mouselab-mdp,3
"[3805, 4422, 5045, 5621, 6213]","[u'up', u'up', u'up', u'right', u'up']",test,"[u'0', u'1', u'2', u'3', u'4', u'5']","{u'mouseover': {u'state': {u'target': [], u'time': []}, u'edge': {u'target': [], u'time': []}}, u'click': {u'state': {u'target': [u'5'], u'time': [2449]}, u'edge': {u'target': [], u'time': []}}, u'mouseout': {u'state': {u'target': [], u'time': []}, u'edge': {u'target': [], u'time': []}}}","[0, 3, 2, -13, 127]","[3800, 115, 112, 75, 81]",118.0,"[None, None, None, None, None]","[u'', 0, 3, 2, -13, 127, 21, 3, -11, 3, -15, 21, 0, 4, 1, 4, 12, -5, -6, 9, 25, -20, -36, 0, 2, 0, 14, -25, 5, -81, -5, -10, 16, 55]",149522,5.0,10861.0,-7.72010987048e+18,mouselab-mdp,3
"[8292, 8884, 9468, 10036, 10788]","[u'left', u'left', u'left', u'down', u'left']",test,"[u'0', u'23', u'24', u'25', u'30', u'33']","{u'mouseover': {u'state': {u'target': [], u'time': []}, u'edge': {u'target': [], u'time': []}}, u'click': {u'state': {u'target': [u'11', u'17', u'27', u'21', u'33'], u'time': [2152, 3176, 4408, 5568, 6633]}, u'edge': {u'target': [], u'time': []}}, u'mouseout': {u'state': {u'target': [], u'time': []}, u'edge': {u'target': [], u'time': []}}}","[-1, -5, 1, -6, 71]","[8280, 91, 75, 57, 247]",55.0,"[None, None, None, None, None]","[u'', 0, -1, 1, -14, 2, -15, 20, -14, -14, 53, -38, 1, 3, 0, 8, 33, 50, -12, -1, 26, -24, 2, -1, -5, 1, 14, -12, 3, -14, -6, 4, 34, 71]",164091,6.0,13429.0,-4.53999299154e+18,mouselab-mdp,3
"[6525, 7092, 7628, 8796, 9532]","[u'right', u'right', u'right', u'up', u'right']",test,"[u'0', u'12', u'13', u'14', u'15', u'17']","{u'mouseover': {u'state': {u'target': [], u'time': []}, u'edge': {u'target': [], u'time': []}}, u'click': {u'state': {u'target': [u'29', u'6', u'5', u'9', u'17'], u'time': [1208, 2159, 3031, 3744, 4544]}, u'edge': {u'target': [], u'time': []}}, u'mouseout': {u'state': {u'target': [], u'time': []}, u'edge': {u'target': [], u'time': []}}}","[1, -2, 2, -4, 110]","[6511, 63, 27, 659, 236]",102.0,"[None, None, None, None, None]","[u'', -1, 0, -1, -2, -34, -30, -34, 2, 66, -4, -44, 1, -2, 2, -4, 3, 110, -24, -5, 12, -1, -13, -1, 1, 4, -8, -36, 59, -46, 6, 14, -35, 24]",177498,7.0,12276.0,8.1969743017e+18,mouselab-mdp,3
"[11854, 12453, 13069, 13652, 14253]","[u'up', u'up', u'up', u'right', u'right']",test,"[u'0', u'1', u'2', u'3', u'4', u'6']","{u'mouseover': {u'state': {u'target': [], u'time': []}, u'edge': {u'target': [], u'time': []}}, u'click': {u'state': {u'target': [u'16', u'5', u'9', u'29', u'33', u'20', u'28', u'27', u'6'], u'time': [2193, 3296, 4049, 4752, 5401, 6457, 7984, 8824, 10664]}, u'edge': {u'target': [], u'time': []}}, u'mouseout': {u'state': {u'target': [], u'time': []}, u'edge': {u'target': [], u'time': []}}}","[0, 2, -6, -8, 48]","[11849, 96, 112, 83, 95]",27.0,"[None, None, None, None, None]","[u'', 0, 2, -6, -8, 17, 48, 1, 2, -26, -1, -23, 0, 1, -8, 2, -26, -21, 36, 2, 30, -56, -13, 0, -1, 2, 7, -35, -31, -40, 9, -16, -3, -11]",194762,8.0,16141.0,5.46654630961e+18,mouselab-mdp,3
"[6900, 7732, 8523, 10068, 10876]","[u'up', u'up', u'up', u'left', u'up']",test,"[u'0', u'1', u'2', u'3', u'8', u'9']","{u'mouseover': {u'state': {u'target': [], u'time': []}, u'edge': {u'target': [], u'time': []}}, u'click': {u'state': {u'target': [u'9', u'29', u'17', u'21', u'31'], u'time': [1089, 2273, 3104, 3785, 4696]}, u'edge': {u'target': [], u'time': []}}, u'mouseout': {u'state': {u'target': [], u'time': []}, u'edge': {u'target': [], u'time': []}}}","[1, -2, -6, -6, 39]","[6884, 331, 283, 1042, 303]",21.0,"[None, None, None, None, None]","[u'', 1, -2, -6, 10, 10, -20, -34, -6, 39, -1, -45, 1, 1, -1, 5, -26, 31, -46, -7, -44, -13, -24, 0, 0, 2, 1, 8, 51, -9, -12, 30, 59, 6]",208522,9.0,12628.0,-7.446303972e+18,mouselab-mdp,3
"[18476, 19052, 19692, 20748, 21492]","[u'right', u'right', u'right', u'down', u'right']",test,"[u'0', u'12', u'13', u'14', u'19', u'20']","{u'mouseover': {u'state': {u'target': [], u'time': []}, u'edge': {u'target': [], u'time': []}}, u'click': {u'state': {u'target': [u'5', u'31', u'11', u'17', u'22', u'18', u'27', u'33', u'29', u'6', u'9', u'16', u'20'], u'time': [1792, 2887, 4032, 5047, 5792, 6439, 7248, 8359, 9088, 10055, 10856, 11800, 17064]}, u'edge': {u'target': [], u'time': []}}, u'mouseout': {u'state': {u'target': [], u'time': []}, u'edge': {u'target': [], u'time': []}}}","[0, -2, 9, -7, 52]","[18464, 73, 140, 557, 234]",39.0,"[None, None, None, None, None]","[u'', 1, 3, -5, -4, -25, -34, 8, 4, -23, -16, 8, 0, -2, 9, -2, 3, -20, -8, -7, 52, -59, -6, 1, -3, 2, 11, 9, 0, -1, -2, 19, -28, 10]",233282,10.0,23628.0,-7.29297814771e+18,mouselab-mdp,3
"[8984, 9568, 10160, 10799, 11447]","[u'left', u'left', u'left', u'up', u'left']",test,"[u'0', u'23', u'24', u'25', u'26', u'29']","{u'mouseover': {u'state': {u'target': [], u'time': []}, u'edge': {u'target': [], u'time': []}}, u'click': {u'state': {u'target': [u'11', u'31', u'29', u'16', u'20'], u'time': [1635, 2771, 3715, 7075, 7939]}, u'edge': {u'target': [], u'time': []}}, u'mouseout': {u'state': {u'target': [], u'time': []}, u'edge': {u'target': [], u'time': []}}}","[1, -2, -2, 2, 64]","[8972, 81, 87, 140, 148]",58.0,"[None, None, None, None, None]","[u'', -3, 1, 3, -12, 3, 9, 11, -4, 3, 19, -57, 1, -1, 3, -6, -55, 38, 53, -15, -41, 3, -34, 1, -2, -2, 2, -70, -10, 64, 5, -32, 33, 66]",247995,11.0,13600.0,-7.40831087289e+18,mouselab-mdp,3
"[12037, 12621, 13205, 13774, 14861]","[u'left', u'left', u'left', u'up', u'up']",test,"[u'0', u'23', u'24', u'25', u'26', u'27']","{u'mouseover': {u'state': {u'target': [], u'time': []}, u'edge': {u'target': [], u'time': []}}, u'click': {u'state': {u'target': [u'28', u'9', u'17', u'22', u'16', u'27', u'33', u'5'], u'time': [2138, 3081, 4032, 4793, 5489, 7065, 7921, 9632]}, u'edge': {u'target': [], u'time': []}}, u'mouseout': {u'state': {u'target': [], u'time': []}, u'edge': {u'target': [], u'time': []}}}","[0, -1, 6, 0, 41]","[12025, 84, 82, 63, 577]",38.0,"[None, None, None, None, None]","[u'', 0, 0, -1, 8, 31, 23, 106, -5, -12, -32, 14, -1, -5, -5, 1, 32, -50, -20, -1, -23, 17, 0, 0, -1, 6, 0, 41, -14, 19, -5, -30, -23, -1]",265906,12.0,16781.0,-7.6395338963e+18,mouselab-mdp,3
"[5718, 6301, 6861, 7366, 7942]","[u'left', u'left', u'left', u'up', u'left']",test,"[u'0', u'23', u'24', u'25', u'26', u'29']","{u'mouseover': {u'state': {u'target': [], u'time': []}, u'edge': {u'target': [], u'time': []}}, u'click': {u'state': {u'target': [u'9', u'17', u'29', u'33'], u'time': [1578, 2585, 3641, 4521]}, u'edge': {u'target': [], u'time': []}}, u'mouseout': {u'state': {u'target': [], u'time': []}, u'edge': {u'target': [], u'time': []}}}","[0, -4, -1, 13, 66]","[5712, 82, 55, 2, 57]",70.0,"[None, None, None, None, None]","[u'', -2, 2, 0, 17, -42, 2, 12, 10, -14, 3, -69, -1, 1, 4, -2, 66, 56, -2, -19, -57, -25, 36, 0, -4, -1, 13, -12, -24, 66, 0, -15, 11, 1]",277979,13.0,10966.0,-3.66851144697e+18,mouselab-mdp,3
"[12536, 13088, 13703, 14544, 15279]","[u'up', u'up', u'up', u'left', u'left']",test,"[u'0', u'1', u'2', u'3', u'8', u'11']","{u'mouseover': {u'state': {u'target': [], u'time': []}, u'edge': {u'target': [], u'time': []}}, u'click': {u'state': {u'target': [u'11', u'5', u'17', u'29', u'31', u'27', u'20', u'21', u'18', u'16', u'9'], u'time': [2308, 3140, 3955, 5035, 5747, 6563, 7275, 7859, 8755, 9572, 10739]}, u'edge': {u'target': [], u'time': []}}, u'mouseout': {u'state': {u'target': [], u'time': []}, u'edge': {u'target': [], u'time': []}}}","[-1, -2, 3, 13, 45]","[12523, 53, 107, 334, 231]",47.0,"[None, None, None, None, None]","[u'', -1, -2, 3, -3, -6, -5, 35, 13, 14, -8, 45, 0, -1, 4, 2, -46, 20, 10, -15, -69, 4, 22, 1, -3, -1, 5, -49, 3, 7, 7, -79, 5, 65]",296794,14.0,17711.0,-8.33669581469e+18,mouselab-mdp,3
"[8010, 8552, 9128, 9808, 10392]","[u'right', u'right', u'right', u'up', u'up']",test,"[u'0', u'12', u'13', u'14', u'15', u'16']","{u'mouseover': {u'state': {u'target': [], u'time': []}, u'edge': {u'target': [], u'time': []}}, u'click': {u'state': {u'target': [u'5', u'27', u'32', u'33', u'9', u'17', u'16'], u'time': [1421, 2708, 3556, 4164, 5020, 5757, 6348]}, u'edge': {u'target': [], u'time': []}}, u'mouseout': {u'state': {u'target': [], u'time': []}, u'edge': {u'target': [], u'time': []}}}","[0, -2, -1, 2, 47]","[8005, 32, 76, 167, 73]",39.0,"[None, None, None, None, None]","[u'', -1, 1, 4, -7, 8, 35, -12, -11, 2, 51, -29, 0, -2, -1, 2, 47, -23, -23, -7, -35, -49, -27, 0, 0, 5, -7, -25, -24, 6, -1, 25, -25, 29]",309906,15.0,11992.0,-6.34024467263e+18,mouselab-mdp,3
"[11596, 12211, 12804, 13340, 13852]","[u'up', u'up', u'up', u'left', u'left']",test,"[u'0', u'1', u'2', u'3', u'8', u'11']","{u'mouseover': {u'state': {u'target': [], u'time': []}, u'edge': {u'target': [], u'time': []}}, u'click': {u'state': {u'target': [u'16', u'9', u'27', u'33', u'20', u'21', u'5', u'6', u'11'], u'time': [1000, 1983, 3031, 3719, 4511, 5135, 6007, 6663, 7456]}, u'edge': {u'target': [], u'time': []}}, u'mouseout': {u'state': {u'target': [], u'time': []}, u'edge': {u'target': [], u'time': []}}}","[0, -3, -2, 4, 29]","[11591, 104, 84, 32, 13]",19.0,"[None, None, None, None, None]","[u'', 0, -3, -2, -9, 14, -20, 25, 4, -8, 3, 29, 0, 2, 0, 2, 26, 43, 17, 0, 23, -49, 52, -1, 2, -2, 4, -4, 10, -26, -17, 13, -19, -21]",326394,16.0,15379.0,-2.59993630193e+18,mouselab-mdp,3
"[13644, 14708, 15397, 16037, 16749]","[u'up', u'up', u'up', u'right', u'down']",test,"[u'0', u'1', u'2', u'3', u'4', u'7']","{u'mouseover': {u'state': {u'target': [], u'time': []}, u'edge': {u'target': [], u'time': []}}, u'click': {u'state': {u'target': [u'9', u'27', u'16', u'20', u'5', u'33', u'32', u'31', u'29', u'28', u'7', u'6'], u'time': [1001, 1768, 3048, 4344, 5193, 6600, 7377, 7904, 9696, 10288, 11872, 12440]}, u'edge': {u'target': [], u'time': []}}, u'mouseout': {u'state': {u'target': [], u'time': []}, u'edge': {u'target': [], u'time': []}}}","[2, -1, -2, -9, 56]","[13632, 555, 177, 139, 211]",34.0,"[None, None, None, None, None]","[u'', 2, -1, -2, -9, 28, -74, 56, -6, 10, -8, 47, -2, -1, -2, 9, -35, -6, -28, 0, 19, -35, 37, 1, 1, 4, -5, -4, -30, -9, 4, -22, -13, -22]",345898,17.0,18388.0,3.65628160379e+18,mouselab-mdp,3
"[12917, 13548, 14171, 14724, 15307]","[u'right', u'right', u'right', u'down', u'down']",test,"[u'0', u'12', u'13', u'14', u'19', u'21']","{u'mouseover': {u'state': {u'target': [], u'time': []}, u'edge': {u'target': [], u'time': []}}, u'click': {u'state': {u'target': [u'5', u'28', u'18', u'21', u'20', u'33', u'9', u'11'], u'time': [1239, 2816, 3927, 4942, 6447, 8385, 9503, 10527]}, u'edge': {u'target': [], u'time': []}}, u'mouseout': {u'state': {u'target': [], u'time': []}, u'edge': {u'target': [], u'time': []}}}","[1, 1, 1, -2, 33]","[12912, 122, 120, 46, 83]",26.0,"[None, None, None, None, None]","[u'', -1, 1, 3, -5, 17, -37, 26, 0, -6, -3, 28, 1, 1, 1, 1, 20, 7, 22, -2, -78, 33, 70, 0, 0, -1, -1, 1, -36, -17, -8, 8, -9, 16]",363922,18.0,16931.0,2.56897496286e+18,mouselab-mdp,3
"[12496, 13047, 13607, 14368, 14992]","[u'right', u'right', u'right', u'down', u'down']",test,"[u'0', u'12', u'13', u'14', u'19', u'21']","{u'mouseover': {u'state': {u'target': [], u'time': []}, u'edge': {u'target': [], u'time': []}}, u'click': {u'state': {u'target': [u'9', u'17', u'29', u'33', u'27', u'5', u'21'], u'time': [4611, 5771, 6755, 7323, 8356, 9099, 10004]}, u'edge': {u'target': [], u'time': []}}, u'mouseout': {u'state': {u'target': [], u'time': []}, u'edge': {u'target': [], u'time': []}}}","[0, -3, -5, 8, 47]","[12491, 42, 56, 257, 120]",40.0,"[None, None, None, None, None]","[u'', 0, 2, 4, 7, -3, 37, -2, 4, 33, 26, 57, 0, -3, -5, 11, -11, 12, -27, 8, -12, 47, -17, 1, 1, -3, 9, -29, -26, 23, -5, -19, -11, -32]",381522,19.0,16504.0,4.99459683527e+18,mouselab-mdp,3
"[11503, 13366, 16349, 17749, 19174]","[u'up', u'up', u'up', u'left', u'left']",pre_test,"[u'0', u'1', u'2', u'3', u'8', u'11']","{u'mouseover': {u'state': {u'target': [], u'time': []}, u'edge': {u'target': [], u'time': []}}, u'click': {u'state': {u'target': [u'15'], u'time': [8453]}, u'edge': {u'target': [], u'time': []}}, u'mouseout': {u'state': {u'target': [], u'time': []}, u'edge': {u'target': [], u'time': []}}}","[-2, -3, 6, 12, 33]","[11495, 1360, 2486, 893, 930]",45.0,"[None, None, None, None, None]","[u'', -2, -3, 6, 5, 20, 37, -65, 12, -37, -31, 33, -1, 1, 6, -5, -19, 22, 29, 3, -51, 52, 20, -2, -2, -4, -6, 8, -23, 39, 9, 2, -34, 0]",129107,0.0,25669.0,-2.21831823842e+18,mouselab-mdp,3
"[6406, 38862, 42119]","[u'up', u'up', u'right']",training,"[u'0', u'1', u'2', u'3']","{u'mouseover': {u'state': {u'target': [], u'time': []}, u'edge': {u'target': [], u'time': []}}, u'click': {u'state': {u'target': [u'12', u'10'], u'time': [None, None]}, u'edge': {u'target': [], u'time': []}}, u'mouseout': {u'state': {u'target': [], u'time': []}, u'edge': {u'target': [], u'time': []}}}","[2, -4, 48]","[6404, 7948, 2758]",44.0,"[None, None, None]","[u'', 2, -4, 48, 24, -2, -4, 24, 24, 2, -8, -24, 24]",205435,1.0,45126.0,5.56601214792e+17,mouselab-mdp,3
"[13931, 14714, 15370]","[u'left', u'left', u'up']",training,"[u'0', u'9', u'10', u'11']","{u'mouseover': {u'state': {u'target': [], u'time': []}, u'edge': {u'target': [], u'time': []}}, u'click': {u'state': {u'target': [u'4', u'8', u'11', u'7', u'3', u'12'], u'time': [5182, 6494, 7694, 9094, 9982, 10749]}, u'edge': {u'target': [], u'time': []}}, u'mouseout': {u'state': {u'target': [], u'time': []}, u'edge': {u'target': [], u'time': []}}}","[4, -4, 24]","[13929, 292, 163]",18.0,"[None, None, None]","[u'', 2, 8, -48, -24, 2, 8, -24, -48, 4, -4, 24, -48]",224267,2.0,17794.0,4.95354184513e+17,mouselab-mdp,3
"[8608, 9280, 9865]","[u'left', u'left', u'down']",training,"[u'0', u'9', u'10', u'12']","{u'mouseover': {u'state': {u'target': [], u'time': []}, u'edge': {u'target': [], u'time': []}}, u'click': {u'state': {u'target': [u'4', u'3', u'11', u'12', u'8', u'7'], u'time': [1371, 3859, 4731, 5347, 6131, 6730]}, u'edge': {u'target': [], u'time': []}}, u'mouseout': {u'state': {u'target': [], u'time': []}, u'edge': {u'target': [], u'time': []}}}","[-4, 4, 48]","[8605, 170, 86]",42.0,"[None, None, None]","[u'', -4, 4, 24, 24, 2, 8, -24, 24, -4, 4, -24, 48]",238203,3.0,12904.0,5.34744023932e+18,mouselab-mdp,3
"[6273, 6920, 7561]","[u'up', u'up', u'right']",training,"[u'0', u'1', u'2', u'3']","{u'mouseover': {u'state': {u'target': [], u'time': []}, u'edge': {u'target': [], u'time': []}}, u'click': {u'state': {u'target': [u'12', u'8', u'3', u'4'], u'time': [2076, 3045, 3884, 4531]}, u'edge': {u'target': [], u'time': []}}, u'mouseout': {u'state': {u'target': [], u'time': []}, u'edge': {u'target': [], u'time': []}}}","[4, 4, 48]","[6270, 146, 135]",52.0,"[None, None, None]","[u'', 4, 4, 48, -48, -2, -8, 48, -24, -4, -8, 24, -48]",249603,4.0,10360.0,-4.67008033733e+18,mouselab-mdp,3
"[4028, 4747, 5363]","[u'right', u'right', u'down']",training,"[u'0', u'5', u'6', u'8']","{u'mouseover': {u'state': {u'target': [], u'time': []}, u'edge': {u'target': [], u'time': []}}, u'click': {u'state': {u'target': [u'4', u'8', u'11'], u'time': [1151, 2055, 2935]}, u'edge': {u'target': [], u'time': []}}, u'mouseout': {u'state': {u'target': [], u'time': []}, u'edge': {u'target': [], u'time': []}}}","[-2, -8, 48]","[4023, 213, 126]",35.0,"[None, None, None]","[u'', -4, -4, -48, -48, -2, -8, 24, 48, 2, 4, -24, -48]",260259,5.0,9611.0,-1.84824368346e+18,mouselab-mdp,3
"[5900, 6572, 7205]","[u'up', u'up', u'right']",training,"[u'0', u'1', u'2', u'3']","{u'mouseover': {u'state': {u'target': [], u'time': []}, u'edge': {u'target': [], u'time': []}}, u'click': {u'state': {u'target': [u'3', u'12', u'7'], u'time': [1968, 3263, 4263]}, u'edge': {u'target': [], u'time': []}}, u'mouseout': {u'state': {u'target': [], u'time': []}, u'edge': {u'target': [], u'time': []}}}","[2, 8, 48]","[5897, 176, 138]",55.0,"[None, None, None]","[u'', 2, 8, 48, -24, -4, -4, -48, 24, -4, -8, -48, -24]",271371,6.0,10076.0,2.37271076103e+18,mouselab-mdp,3
"[7377, 8121, 8928]","[u'left', u'left', u'down']",training,"[u'0', u'9', u'10', u'12']","{u'mouseover': {u'state': {u'target': [], u'time': []}, u'edge': {u'target': [], u'time': []}}, u'click': {u'state': {u'target': [u'11', u'8', u'4', u'3', u'12', u'7'], u'time': [1493, 2420, 3308, 4204, 5235, 6115]}, u'edge': {u'target': [], u'time': []}}, u'mouseout': {u'state': {u'target': [], u'time': []}, u'edge': {u'target': [], u'time': []}}}","[-4, 4, 48]","[7375, 245, 316]",42.0,"[None, None, None]","[u'', 2, -4, 24, -48, -4, -8, -48, -48, -4, 4, -48, 48]",284308,7.0,11881.0,2.1183359843e+18,mouselab-mdp,3
"[7200, 7808, 8480]","[u'up', u'up', u'right']",training,"[u'0', u'1', u'2', u'3']","{u'mouseover': {u'state': {u'target': [], u'time': []}, u'edge': {u'target': [], u'time': []}}, u'click': {u'state': {u'target': [u'11', u'7', u'4', u'8', u'3', u'12'], u'time': [1314, 2426, 3194, 4098, 4866, 6147]}, u'edge': {u'target': [], u'time': []}}, u'mouseout': {u'state': {u'target': [], u'time': []}, u'edge': {u'target': [], u'time': []}}}","[-4, 4, 48]","[7198, 117, 167]",42.0,"[None, None, None]","[u'', -4, 4, 48, -48, -4, 4, -24, 24, -4, -8, 24, 24]",295484,8.0,10144.0,-5.99530113684e+18,mouselab-mdp,3
"[4121, 4688, 5353]","[u'up', u'up', u'right']",training,"[u'0', u'1', u'2', u'3']","{u'mouseover': {u'state': {u'target': [], u'time': []}, u'edge': {u'target': [], u'time': []}}, u'click': {u'state': {u'target': [u'12', u'3'], u'time': [1117, 2068]}, u'edge': {u'target': [], u'time': []}}, u'mouseout': {u'state': {u'target': [], u'time': []}, u'edge': {u'target': [], u'time': []}}}","[2, 8, 48]","[4118, 77, 172]",56.0,"[None, None, None]","[u'', 2, 8, 48, 24, -2, 4, 24, 24, -2, -4, -48, -24]",305499,9.0,8984.0,-8.92386760362e+18,mouselab-mdp,3
"[3810, 4393, 4985]","[u'right', u'right', u'down']",training,"[u'0', u'5', u'6', u'8']","{u'mouseover': {u'state': {u'target': [], u'time': []}, u'edge': {u'target': [], u'time': []}}, u'click': {u'state': {u'target': [u'11', u'8'], u'time': [1389, 2205]}, u'edge': {u'target': [], u'time': []}}, u'mouseout': {u'state': {u'target': [], u'time': []}, u'edge': {u'target': [], u'time': []}}}","[-2, 4, 48]","[3808, 80, 103]",48.0,"[None, None, None]","[u'', 4, 8, -24, 24, -2, 4, -24, 48, 2, -8, 24, 48]",317019,10.0,10489.0,8.86605250045e+18,mouselab-mdp,3
"[494, 1662, 2526, 3343, 4934]","[u'right', u'right', u'right', u'up', u'left']",pre_test,"[u'0', u'12', u'13', u'14', u'15', u'18']","{u'mouseover': {u'state': {u'target': [], u'time': []}, u'edge': {u'target': [], u'time': []}}, u'click': {u'state': {u'target': [], u'time': []}, u'edge': {u'target': [], u'time': []}}, u'mouseout': {u'state': {u'target': [], u'time': []}, u'edge': {u'target': [], u'time': []}}}","[-2, -2, -3, 11, 34]","[487, 647, 347, 294, 1070]",38.0,"[None, None, None, None, None]","[u'', -1, -1, 4, -6, 37, 17, -50, 1, -47, 30, -54, -2, -2, -3, 11, -1, 9, 34, -6, -19, -27, 25, 2, 1, -2, -4, -36, 23, -34, -2, -37, -61, -81]",23140,0.0,12158.0,6.03787457509e+18,mouselab-mdp,4
"[1177, 54328, 56104]","[u'right', u'right', u'up']",training,"[u'0', u'5', u'6', u'7']","{u'mouseover': {u'state': {u'target': [], u'time': []}, u'edge': {u'target': [], u'time': []}}, u'click': {u'state': {u'target': [], u'time': []}, u'edge': {u'target': [], u'time': []}}, u'mouseout': {u'state': {u'target': [], u'time': []}, u'edge': {u'target': [], u'time': []}}}","[4, 8, -48]","[1174, 10630, 1257]",-36.0,"[None, None, None]","[u'', 2, 4, 24, -24, 4, 8, -48, 24, 4, -8, -24, 24]",88067,1.0,58720.0,8.9509461883e+18,mouselab-mdp,4
"[1280, 68519, 69687]","[u'up', u'up', u'right']",training,"[u'0', u'1', u'2', u'3']","{u'mouseover': {u'state': {u'target': [], u'time': []}, u'edge': {u'target': [], u'time': []}}, u'click': {u'state': {u'target': [], u'time': []}, u'edge': {u'target': [], u'time': []}}, u'mouseout': {u'state': {u'target': [], u'time': []}, u'edge': {u'target': [], u'time': []}}}","[2, -4, 24]","[1276, 24697, 650]",22.0,"[None, None, None]","[u'', 2, -4, 24, -48, -2, -8, 24, -48, 2, 4, 24, -48]",161329,2.0,72190.0,2.65301876191e+18,mouselab-mdp,4
"[9266, 47241, 48354]","[u'right', u'right', u'up']",training,"[u'0', u'5', u'6', u'7']","{u'mouseover': {u'state': {u'target': [], u'time': []}, u'edge': {u'target': [], u'time': []}}, u'click': {u'state': {u'target': [u'5', u'7'], u'time': [6394, 7002]}, u'edge': {u'target': [], u'time': []}}, u'mouseout': {u'state': {u'target': [], u'time': []}, u'edge': {u'target': [], u'time': []}}}","[2, 4, 24]","[9260, 20451, 597]",28.0,"[None, None, None]","[u'', -2, 4, -48, -24, 2, 4, 24, 24, -2, -4, 48, -24]",212936,3.0,50521.0,7.45732429498e+18,mouselab-mdp,4
"[10678, 11614, 12366]","[u'up', u'up', u'right']",training,"[u'0', u'1', u'2', u'3']","{u'mouseover': {u'state': {u'target': [], u'time': []}, u'edge': {u'target': [], u'time': []}}, u'click': {u'state': {u'target': [u'8', u'7', u'3', u'4', u'11', u'12'], u'time': [3135, 4237, 4974, 5748, 7275, 8848]}, u'edge': {u'target': [], u'time': []}}, u'mouseout': {u'state': {u'target': [], u'time': []}, u'edge': {u'target': [], u'time': []}}}","[2, -4, 48]","[10675, 421, 237]",40.0,"[None, None, None]","[u'', 2, -4, 48, 24, -2, -4, 24, 24, 2, -8, -24, 24]",228104,4.0,14110.0,5.56601214792e+17,mouselab-mdp,4
"[13202, 14066, 14946]","[u'right', u'right', u'down']",training,"[u'0', u'5', u'6', u'8']","{u'mouseover': {u'state': {u'target': [], u'time': []}, u'edge': {u'target': [], u'time': []}}, u'click': {u'state': {u'target': [u'3', u'4', u'11', u'12', u'8', u'7', u'10', u'6'], u'time': [1470, 2071, 2905, 3670, 5274, 9028, 9425, 10183]}, u'edge': {u'target': [], u'time': []}}, u'mouseout': {u'state': {u'target': [], u'time': []}, u'edge': {u'target': [], u'time': []}}}","[-2, 8, 48]","[13198, 345, 357]",46.0,"[None, None, None]","[u'', 2, -4, 24, -24, -2, 8, 24, 48, 4, -4, 48, 48]",245360,5.0,16193.0,5.2467434854e+18,mouselab-mdp,4
"[8347, 9243, 10050]","[u'left', u'left', u'up']",training,"[u'0', u'9', u'10', u'11']","{u'mouseover': {u'state': {u'target': [], u'time': []}, u'edge': {u'target': [], u'time': []}}, u'click': {u'state': {u'target': [u'3', u'4', u'11', u'12', u'8', u'7', u'6', u'10'], u'time': [1422, 2035, 2811, 3400, 4565, 5150, 5617, 6458]}, u'edge': {u'target': [], u'time': []}}, u'mouseout': {u'state': {u'target': [], u'time': []}, u'edge': {u'target': [], u'time': []}}}","[-2, 8, 24]","[8342, 376, 301]",22.0,"[None, None, None]","[u'', 2, 4, -24, -48, -2, -4, -24, -24, -2, 8, 24, -24]",257791,6.0,11370.0,1.18238643611e+16,mouselab-mdp,4
"[15196, 16012, 16940]","[u'left', u'left', u'down']",training,"[u'0', u'9', u'10', u'12']","{u'mouseover': {u'state': {u'target': [], u'time': []}, u'edge': {u'target': [], u'time': []}}, u'click': {u'state': {u'target': [u'4', u'3', u'7', u'8', u'12', u'11', u'10', u'6'], u'time': [1487, 2009, 2600, 3153, 3764, 7350, 10397, 11397]}, u'edge': {u'target': [], u'time': []}}, u'mouseout': {u'state': {u'target': [], u'time': []}, u'edge': {u'target': [], u'time': []}}}","[-4, 8, 48]","[15192, 300, 414]",44.0,"[None, None, None]","[u'', 2, 4, 24, -24, 4, -8, 48, -24, -4, 8, -48, 48]",277119,7.0,18276.0,5.01038116734e+18,mouselab-mdp,4
"[12244, 13020, 13844]","[u'right', u'right', u'down']",training,"[u'0', u'5', u'6', u'8']","{u'mouseover': {u'state': {u'target': [], u'time': []}, u'edge': {u'target': [], u'time': []}}, u'click': {u'state': {u'target': [u'11', u'10', u'12', u'8', u'7', u'3', u'4', u'6'], u'time': [1521, 3994, 7403, 7743, 8416, 9013, 9712, 10965]}, u'edge': {u'target': [], u'time': []}}, u'mouseout': {u'state': {u'target': [], u'time': []}, u'edge': {u'target': [], u'time': []}}}","[-4, 8, 48]","[12241, 255, 313]",44.0,"[None, None, None]","[u'', 2, 4, -24, 48, -4, 8, -48, 48, 2, -4, 24, -24]",292935,8.0,14764.0,-8.3276713645e+18,mouselab-mdp,4
"[9160, 10224, 11017]","[u'left', u'left', u'up']",training,"[u'0', u'9', u'10', u'11']","{u'mouseover': {u'state': {u'target': [], u'time': []}, u'edge': {u'target': [], u'time': []}}, u'click': {u'state': {u'target': [u'11', u'12', u'8', u'7', u'3', u'4', u'10', u'6'], u'time': [1656, 2286, 2959, 3619, 4533, 5169, 6000, 6858]}, u'edge': {u'target': [], u'time': []}}, u'mouseout': {u'state': {u'target': [], u'time': []}, u'edge': {u'target': [], u'time': []}}}","[-4, -4, 48]","[9155, 551, 276]",32.0,"[None, None, None]","[u'', 2, -4, -24, -24, 4, -8, -48, -48, -4, -4, 48, 48]",306279,9.0,12296.0,-7.91360722647e+18,mouselab-mdp,4
"[49262, 50046, 50782]","[u'left', u'left', u'up']",training,"[u'0', u'9', u'10', u'11']","{u'mouseover': {u'state': {u'target': [], u'time': []}, u'edge': {u'target': [], u'time': []}}, u'click': {u'state': {u'target': [u'11', u'12', u'8', u'7', u'3', u'4', u'10', u'6'], u'time': [41666, 42390, 43564, 44387, 45082, 45666, 46386, 47076]}, u'edge': {u'target': [], u'time': []}}, u'mouseout': {u'state': {u'target': [], u'time': []}, u'edge': {u'target': [], u'time': []}}}","[-2, 8, 48]","[49258, 262, 216]",46.0,"[None, None, None]","[u'', 4, -4, -48, -48, 4, 8, 24, -24, -2, 8, 48, -48]",359254,10.0,51901.0,-6.97855305918e+18,mouselab-mdp,4
"[83938, 84509, 86535, 88700, 89353]","[u'left', u'left', u'left', u'up', u'left']",test,"[u'0', u'23', u'24', u'25', u'26', u'29']","{u'mouseover': {u'state': {u'target': [], u'time': []}, u'edge': {u'target': [], u'time': []}}, u'click': {u'state': {u'target': [u'29', u'27', u'28', u'9', u'10', u'5', u'16', u'14', u'17', u'20', u'21', u'22', u'32', u'33', u'31', u'25', u'30', u'2', u'23'], u'time': [57952, 59544, 60513, 61748, 62770, 64101, 65038, 65859, 66935, 68476, 70180, 71000, 72434, 73634, 74802, 76431, 77068, 79729, 81404]}, u'edge': {u'target': [], u'time': []}}, u'mouseout': {u'state': {u'target': [], u'time': []}, u'edge': {u'target': [], u'time': []}}}","[-1, 0, 3, 9, 11]","[83889, 0, 1456, 1564, 56]",3.0,"[None, None, None, None, None]","[u'', 0, 1, -2, 6, -2, -22, 3, -12, -59, 11, -57, -1, 2, 1, -7, 0, -46, -36, -1, 19, -1, -3, -1, 0, 3, 9, 11, 4, 11, 4, -15, -12, -21]",131195,0.0,91557.0,1.58242239691e+18,mouselab-mdp,5
"[19147, 19795, 20551, 21992, 22755]","[u'left', u'left', u'left', u'up', u'up']",test,"[u'0', u'23', u'24', u'25', u'26', u'27']","{u'mouseover': {u'state': {u'target': [], u'time': []}, u'edge': {u'target': [], u'time': []}}, u'click': {u'state': {u'target': [u'9', u'11', u'10', u'27', u'29', u'32', u'21', u'17', u'16', u'5', u'6'], u'time': [2232, 3005, 3769, 5904, 6806, 8795, 11488, 13527, 14644, 15842, 16753]}, u'edge': {u'target': [], u'time': []}}, u'mouseout': {u'state': {u'target': [], u'time': []}, u'edge': {u'target': [], u'time': []}}}","[0, 1, 2, 9, 28]","[19103, 68, 180, 856, 207]",29.0,"[None, None, None, None, None]","[u'', -2, -3, 2, -4, -10, -1, -63, 1, 0, -1, 11, -2, 4, -1, -11, 4, -41, 2, 4, -42, 27, 4, 0, 1, 2, 9, 28, 16, -24, 2, -18, -46, -1]",157264,1.0,24356.0,9.42220564742e+17,mouselab-mdp,5
"[16055, 16734, 17702, 18467, 19339]","[u'right', u'right', u'right', u'down', u'right']",test,"[u'0', u'12', u'13', u'14', u'19', u'20']","{u'mouseover': {u'state': {u'target': [], u'time': []}, u'edge': {u'target': [], u'time': []}}, u'click': {u'state': {u'target': [u'9', u'11', u'10', u'27', u'29', u'33', u'32', u'21', u'20', u'17'], u'time': [4693, 6559, 7339, 8464, 9152, 10268, 11101, 12357, 13230, 14842]}, u'edge': {u'target': [], u'time': []}}, u'mouseout': {u'state': {u'target': [], u'time': []}, u'edge': {u'target': [], u'time': []}}}","[0, -2, 9, -7, 52]","[16022, 72, 388, 188, 268]",42.0,"[None, None, None, None, None]","[u'', 1, 3, -5, -4, -25, -34, 8, 4, -23, -16, 8, 0, -2, 9, -2, 3, -20, -8, -7, 52, -59, -6, 1, -3, 2, 11, 9, 0, -1, -2, 19, -28, 10]",180047,2.0,21111.0,-7.29297814771e+18,mouselab-mdp,5
"[30452, 31109, 32233, 33753, 34738]","[u'left', u'left', u'left', u'down', u'right']",test,"[u'0', u'23', u'24', u'25', u'30', u'31']","{u'mouseover': {u'state': {u'target': [], u'time': []}, u'edge': {u'target': [], u'time': []}}, u'click': {u'state': {u'target': [u'9', u'11', u'27', u'29', u'33', u'32', u'20', u'17', u'16', u'21', u'6', u'5', u'28', u'31', u'10', u'2', u'7'], u'time': [2874, 4745, 6618, 7655, 8532, 9576, 12121, 14162, 15898, 17123, 19544, 20304, 22697, 24333, 25991, 27247, 29008]}, u'edge': {u'target': [], u'time': []}}, u'mouseout': {u'state': {u'target': [], u'time': []}, u'edge': {u'target': [], u'time': []}}}","[0, 1, -4, 2, 30]","[30419, 88, 540, 940, 380]",12.0,"[None, None, None, None, None]","[u'', 0, 1, 5, 1, 17, -10, -43, -10, 2, -6, -21, 0, -2, 0, 0, -27, -74, 47, 3, -85, -14, 13, 0, 1, -4, 1, -2, -6, -7, 2, 30, -17, -13]",217935,3.0,36247.0,2.94409503949e+18,mouselab-mdp,5
"[12625, 13241, 13846, 15807, 16504]","[u'left', u'left', u'left', u'up', u'right']",test,"[u'0', u'23', u'24', u'25', u'26', u'28']","{u'mouseover': {u'state': {u'target': [], u'time': []}, u'edge': {u'target': [], u'time': []}}, u'click': {u'state': {u'target': [u'9', u'11', u'27', u'28'], u'time': [2884, 3658, 7286, 10815]}, u'edge': {u'target': [], u'time': []}}, u'mouseout': {u'state': {u'target': [], u'time': []}, u'edge': {u'target': [], u'time': []}}}","[2, 1, 6, 1, 78]","[12598, 36, 5, 1372, 136]",84.0,"[None, None, None, None, None]","[u'', 1, 2, -2, 7, -18, 63, -43, -14, -53, -28, -36, 2, -1, -5, 9, -19, -40, 28, 5, -14, 45, 4, 2, 1, 6, 1, -39, 78, -17, -2, -22, -7, 8]",237479,4.0,17940.0,6.04957788595e+18,mouselab-mdp,5
"[11204, 11983, 12708, 13400, 14168]","[u'up', u'up', u'up', u'left', u'up']",test,"[u'0', u'1', u'2', u'3', u'8', u'9']","{u'mouseover': {u'state': {u'target': [], u'time': []}, u'edge': {u'target': [], u'time': []}}, u'click': {u'state': {u'target': [u'9', u'5', u'16', u'17', u'20'], u'time': [4425, 5577, 7302, 8391, 10122]}, u'edge': {u'target': [], u'time': []}}, u'mouseout': {u'state': {u'target': [], u'time': []}, u'edge': {u'target': [], u'time': []}}}","[-1, 4, 3, -8, 46]","[11180, 191, 153, 119, 191]",39.0,"[None, None, None, None, None]","[u'', -1, 4, 3, -5, 1, 10, -3, -8, 46, -38, 28, 0, -2, -1, -15, 9, 23, -17, 2, -80, -17, -43, 1, 0, 0, -2, -8, 25, -33, 7, 22, 33, -11]",254743,5.0,15658.0,4.29183515435e+18,mouselab-mdp,5
"[17954, 18523, 19835, 20894, 21519]","[u'right', u'right', u'right', u'up', u'up']",test,"[u'0', u'12', u'13', u'14', u'15', u'16']","{u'mouseover': {u'state': {u'target': [], u'time': []}, u'edge': {u'target': [], u'time': []}}, u'click': {u'state': {u'target': [u'29', u'27', u'33', u'32', u'20', u'21', u'17', u'16'], u'time': [6045, 6906, 10031, 11547, 13272, 14089, 15241, 16377]}, u'edge': {u'target': [], u'time': []}}, u'mouseout': {u'state': {u'target': [], u'time': []}, u'edge': {u'target': [], u'time': []}}}","[0, 0, -1, -6, 59]","[17931, 0, 728, 490, 39]",44.0,"[None, None, None, None, None]","[u'', 0, 0, 4, -10, 35, -22, 23, -3, 26, 25, -47, 0, 0, -1, -6, 59, 7, 50, -5, -34, 4, -18, 2, 0, 5, -2, -10, -1, 11, 7, -4, -22, -34]",279640,6.0,23268.0,-5.49423358378e+18,mouselab-mdp,5
"[16689, 17366, 18079, 19047, 19796]","[u'left', u'left', u'left', u'down', u'left']",test,"[u'0', u'23', u'24', u'25', u'30', u'33']","{u'mouseover': {u'state': {u'target': [], u'time': []}, u'edge': {u'target': [], u'time': []}}, u'click': {u'state': {u'target': [u'6', u'9', u'11', u'27', u'29', u'33', u'32', u'31'], u'time': [776, 2869, 4336, 5597, 7167, 11860, 13677, 14753]}, u'edge': {u'target': [], u'time': []}}, u'mouseout': {u'state': {u'target': [], u'time': []}, u'edge': {u'target': [], u'time': []}}}","[0, -1, -8, -6, 48]","[16661, 108, 152, 388, 160]",25.0,"[None, None, None, None, None]","[u'', 0, 4, 5, 13, -13, -29, -34, -1, -40, -20, -14, 1, -1, -6, -4, 6, 18, -29, 5, 44, 16, 8, 0, -1, -8, 5, -11, 5, 16, -6, 33, 4, 48]",302401,7.0,21167.0,-2.02927868974e+18,mouselab-mdp,5
"[25527, 26114, 26694, 28099, 29100]","[u'right', u'right', u'right', u'up', u'up']",test,"[u'0', u'12', u'13', u'14', u'15', u'16']","{u'mouseover': {u'state': {u'target': [], u'time': []}, u'edge': {u'target': [], u'time': []}}, u'click': {u'state': {u'target': [u'9', u'11', u'27', u'29', u'33', u'32', u'21', u'20', u'17', u'16'], u'time': [10311, 11185, 14093, 14754, 17334, 18295, 20153, 21208, 22461, 23454]}, u'edge': {u'target': [], u'time': []}}, u'mouseout': {u'state': {u'target': [], u'time': []}, u'edge': {u'target': [], u'time': []}}}","[-1, 1, 0, -11, 47]","[25494, 3, 3, 807, 441]",26.0,"[None, None, None, None, None]","[u'', 0, 3, 3, 8, -15, 44, -34, 4, -30, -17, -47, -1, 1, 0, -11, 47, 11, 32, 6, -21, -62, -29, 1, -2, 3, -5, 13, -58, 37, 0, 28, 6, 26]",334523,8.0,30469.0,-5.90859572675e+17,mouselab-mdp,5
"[13119, 14101, 14724, 15917, 16542]","[u'right', u'right', u'right', u'down', u'right']",test,"[u'0', u'12', u'13', u'14', u'19', u'20']","{u'mouseover': {u'state': {u'target': [], u'time': []}, u'edge': {u'target': [], u'time': []}}, u'click': {u'state': {u'target': [u'9', u'5', u'11', u'27', u'29', u'33', u'32', u'20', u'21'], u'time': [2400, 3351, 4608, 5941, 7093, 7949, 9141, 10694, 11931]}, u'edge': {u'target': [], u'time': []}}, u'mouseout': {u'state': {u'target': [], u'time': []}, u'edge': {u'target': [], u'time': []}}}","[0, -3, 1, 8, 45]","[13095, 420, 51, 592, 28]",42.0,"[None, None, None, None, None]","[u'', -1, -2, 1, 3, 10, -18, -26, 1, -13, 33, 37, 0, -3, 1, -5, 26, 22, -34, 8, 45, 12, 20, -1, -2, 5, 2, -3, -2, 24, -2, -16, -10, -5]",354234,9.0,17967.0,-6.91601907848e+18,mouselab-mdp,5
"[10475, 11051, 11627, 12860, 13532]","[u'left', u'left', u'left', u'up', u'left']",test,"[u'0', u'23', u'24', u'25', u'26', u'29']","{u'mouseover': {u'state': {u'target': [], u'time': []}, u'edge': {u'target': [], u'time': []}}, u'click': {u'state': {u'target': [u'5', u'9', u'11', u'27', u'29', u'33'], u'time': [2649, 3673, 5141, 6145, 7878, 9622]}, u'edge': {u'target': [], u'time': []}}, u'mouseout': {u'state': {u'target': [], u'time': []}, u'edge': {u'target': [], u'time': []}}}","[1, 0, 4, 12, 56]","[10438, 4, 0, 656, 100]",67.0,"[None, None, None, None, None]","[u'', -1, 1, -9, -9, -1, -55, 2, -6, -9, -8, 6, -1, 0, -2, 4, 54, 6, 5, -9, 22, -24, -26, 1, 0, 4, 12, -17, 4, 56, 8, 23, 42, -19]",370962,10.0,15125.0,5.55140159652e+18,mouselab-mdp,5
"[32063, 32863, 33668, 34316, 35056]","[u'left', u'left', u'left', u'down', u'down']",test,"[u'0', u'23', u'24', u'25', u'30', u'32']","{u'mouseover': {u'state': {u'target': [], u'time': []}, u'edge': {u'target': [], u'time': []}}, u'click': {u'state': {u'target': [u'9', u'11', u'27', u'29', u'31', u'22', u'20', u'17', u'16', u'6', u'5', u'21', u'32', u'33', u'28', u'10', u'7'], u'time': [5306, 6806, 7931, 9151, 11484, 12925, 14411, 16004, 16935, 18112, 19329, 21325, 23005, 24053, 25745, 27088, 28423]}, u'edge': {u'target': [], u'time': []}}, u'mouseout': {u'state': {u'target': [], u'time': []}, u'edge': {u'target': [], u'time': []}}}","[-1, 1, -2, 8, 28]","[32028, 228, 220, 68, 160]",17.0,"[None, None, None, None, None]","[u'', 0, -2, -2, -8, -65, 26, -5, -7, -42, -18, -40, 1, -4, -4, -7, 15, 8, -5, -1, 13, -25, 15, -1, 1, -2, 9, -39, -15, -26, 8, -45, 28, 15]",408959,11.0,36361.0,-3.54350647552e+18,mouselab-mdp,5
"[6427, 7012, 7684, 8293, 9037]","[u'up', u'up', u'up', u'right', u'up']",test,"[u'0', u'1', u'2', u'3', u'4', u'5']","{u'mouseover': {u'state': {u'target': [], u'time': []}, u'edge': {u'target': [], u'time': []}}, u'click': {u'state': {u'target': [u'5', u'9'], u'time': [2769, 4229]}, u'edge': {u'target': [], u'time': []}}, u'mouseout': {u'state': {u'target': [], u'time': []}, u'edge': {u'target': [], u'time': []}}}","[-1, -1, 3, 11, 47]","[6403, 16, 64, 37, 172]",57.0,"[None, None, None, None, None]","[u'', -1, -1, 3, 11, 47, -18, -4, -7, 33, -53, -44, -1, 1, -1, 0, 2, 7, -33, -3, 18, 9, 35, -1, 2, 6, -1, 9, 7, 17, 3, 47, 16, 28]",421058,12.0,10446.0,4.30375616478e+18,mouselab-mdp,5
"[9120, 9896, 10549, 11397, 12074]","[u'left', u'left', u'left', u'down', u'left']",test,"[u'0', u'23', u'24', u'25', u'30', u'33']","{u'mouseover': {u'state': {u'target': [], u'time': []}, u'edge': {u'target': [], u'time': []}}, u'click': {u'state': {u'target': [u'9', u'5', u'11', u'27', u'29', u'33'], u'time': [1305, 2093, 3998, 4854, 5783, 7719]}, u'edge': {u'target': [], u'time': []}}, u'mouseout': {u'state': {u'target': [], u'time': []}, u'edge': {u'target': [], u'time': []}}}","[1, 0, 1, -5, 58]","[9092, 204, 84, 280, 92]",49.0,"[None, None, None, None, None]","[u'', 0, 1, 0, 7, -3, 60, -35, 7, 32, 41, -4, 0, 3, 2, -5, 27, 51, 21, -6, 31, -49, 25, 1, 0, 1, 1, -17, -27, -9, -5, 48, -43, 58]",436044,13.0,13338.0,2.45129555479e+18,mouselab-mdp,5
"[21613, 22660, 27541, 28574, 29638]","[u'left', u'left', u'left', u'up', u'right']",test,"[u'0', u'23', u'24', u'25', u'26', u'28']","{u'mouseover': {u'state': {u'target': [], u'time': []}, u'edge': {u'target': [], u'time': []}}, u'click': {u'state': {u'target': [u'9', u'5', u'16', u'17', u'20', u'21', u'32', u'33', u'29', u'27', u'28', u'31', u'10', u'7', u'18', u'22'], u'time': [1261, 2049, 3622, 5219, 6140, 6923, 8263, 9518, 11252, 12754, 13809, 14657, 16106, 17647, 19424, 20285]}, u'edge': {u'target': [], u'time': []}}, u'mouseout': {u'state': {u'target': [], u'time': []}, u'edge': {u'target': [], u'time': []}}}","[-1, 1, 6, -7, 25]","[21585, 457, 4304, 464, 492]",8.0,"[None, None, None, None, None]","[u'', 1, -3, 5, 8, -51, -2, -40, -1, 18, -4, -44, 0, 1, 0, -8, -11, 9, -5, 17, 8, -7, 15, -1, 1, 6, -7, 10, 25, -54, 13, -33, -11, 12]",468899,14.0,31223.0,9.26522681452e+17,mouselab-mdp,5
"[25561, 26658, 27246, 27851, 28563]","[u'up', u'up', u'up', u'right', u'right']",test,"[u'0', u'1', u'2', u'3', u'4', u'6']","{u'mouseover': {u'state': {u'target': [], u'time': []}, u'edge': {u'target': [], u'time': []}}, u'click': {u'state': {u'target': [u'9', u'11', u'27', u'29', u'33', u'32', u'31', u'21', u'20', u'17', u'16', u'18', u'22', u'6'], u'time': [7580, 8280, 10461, 11547, 13839, 14532, 15445, 17109, 18234, 19371, 20507, 21300, 22303, 24045]}, u'edge': {u'target': [], u'time': []}}, u'mouseout': {u'state': {u'target': [], u'time': []}, u'edge': {u'target': [], u'time': []}}}","[1, 1, 0, -1, 56]","[25533, 504, 4, 4, 132]",43.0,"[None, None, None, None, None]","[u'', 1, 1, 0, -1, 14, 56, 28, -4, 25, -4, -6, 2, -1, -2, -16, -45, 14, -22, 4, -36, -25, 22, 1, 1, 5, 14, 33, -29, -3, 5, -13, 14, -51]",500784,15.0,30284.0,-3.97653490919e+18,mouselab-mdp,5
"[13126, 14239, 14899, 15610, 16471]","[u'left', u'left', u'left', u'down', u'left']",test,"[u'0', u'23', u'24', u'25', u'30', u'33']","{u'mouseover': {u'state': {u'target': [], u'time': []}, u'edge': {u'target': [], u'time': []}}, u'click': {u'state': {u'target': [u'5', u'9', u'10', u'27', u'29', u'33', u'32', u'31'], u'time': [2520, 3426, 4450, 6114, 7084, 8839, 10545, 11306]}, u'edge': {u'target': [], u'time': []}}, u'mouseout': {u'state': {u'target': [], u'time': []}, u'edge': {u'target': [], u'time': []}}}","[0, 1, 5, 7, 32]","[13097, 537, 84, 143, 288]",37.0,"[None, None, None, None, None]","[u'', -1, 0, -1, -7, 16, -15, 52, 7, -28, -1, -7, -2, 2, 4, 7, -15, 34, -7, 7, 58, 4, -45, 0, 1, 5, -9, -6, 7, 14, 7, -30, -14, 32]",520456,16.0,18044.0,-8.01578187763e+18,mouselab-mdp,5
"[8707, 9464, 10140, 11308, 11889]","[u'left', u'left', u'left', u'up', u'up']",test,"[u'0', u'23', u'24', u'25', u'26', u'27']","{u'mouseover': {u'state': {u'target': [], u'time': []}, u'edge': {u'target': [], u'time': []}}, u'click': {u'state': {u'target': [u'9', u'27', u'29', u'33', u'31', u'28'], u'time': [1160, 3053, 4161, 5317, 6355, 7806]}, u'edge': {u'target': [], u'time': []}}, u'mouseout': {u'state': {u'target': [], u'time': []}, u'edge': {u'target': [], u'time': []}}}","[0, 3, 4, 13, 39]","[8679, 197, 80, 603, 0]",53.0,"[None, None, None, None, None]","[u'', 0, 1, -6, -9, 23, -1, -7, -1, 16, -19, 16, -1, -1, 4, 9, -35, 27, -33, 6, -61, -36, -16, 0, 3, 4, 13, 39, -9, -9, 9, 1, -5, -43]",535707,17.0,13634.0,6.02334654885e+18,mouselab-mdp,5
"[22251, 23104, 23716, 24361, 24997]","[u'right', u'right', u'right', u'down', u'down']",test,"[u'0', u'12', u'13', u'14', u'19', u'21']","{u'mouseover': {u'state': {u'target': [], u'time': []}, u'edge': {u'target': [], u'time': []}}, u'click': {u'state': {u'target': [u'9', u'5', u'16', u'17', u'20', u'21', u'31', u'33', u'29', u'27', u'28', u'11', u'6', u'32', u'18'], u'time': [739, 2465, 3732, 4917, 6277, 7282, 8891, 10283, 11156, 12848, 14009, 15265, 16334, 18131, 21363]}, u'edge': {u'target': [], u'time': []}}, u'mouseout': {u'state': {u'target': [], u'time': []}, u'edge': {u'target': [], u'time': []}}}","[0, -4, 4, -4, 39]","[22223, 296, 40, 48, 52]",20.0,"[None, None, None, None, None]","[u'', -1, 1, 4, 5, -1, -27, 3, 3, -11, 19, 10, 0, -4, 4, 14, -13, -47, 20, -4, -31, 39, -44, 1, -2, 6, 4, -8, 5, 19, 7, 26, 17, -15]",563700,18.0,26338.0,-3.07615105557e+17,mouselab-mdp,5
