action_times,actions,block,path,queries,rewards,rt,score,simulation_mode,state_rewards,time_elapsed,trial_index,trial_time,trial_id,trial_type,pid
"[10419, 14422, 17026, 25696, 28903]","[u'right', u'right', u'right', u'down', u'down']",pre_test,"[u'0', u'12', u'13', u'14', u'19', u'21']","{u'mouseover': {u'state': {u'target': [], u'time': []}, u'edge': {u'target': [], u'time': []}}, u'click': {u'state': {u'target': [u'23', u'12', u'1'], u'time': [3533, 4818, 6481]}, u'edge': {u'target': [], u'time': []}}, u'mouseout': {u'state': {u'target': [], u'time': []}, u'edge': {u'target': [], u'time': []}}}","[2, 1, 5, -2, -6]","[10405, 3476, 2043, 8167, 2688]",-3.0,"[None, None, None, None, None]","[u'', 1, -1, -3, -3, -34, 1, -32, -7, 10, -18, -7, 2, 1, 5, 4, 19, -43, -18, -2, -14, -6, 5, 0, 1, -1, 9, 0, -19, -40, -6, -8, 38, -41]",95223,0.0,32805.0,5.01968822029e+18,mouselab-mdp,0
"[12606, 58921, 60410]","[u'up', u'up', u'right']",training,"[u'0', u'1', u'2', u'3']","{u'mouseover': {u'state': {u'target': [], u'time': []}, u'edge': {u'target': [], u'time': []}}, u'click': {u'state': {u'target': [u'9'], u'time': [5123]}, u'edge': {u'target': [], u'time': []}}, u'mouseout': {u'state': {u'target': [], u'time': []}, u'edge': {u'target': [], u'time': []}}}","[-2, -8, -24]","[12599, 3785, 965]",-35.0,"[None, None, None]","[u'', -2, -8, -24, -24, 4, 8, 48, 24, -2, 8, -24, -48]",171221,1.0,63228.0,4.07975241014e+18,mouselab-mdp,0
"[12256, 13746, 15241]","[u'up', u'up', u'right']",training,"[u'0', u'1', u'2', u'3']","{u'mouseover': {u'state': {u'target': [], u'time': []}, u'edge': {u'target': [], u'time': []}}, u'click': {u'state': {u'target': [u'12', u'7', u'3'], u'time': [6189, 7524, 9709]}, u'edge': {u'target': [], u'time': []}}, u'mouseout': {u'state': {u'target': [], u'time': []}, u'edge': {u'target': [], u'time': []}}}","[-4, 8, 48]","[12251, 979, 977]",49.0,"[None, None, None]","[u'', -4, 8, 48, 24, 2, -8, -48, -24, -4, -4, 48, -24]",191209,2.0,18895.0,3.41976950562e+18,mouselab-mdp,0
"[26209, 32266, 33453]","[u'left', u'left', u'down']",training,"[u'0', u'9', u'10', u'12']","{u'mouseover': {u'state': {u'target': [], u'time': []}, u'edge': {u'target': [], u'time': []}}, u'click': {u'state': {u'target': [u'12', u'8', u'4', u'3', u'7', u'11'], u'time': [2654, 7301, 10214, 12309, 13460, 18121]}, u'edge': {u'target': [], u'time': []}}, u'mouseout': {u'state': {u'target': [], u'time': []}, u'edge': {u'target': [], u'time': []}}}","[-4, 8, 48]","[26201, 1532, 672]",46.0,"[None, None, None]","[u'', 2, 4, 24, -24, 4, -8, 48, -24, -4, 8, -48, 48]",228246,3.0,35958.0,5.01038116734e+18,mouselab-mdp,0
"[24974, 26040, 26802]","[u'up', u'up', u'right']",training,"[u'0', u'1', u'2', u'3']","{u'mouseover': {u'state': {u'target': [], u'time': []}, u'edge': {u'target': [], u'time': []}}, u'click': {u'state': {u'target': [u'12', u'11', u'8', u'7', u'3', u'4', u'10', u'6', u'2'], u'time': [3644, 6988, 8838, 10565, 12348, 13731, 17619, 18851, 20363]}, u'edge': {u'target': [], u'time': []}}, u'mouseout': {u'state': {u'target': [], u'time': []}, u'edge': {u'target': [], u'time': []}}}","[-2, 4, 48]","[24967, 552, 248]",41.0,"[None, None, None]","[u'', -2, 4, 48, 24, -4, 8, -48, 24, 4, -8, 24, 24]",259029,4.0,29676.0,-1.46177589383e+18,mouselab-mdp,0
"[22038, 23206, 24374]","[u'right', u'right', u'up']",training,"[u'0', u'5', u'6', u'7']","{u'mouseover': {u'state': {u'target': [], u'time': []}, u'edge': {u'target': [], u'time': []}}, u'click': {u'state': {u'target': [u'12', u'11', u'4', u'3', u'7', u'8', u'6', u'2', u'5', u'1'], u'time': [3581, 4541, 5460, 6309, 7164, 8008, 12165, 13053, 17663, 18444]}, u'edge': {u'target': [], u'time': []}}, u'mouseout': {u'state': {u'target': [], u'time': []}, u'edge': {u'target': [], u'time': []}}}","[2, -4, 24]","[22030, 653, 656]",12.0,"[None, None, None]","[u'', -4, -4, -24, 24, 2, -4, 24, -48, -2, 8, -48, -48]",286500,5.0,26372.0,-1.38962569557e+18,mouselab-mdp,0
"[15295, 16199, 16834]","[u'up', u'up', u'right']",training,"[u'0', u'1', u'2', u'3']","{u'mouseover': {u'state': {u'target': [], u'time': []}, u'edge': {u'target': [], u'time': []}}, u'click': {u'state': {u'target': [u'12', u'11', u'4', u'3', u'7', u'8', u'10', u'2', u'6', u'1'], u'time': [2167, 2941, 3701, 4510, 5180, 5989, 9318, 10382, 11606, 12711]}, u'edge': {u'target': [], u'time': []}}, u'mouseout': {u'state': {u'target': [], u'time': []}, u'edge': {u'target': [], u'time': []}}}","[2, 8, 48]","[15285, 388, 125]",48.0,"[None, None, None]","[u'', 2, 8, 48, -24, -4, -4, -48, 24, -4, -8, -48, -24]",306840,6.0,19250.0,2.37271076103e+18,mouselab-mdp,0
"[10773, 11557, 13734]","[u'left', u'left', u'up']",training,"[u'0', u'9', u'10', u'11']","{u'mouseover': {u'state': {u'target': [], u'time': []}, u'edge': {u'target': [], u'time': []}}, u'click': {u'state': {u'target': [u'12', u'11', u'4', u'3', u'7', u'8', u'10'], u'time': [2008, 2833, 3503, 4151, 4735, 5543, 7975]}, u'edge': {u'target': [], u'time': []}}, u'mouseout': {u'state': {u'target': [], u'time': []}, u'edge': {u'target': [], u'time': []}}}","[-2, -4, 48]","[10766, 263, 1658]",35.0,"[None, None, None]","[u'', -2, 4, -48, -24, 2, 4, 24, 24, -2, -4, 48, -24]",323960,7.0,16028.0,7.45732429498e+18,mouselab-mdp,0
"[8841, 9599, 11548]","[u'left', u'left', u'up']",training,"[u'0', u'9', u'10', u'11']","{u'mouseover': {u'state': {u'target': [], u'time': []}, u'edge': {u'target': [], u'time': []}}, u'click': {u'state': {u'target': [u'12', u'11', u'4', u'3', u'7', u'8'], u'time': [1456, 2137, 2967, 3576, 4231, 4856]}, u'edge': {u'target': [], u'time': []}}, u'mouseout': {u'state': {u'target': [], u'time': []}, u'edge': {u'target': [], u'time': []}}}","[4, -8, 48]","[8834, 248, 1430]",38.0,"[None, None, None]","[u'', -4, 4, -24, -24, -4, -8, 24, -24, 4, -8, 48, -48]",338361,8.0,13310.0,4.60924718032e+17,mouselab-mdp,0
"[6885, 7771, 8639]","[u'right', u'right', u'down']",training,"[u'0', u'5', u'6', u'8']","{u'mouseover': {u'state': {u'target': [], u'time': []}, u'edge': {u'target': [], u'time': []}}, u'click': {u'state': {u'target': [u'12', u'11', u'4', u'3', u'7', u'8'], u'time': [1834, 2387, 2994, 3586, 4162, 4803]}, u'edge': {u'target': [], u'time': []}}, u'mouseout': {u'state': {u'target': [], u'time': []}, u'edge': {u'target': [], u'time': []}}}","[-4, -8, 48]","[6862, 369, 356]",30.0,"[None, None, None]","[u'', 4, 8, -24, -24, -4, -8, -48, 48, 2, -8, -24, -48]",351044,9.0,11595.0,2.63044322054e+18,mouselab-mdp,0
"[14798, 15671, 16810]","[u'left', u'left', u'down']",training,"[u'0', u'9', u'10', u'12']","{u'mouseover': {u'state': {u'target': [], u'time': []}, u'edge': {u'target': [], u'time': []}}, u'click': {u'state': {u'target': [u'12', u'11', u'4', u'3', u'7', u'8', u'10', u'2', u'1', u'9'], u'time': [2082, 3300, 3907, 4941, 5667, 6379, 9068, 10124, 11516, 12578]}, u'edge': {u'target': [], u'time': []}}, u'mouseout': {u'state': {u'target': [], u'time': []}, u'edge': {u'target': [], u'time': []}}}","[4, -4, 24]","[14793, 363, 620]",14.0,"[None, None, None]","[u'', -2, -4, 24, -48, -4, 8, -24, -24, 4, -4, -48, 24]",370925,10.0,18796.0,1.39930365593e+18,mouselab-mdp,0
"[10633, 12560, 14279, 18872, 21990]","[u'right', u'right', u'right', u'down', u'right']",pre_test,"[u'0', u'12', u'13', u'14', u'19', u'20']","{u'mouseover': {u'state': {u'target': [], u'time': []}, u'edge': {u'target': [], u'time': []}}, u'click': {u'state': {u'target': [u'13'], u'time': [6737]}, u'edge': {u'target': [], u'time': []}}, u'mouseout': {u'state': {u'target': [], u'time': []}, u'edge': {u'target': [], u'time': []}}}","[1, 0, 10, 5, 15]","[10619, 1417, 1201, 4091, 2593]",30.0,"[None, None, None, None, None]","[u'', 0, 1, 6, 0, 65, -20, -17, 3, -11, 38, -21, 1, 0, 10, -4, -6, 5, -70, 5, 15, 3, -49, -2, 1, 5, 13, -29, -33, -9, -16, -19, 27, 52]",151484,0.0,26183.0,-1.64462434052e+18,mouselab-mdp,1
"[9615, 10840, 11687]","[u'up', u'up', u'right']",training,"[u'0', u'1', u'2', u'3']","{u'mouseover': {u'state': {u'target': [], u'time': []}, u'edge': {u'target': [], u'time': []}}, u'click': {u'state': {u'target': [u'2', u'6', u'10', u'9'], u'time': [2034, 4062, 5289, 7472]}, u'edge': {u'target': [], u'time': []}}, u'mouseout': {u'state': {u'target': [], u'time': []}, u'edge': {u'target': [], u'time': []}}}","[-4, 4, 24]","[9607, 713, 346]",20.0,"[None, None, None]","[u'', -4, 4, 24, 24, -2, -4, 48, -24, -4, 8, -48, 48]",196045,1.0,38791.0,-4.8746661358e+18,mouselab-mdp,1
"[10856, 11382, 11935]","[u'up', u'up', u'left']",training,"[u'0', u'1', u'2', u'4']","{u'mouseover': {u'state': {u'target': [], u'time': []}, u'edge': {u'target': [], u'time': []}}, u'click': {u'state': {u'target': [u'6', u'10', u'2', u'3', u'1'], u'time': [2593, 3673, 4421, 6327, 9384]}, u'edge': {u'target': [], u'time': []}}, u'mouseout': {u'state': {u'target': [], u'time': []}, u'edge': {u'target': [], u'time': []}}}","[4, 8, 24]","[10851, 26, 43]",31.0,"[None, None, None]","[u'', 4, 8, -24, 24, -2, 4, -24, 48, 2, -8, 24, 48]",210692,2.0,13423.0,8.86605250045e+18,mouselab-mdp,1
"[33327, 33834, 34367]","[u'up', u'up', u'left']",training,"[u'0', u'1', u'2', u'4']","{u'mouseover': {u'state': {u'target': [], u'time': []}, u'edge': {u'target': [], u'time': []}}, u'click': {u'state': {u'target': [u'10', u'6', u'2', u'4'], u'time': [28916, 29565, 30226, 31656]}, u'edge': {u'target': [], u'time': []}}, u'mouseout': {u'state': {u'target': [], u'time': []}, u'edge': {u'target': [], u'time': []}}}","[2, 4, 24]","[33321, 3, 20]",26.0,"[None, None, None]","[u'', 2, 4, -24, 24, 4, 8, -48, -48, -4, -4, -48, -24]",247284,3.0,35503.0,-7.78403282575e+18,mouselab-mdp,1
"[4299, 4906, 5465]","[u'right', u'right', u'up']",training,"[u'0', u'5', u'6', u'7']","{u'mouseover': {u'state': {u'target': [], u'time': []}, u'edge': {u'target': [], u'time': []}}, u'click': {u'state': {u'target': [u'8', u'7', u'6'], u'time': [1017, 1677, 2360]}, u'edge': {u'target': [], u'time': []}}, u'mouseout': {u'state': {u'target': [], u'time': []}, u'edge': {u'target': [], u'time': []}}}","[-4, 8, 48]","[4294, 107, 48]",49.0,"[None, None, None]","[u'', -2, 8, -24, 24, -4, 8, 48, 24, -2, -4, 24, -48]",257667,4.0,9288.0,2.56147591953e+18,mouselab-mdp,1
"[6792, 7367, 8152]","[u'up', u'up', u'left']",training,"[u'0', u'1', u'2', u'4']","{u'mouseover': {u'state': {u'target': [], u'time': []}, u'edge': {u'target': [], u'time': []}}, u'click': {u'state': {u'target': [u'10', u'6', u'8', u'7', u'3', u'2', u'9', u'4'], u'time': [688, 1302, 1693, 2185, 3125, 3855, 4487, 4903]}, u'edge': {u'target': [], u'time': []}}, u'mouseout': {u'state': {u'target': [], u'time': []}, u'edge': {u'target': [], u'time': []}}}","[4, 8, 48]","[6788, 63, 272]",52.0,"[None, None, None]","[u'', 4, 8, -24, 48, 2, 8, -48, -48, 2, -4, 24, -48]",268075,5.0,9310.0,-6.66851853783e+18,mouselab-mdp,1
"[7148, 8091, 8716]","[u'up', u'up', u'left']",training,"[u'0', u'1', u'2', u'4']","{u'mouseover': {u'state': {u'target': [], u'time': []}, u'edge': {u'target': [], u'time': []}}, u'click': {u'state': {u'target': [u'1', u'2', u'6', u'10', u'11', u'7', u'8', u'4'], u'time': [492, 817, 2487, 3274, 3818, 4338, 5082, 6162]}, u'edge': {u'target': [], u'time': []}}, u'mouseout': {u'state': {u'target': [], u'time': []}, u'edge': {u'target': [], u'time': []}}}","[4, 4, 48]","[7144, 442, 115]",48.0,"[None, None, None]","[u'', 4, 4, -48, 48, -2, 4, -48, -24, -2, -4, -48, 24]",278861,6.0,9716.0,-5.00680981918e+18,mouselab-mdp,1
"[32599, 33454, 34094]","[u'left', u'left', u'up']",training,"[u'0', u'9', u'10', u'11']","{u'mouseover': {u'state': {u'target': [], u'time': []}, u'edge': {u'target': [], u'time': []}}, u'click': {u'state': {u'target': [u'6', u'3', u'4', u'1', u'12', u'11', u'10'], u'time': [27778, 28278, 28777, 29323, 29969, 30361, 31105]}, u'edge': {u'target': [], u'time': []}}, u'mouseout': {u'state': {u'target': [], u'time': []}, u'edge': {u'target': [], u'time': []}}}","[4, -8, 48]","[32597, 343, 136]",37.0,"[None, None, None]","[u'', 2, 8, 24, -24, 2, -8, -24, -24, 4, -8, 48, 48]",315579,7.0,35645.0,-3.20049588135e+18,mouselab-mdp,1
"[8417, 9203, 9763]","[u'up', u'up', u'right']",training,"[u'0', u'1', u'2', u'3']","{u'mouseover': {u'state': {u'target': [], u'time': []}, u'edge': {u'target': [], u'time': []}}, u'click': {u'state': {u'target': [u'7', u'6', u'8', u'3', u'1', u'2', u'4', u'11', u'12', u'10', u'9'], u'time': [1819, 2188, 2569, 3174, 3692, 4017, 4770, 5530, 6219, 6976, 7364]}, u'edge': {u'target': [], u'time': []}}, u'mouseout': {u'state': {u'target': [], u'time': []}, u'edge': {u'target': [], u'time': []}}}","[4, 4, 48]","[8414, 275, 50]",45.0,"[None, None, None]","[u'', 4, 4, 48, -48, -2, -8, 48, -24, -4, -8, 24, -48]",328397,8.0,11715.0,-4.67008033733e+18,mouselab-mdp,1
"[9241, 9929, 10585]","[u'up', u'up', u'right']",training,"[u'0', u'1', u'2', u'3']","{u'mouseover': {u'state': {u'target': [], u'time': []}, u'edge': {u'target': [], u'time': []}}, u'click': {u'state': {u'target': [u'6', u'10', u'4', u'3', u'2'], u'time': [5002, 5887, 6655, 7177, 8042]}, u'edge': {u'target': [], u'time': []}}, u'mouseout': {u'state': {u'target': [], u'time': []}, u'edge': {u'target': [], u'time': []}}}","[-2, -4, 48]","[9236, 2, 137]",37.0,"[None, None, None]","[u'', -2, -4, 48, 24, 2, 4, -48, 48, -4, 4, 48, 24]",342068,9.0,12576.0,7.94655219151e+18,mouselab-mdp,1
"[12427, 13089, 13673]","[u'up', u'up', u'right']",training,"[u'0', u'1', u'2', u'3']","{u'mouseover': {u'state': {u'target': [], u'time': []}, u'edge': {u'target': [], u'time': []}}, u'click': {u'state': {u'target': [u'12', u'8', u'7', u'11', u'4', u'3', u'6', u'10', u'2'], u'time': [5147, 5837, 6368, 6885, 7377, 7713, 8130, 8913, 11737]}, u'edge': {u'target': [], u'time': []}}, u'mouseout': {u'state': {u'target': [], u'time': []}, u'edge': {u'target': [], u'time': []}}}","[2, 4, 24]","[12424, 155, 84]",21.0,"[None, None, None]","[u'', 2, 4, 24, -24, 4, 8, -48, 24, 4, -8, -24, 24]",357764,10.0,14625.0,8.9509461883e+18,mouselab-mdp,1
"[23103, 25287, 25966, 29310, 32863]","[u'up', u'up', u'up', u'left', u'down']",pre_test,"[u'0', u'1', u'2', u'3', u'8', u'10']","{u'mouseover': {u'state': {u'target': [], u'time': []}, u'edge': {u'target': [], u'time': []}}, u'click': {u'state': {u'target': [u'12'], u'time': [12922]}, u'edge': {u'target': [], u'time': []}}, u'mouseout': {u'state': {u'target': [], u'time': []}, u'edge': {u'target': [], u'time': []}}}","[1, -4, 0, 12, 70]","[23093, 1665, 157, 2817, 3028]",78.0,"[None, None, None, None, None]","[u'', 1, -4, 0, -9, 17, 58, -17, 12, -30, 70, -26, 0, 1, -6, 12, -34, 20, -41, 1, 0, -12, 16, -1, 3, 1, -22, 64, 14, 50, -1, -72, -13, -39]",91345,0.0,36767.0,4.95921045901e+18,mouselab-mdp,2
"[3097, 51345, 52864]","[u'left', u'left', u'up']",training,"[u'0', u'9', u'10', u'11']","{u'mouseover': {u'state': {u'target': [], u'time': []}, u'edge': {u'target': [], u'time': []}}, u'click': {u'state': {u'target': [], u'time': []}, u'edge': {u'target': [], u'time': []}}, u'mouseout': {u'state': {u'target': [], u'time': []}, u'edge': {u'target': [], u'time': []}}}","[4, 8, -24]","[3092, 5709, 1000]",-12.0,"[None, None, None]","[u'', 2, 8, -24, -48, -2, 8, 48, 24, 4, 8, -24, -48]",155822,1.0,55016.0,7.70857757142e+18,mouselab-mdp,2
"[8267, 51594, 52354]","[u'up', u'up', u'right']",training,"[u'0', u'1', u'2', u'3']","{u'mouseover': {u'state': {u'target': [], u'time': []}, u'edge': {u'target': [], u'time': []}}, u'click': {u'state': {u'target': [u'9'], u'time': [4733]}, u'edge': {u'target': [], u'time': []}}, u'mouseout': {u'state': {u'target': [], u'time': []}, u'edge': {u'target': [], u'time': []}}}","[4, 4, -48]","[8263, 798, 241]",-41.0,"[None, None, None]","[u'', 4, 4, -48, 48, -2, 4, -48, -24, -2, -4, -48, 24]",211092,2.0,54186.0,-5.00680981918e+18,mouselab-mdp,2
"[7533, 49498, 50779]","[u'left', u'left', u'up']",training,"[u'0', u'9', u'10', u'11']","{u'mouseover': {u'state': {u'target': [], u'time': []}, u'edge': {u'target': [], u'time': []}}, u'click': {u'state': {u'target': [u'8'], u'time': [3821]}, u'edge': {u'target': [], u'time': []}}, u'mouseout': {u'state': {u'target': [], u'time': []}, u'edge': {u'target': [], u'time': []}}}","[-2, -4, 24]","[7529, 1435, 763]",17.0,"[None, None, None]","[u'', -2, -8, 24, 48, -2, 8, -24, -24, -2, -4, 24, -24]",265314,3.0,53146.0,-3.60340228201e+18,mouselab-mdp,2
"[12225, 12984, 13679]","[u'up', u'up', u'right']",training,"[u'0', u'1', u'2', u'3']","{u'mouseover': {u'state': {u'target': [], u'time': []}, u'edge': {u'target': [], u'time': []}}, u'click': {u'state': {u'target': [u'12', u'11', u'4', u'3'], u'time': [3203, 5675, 7459, 9032]}, u'edge': {u'target': [], u'time': []}}, u'mouseout': {u'state': {u'target': [], u'time': []}, u'edge': {u'target': [], u'time': []}}}","[-2, -4, 48]","[12220, 240, 186]",38.0,"[None, None, None]","[u'', -2, -4, 48, -24, 2, -4, 48, 24, -2, -8, -24, -24]",281963,4.0,15585.0,2.59386444745e+18,mouselab-mdp,2
"[7202, 7816, 8489]","[u'left', u'left', u'down']",training,"[u'0', u'9', u'10', u'12']","{u'mouseover': {u'state': {u'target': [], u'time': []}, u'edge': {u'target': [], u'time': []}}, u'click': {u'state': {u'target': [u'7', u'8', u'3', u'12'], u'time': [2201, 3253, 4570, 5777]}, u'edge': {u'target': [], u'time': []}}, u'mouseout': {u'state': {u'target': [], u'time': []}, u'edge': {u'target': [], u'time': []}}}","[-4, -4, 48]","[7199, 94, 152]",36.0,"[None, None, None]","[u'', 2, -4, -24, -24, 4, -8, -48, -48, -4, -4, 48, 48]",293497,5.0,10472.0,-7.91360722647e+18,mouselab-mdp,2
"[5835, 6489, 7154]","[u'right', u'right', u'up']",training,"[u'0', u'5', u'6', u'7']","{u'mouseover': {u'state': {u'target': [], u'time': []}, u'edge': {u'target': [], u'time': []}}, u'click': {u'state': {u'target': [u'4', u'3', u'7'], u'time': [2232, 3557, 4588]}, u'edge': {u'target': [], u'time': []}}, u'mouseout': {u'state': {u'target': [], u'time': []}, u'edge': {u'target': [], u'time': []}}}","[-2, -4, 48]","[5831, 130, 147]",39.0,"[None, None, None]","[u'', -4, 4, 24, 24, -2, -4, 48, -24, -4, 8, -48, 48]",304425,6.0,9849.0,-4.8746661358e+18,mouselab-mdp,2
"[7221, 7771, 8509]","[u'left', u'left', u'down']",training,"[u'0', u'9', u'10', u'12']","{u'mouseover': {u'state': {u'target': [], u'time': []}, u'edge': {u'target': [], u'time': []}}, u'click': {u'state': {u'target': [u'4', u'3', u'7', u'8', u'12'], u'time': [1761, 2643, 3768, 4624, 5762]}, u'edge': {u'target': [], u'time': []}}, u'mouseout': {u'state': {u'target': [], u'time': []}, u'edge': {u'target': [], u'time': []}}}","[4, -8, 48]","[7217, 31, 220]",39.0,"[None, None, None]","[u'', 2, 8, 24, -24, 2, -8, -24, -24, 4, -8, 48, 48]",315826,7.0,10341.0,-3.20049588135e+18,mouselab-mdp,2
"[8082, 8953, 9848]","[u'left', u'left', u'up']",training,"[u'0', u'9', u'10', u'11']","{u'mouseover': {u'state': {u'target': [], u'time': []}, u'edge': {u'target': [], u'time': []}}, u'click': {u'state': {u'target': [u'4', u'3', u'7', u'12', u'8', u'11'], u'time': [1750, 2766, 3486, 4757, 5525, 6606]}, u'edge': {u'target': [], u'time': []}}, u'mouseout': {u'state': {u'target': [], u'time': []}, u'edge': {u'target': [], u'time': []}}}","[-2, 8, 24]","[8079, 364, 376]",24.0,"[None, None, None]","[u'', 2, 4, -24, -48, -2, -4, -24, -24, -2, 8, 24, -24]",328472,8.0,11576.0,1.18238643611e+16,mouselab-mdp,2
"[2448, 3138, 3863]","[u'left', u'left', u'down']",training,"[u'0', u'9', u'10', u'12']","{u'mouseover': {u'state': {u'target': [], u'time': []}, u'edge': {u'target': [], u'time': []}}, u'click': {u'state': {u'target': [u'12'], u'time': [1540]}, u'edge': {u'target': [], u'time': []}}, u'mouseout': {u'state': {u'target': [], u'time': []}, u'edge': {u'target': [], u'time': []}}}","[-2, -8, 48]","[2445, 171, 213]",37.0,"[None, None, None]","[u'', 4, -8, -48, -48, -4, 4, 24, 24, -2, -8, -24, 48]",338132,9.0,8576.0,-4.56949664606e+18,mouselab-mdp,2
"[5787, 7321, 8233]","[u'up', u'up', u'right']",training,"[u'0', u'1', u'2', u'3']","{u'mouseover': {u'state': {u'target': [], u'time': []}, u'edge': {u'target': [], u'time': []}}, u'click': {u'state': {u'target': [u'8', u'7', u'3'], u'time': [1998, 3688, 4653]}, u'edge': {u'target': [], u'time': []}}, u'mouseout': {u'state': {u'target': [], u'time': []}, u'edge': {u'target': [], u'time': []}}}","[4, -4, 48]","[5785, 1028, 401]",45.0,"[None, None, None]","[u'', 4, -4, 48, -48, -2, -8, 24, 24, -2, 4, 48, -48]",349096,10.0,9898.0,8.0458297312e+18,mouselab-mdp,2
"[11503, 13366, 16349, 17749, 19174]","[u'up', u'up', u'up', u'left', u'left']",pre_test,"[u'0', u'1', u'2', u'3', u'8', u'11']","{u'mouseover': {u'state': {u'target': [], u'time': []}, u'edge': {u'target': [], u'time': []}}, u'click': {u'state': {u'target': [u'15'], u'time': [8453]}, u'edge': {u'target': [], u'time': []}}, u'mouseout': {u'state': {u'target': [], u'time': []}, u'edge': {u'target': [], u'time': []}}}","[-2, -3, 6, 12, 33]","[11495, 1360, 2486, 893, 930]",45.0,"[None, None, None, None, None]","[u'', -2, -3, 6, 5, 20, 37, -65, 12, -37, -31, 33, -1, 1, 6, -5, -19, 22, 29, 3, -51, 52, 20, -2, -2, -4, -6, 8, -23, 39, 9, 2, -34, 0]",129107,0.0,25669.0,-2.21831823842e+18,mouselab-mdp,3
"[6406, 38862, 42119]","[u'up', u'up', u'right']",training,"[u'0', u'1', u'2', u'3']","{u'mouseover': {u'state': {u'target': [], u'time': []}, u'edge': {u'target': [], u'time': []}}, u'click': {u'state': {u'target': [u'12', u'10'], u'time': [None, None]}, u'edge': {u'target': [], u'time': []}}, u'mouseout': {u'state': {u'target': [], u'time': []}, u'edge': {u'target': [], u'time': []}}}","[2, -4, 48]","[6404, 7948, 2758]",44.0,"[None, None, None]","[u'', 2, -4, 48, 24, -2, -4, 24, 24, 2, -8, -24, 24]",205435,1.0,45126.0,5.56601214792e+17,mouselab-mdp,3
"[13931, 14714, 15370]","[u'left', u'left', u'up']",training,"[u'0', u'9', u'10', u'11']","{u'mouseover': {u'state': {u'target': [], u'time': []}, u'edge': {u'target': [], u'time': []}}, u'click': {u'state': {u'target': [u'4', u'8', u'11', u'7', u'3', u'12'], u'time': [5182, 6494, 7694, 9094, 9982, 10749]}, u'edge': {u'target': [], u'time': []}}, u'mouseout': {u'state': {u'target': [], u'time': []}, u'edge': {u'target': [], u'time': []}}}","[4, -4, 24]","[13929, 292, 163]",18.0,"[None, None, None]","[u'', 2, 8, -48, -24, 2, 8, -24, -48, 4, -4, 24, -48]",224267,2.0,17794.0,4.95354184513e+17,mouselab-mdp,3
"[8608, 9280, 9865]","[u'left', u'left', u'down']",training,"[u'0', u'9', u'10', u'12']","{u'mouseover': {u'state': {u'target': [], u'time': []}, u'edge': {u'target': [], u'time': []}}, u'click': {u'state': {u'target': [u'4', u'3', u'11', u'12', u'8', u'7'], u'time': [1371, 3859, 4731, 5347, 6131, 6730]}, u'edge': {u'target': [], u'time': []}}, u'mouseout': {u'state': {u'target': [], u'time': []}, u'edge': {u'target': [], u'time': []}}}","[-4, 4, 48]","[8605, 170, 86]",42.0,"[None, None, None]","[u'', -4, 4, 24, 24, 2, 8, -24, 24, -4, 4, -24, 48]",238203,3.0,12904.0,5.34744023932e+18,mouselab-mdp,3
"[6273, 6920, 7561]","[u'up', u'up', u'right']",training,"[u'0', u'1', u'2', u'3']","{u'mouseover': {u'state': {u'target': [], u'time': []}, u'edge': {u'target': [], u'time': []}}, u'click': {u'state': {u'target': [u'12', u'8', u'3', u'4'], u'time': [2076, 3045, 3884, 4531]}, u'edge': {u'target': [], u'time': []}}, u'mouseout': {u'state': {u'target': [], u'time': []}, u'edge': {u'target': [], u'time': []}}}","[4, 4, 48]","[6270, 146, 135]",52.0,"[None, None, None]","[u'', 4, 4, 48, -48, -2, -8, 48, -24, -4, -8, 24, -48]",249603,4.0,10360.0,-4.67008033733e+18,mouselab-mdp,3
"[4028, 4747, 5363]","[u'right', u'right', u'down']",training,"[u'0', u'5', u'6', u'8']","{u'mouseover': {u'state': {u'target': [], u'time': []}, u'edge': {u'target': [], u'time': []}}, u'click': {u'state': {u'target': [u'4', u'8', u'11'], u'time': [1151, 2055, 2935]}, u'edge': {u'target': [], u'time': []}}, u'mouseout': {u'state': {u'target': [], u'time': []}, u'edge': {u'target': [], u'time': []}}}","[-2, -8, 48]","[4023, 213, 126]",35.0,"[None, None, None]","[u'', -4, -4, -48, -48, -2, -8, 24, 48, 2, 4, -24, -48]",260259,5.0,9611.0,-1.84824368346e+18,mouselab-mdp,3
"[5900, 6572, 7205]","[u'up', u'up', u'right']",training,"[u'0', u'1', u'2', u'3']","{u'mouseover': {u'state': {u'target': [], u'time': []}, u'edge': {u'target': [], u'time': []}}, u'click': {u'state': {u'target': [u'3', u'12', u'7'], u'time': [1968, 3263, 4263]}, u'edge': {u'target': [], u'time': []}}, u'mouseout': {u'state': {u'target': [], u'time': []}, u'edge': {u'target': [], u'time': []}}}","[2, 8, 48]","[5897, 176, 138]",55.0,"[None, None, None]","[u'', 2, 8, 48, -24, -4, -4, -48, 24, -4, -8, -48, -24]",271371,6.0,10076.0,2.37271076103e+18,mouselab-mdp,3
"[7377, 8121, 8928]","[u'left', u'left', u'down']",training,"[u'0', u'9', u'10', u'12']","{u'mouseover': {u'state': {u'target': [], u'time': []}, u'edge': {u'target': [], u'time': []}}, u'click': {u'state': {u'target': [u'11', u'8', u'4', u'3', u'12', u'7'], u'time': [1493, 2420, 3308, 4204, 5235, 6115]}, u'edge': {u'target': [], u'time': []}}, u'mouseout': {u'state': {u'target': [], u'time': []}, u'edge': {u'target': [], u'time': []}}}","[-4, 4, 48]","[7375, 245, 316]",42.0,"[None, None, None]","[u'', 2, -4, 24, -48, -4, -8, -48, -48, -4, 4, -48, 48]",284308,7.0,11881.0,2.1183359843e+18,mouselab-mdp,3
"[7200, 7808, 8480]","[u'up', u'up', u'right']",training,"[u'0', u'1', u'2', u'3']","{u'mouseover': {u'state': {u'target': [], u'time': []}, u'edge': {u'target': [], u'time': []}}, u'click': {u'state': {u'target': [u'11', u'7', u'4', u'8', u'3', u'12'], u'time': [1314, 2426, 3194, 4098, 4866, 6147]}, u'edge': {u'target': [], u'time': []}}, u'mouseout': {u'state': {u'target': [], u'time': []}, u'edge': {u'target': [], u'time': []}}}","[-4, 4, 48]","[7198, 117, 167]",42.0,"[None, None, None]","[u'', -4, 4, 48, -48, -4, 4, -24, 24, -4, -8, 24, 24]",295484,8.0,10144.0,-5.99530113684e+18,mouselab-mdp,3
"[4121, 4688, 5353]","[u'up', u'up', u'right']",training,"[u'0', u'1', u'2', u'3']","{u'mouseover': {u'state': {u'target': [], u'time': []}, u'edge': {u'target': [], u'time': []}}, u'click': {u'state': {u'target': [u'12', u'3'], u'time': [1117, 2068]}, u'edge': {u'target': [], u'time': []}}, u'mouseout': {u'state': {u'target': [], u'time': []}, u'edge': {u'target': [], u'time': []}}}","[2, 8, 48]","[4118, 77, 172]",56.0,"[None, None, None]","[u'', 2, 8, 48, 24, -2, 4, 24, 24, -2, -4, -48, -24]",305499,9.0,8984.0,-8.92386760362e+18,mouselab-mdp,3
"[3810, 4393, 4985]","[u'right', u'right', u'down']",training,"[u'0', u'5', u'6', u'8']","{u'mouseover': {u'state': {u'target': [], u'time': []}, u'edge': {u'target': [], u'time': []}}, u'click': {u'state': {u'target': [u'11', u'8'], u'time': [1389, 2205]}, u'edge': {u'target': [], u'time': []}}, u'mouseout': {u'state': {u'target': [], u'time': []}, u'edge': {u'target': [], u'time': []}}}","[-2, 4, 48]","[3808, 80, 103]",48.0,"[None, None, None]","[u'', 4, 8, -24, 24, -2, 4, -24, 48, 2, -8, 24, 48]",317019,10.0,10489.0,8.86605250045e+18,mouselab-mdp,3
"[26554, 27293, 28053, 28744, 29452]","[u'right', u'right', u'right', u'up', u'left']",pre_test,"[u'0', u'12', u'13', u'14', u'15', u'18']","{u'mouseover': {u'state': {u'target': [], u'time': []}, u'edge': {u'target': [], u'time': []}}, u'click': {u'state': {u'target': [u'12', u'23', u'1', u'24', u'25', u'13', u'14', u'15', u'16', u'18', u'17', u'19', u'22', u'21', u'20', u'31', u'30', u'32'], u'time': [1506, 2744, 3716, 5035, 5509, 7086, 7762, 9150, 9635, 10168, 10637, 11516, 12951, 13425, 14269, 15654, 16070, 23387]}, u'edge': {u'target': [], u'time': []}}, u'mouseout': {u'state': {u'target': [], u'time': []}, u'edge': {u'target': [], u'time': []}}}","[0, -2, 0, 0, 47]","[26527, 189, 211, 135, 157]",27.0,"[None, None, None, None, None]","[u'', 0, 1, 5, 1, 17, -10, -43, -10, 2, -6, -21, 0, -2, 0, 0, -27, -74, 47, 3, -85, -14, 13, 0, 1, -4, 1, -2, -6, -7, 2, 30, -17, -13]",170827,0.0,32986.0,2.94409503949e+18,mouselab-mdp,4
"[20631, 21264, 21908]","[u'up', u'up', u'left']",training,"[u'0', u'1', u'2', u'4']","{u'mouseover': {u'state': {u'target': [], u'time': []}, u'edge': {u'target': [], u'time': []}}, u'click': {u'state': {u'target': [u'1', u'2', u'4', u'12', u'8', u'6', u'5', u'9', u'10', u'11', u'3', u'7'], u'time': [3775, 4564, 5392, 6928, 8111, 9373, 9844, 11041, 12186, 15867, 16605, 17735]}, u'edge': {u'target': [], u'time': []}}, u'mouseout': {u'state': {u'target': [], u'time': []}, u'edge': {u'target': [], u'time': []}}}","[-2, 4, 24]","[20620, 102, 113]",14.0,"[None, None, None]","[u'', -2, 4, -24, 24, -2, -4, -48, -48, 4, -8, 24, 24]",209749,1.0,23619.0,2.82020194745e+17,mouselab-mdp,4
"[8631, 9283, 10215]","[u'left', u'left', u'down']",training,"[u'0', u'9', u'10', u'12']","{u'mouseover': {u'state': {u'target': [], u'time': []}, u'edge': {u'target': [], u'time': []}}, u'click': {u'state': {u'target': [u'4', u'1', u'3', u'12', u'8', u'7'], u'time': [2785, 3812, 4707, 5649, 6530, 7856]}, u'edge': {u'target': [], u'time': []}}, u'mouseout': {u'state': {u'target': [], u'time': []}, u'edge': {u'target': [], u'time': []}}}","[4, -8, 48]","[8619, 133, 398]",38.0,"[None, None, None]","[u'', 2, 8, 24, -24, 2, -8, -24, -24, 4, -8, 48, 48]",223668,2.0,12794.0,-3.20049588135e+18,mouselab-mdp,4
"[7369, 7963, 8690]","[u'right', u'right', u'down']",training,"[u'0', u'5', u'6', u'8']","{u'mouseover': {u'state': {u'target': [], u'time': []}, u'edge': {u'target': [], u'time': []}}, u'click': {u'state': {u'target': [u'12', u'8', u'3', u'5', u'6'], u'time': [1478, 2449, 3490, 5794, 6264]}, u'edge': {u'target': [], u'time': []}}, u'mouseout': {u'state': {u'target': [], u'time': []}, u'edge': {u'target': [], u'time': []}}}","[2, 4, 48]","[7361, 71, 196]",49.0,"[None, None, None]","[u'', -2, -4, 48, 24, 2, 4, -48, 48, -4, 4, 48, 24]",234815,3.0,10035.0,7.94655219151e+18,mouselab-mdp,4
"[4910, 5570, 6394]","[u'left', u'left', u'down']",training,"[u'0', u'9', u'10', u'12']","{u'mouseover': {u'state': {u'target': [], u'time': []}, u'edge': {u'target': [], u'time': []}}, u'click': {u'state': {u'target': [u'12', u'11', u'4', u'3', u'7', u'8'], u'time': [799, 1696, 2220, 2770, 3582, 4098]}, u'edge': {u'target': [], u'time': []}}, u'mouseout': {u'state': {u'target': [], u'time': []}, u'edge': {u'target': [], u'time': []}}}","[-4, 4, 48]","[4901, 135, 288]",42.0,"[None, None, None]","[u'', -4, 4, 24, 24, 2, 8, -24, 24, -4, 4, -24, 48]",245944,4.0,9990.0,5.34744023932e+18,mouselab-mdp,4
"[8651, 9276, 9897]","[u'up', u'up', u'right']",training,"[u'0', u'1', u'2', u'3']","{u'mouseover': {u'state': {u'target': [], u'time': []}, u'edge': {u'target': [], u'time': []}}, u'click': {u'state': {u'target': [u'11', u'12', u'4', u'3', u'8', u'7', u'1', u'9', u'10', u'2'], u'time': [840, 1372, 2116, 2590, 3273, 3814, 5483, 6807, 7382, 8135]}, u'edge': {u'target': [], u'time': []}}, u'mouseout': {u'state': {u'target': [], u'time': []}, u'edge': {u'target': [], u'time': []}}}","[-4, 8, 48]","[8641, 92, 76]",42.0,"[None, None, None]","[u'', -4, 8, 48, 24, 2, -8, -48, -24, -4, -4, 48, -24]",258357,5.0,11296.0,3.41976950562e+18,mouselab-mdp,4
"[8152, 8995, 9682]","[u'left', u'left', u'up']",training,"[u'0', u'9', u'10', u'11']","{u'mouseover': {u'state': {u'target': [], u'time': []}, u'edge': {u'target': [], u'time': []}}, u'click': {u'state': {u'target': [u'4', u'11', u'3', u'7', u'8', u'12'], u'time': [1837, 2678, 3370, 3830, 4372, 5218]}, u'edge': {u'target': [], u'time': []}}, u'mouseout': {u'state': {u'target': [], u'time': []}, u'edge': {u'target': [], u'time': []}}}","[-2, 8, 48]","[8143, 309, 159]",48.0,"[None, None, None]","[u'', 2, 4, -48, -24, -4, -8, 24, -48, -2, 8, 48, -24]",270339,6.0,10854.0,-8.80678964296e+18,mouselab-mdp,4
"[5628, 6753, 7483]","[u'right', u'right', u'up']",training,"[u'0', u'5', u'6', u'7']","{u'mouseover': {u'state': {u'target': [], u'time': []}, u'edge': {u'target': [], u'time': []}}, u'click': {u'state': {u'target': [u'7', u'8', u'3', u'4', u'11', u'12'], u'time': [2009, 2814, 3620, 4241, 4727, 5166]}, u'edge': {u'target': [], u'time': []}}, u'mouseout': {u'state': {u'target': [], u'time': []}, u'edge': {u'target': [], u'time': []}}}","[-4, 4, 48]","[5618, 595, 204]",42.0,"[None, None, None]","[u'', 2, -4, 24, -48, -4, 4, 48, 48, 4, 4, -48, -24]",282434,7.0,10972.0,1.70803683189e+18,mouselab-mdp,4
"[4967, 5532, 6250]","[u'right', u'right', u'down']",training,"[u'0', u'5', u'6', u'8']","{u'mouseover': {u'state': {u'target': [], u'time': []}, u'edge': {u'target': [], u'time': []}}, u'click': {u'state': {u'target': [u'8', u'7', u'3', u'4', u'11', u'12'], u'time': [1442, 2015, 2591, 3274, 3818, 4414]}, u'edge': {u'target': [], u'time': []}}, u'mouseout': {u'state': {u'target': [], u'time': []}, u'edge': {u'target': [], u'time': []}}}","[-2, 8, 48]","[4956, 50, 199]",48.0,"[None, None, None]","[u'', -4, -8, 24, -24, -2, 8, 24, 48, 4, -4, 24, -48]",293568,8.0,10033.0,-1.10044903072e+18,mouselab-mdp,4
"[4269, 4958, 5757]","[u'right', u'right', u'down']",training,"[u'0', u'5', u'6', u'8']","{u'mouseover': {u'state': {u'target': [], u'time': []}, u'edge': {u'target': [], u'time': []}}, u'click': {u'state': {u'target': [u'12', u'11', u'4', u'3', u'7', u'8'], u'time': [766, 1434, 1969, 2549, 3001, 3794]}, u'edge': {u'target': [], u'time': []}}, u'mouseout': {u'state': {u'target': [], u'time': []}, u'edge': {u'target': [], u'time': []}}}","[2, 4, 48]","[4260, 163, 273]",48.0,"[None, None, None]","[u'', 4, -8, 24, 24, 2, 4, 24, 48, -2, 4, 24, -48]",304283,9.0,9624.0,6.72269827856e+18,mouselab-mdp,4
"[4476, 5500, 6258]","[u'left', u'left', u'up']",training,"[u'0', u'9', u'10', u'11']","{u'mouseover': {u'state': {u'target': [], u'time': []}, u'edge': {u'target': [], u'time': []}}, u'click': {u'state': {u'target': [u'11', u'12', u'4', u'3', u'7', u'8'], u'time': [1056, 1582, 2349, 2837, 3639, 4095]}, u'edge': {u'target': [], u'time': []}}, u'mouseout': {u'state': {u'target': [], u'time': []}, u'edge': {u'target': [], u'time': []}}}","[-2, -4, 48]","[4466, 494, 213]",36.0,"[None, None, None]","[u'', -2, 4, -48, -24, 2, 4, 24, 24, -2, -4, 48, -24]",314706,10.0,9327.0,7.45732429498e+18,mouselab-mdp,4
"[5762, 6986, 8037, 9086, 10111]","[u'right', u'right', u'right', u'up', u'up']",pre_test,"[u'0', u'12', u'13', u'14', u'15', u'16']","{u'mouseover': {u'state': {u'target': [], u'time': []}, u'edge': {u'target': [], u'time': []}}, u'click': {u'state': {u'target': [], u'time': []}, u'edge': {u'target': [], u'time': []}}, u'mouseout': {u'state': {u'target': [], u'time': []}, u'edge': {u'target': [], u'time': []}}}","[0, 4, 1, 4, 12]","[5722, 704, 495, 522, 496]",21.0,"[None, None, None, None, None]","[u'', 0, 3, 2, -13, 127, 21, 3, -11, 3, -15, 21, 0, 4, 1, 4, 12, -5, -6, 9, 25, -20, -36, 0, 2, 0, 14, -25, 5, -81, -5, -10, 16, 55]",31494,0.0,12011.0,-7.72010987048e+18,mouselab-mdp,5
"[1002, 1730, 2580]","[u'right', u'right', u'down']",training,"[u'0', u'5', u'6', u'8']","{u'mouseover': {u'state': {u'target': [], u'time': []}, u'edge': {u'target': [], u'time': []}}, u'click': {u'state': {u'target': [], u'time': []}, u'edge': {u'target': [], u'time': []}}, u'mouseout': {u'state': {u'target': [], u'time': []}, u'edge': {u'target': [], u'time': []}}}","[-4, 4, 24]","[992, 220, 341]",24.0,"[None, None, None]","[u'', -4, 4, 48, -48, -4, 4, -24, 24, -4, -8, 24, 24]",48268,1.0,10229.0,-5.99530113684e+18,mouselab-mdp,5
"[389, 1189, 2014]","[u'right', u'right', u'up']",training,"[u'0', u'5', u'6', u'7']","{u'mouseover': {u'state': {u'target': [], u'time': []}, u'edge': {u'target': [], u'time': []}}, u'click': {u'state': {u'target': [], u'time': []}, u'edge': {u'target': [], u'time': []}}, u'mouseout': {u'state': {u'target': [], u'time': []}, u'edge': {u'target': [], u'time': []}}}","[4, -8, 48]","[368, 288, 327]",44.0,"[None, None, None]","[u'', 2, 4, 24, -24, 4, -8, 48, -24, -4, 8, -48, 48]",59496,2.0,9991.0,5.01038116734e+18,mouselab-mdp,5
"[465, 1190, 1841]","[u'up', u'up', u'left']",training,"[u'0', u'1', u'2', u'4']","{u'mouseover': {u'state': {u'target': [], u'time': []}, u'edge': {u'target': [], u'time': []}}, u'click': {u'state': {u'target': [], u'time': []}, u'edge': {u'target': [], u'time': []}}, u'mouseout': {u'state': {u'target': [], u'time': []}, u'edge': {u'target': [], u'time': []}}}","[2, 4, 48]","[454, 214, 149]",54.0,"[None, None, None]","[u'', 2, 4, -24, 48, -4, 8, -48, 48, 2, -4, 24, -24]",69067,3.0,8439.0,-8.3276713645e+18,mouselab-mdp,5
"[1069, 1627, 2352]","[u'left', u'left', u'up']",training,"[u'0', u'9', u'10', u'11']","{u'mouseover': {u'state': {u'target': [], u'time': []}, u'edge': {u'target': [], u'time': []}}, u'click': {u'state': {u'target': [], u'time': []}, u'edge': {u'target': [], u'time': []}}, u'mouseout': {u'state': {u'target': [], u'time': []}, u'edge': {u'target': [], u'time': []}}}","[-2, 4, 48]","[1051, 53, 228]",50.0,"[None, None, None]","[u'', 4, -4, 48, -48, -2, -8, 24, 24, -2, 4, 48, -48]",78767,4.0,8476.0,8.0458297312e+18,mouselab-mdp,5
"[469, 1143, 1845]","[u'left', u'left', u'down']",training,"[u'0', u'9', u'10', u'12']","{u'mouseover': {u'state': {u'target': [], u'time': []}, u'edge': {u'target': [], u'time': []}}, u'click': {u'state': {u'target': [], u'time': []}, u'edge': {u'target': [], u'time': []}}, u'mouseout': {u'state': {u'target': [], u'time': []}, u'edge': {u'target': [], u'time': []}}}","[2, -4, 48]","[454, 174, 193]",46.0,"[None, None, None]","[u'', 2, 4, -48, 48, -4, 4, -48, -48, 2, -4, 24, 48]",88639,5.0,8715.0,-5.8494341666e+18,mouselab-mdp,5
"[1867, 2442, 3116]","[u'left', u'left', u'up']",training,"[u'0', u'9', u'10', u'11']","{u'mouseover': {u'state': {u'target': [], u'time': []}, u'edge': {u'target': [], u'time': []}}, u'click': {u'state': {u'target': [], u'time': []}, u'edge': {u'target': [], u'time': []}}, u'mouseout': {u'state': {u'target': [], u'time': []}, u'edge': {u'target': [], u'time': []}}}","[4, -4, 24]","[1849, 71, 152]",24.0,"[None, None, None]","[u'', -4, -8, 24, -24, -2, 8, 24, 48, 4, -4, 24, -48]",98816,6.0,9014.0,-1.10044903072e+18,mouselab-mdp,5
"[371, 1071, 1921]","[u'right', u'right', u'down']",training,"[u'0', u'5', u'6', u'8']","{u'mouseover': {u'state': {u'target': [], u'time': []}, u'edge': {u'target': [], u'time': []}}, u'click': {u'state': {u'target': [], u'time': []}, u'edge': {u'target': [], u'time': []}}, u'mouseout': {u'state': {u'target': [], u'time': []}, u'edge': {u'target': [], u'time': []}}}","[2, 4, 24]","[359, 202, 353]",30.0,"[None, None, None]","[u'', -2, -4, 48, -48, 2, 4, -48, 24, 4, 8, -48, 48]",109715,7.0,9768.0,-2.81709899867e+18,mouselab-mdp,5
"[931, 1542, 2142]","[u'up', u'up', u'right']",training,"[u'0', u'1', u'2', u'3']","{u'mouseover': {u'state': {u'target': [], u'time': []}, u'edge': {u'target': [], u'time': []}}, u'click': {u'state': {u'target': [], u'time': []}, u'edge': {u'target': [], u'time': []}}, u'mouseout': {u'state': {u'target': [], u'time': []}, u'edge': {u'target': [], u'time': []}}}","[-4, 8, 48]","[896, 111, 97]",52.0,"[None, None, None]","[u'', -4, 8, 48, -24, -2, -4, 24, -48, 4, 4, 48, -48]",120641,8.0,9741.0,7.26324481059e+18,mouselab-mdp,5
"[489, 1113, 1788]","[u'up', u'up', u'left']",training,"[u'0', u'1', u'2', u'4']","{u'mouseover': {u'state': {u'target': [], u'time': []}, u'edge': {u'target': [], u'time': []}}, u'click': {u'state': {u'target': [], u'time': []}, u'edge': {u'target': [], u'time': []}}, u'mouseout': {u'state': {u'target': [], u'time': []}, u'edge': {u'target': [], u'time': []}}}","[2, -4, 24]","[478, 118, 173]",22.0,"[None, None, None]","[u'', 2, -4, 48, 24, -2, -4, 24, 24, 2, -8, -24, 24]",132267,9.0,10488.0,5.56601214792e+17,mouselab-mdp,5
"[1659, 2808, 3934]","[u'up', u'up', u'right']",training,"[u'0', u'1', u'2', u'3']","{u'mouseover': {u'state': {u'target': [], u'time': []}, u'edge': {u'target': [], u'time': []}}, u'click': {u'state': {u'target': [], u'time': []}, u'edge': {u'target': [], u'time': []}}, u'mouseout': {u'state': {u'target': [], u'time': []}, u'edge': {u'target': [], u'time': []}}}","[-2, 4, -24]","[1613, 635, 626]",-22.0,"[None, None, None]","[u'', -2, 4, -24, 24, -2, -4, -48, -48, 4, -8, 24, 24]",146264,10.0,12831.0,2.82020194745e+17,mouselab-mdp,5
"[27013, 27877, 28653, 30321, 32197]","[u'right', u'right', u'right', u'up', u'left']",pre_test,"[u'0', u'12', u'13', u'14', u'15', u'18']","{u'mouseover': {u'state': {u'target': [], u'time': []}, u'edge': {u'target': [], u'time': []}}, u'click': {u'state': {u'target': [u'1', u'23', u'12', u'24', u'2', u'13', u'14'], u'time': [13381, 14154, 14995, 18355, 19685, 20543, 26387]}, u'edge': {u'target': [], u'time': []}}, u'mouseout': {u'state': {u'target': [], u'time': []}, u'edge': {u'target': [], u'time': []}}}","[0, -1, 4, 2, 10]","[27008, 354, 264, 1147, 1355]",8.0,"[None, None, None, None, None]","[u'', -1, -2, 3, -3, -6, -5, 35, 13, 14, -8, 45, 0, -1, 4, 2, -46, 20, 10, -15, -69, 4, 22, 1, -3, -1, 5, -49, 3, 7, 7, -79, 5, 65]",104974,0.0,37289.0,-8.33669581469e+18,mouselab-mdp,6
"[7074, 7957, 9427]","[u'left', u'left', u'down']",training,"[u'0', u'9', u'10', u'12']","{u'mouseover': {u'state': {u'target': [], u'time': []}, u'edge': {u'target': [], u'time': []}}, u'click': {u'state': {u'target': [u'1', u'9', u'5'], u'time': [2834, 3993, 4721]}, u'edge': {u'target': [], u'time': []}}, u'mouseout': {u'state': {u'target': [], u'time': []}, u'edge': {u'target': [], u'time': []}}}","[4, -8, 24]","[7071, 375, 954]",17.0,"[None, None, None]","[u'', -2, 4, -24, 24, -2, -4, -48, -48, 4, -8, 24, 24]",133768,1.0,11565.0,2.82020194745e+17,mouselab-mdp,6
"[5104, 10515, 11986]","[u'up', u'up', u'left']",training,"[u'0', u'1', u'2', u'4']","{u'mouseover': {u'state': {u'target': [], u'time': []}, u'edge': {u'target': [], u'time': []}}, u'click': {u'state': {u'target': [], u'time': []}, u'edge': {u'target': [], u'time': []}}, u'mouseout': {u'state': {u'target': [], u'time': []}, u'edge': {u'target': [], u'time': []}}}","[2, 8, -24]","[5099, 4895, 965]",-14.0,"[None, None, None]","[u'', 2, 8, 48, -24, -4, -4, -48, 24, -4, -8, -48, -24]",148907,2.0,14034.0,2.37271076103e+18,mouselab-mdp,6
"[11031, 12029, 13123]","[u'up', u'up', u'left']",training,"[u'0', u'1', u'2', u'4']","{u'mouseover': {u'state': {u'target': [], u'time': []}, u'edge': {u'target': [], u'time': []}}, u'click': {u'state': {u'target': [u'7', u'8', u'11', u'12', u'4', u'3'], u'time': [2060, 4846, 6110, 8529, 9238, 10397]}, u'edge': {u'target': [], u'time': []}}, u'mouseout': {u'state': {u'target': [], u'time': []}, u'edge': {u'target': [], u'time': []}}}","[2, 4, 24]","[11026, 484, 578]",24.0,"[None, None, None]","[u'', 2, 4, -24, 24, 4, 8, -48, -48, -4, -4, -48, -24]",166258,3.0,16268.0,-7.78403282575e+18,mouselab-mdp,6
"[11821, 12924, 14368]","[u'up', u'up', u'right']",training,"[u'0', u'1', u'2', u'3']","{u'mouseover': {u'state': {u'target': [], u'time': []}, u'edge': {u'target': [], u'time': []}}, u'click': {u'state': {u'target': [u'4', u'3', u'7', u'12', u'2', u'10'], u'time': [1617, 2477, 3501, 5345, 8752, 10610]}, u'edge': {u'target': [], u'time': []}}, u'mouseout': {u'state': {u'target': [], u'time': []}, u'edge': {u'target': [], u'time': []}}}","[-2, 4, 24]","[11817, 598, 924]",20.0,"[None, None, None]","[u'', -2, 4, 24, -24, -4, 4, -24, 24, -4, -8, -24, 24]",183283,4.0,15970.0,-3.14224207546e+18,mouselab-mdp,6
"[7063, 8139, 9409]","[u'up', u'up', u'right']",training,"[u'0', u'1', u'2', u'3']","{u'mouseover': {u'state': {u'target': [], u'time': []}, u'edge': {u'target': [], u'time': []}}, u'click': {u'state': {u'target': [u'4', u'3', u'12', u'2'], u'time': [1291, 2213, 4807, 6409]}, u'edge': {u'target': [], u'time': []}}, u'mouseout': {u'state': {u'target': [], u'time': []}, u'edge': {u'target': [], u'time': []}}}","[4, 4, 48]","[7060, 562, 766]",52.0,"[None, None, None]","[u'', 4, 4, 48, -48, -2, -8, 48, -24, -4, -8, 24, -48]",195305,5.0,10970.0,-4.67008033733e+18,mouselab-mdp,6
"[5913, 6876, 8096]","[u'up', u'up', u'right']",training,"[u'0', u'1', u'2', u'3']","{u'mouseover': {u'state': {u'target': [], u'time': []}, u'edge': {u'target': [], u'time': []}}, u'click': {u'state': {u'target': [u'3', u'11', u'8'], u'time': [975, 3671, 4531]}, u'edge': {u'target': [], u'time': []}}, u'mouseout': {u'state': {u'target': [], u'time': []}, u'edge': {u'target': [], u'time': []}}}","[2, -4, 24]","[5910, 455, 708]",19.0,"[None, None, None]","[u'', 2, -4, 24, 24, -4, 4, -24, -24, -2, 4, -24, -48]",206778,6.0,10415.0,7.86254308938e+18,mouselab-mdp,6
"[7409, 8654, 9881]","[u'up', u'up', u'right']",training,"[u'0', u'1', u'2', u'3']","{u'mouseover': {u'state': {u'target': [], u'time': []}, u'edge': {u'target': [], u'time': []}}, u'click': {u'state': {u'target': [u'8', u'3'], u'time': [1359, 3453]}, u'edge': {u'target': [], u'time': []}}, u'mouseout': {u'state': {u'target': [], u'time': []}, u'edge': {u'target': [], u'time': []}}}","[2, -4, 48]","[7405, 716, 709]",44.0,"[None, None, None]","[u'', 2, -4, 48, 24, -2, -4, 24, 24, 2, -8, -24, 24]",219672,7.0,11807.0,5.56601214792e+17,mouselab-mdp,6
"[7865, 8744, 9727]","[u'up', u'up', u'right']",training,"[u'0', u'1', u'2', u'3']","{u'mouseover': {u'state': {u'target': [], u'time': []}, u'edge': {u'target': [], u'time': []}}, u'click': {u'state': {u'target': [u'12', u'11', u'3', u'7'], u'time': [2069, 3184, 3980, 7182]}, u'edge': {u'target': [], u'time': []}}, u'mouseout': {u'state': {u'target': [], u'time': []}, u'edge': {u'target': [], u'time': []}}}","[2, 8, 48]","[7862, 373, 470]",54.0,"[None, None, None]","[u'', 2, 8, 48, 24, -2, 4, 24, 24, -2, -4, -48, -24]",231902,8.0,11179.0,-8.92386760362e+18,mouselab-mdp,6
"[3851, 4628, 5594]","[u'right', u'right', u'up']",training,"[u'0', u'5', u'6', u'7']","{u'mouseover': {u'state': {u'target': [], u'time': []}, u'edge': {u'target': [], u'time': []}}, u'click': {u'state': {u'target': [u'4', u'3', u'11', u'7'], u'time': [642, 1430, 2346, 3307]}, u'edge': {u'target': [], u'time': []}}, u'mouseout': {u'state': {u'target': [], u'time': []}, u'edge': {u'target': [], u'time': []}}}","[-2, 4, 48]","[3848, 252, 455]",46.0,"[None, None, None]","[u'', -4, 4, 24, -24, -2, 4, 48, -24, -4, -8, -48, 48]",243930,9.0,10936.0,8.58865579534e+17,mouselab-mdp,6
"[6012, 6880, 8124]","[u'left', u'left', u'up']",training,"[u'0', u'9', u'10', u'11']","{u'mouseover': {u'state': {u'target': [], u'time': []}, u'edge': {u'target': [], u'time': []}}, u'click': {u'state': {u'target': [u'4', u'12', u'8', u'7', u'11'], u'time': [1355, 2509, 3328, 4335, 5143]}, u'edge': {u'target': [], u'time': []}}, u'mouseout': {u'state': {u'target': [], u'time': []}, u'edge': {u'target': [], u'time': []}}}","[-4, -4, 48]","[6010, 361, 739]",35.0,"[None, None, None]","[u'', -4, 8, 48, 24, 2, -8, -48, -24, -4, -4, 48, -24]",254770,10.0,9736.0,3.41976950562e+18,mouselab-mdp,6
"[9180, 11564, 14868, 16059, 17331]","[u'up', u'up', u'up', u'left', u'up']",pre_test,"[u'0', u'1', u'2', u'3', u'8', u'9']","{u'mouseover': {u'state': {u'target': [], u'time': []}, u'edge': {u'target': [], u'time': []}}, u'click': {u'state': {u'target': [u'1', u'12', u'23'], u'time': [4942, 6214, 7172]}, u'edge': {u'target': [], u'time': []}}, u'mouseout': {u'state': {u'target': [], u'time': []}, u'edge': {u'target': [], u'time': []}}}","[1, 4, -1, -9, -42]","[9169, 1880, 2796, 676, 758]",-50.0,"[None, None, None, None, None]","[u'', 1, 4, -1, 10, -14, -16, 14, -9, -42, 31, -63, 0, -1, -1, -11, -65, -21, -37, -3, 3, -24, -34, 0, -2, -4, -2, 9, 67, 52, -10, -42, 2, 18]",105955,0.0,20795.0,1.98041848243e+18,mouselab-mdp,7
"[28714, 29698, 30457]","[u'up', u'up', u'right']",training,"[u'0', u'1', u'2', u'3']","{u'mouseover': {u'state': {u'target': [], u'time': []}, u'edge': {u'target': [], u'time': []}}, u'click': {u'state': {u'target': [u'9', u'11', u'7', u'3', u'4', u'8', u'12', u'10', u'5', u'1', u'2'], u'time': [4868, 10847, 14525, 17261, 18228, 19323, 20427, 22788, 23533, 24275, 25739]}, u'edge': {u'target': [], u'time': []}}, u'mouseout': {u'state': {u'target': [], u'time': []}, u'edge': {u'target': [], u'time': []}}}","[2, 8, 48]","[28708, 478, 251]",47.0,"[None, None, None]","[u'', 2, 8, 48, 24, -2, 4, 24, 24, -2, -4, -48, -24]",147892,1.0,33081.0,-8.92386760362e+18,mouselab-mdp,7
"[14966, 15525, 16222]","[u'left', u'left', u'up']",training,"[u'0', u'9', u'10', u'11']","{u'mouseover': {u'state': {u'target': [], u'time': []}, u'edge': {u'target': [], u'time': []}}, u'click': {u'state': {u'target': [u'8', u'7', u'3', u'4', u'11', u'12', u'9', u'10', u'1', u'2', u'5', u'6'], u'time': [2416, 3394, 4160, 4888, 5641, 6522, 8079, 8575, 11288, 11968, 12696, 13247]}, u'edge': {u'target': [], u'time': []}}, u'mouseout': {u'state': {u'target': [], u'time': []}, u'edge': {u'target': [], u'time': []}}}","[-2, 8, 24]","[14960, 54, 199]",18.0,"[None, None, None]","[u'', 2, 4, -24, -48, -2, -4, -24, -24, -2, 8, 24, -24]",166877,2.0,17918.0,1.18238643611e+16,mouselab-mdp,7
"[10500, 11101, 11757]","[u'up', u'up', u'right']",training,"[u'0', u'1', u'2', u'3']","{u'mouseover': {u'state': {u'target': [], u'time': []}, u'edge': {u'target': [], u'time': []}}, u'click': {u'state': {u'target': [u'3', u'7', u'8', u'12', u'11', u'4', u'1', u'2'], u'time': [2286, 2989, 3805, 4588, 5237, 5965, 7270, 7692]}, u'edge': {u'target': [], u'time': []}}, u'mouseout': {u'state': {u'target': [], u'time': []}, u'edge': {u'target': [], u'time': []}}}","[-4, 4, 48]","[10494, 94, 148]",40.0,"[None, None, None]","[u'', -4, 4, 48, -48, -4, 4, -24, 24, -4, -8, 24, 24]",181318,3.0,13365.0,-5.99530113684e+18,mouselab-mdp,7
"[13500, 14299, 15052]","[u'up', u'up', u'left']",training,"[u'0', u'1', u'2', u'4']","{u'mouseover': {u'state': {u'target': [], u'time': []}, u'edge': {u'target': [], u'time': []}}, u'click': {u'state': {u'target': [u'4', u'3', u'7', u'8', u'12', u'11', u'9', u'10', u'2', u'1'], u'time': [854, 1390, 2110, 2806, 3502, 4150, 8364, 8743, 9630, 11485]}, u'edge': {u'target': [], u'time': []}}, u'mouseout': {u'state': {u'target': [], u'time': []}, u'edge': {u'target': [], u'time': []}}}","[-2, 4, 24]","[13491, 293, 244]",16.0,"[None, None, None]","[u'', -2, 4, -24, 24, -2, -4, -48, -48, 4, -8, 24, 24]",198844,4.0,16451.0,2.82020194745e+17,mouselab-mdp,7
"[18554, 19178, 19833]","[u'left', u'left', u'up']",training,"[u'0', u'9', u'10', u'11']","{u'mouseover': {u'state': {u'target': [], u'time': []}, u'edge': {u'target': [], u'time': []}}, u'click': {u'state': {u'target': [u'11', u'12', u'8', u'7', u'3', u'4', u'10', u'2', u'6', u'9', u'1'], u'time': [2324, 2988, 3891, 4571, 5594, 6492, 7667, 8563, 9467, 12699, 16379]}, u'edge': {u'target': [], u'time': []}}, u'mouseout': {u'state': {u'target': [], u'time': []}, u'edge': {u'target': [], u'time': []}}}","[-2, -8, 48]","[18548, 126, 147]",27.0,"[None, None, None]","[u'', -2, 8, 24, -48, 2, 4, -24, 24, -2, -8, 48, -24]",221932,5.0,22009.0,6.28255860945e+18,mouselab-mdp,7
"[8089, 8688, 9296]","[u'right', u'right', u'down']",training,"[u'0', u'5', u'6', u'8']","{u'mouseover': {u'state': {u'target': [], u'time': []}, u'edge': {u'target': [], u'time': []}}, u'click': {u'state': {u'target': [u'4', u'3', u'7', u'8', u'12', u'11', u'6', u'5'], u'time': [1349, 1893, 2541, 3317, 4171, 4820, 5941, 6540]}, u'edge': {u'target': [], u'time': []}}, u'mouseout': {u'state': {u'target': [], u'time': []}, u'edge': {u'target': [], u'time': []}}}","[-4, -8, 48]","[8081, 101, 107]",28.0,"[None, None, None]","[u'', 4, 8, -24, -24, -4, -8, -48, 48, 2, -8, -24, -48]",233666,6.0,10656.0,2.63044322054e+18,mouselab-mdp,7
"[14137, 14714, 15273]","[u'left', u'left', u'down']",training,"[u'0', u'9', u'10', u'12']","{u'mouseover': {u'state': {u'target': [], u'time': []}, u'edge': {u'target': [], u'time': []}}, u'click': {u'state': {u'target': [u'3', u'4', u'7', u'8', u'12', u'11', u'10', u'2', u'9', u'1'], u'time': [1248, 1998, 2807, 3382, 4359, 8123, 9064, 10455, 11599, 12840]}, u'edge': {u'target': [], u'time': []}}, u'mouseout': {u'state': {u'target': [], u'time': []}, u'edge': {u'target': [], u'time': []}}}","[4, 8, 48]","[14132, 67, 59]",50.0,"[None, None, None]","[u'', -2, -4, 48, -48, 2, 4, -48, 24, 4, 8, -48, 48]",251528,7.0,16801.0,-2.81709899867e+18,mouselab-mdp,7
"[7680, 8344, 8983]","[u'left', u'left', u'up']",training,"[u'0', u'9', u'10', u'11']","{u'mouseover': {u'state': {u'target': [], u'time': []}, u'edge': {u'target': [], u'time': []}}, u'click': {u'state': {u'target': [u'4', u'3', u'7', u'8', u'12', u'11', u'10', u'9'], u'time': [1109, 1742, 2447, 3126, 3790, 4383, 5630, 6581]}, u'edge': {u'target': [], u'time': []}}, u'mouseout': {u'state': {u'target': [], u'time': []}, u'edge': {u'target': [], u'time': []}}}","[4, -4, 24]","[7674, 161, 130]",16.0,"[None, None, None]","[u'', 2, 8, -48, -24, 2, 8, -24, -48, 4, -4, 24, -48]",262937,8.0,10344.0,4.95354184513e+17,mouselab-mdp,7
"[8601, 9160, 9667]","[u'left', u'left', u'down']",training,"[u'0', u'9', u'10', u'12']","{u'mouseover': {u'state': {u'target': [], u'time': []}, u'edge': {u'target': [], u'time': []}}, u'click': {u'state': {u'target': [u'4', u'3', u'7', u'8', u'12', u'11', u'10', u'2', u'1', u'9'], u'time': [1053, 1596, 2284, 2869, 3725, 4413, 5190, 5845, 6431, 6996]}, u'edge': {u'target': [], u'time': []}}, u'mouseout': {u'state': {u'target': [], u'time': []}, u'edge': {u'target': [], u'time': []}}}","[4, -4, 24]","[8595, 54, 9]",14.0,"[None, None, None]","[u'', -2, -4, 24, -48, -4, 8, -24, -24, 4, -4, -48, 24]",275602,9.0,11608.0,1.39930365593e+18,mouselab-mdp,7
"[13514, 14098, 14658]","[u'up', u'up', u'right']",training,"[u'0', u'1', u'2', u'3']","{u'mouseover': {u'state': {u'target': [], u'time': []}, u'edge': {u'target': [], u'time': []}}, u'click': {u'state': {u'target': [u'4', u'3', u'7', u'8', u'11', u'12', u'10', u'2', u'6', u'5', u'1'], u'time': [1013, 1692, 2301, 2933, 4405, 5030, 6926, 7918, 8685, 9607, 10804]}, u'edge': {u'target': [], u'time': []}}, u'mouseout': {u'state': {u'target': [], u'time': []}, u'edge': {u'target': [], u'time': []}}}","[-2, 4, 24]","[13506, 73, 65]",15.0,"[None, None, None]","[u'', -2, 4, 24, -24, -4, 4, -24, 24, -4, -8, -24, 24]",293235,10.0,16569.0,-3.14224207546e+18,mouselab-mdp,7
"[35438, 36413, 37277, 38157, 39157]","[u'left', u'left', u'left', u'up', u'up']",pre_test,"[u'0', u'23', u'24', u'25', u'26', u'27']","{u'mouseover': {u'state': {u'target': [], u'time': []}, u'edge': {u'target': [], u'time': []}}, u'click': {u'state': {u'target': [u'23', u'12', u'1', u'2', u'3', u'24', u'25', u'30', u'32', u'33', u'31', u'26', u'27'], u'time': [8164, 9721, 11055, 12788, 14422, 16275, 19838, 21959, 24250, 25635, 26613, 28653, 29753]}, u'edge': {u'target': [], u'time': []}}, u'mouseout': {u'state': {u'target': [], u'time': []}, u'edge': {u'target': [], u'time': []}}}","[0, 3, 4, 13, 39]","[35424, 452, 341, 352, 471]",46.0,"[None, None, None, None, None]","[u'', 0, 1, -6, -9, 23, -1, -7, -1, 16, -19, 16, -1, -1, 4, 9, -35, 27, -33, 6, -61, -36, -16, 0, 3, 4, 13, 39, -9, -9, 9, 1, -5, -43]",135430,0.0,43933.0,6.02334654885e+18,mouselab-mdp,8
"[52273, 53153, 54002]","[u'up', u'up', u'right']",training,"[u'0', u'1', u'2', u'3']","{u'mouseover': {u'state': {u'target': [], u'time': []}, u'edge': {u'target': [], u'time': []}}, u'click': {u'state': {u'target': [u'9', u'12', u'5', u'6', u'10', u'8', u'7', u'11', u'1', u'3', u'2', u'4'], u'time': [6640, 10206, 15757, 20196, 25521, 28991, 33308, 34363, 41771, 44557, 50313, 50358]}, u'edge': {u'target': [], u'time': []}}, u'mouseout': {u'state': {u'target': [], u'time': []}, u'edge': {u'target': [], u'time': []}}}","[2, -4, 24]","[52268, 362, 329]",10.0,"[None, None, None]","[u'', 2, -4, 24, 24, -4, 4, -24, -24, -2, 4, -24, -48]",247419,1.0,93284.0,7.86254308938e+18,mouselab-mdp,8
"[33993, 34969, 35792]","[u'left', u'left', u'up']",training,"[u'0', u'9', u'10', u'11']","{u'mouseover': {u'state': {u'target': [], u'time': []}, u'edge': {u'target': [], u'time': []}}, u'click': {u'state': {u'target': [u'1', u'3', u'8', u'4', u'7', u'11', u'10', u'12', u'6', u'9', u'2'], u'time': [7653, 9040, 12638, 14041, 16675, 18304, 20454, 23838, 27041, 28231, 32284]}, u'edge': {u'target': [], u'time': []}}, u'mouseout': {u'state': {u'target': [], u'time': []}, u'edge': {u'target': [], u'time': []}}}","[4, -8, 48]","[33984, 459, 301]",33.0,"[None, None, None]","[u'', 2, 8, 24, -24, 2, -8, -24, -24, 4, -8, 48, 48]",286373,2.0,37888.0,-3.20049588135e+18,mouselab-mdp,8
"[21754, 22570, 23290]","[u'up', u'up', u'left']",training,"[u'0', u'1', u'2', u'4']","{u'mouseover': {u'state': {u'target': [], u'time': []}, u'edge': {u'target': [], u'time': []}}, u'click': {u'state': {u'target': [u'3', u'11', u'4', u'8', u'7', u'12', u'2', u'1', u'10', u'9'], u'time': [3184, 4912, 6735, 8872, 10289, 11612, 13369, 15802, 17113, 18247]}, u'edge': {u'target': [], u'time': []}}, u'mouseout': {u'state': {u'target': [], u'time': []}, u'edge': {u'target': [], u'time': []}}}","[-2, -8, 48]","[21748, 303, 207]",28.0,"[None, None, None]","[u'', -2, -8, 24, 48, -2, 8, -24, -24, -2, -4, 24, -24]",312408,3.0,24961.0,-3.60340228201e+18,mouselab-mdp,8
"[11901, 12813, 13804]","[u'right', u'right', u'down']",training,"[u'0', u'5', u'6', u'8']","{u'mouseover': {u'state': {u'target': [], u'time': []}, u'edge': {u'target': [], u'time': []}}, u'click': {u'state': {u'target': [u'11', u'3', u'4', u'7', u'8', u'12', u'10', u'6', u'5', u'9'], u'time': [1598, 2583, 3368, 4151, 4951, 5875, 7223, 8320, 10173, 10912]}, u'edge': {u'target': [], u'time': []}}, u'mouseout': {u'state': {u'target': [], u'time': []}, u'edge': {u'target': [], u'time': []}}}","[-4, 8, 48]","[11896, 395, 471]",42.0,"[None, None, None]","[u'', -4, 8, -24, -48, -4, 8, -48, 48, 4, -8, -24, 48]",328904,4.0,15412.0,-1.41484517897e+18,mouselab-mdp,8
"[16044, 16907, 17658]","[u'right', u'right', u'down']",training,"[u'0', u'5', u'6', u'8']","{u'mouseover': {u'state': {u'target': [], u'time': []}, u'edge': {u'target': [], u'time': []}}, u'click': {u'state': {u'target': [u'8', u'11', u'7', u'3', u'4', u'12', u'2', u'10', u'6', u'5', u'1'], u'time': [2145, 3530, 4758, 5668, 6496, 7423, 9509, 10638, 11566, 13439, 14435]}, u'edge': {u'target': [], u'time': []}}, u'mouseout': {u'state': {u'target': [], u'time': []}, u'edge': {u'target': [], u'time': []}}}","[4, 8, 24]","[16036, 354, 239]",25.0,"[None, None, None]","[u'', 2, 4, 24, -24, 4, 8, -48, 24, 4, -8, -24, 24]",349176,5.0,19203.0,8.9509461883e+18,mouselab-mdp,8
"[12073, 12800, 13607]","[u'up', u'up', u'right']",training,"[u'0', u'1', u'2', u'3']","{u'mouseover': {u'state': {u'target': [], u'time': []}, u'edge': {u'target': [], u'time': []}}, u'click': {u'state': {u'target': [u'12', u'8', u'7', u'3', u'4', u'11', u'2', u'1', u'10', u'9'], u'time': [1650, 2807, 3608, 4534, 5381, 6165, 7042, 7967, 8855, 9663]}, u'edge': {u'target': [], u'time': []}}, u'mouseout': {u'state': {u'target': [], u'time': []}, u'edge': {u'target': [], u'time': []}}}","[-4, 4, 48]","[12066, 209, 283]",38.0,"[None, None, None]","[u'', -4, 4, 48, -48, -4, 4, -24, 24, -4, -8, 24, 24]",365280,6.0,15033.0,-5.99530113684e+18,mouselab-mdp,8
"[13132, 13876, 14636]","[u'left', u'left', u'up']",training,"[u'0', u'9', u'10', u'11']","{u'mouseover': {u'state': {u'target': [], u'time': []}, u'edge': {u'target': [], u'time': []}}, u'click': {u'state': {u'target': [u'8', u'7', u'3', u'4', u'11', u'12', u'10', u'6', u'9', u'5'], u'time': [1622, 2547, 3669, 4446, 5141, 6614, 8206, 9407, 10371, 11650]}, u'edge': {u'target': [], u'time': []}}, u'mouseout': {u'state': {u'target': [], u'time': []}, u'edge': {u'target': [], u'time': []}}}","[-2, 8, 48]","[13126, 235, 245]",44.0,"[None, None, None]","[u'', 4, -4, -48, -48, 4, 8, 24, -24, -2, 8, 48, -48]",382254,7.0,15899.0,-6.97855305918e+18,mouselab-mdp,8
"[15159, 16079, 16887]","[u'up', u'up', u'right']",training,"[u'0', u'1', u'2', u'3']","{u'mouseover': {u'state': {u'target': [], u'time': []}, u'edge': {u'target': [], u'time': []}}, u'click': {u'state': {u'target': [u'8', u'12', u'11', u'7', u'3', u'4', u'6', u'10', u'2', u'1', u'5'], u'time': [1257, 2572, 3702, 4618, 5400, 6221, 8079, 9096, 9888, 12209, 13524]}, u'edge': {u'target': [], u'time': []}}, u'mouseout': {u'state': {u'target': [], u'time': []}, u'edge': {u'target': [], u'time': []}}}","[-2, 4, 24]","[15153, 406, 282]",15.0,"[None, None, None]","[u'', -2, 4, 24, -24, -4, 4, -24, 24, -4, -8, -24, 24]",401311,8.0,17983.0,-3.14224207546e+18,mouselab-mdp,8
"[9967, 10726, 12078]","[u'right', u'right', u'up']",training,"[u'0', u'5', u'6', u'7']","{u'mouseover': {u'state': {u'target': [], u'time': []}, u'edge': {u'target': [], u'time': []}}, u'click': {u'state': {u'target': [u'8', u'7', u'3', u'4', u'11', u'12', u'5'], u'time': [1066, 1857, 2571, 3260, 3842, 4493, 6940]}, u'edge': {u'target': [], u'time': []}}, u'mouseout': {u'state': {u'target': [], u'time': []}, u'edge': {u'target': [], u'time': []}}}","[4, 8, 48]","[9961, 247, 837]",53.0,"[None, None, None]","[u'', -2, -8, -24, -24, 4, 8, 48, 24, -2, 8, -24, -48]",417423,9.0,14998.0,4.07975241014e+18,mouselab-mdp,8
"[34601, 35497, 36737]","[u'left', u'left', u'down']",training,"[u'0', u'9', u'10', u'12']","{u'mouseover': {u'state': {u'target': [], u'time': []}, u'edge': {u'target': [], u'time': []}}, u'click': {u'state': {u'target': [u'8', u'7', u'3', u'4', u'11', u'12', u'5', u'6', u'10'], u'time': [1016, 2249, 21633, 22499, 23462, 25117, 29519, 30270, 31986]}, u'edge': {u'target': [], u'time': []}}, u'mouseout': {u'state': {u'target': [], u'time': []}, u'edge': {u'target': [], u'time': []}}}","[-4, 8, 48]","[34594, 375, 717]",43.0,"[None, None, None]","[u'', -4, 4, 24, 24, -2, -4, 48, -24, -4, 8, -48, 48]",456453,10.0,37953.0,-4.8746661358e+18,mouselab-mdp,8
"[4249, 5886, 7605, 9670, 12029]","[u'right', u'right', u'right', u'up', u'right']",pre_test,"[u'0', u'12', u'13', u'14', u'15', u'17']","{u'mouseover': {u'state': {u'target': [], u'time': []}, u'edge': {u'target': [], u'time': []}}, u'click': {u'state': {u'target': [], u'time': []}, u'edge': {u'target': [], u'time': []}}, u'mouseout': {u'state': {u'target': [], u'time': []}, u'edge': {u'target': [], u'time': []}}}","[1, -2, 0, 7, -39]","[4221, 1103, 1171, 1523, 1816]",-33.0,"[None, None, None, None, None]","[u'', 0, 0, 4, 4, -39, 45, 32, 1, 5, 43, 53, 1, -2, 0, 7, -27, -39, 0, 1, 12, 39, -70, 0, 0, 0, 1, 33, 18, -1, 1, 3, -4, 42]",644653,0.0,14854.0,-6.00893554297e+18,mouselab-mdp,9
"[2123, 3993, 5666]","[u'left', u'left', u'up']",training,"[u'0', u'9', u'10', u'11']","{u'mouseover': {u'state': {u'target': [], u'time': []}, u'edge': {u'target': [], u'time': []}}, u'click': {u'state': {u'target': [], u'time': []}, u'edge': {u'target': [], u'time': []}}, u'mouseout': {u'state': {u'target': [], u'time': []}, u'edge': {u'target': [], u'time': []}}}","[-2, -8, -24]","[2118, 1344, 1149]",-34.0,"[None, None, None]","[u'', 4, -8, -48, -48, -4, 4, 24, 24, -2, -8, -24, 48]",668341,1.0,9890.0,-4.56949664606e+18,mouselab-mdp,9
"[12648, 13607, 14712]","[u'left', u'left', u'up']",training,"[u'0', u'9', u'10', u'11']","{u'mouseover': {u'state': {u'target': [], u'time': []}, u'edge': {u'target': [], u'time': []}}, u'click': {u'state': {u'target': [u'1', u'2', u'9', u'10', u'11'], u'time': [5928, 7107, 8293, 9071, 10365]}, u'edge': {u'target': [], u'time': []}}, u'mouseout': {u'state': {u'target': [], u'time': []}, u'edge': {u'target': [], u'time': []}}}","[4, 4, 48]","[12636, 425, 569]",51.0,"[None, None, None]","[u'', -4, 8, 48, -24, -2, -4, 24, -48, 4, 4, 48, -48]",689204,2.0,19711.0,7.26324481059e+18,mouselab-mdp,9
"[18817, 19737, 20505]","[u'left', u'left', u'up']",training,"[u'0', u'9', u'10', u'11']","{u'mouseover': {u'state': {u'target': [], u'time': []}, u'edge': {u'target': [], u'time': []}}, u'click': {u'state': {u'target': [u'9', u'5', u'10', u'6', u'1', u'2', u'4', u'3', u'11', u'12', u'7', u'8'], u'time': [2958, 3896, 5076, 6302, 8176, 8838, 9871, 10649, 12058, 13062, 15830, 17185]}, u'edge': {u'target': [], u'time': []}}, u'mouseout': {u'state': {u'target': [], u'time': []}, u'edge': {u'target': [], u'time': []}}}","[4, -8, 48]","[18808, 401, 233]",32.0,"[None, None, None]","[u'', -4, 4, -24, -24, -4, -8, 24, -24, 4, -8, 48, -48]",714163,3.0,23832.0,4.60924718032e+17,mouselab-mdp,9
"[17001, 18504, 20112]","[u'left', u'left', u'up']",training,"[u'0', u'9', u'10', u'11']","{u'mouseover': {u'state': {u'target': [], u'time': []}, u'edge': {u'target': [], u'time': []}}, u'click': {u'state': {u'target': [u'9', u'5', u'10', u'6', u'11', u'7', u'8', u'12', u'1', u'2', u'3', u'4'], u'time': [4367, 5255, 6298, 7247, 8439, 9380, 10184, 11136, 12359, 13070, 13584, 14558]}, u'edge': {u'target': [], u'time': []}}, u'mouseout': {u'state': {u'target': [], u'time': []}, u'edge': {u'target': [], u'time': []}}}","[4, -8, 48]","[16986, 969, 1077]",32.0,"[None, None, None]","[u'', 4, -4, -24, 24, 2, 4, -24, -48, 4, -8, 48, -48]",737897,4.0,22583.0,4.25168764169e+18,mouselab-mdp,9
"[12582, 13757, 14950]","[u'left', u'left', u'down']",training,"[u'0', u'9', u'10', u'12']","{u'mouseover': {u'state': {u'target': [], u'time': []}, u'edge': {u'target': [], u'time': []}}, u'click': {u'state': {u'target': [u'9', u'5', u'10', u'6', u'11', u'12', u'8', u'7'], u'time': [2557, 3280, 4101, 5123, 6349, 7946, 9113, 9754]}, u'edge': {u'target': [], u'time': []}}, u'mouseout': {u'state': {u'target': [], u'time': []}, u'edge': {u'target': [], u'time': []}}}","[4, 8, 48]","[12578, 641, 667]",52.0,"[None, None, None]","[u'', -2, -4, 48, -48, 2, 4, -48, 24, 4, 8, -48, 48]",756499,5.0,17534.0,-2.81709899867e+18,mouselab-mdp,9
"[19113, 20712, 22462]","[u'right', u'right', u'up']",training,"[u'0', u'5', u'6', u'7']","{u'mouseover': {u'state': {u'target': [], u'time': []}, u'edge': {u'target': [], u'time': []}}, u'click': {u'state': {u'target': [u'9', u'5', u'10', u'6', u'11', u'7', u'12', u'8', u'4', u'2', u'3', u'1'], u'time': [3612, 4469, 5339, 6286, 7262, 8182, 11146, 12143, 14950, 15516, 16081, 16867]}, u'edge': {u'target': [], u'time': []}}, u'mouseout': {u'state': {u'target': [], u'time': []}, u'edge': {u'target': [], u'time': []}}}","[-4, 4, 48]","[19100, 1066, 1218]",36.0,"[None, None, None]","[u'', 2, -4, 24, -48, -4, 4, 48, 48, 4, 4, -48, -24]",783289,6.0,25670.0,1.70803683189e+18,mouselab-mdp,9
"[20579, 21581, 22452]","[u'right', u'right', u'down']",training,"[u'0', u'5', u'6', u'8']","{u'mouseover': {u'state': {u'target': [], u'time': []}, u'edge': {u'target': [], u'time': []}}, u'click': {u'state': {u'target': [u'9', u'5', u'10', u'6', u'1', u'2', u'4', u'3', u'7', u'8', u'12', u'11'], u'time': [4423, 5108, 5842, 6882, 9658, 10632, 13253, 13880, 14736, 15618, 16700, 17413]}, u'edge': {u'target': [], u'time': []}}, u'mouseout': {u'state': {u'target': [], u'time': []}, u'edge': {u'target': [], u'time': []}}}","[-2, 8, 48]","[20574, 472, 345]",42.0,"[None, None, None]","[u'', 2, -4, 24, -24, -2, 8, 24, 48, 4, -4, 48, 48]",810804,7.0,26430.0,5.2467434854e+18,mouselab-mdp,9
"[13345, 14503, 15551]","[u'up', u'up', u'left']",training,"[u'0', u'1', u'2', u'4']","{u'mouseover': {u'state': {u'target': [], u'time': []}, u'edge': {u'target': [], u'time': []}}, u'click': {u'state': {u'target': [u'9', u'5', u'10', u'11', u'12', u'8', u'6', u'7', u'1', u'2', u'4', u'3'], u'time': [1246, 2029, 2940, 3576, 4462, 5506, 6128, 6893, 9959, 10486, 11211, 12011]}, u'edge': {u'target': [], u'time': []}}, u'mouseout': {u'state': {u'target': [], u'time': []}, u'edge': {u'target': [], u'time': []}}}","[4, 4, 48]","[13334, 629, 528]",44.0,"[None, None, None]","[u'', 4, 4, -48, 48, 4, 4, -24, -24, 2, -8, 48, -24]",830416,8.0,18479.0,3.80267392762e+18,mouselab-mdp,9
"[15393, 16601, 17721]","[u'right', u'right', u'down']",training,"[u'0', u'5', u'6', u'8']","{u'mouseover': {u'state': {u'target': [], u'time': []}, u'edge': {u'target': [], u'time': []}}, u'click': {u'state': {u'target': [u'9', u'5', u'10', u'6', u'7', u'8', u'12', u'11', u'4', u'2', u'3', u'1'], u'time': [2104, 3061, 4007, 4843, 6446, 7438, 8796, 9569, 10554, 11182, 11702, 12629]}, u'edge': {u'target': [], u'time': []}}, u'mouseout': {u'state': {u'target': [], u'time': []}, u'edge': {u'target': [], u'time': []}}}","[-2, 8, 48]","[15372, 677, 596]",42.0,"[None, None, None]","[u'', -4, -8, 24, -24, -2, 8, 24, 48, 4, -4, 24, -48]",851776,9.0,20224.0,-1.10044903072e+18,mouselab-mdp,9
"[15598, 16668, 17700]","[u'right', u'right', u'down']",training,"[u'0', u'5', u'6', u'8']","{u'mouseover': {u'state': {u'target': [], u'time': []}, u'edge': {u'target': [], u'time': []}}, u'click': {u'state': {u'target': [u'12', u'10', u'11', u'9', u'5', u'6', u'7', u'8', u'3', u'2', u'4', u'1'], u'time': [2596, 3151, 3830, 4489, 5127, 5817, 6525, 7172, 7965, 8595, 9269, 10100]}, u'edge': {u'target': [], u'time': []}}, u'mouseout': {u'state': {u'target': [], u'time': []}, u'edge': {u'target': [], u'time': []}}}","[-4, -8, 48]","[15581, 543, 506]",24.0,"[None, None, None]","[u'', 4, 8, -24, -24, -4, -8, -48, 48, 2, -8, -24, -48]",872456,10.0,19539.0,2.63044322054e+18,mouselab-mdp,9
"[33432, 34808, 35695, 43397, 48691]","[u'left', u'left', u'left', u'up', u'left']",pre_test,"[u'0', u'23', u'24', u'25', u'26', u'29']","{u'mouseover': {u'state': {u'target': [], u'time': []}, u'edge': {u'target': [], u'time': []}}, u'click': {u'state': {u'target': [u'12', u'1', u'23', u'24', u'2', u'13', u'3', u'8', u'4', u'14', u'25'], u'time': [8970, 10655, 11593, 12521, 13339, 14234, 19082, 22238, 22968, 28903, 30244]}, u'edge': {u'target': [], u'time': []}}, u'mouseout': {u'state': {u'target': [], u'time': []}, u'edge': {u'target': [], u'time': []}}}","[0, 0, 5, -7, 6]","[33417, 854, 365, 7185, 4778]",-7.0,"[None, None, None, None, None]","[u'', -1, 1, 4, -7, 8, 35, -12, -11, 2, 51, -29, 0, -2, -1, 2, 47, -23, -23, -7, -35, -49, -27, 0, 0, 5, -7, -25, -24, 6, -1, 25, -25, 29]",155519,0.0,57816.0,-6.34024467263e+18,mouselab-mdp,10
"[25731, 30674, 31890]","[u'left', u'left', u'up']",training,"[u'0', u'9', u'10', u'11']","{u'mouseover': {u'state': {u'target': [], u'time': []}, u'edge': {u'target': [], u'time': []}}, u'click': {u'state': {u'target': [u'5', u'11', u'8', u'10', u'9'], u'time': [7367, 11417, 17919, 18776, 23439]}, u'edge': {u'target': [], u'time': []}}, u'mouseout': {u'state': {u'target': [], u'time': []}, u'edge': {u'target': [], u'time': []}}}","[-2, -4, 48]","[25722, 429, 698]",37.0,"[None, None, None]","[u'', -2, 4, -48, -24, 2, 4, 24, 24, -2, -4, 48, -24]",223149,1.0,34418.0,7.45732429498e+18,mouselab-mdp,10
"[13464, 14087, 14864]","[u'left', u'left', u'down']",training,"[u'0', u'9', u'10', u'12']","{u'mouseover': {u'state': {u'target': [], u'time': []}, u'edge': {u'target': [], u'time': []}}, u'click': {u'state': {u'target': [u'11', u'12', u'8', u'7', u'9', u'10'], u'time': [4944, 6391, 7822, 8771, 10297, 11159]}, u'edge': {u'target': [], u'time': []}}, u'mouseout': {u'state': {u'target': [], u'time': []}, u'edge': {u'target': [], u'time': []}}}","[-4, 4, 48]","[13458, 112, 257]",42.0,"[None, None, None]","[u'', -4, 4, 24, 24, 2, 8, -24, 24, -4, 4, -24, 48]",243198,2.0,18977.0,5.34744023932e+18,mouselab-mdp,10
"[12026, 12633, 13169]","[u'up', u'up', u'left']",training,"[u'0', u'1', u'2', u'4']","{u'mouseover': {u'state': {u'target': [], u'time': []}, u'edge': {u'target': [], u'time': []}}, u'click': {u'state': {u'target': [u'3', u'4', u'11', u'12', u'8', u'7', u'2', u'1'], u'time': [2447, 3723, 4742, 5786, 6580, 7325, 9268, 9895]}, u'edge': {u'target': [], u'time': []}}, u'mouseout': {u'state': {u'target': [], u'time': []}, u'edge': {u'target': [], u'time': []}}}","[2, -4, 24]","[12019, 88, 26]",14.0,"[None, None, None]","[u'', 2, -4, 24, 24, -4, 4, -24, -24, -2, 4, -24, -48]",259588,3.0,15313.0,7.86254308938e+18,mouselab-mdp,10
"[11576, 12136, 13055]","[u'left', u'left', u'down']",training,"[u'0', u'9', u'10', u'12']","{u'mouseover': {u'state': {u'target': [], u'time': []}, u'edge': {u'target': [], u'time': []}}, u'click': {u'state': {u'target': [u'12', u'11', u'4', u'3', u'8', u'7', u'10', u'9'], u'time': [4490, 5365, 6564, 7061, 8204, 8958, 9971, 10766]}, u'edge': {u'target': [], u'time': []}}, u'mouseout': {u'state': {u'target': [], u'time': []}, u'edge': {u'target': [], u'time': []}}}","[-4, 4, 48]","[11571, 40, 409]",40.0,"[None, None, None]","[u'', 2, -4, 24, -48, -4, -8, -48, -48, -4, 4, -48, 48]",276043,4.0,15392.0,2.1183359843e+18,mouselab-mdp,10
"[8117, 8684, 9200]","[u'left', u'left', u'down']",training,"[u'0', u'9', u'10', u'12']","{u'mouseover': {u'state': {u'target': [], u'time': []}, u'edge': {u'target': [], u'time': []}}, u'click': {u'state': {u'target': [u'11', u'12', u'4', u'3', u'10', u'9'], u'time': [2189, 3042, 4380, 5784, 6723, 7326]}, u'edge': {u'target': [], u'time': []}}, u'mouseout': {u'state': {u'target': [], u'time': []}, u'edge': {u'target': [], u'time': []}}}","[-4, 8, 48]","[8109, 52, 1]",46.0,"[None, None, None]","[u'', 2, 4, 24, -24, 4, -8, 48, -24, -4, 8, -48, 48]",287970,5.0,10836.0,5.01038116734e+18,mouselab-mdp,10
"[14619, 15297, 15865]","[u'up', u'up', u'left']",training,"[u'0', u'1', u'2', u'4']","{u'mouseover': {u'state': {u'target': [], u'time': []}, u'edge': {u'target': [], u'time': []}}, u'click': {u'state': {u'target': [u'8', u'12', u'11', u'4', u'3', u'2', u'1', u'7'], u'time': [2019, 3222, 4148, 5027, 6399, 7877, 11842, 13382]}, u'edge': {u'target': [], u'time': []}}, u'mouseout': {u'state': {u'target': [], u'time': []}, u'edge': {u'target': [], u'time': []}}}","[-2, -8, 48]","[14612, 157, 59]",30.0,"[None, None, None]","[u'', -2, -8, 24, 48, -2, 8, -24, -24, -2, -4, 24, -24]",308323,6.0,19274.0,-3.60340228201e+18,mouselab-mdp,10
"[16359, 17197, 17845]","[u'left', u'left', u'down']",training,"[u'0', u'9', u'10', u'12']","{u'mouseover': {u'state': {u'target': [], u'time': []}, u'edge': {u'target': [], u'time': []}}, u'click': {u'state': {u'target': [u'12', u'11', u'4', u'3', u'7', u'8', u'10'], u'time': [2868, 3797, 4455, 5063, 8834, 13413, 14073]}, u'edge': {u'target': [], u'time': []}}, u'mouseout': {u'state': {u'target': [], u'time': []}, u'edge': {u'target': [], u'time': []}}}","[4, 8, 48]","[16353, 313, 131]",53.0,"[None, None, None]","[u'', -2, -4, 48, -48, 2, 4, -48, 24, 4, 8, -48, 48]",330250,7.0,20862.0,-2.81709899867e+18,mouselab-mdp,10
"[9944, 10567, 11119]","[u'left', u'left', u'up']",training,"[u'0', u'9', u'10', u'11']","{u'mouseover': {u'state': {u'target': [], u'time': []}, u'edge': {u'target': [], u'time': []}}, u'click': {u'state': {u'target': [u'12', u'11', u'4', u'3', u'8', u'7'], u'time': [2821, 4104, 5144, 6027, 7477, 8153]}, u'edge': {u'target': [], u'time': []}}, u'mouseout': {u'state': {u'target': [], u'time': []}, u'edge': {u'target': [], u'time': []}}}","[-2, 8, 24]","[9934, 115, 33]",24.0,"[None, None, None]","[u'', 2, 4, -24, -48, -2, -4, -24, -24, -2, 8, 24, -24]",344793,8.0,13463.0,1.18238643611e+16,mouselab-mdp,10
"[16765, 17804, 18380]","[u'right', u'right', u'up']",training,"[u'0', u'5', u'6', u'7']","{u'mouseover': {u'state': {u'target': [], u'time': []}, u'edge': {u'target': [], u'time': []}}, u'click': {u'state': {u'target': [u'12', u'11', u'10', u'9', u'4', u'3', u'7', u'8', u'6', u'5'], u'time': [1514, 3183, 5695, 10029, 10235, 10812, 11569, 13386, 14640, 16218]}, u'edge': {u'target': [], u'time': []}}, u'mouseout': {u'state': {u'target': [], u'time': []}, u'edge': {u'target': [], u'time': []}}}","[-2, 4, 48]","[16760, 524, 69]",40.0,"[None, None, None]","[u'', -4, 4, 24, -24, -2, 4, 48, -24, -4, -8, -48, 48]",366104,9.0,20235.0,8.58865579534e+17,mouselab-mdp,10
"[16286, 17267, 17851]","[u'up', u'up', u'right']",training,"[u'0', u'1', u'2', u'3']","{u'mouseover': {u'state': {u'target': [], u'time': []}, u'edge': {u'target': [], u'time': []}}, u'click': {u'state': {u'target': [u'11', u'12', u'4', u'3', u'7', u'8', u'2', u'6', u'1'], u'time': [1068, 2632, 4002, 4732, 6607, 10499, 12729, 13706, 15349]}, u'edge': {u'target': [], u'time': []}}, u'mouseout': {u'state': {u'target': [], u'time': []}, u'edge': {u'target': [], u'time': []}}}","[4, 4, 48]","[16280, 475, 77]",47.0,"[None, None, None]","[u'', 4, 4, 48, -48, -2, -8, 48, -24, -4, -8, 24, -48]",386912,10.0,19723.0,-4.67008033733e+18,mouselab-mdp,10
"[728, 3977, 5679, 9973, 12665]","[u'left', u'left', u'left', u'up', u'right']",pre_test,"[u'0', u'23', u'24', u'25', u'26', u'28']","{u'mouseover': {u'state': {u'target': [], u'time': []}, u'edge': {u'target': [], u'time': []}}, u'click': {u'state': {u'target': [], u'time': []}, u'edge': {u'target': [], u'time': []}}, u'mouseout': {u'state': {u'target': [], u'time': []}, u'edge': {u'target': [], u'time': []}}}","[-1, 0, 5, -1, 6]","[712, 2740, 1182, 3779, 2182]",9.0,"[None, None, None, None, None]","[u'', -1, 1, 4, 8, -97, -52, 64, -2, -5, 37, 6, -1, 0, 8, -11, 42, -10, -9, 15, -21, 27, -12, -1, 0, 5, -1, 18, 6, 1, -3, 4, -65, -14]",180075,0.0,47679.0,6.45819709428e+18,mouselab-mdp,11
"[10810, 13195, 15981]","[u'left', u'left', u'up']",training,"[u'0', u'9', u'10', u'11']","{u'mouseover': {u'state': {u'target': [], u'time': []}, u'edge': {u'target': [], u'time': []}}, u'click': {u'state': {u'target': [], u'time': []}, u'edge': {u'target': [], u'time': []}}, u'mouseout': {u'state': {u'target': [], u'time': []}, u'edge': {u'target': [], u'time': []}}}","[-4, 4, 48]","[10801, 1870, 2276]",48.0,"[None, None, None]","[u'', -2, -4, 48, 24, 2, 4, -48, 48, -4, 4, 48, 24]",230298,1.0,29376.0,7.94655219151e+18,mouselab-mdp,11
"[13136, 14666, 15631]","[u'up', u'up', u'right']",training,"[u'0', u'1', u'2', u'3']","{u'mouseover': {u'state': {u'target': [], u'time': []}, u'edge': {u'target': [], u'time': []}}, u'click': {u'state': {u'target': [], u'time': []}, u'edge': {u'target': [], u'time': []}}, u'mouseout': {u'state': {u'target': [], u'time': []}, u'edge': {u'target': [], u'time': []}}}","[-4, 4, -24]","[13129, 1022, 454]",-24.0,"[None, None, None]","[u'', -4, 4, -24, -24, -4, -8, 24, -24, 4, -8, 48, -48]",249694,2.0,18275.0,4.60924718032e+17,mouselab-mdp,11
"[1410, 2834, 4460]","[u'right', u'right', u'up']",training,"[u'0', u'5', u'6', u'7']","{u'mouseover': {u'state': {u'target': [], u'time': []}, u'edge': {u'target': [], u'time': []}}, u'click': {u'state': {u'target': [], u'time': []}, u'edge': {u'target': [], u'time': []}}, u'mouseout': {u'state': {u'target': [], u'time': []}, u'edge': {u'target': [], u'time': []}}}","[2, 8, -24]","[1402, 922, 1126]",-14.0,"[None, None, None]","[u'', 2, 8, -48, -24, 2, 8, -24, -48, 4, -4, 24, -48]",262678,3.0,11904.0,4.95354184513e+17,mouselab-mdp,11
"[2068, 3320, 3996]","[u'left', u'left', u'up']",training,"[u'0', u'9', u'10', u'11']","{u'mouseover': {u'state': {u'target': [], u'time': []}, u'edge': {u'target': [], u'time': []}}, u'click': {u'state': {u'target': [], u'time': []}, u'edge': {u'target': [], u'time': []}}, u'mouseout': {u'state': {u'target': [], u'time': []}, u'edge': {u'target': [], u'time': []}}}","[4, -4, -48]","[2060, 735, 179]",-48.0,"[None, None, None]","[u'', -2, -4, 24, -48, -4, 8, -24, -24, 4, -4, -48, 24]",271189,4.0,7393.0,1.39930365593e+18,mouselab-mdp,11
"[835, 1500, 2339]","[u'up', u'up', u'left']",training,"[u'0', u'1', u'2', u'4']","{u'mouseover': {u'state': {u'target': [], u'time': []}, u'edge': {u'target': [], u'time': []}}, u'click': {u'state': {u'target': [], u'time': []}, u'edge': {u'target': [], u'time': []}}, u'mouseout': {u'state': {u'target': [], u'time': []}, u'edge': {u'target': [], u'time': []}}}","[-2, -4, -24]","[829, 164, 336]",-30.0,"[None, None, None]","[u'', -2, -4, 48, -24, 2, -4, 48, 24, -2, -8, -24, -24]",280508,5.0,8235.0,2.59386444745e+18,mouselab-mdp,11
"[129, 1050, 1636]","[u'left', u'left', u'down']",training,"[u'0', u'9', u'10', u'12']","{u'mouseover': {u'state': {u'target': [], u'time': []}, u'edge': {u'target': [], u'time': []}}, u'click': {u'state': {u'target': [], u'time': []}, u'edge': {u'target': [], u'time': []}}, u'mouseout': {u'state': {u'target': [], u'time': []}, u'edge': {u'target': [], u'time': []}}}","[-2, -4, 24]","[121, 417, 87]",18.0,"[None, None, None]","[u'', 4, 4, -48, 48, -2, 4, -48, -24, -2, -4, -48, 24]",289958,6.0,8334.0,-5.00680981918e+18,mouselab-mdp,11
"[579, 1204, 2290]","[u'right', u'right', u'down']",training,"[u'0', u'5', u'6', u'8']","{u'mouseover': {u'state': {u'target': [], u'time': []}, u'edge': {u'target': [], u'time': []}}, u'click': {u'state': {u'target': [], u'time': []}, u'edge': {u'target': [], u'time': []}}, u'mouseout': {u'state': {u'target': [], u'time': []}, u'edge': {u'target': [], u'time': []}}}","[2, 4, -48]","[574, 114, 585]",-42.0,"[None, None, None]","[u'', 4, -4, -24, 24, 2, 4, -24, -48, 4, -8, 48, -48]",299710,7.0,8659.0,4.25168764169e+18,mouselab-mdp,11
"[553, 1742, 2382]","[u'up', u'up', u'right']",training,"[u'0', u'1', u'2', u'3']","{u'mouseover': {u'state': {u'target': [], u'time': []}, u'edge': {u'target': [], u'time': []}}, u'click': {u'state': {u'target': [], u'time': []}, u'edge': {u'target': [], u'time': []}}, u'mouseout': {u'state': {u'target': [], u'time': []}, u'edge': {u'target': [], u'time': []}}}","[-4, 8, 48]","[546, 689, 129]",52.0,"[None, None, None]","[u'', -4, 8, 48, 24, 2, -8, -48, -24, -4, -4, 48, -24]",310253,8.0,9434.0,3.41976950562e+18,mouselab-mdp,11
"[1210, 1876, 2779]","[u'up', u'up', u'left']",training,"[u'0', u'1', u'2', u'4']","{u'mouseover': {u'state': {u'target': [], u'time': []}, u'edge': {u'target': [], u'time': []}}, u'click': {u'state': {u'target': [], u'time': []}, u'edge': {u'target': [], u'time': []}}, u'mouseout': {u'state': {u'target': [], u'time': []}, u'edge': {u'target': [], u'time': []}}}","[2, -4, -48]","[1201, 154, 405]",-50.0,"[None, None, None]","[u'', 2, -4, 24, -48, -2, -8, 24, -48, 2, 4, 24, -48]",322789,9.0,11455.0,2.65301876191e+18,mouselab-mdp,11
"[783, 1720, 2551]","[u'right', u'right', u'up']",training,"[u'0', u'5', u'6', u'7']","{u'mouseover': {u'state': {u'target': [], u'time': []}, u'edge': {u'target': [], u'time': []}}, u'click': {u'state': {u'target': [], u'time': []}, u'edge': {u'target': [], u'time': []}}, u'mouseout': {u'state': {u'target': [], u'time': []}, u'edge': {u'target': [], u'time': []}}}","[-4, -4, 48]","[776, 436, 329]",40.0,"[None, None, None]","[u'', -4, -8, -48, -48, -4, -4, 48, 24, 4, 4, 48, -48]",335166,10.0,11262.0,-9.06308480017e+18,mouselab-mdp,11
"[31530, 38943, 47113, 52074, 53217]","[u'up', u'up', u'up', u'right', u'down']",pre_test,"[u'0', u'1', u'2', u'3', u'4', u'7']","{u'mouseover': {u'state': {u'target': [], u'time': []}, u'edge': {u'target': [], u'time': []}}, u'click': {u'state': {u'target': [u'1', u'2', u'7', u'10', u'12', u'13', u'14', u'15', u'16', u'22', u'18', u'23', u'24', u'28', u'26', u'25', u'30', u'32', u'21', u'9', u'5', u'29', u'33', u'31', u'27'], u'time': [3461, 4920, 5724, 6446, 7259, 7815, 8395, 8882, 9273, 12322, 12875, 14034, 14473, 14980, 15460, 16410, 16882, 17402, 18182, 19122, 19693, 20476, 21013, 21970, 22944]}, u'edge': {u'target': [], u'time': []}}, u'mouseout': {u'state': {u'target': [], u'time': []}, u'edge': {u'target': [], u'time': []}}}","[0, -3, 1, -2, 2]","[31477, 6910, 7663, 4458, 629]",-27.0,"[None, None, None, None, None]","[u'', 0, -3, 1, -2, -24, 51, 2, 0, -8, -13, 6, 0, 6, -4, 1, -15, -22, -21, 0, 30, 38, 22, 0, 4, 7, 14, -15, 20, 23, 5, 18, 18, -10]",237011,0.0,61721.0,-7.86346020655e+18,mouselab-mdp,12
"[16367, 71959, 75611]","[u'right', u'right', u'down']",training,"[u'0', u'5', u'6', u'8']","{u'mouseover': {u'state': {u'target': [], u'time': []}, u'edge': {u'target': [], u'time': []}}, u'click': {u'state': {u'target': [u'9'], u'time': [5437]}, u'edge': {u'target': [], u'time': []}}, u'mouseout': {u'state': {u'target': [], u'time': []}, u'edge': {u'target': [], u'time': []}}}","[-4, 4, 24]","[16358, 14024, 3117]",23.0,"[None, None, None]","[u'', -2, 4, 24, -24, -4, 4, -24, 24, -4, -8, -24, 24]",333056,1.0,78832.0,-3.14224207546e+18,mouselab-mdp,12
"[37371, 59737, 66001]","[u'right', u'right', u'down']",training,"[u'0', u'5', u'6', u'8']","{u'mouseover': {u'state': {u'target': [], u'time': []}, u'edge': {u'target': [], u'time': []}}, u'click': {u'state': {u'target': [u'3', u'7', u'2'], u'time': [9043, 15080, 26502]}, u'edge': {u'target': [], u'time': []}}, u'mouseout': {u'state': {u'target': [], u'time': []}, u'edge': {u'target': [], u'time': []}}}","[2, 4, 24]","[37364, 4848, 5752]",27.0,"[None, None, None]","[u'', -2, 4, -48, -24, 2, 4, 24, 24, -2, -4, 48, -24]",404533,2.0,70374.0,7.45732429498e+18,mouselab-mdp,12
"[26619, 27544, 29398]","[u'right', u'right', u'up']",training,"[u'0', u'5', u'6', u'7']","{u'mouseover': {u'state': {u'target': [], u'time': []}, u'edge': {u'target': [], u'time': []}}, u'click': {u'state': {u'target': [u'4', u'3', u'7', u'8'], u'time': [12533, 14517, 15787, 17514]}, u'edge': {u'target': [], u'time': []}}, u'mouseout': {u'state': {u'target': [], u'time': []}, u'edge': {u'target': [], u'time': []}}}","[-4, -4, 48]","[26612, 414, 1339]",36.0,"[None, None, None]","[u'', -4, -8, -48, -48, -4, -4, 48, 24, 4, 4, 48, -48]",437066,3.0,31425.0,-9.06308480017e+18,mouselab-mdp,12
"[20635, 21223, 22608]","[u'up', u'up', u'right']",training,"[u'0', u'1', u'2', u'3']","{u'mouseover': {u'state': {u'target': [], u'time': []}, u'edge': {u'target': [], u'time': []}}, u'click': {u'state': {u'target': [u'4', u'3', u'7', u'8', u'6'], u'time': [3125, 3959, 4671, 8747, 13475]}, u'edge': {u'target': [], u'time': []}}, u'mouseout': {u'state': {u'target': [], u'time': []}, u'edge': {u'target': [], u'time': []}}}","[4, 4, 48]","[20628, 87, 870]",51.0,"[None, None, None]","[u'', 4, 4, 48, -48, -2, -8, 48, -24, -4, -8, 24, -48]",462674,4.0,24512.0,-4.67008033733e+18,mouselab-mdp,12
"[13656, 28533, 32142]","[u'right', u'right', u'up']",training,"[u'0', u'5', u'6', u'7']","{u'mouseover': {u'state': {u'target': [], u'time': []}, u'edge': {u'target': [], u'time': []}}, u'click': {u'state': {u'target': [u'4', u'3', u'7', u'8'], u'time': [2346, 3081, 3727, 4702]}, u'edge': {u'target': [], u'time': []}}, u'mouseout': {u'state': {u'target': [], u'time': []}, u'edge': {u'target': [], u'time': []}}}","[-4, -8, -48]","[13645, 3358, 3094]",-64.0,"[None, None, None]","[u'', 2, -4, 24, -48, -4, -8, -48, -48, -4, 4, -48, 48]",498454,5.0,34656.0,2.1183359843e+18,mouselab-mdp,12
"[9304, 9988, 11844]","[u'right', u'right', u'up']",training,"[u'0', u'5', u'6', u'7']","{u'mouseover': {u'state': {u'target': [], u'time': []}, u'edge': {u'target': [], u'time': []}}, u'click': {u'state': {u'target': [u'12', u'11', u'4', u'3', u'7', u'8'], u'time': [1723, 2367, 3095, 3808, 5151, 6996]}, u'edge': {u'target': [], u'time': []}}, u'mouseout': {u'state': {u'target': [], u'time': []}, u'edge': {u'target': [], u'time': []}}}","[-4, 8, 48]","[9296, 170, 1356]",46.0,"[None, None, None]","[u'', -2, 8, -24, 24, -4, 8, 48, 24, -2, -4, 24, -48]",512893,6.0,13357.0,2.56147591953e+18,mouselab-mdp,12
"[12500, 13350, 15343]","[u'up', u'up', u'right']",training,"[u'0', u'1', u'2', u'3']","{u'mouseover': {u'state': {u'target': [], u'time': []}, u'edge': {u'target': [], u'time': []}}, u'click': {u'state': {u'target': [u'12', u'11', u'4', u'3', u'7', u'8'], u'time': [1144, 2340, 3689, 4370, 4965, 5624]}, u'edge': {u'target': [], u'time': []}}, u'mouseout': {u'state': {u'target': [], u'time': []}, u'edge': {u'target': [], u'time': []}}}","[2, 8, 24]","[12489, 334, 1501]",28.0,"[None, None, None]","[u'', 2, 8, 24, -24, 2, -8, -24, -24, 4, -8, 48, 48]",531370,7.0,17338.0,-3.20049588135e+18,mouselab-mdp,12
"[17030, 17730, 19700]","[u'up', u'up', u'right']",training,"[u'0', u'1', u'2', u'3']","{u'mouseover': {u'state': {u'target': [], u'time': []}, u'edge': {u'target': [], u'time': []}}, u'click': {u'state': {u'target': [u'12', u'11', u'4', u'3', u'7', u'8'], u'time': [1841, 2385, 2856, 3360, 3947, 4550]}, u'edge': {u'target': [], u'time': []}}, u'mouseout': {u'state': {u'target': [], u'time': []}, u'edge': {u'target': [], u'time': []}}}","[-4, 4, 24]","[17017, 180, 1464]",18.0,"[None, None, None]","[u'', -4, 4, 24, 24, 2, 8, -24, 24, -4, 4, -24, 48]",553756,8.0,21289.0,5.34744023932e+18,mouselab-mdp,12
"[20790, 32671, 33714]","[u'up', u'up', u'left']",training,"[u'0', u'1', u'2', u'4']","{u'mouseover': {u'state': {u'target': [], u'time': []}, u'edge': {u'target': [], u'time': []}}, u'click': {u'state': {u'target': [u'12', u'11', u'4', u'3', u'7', u'8'], u'time': [2174, 3374, 3925, 4545, 5117, 5700]}, u'edge': {u'target': [], u'time': []}}, u'mouseout': {u'state': {u'target': [], u'time': []}, u'edge': {u'target': [], u'time': []}}}","[4, -4, 24]","[20776, 7376, 535]",18.0,"[None, None, None]","[u'', 4, -4, -48, 24, -2, -4, 24, 48, 4, -4, 48, -48]",591237,9.0,36174.0,3.20588371627e+17,mouselab-mdp,12
"[23506, 24240, 25620]","[u'right', u'right', u'down']",training,"[u'0', u'5', u'6', u'8']","{u'mouseover': {u'state': {u'target': [], u'time': []}, u'edge': {u'target': [], u'time': []}}, u'click': {u'state': {u'target': [u'10', u'12', u'4', u'3', u'7', u'8'], u'time': [5235, 11250, 16525, 17421, 17938, 21518]}, u'edge': {u'target': [], u'time': []}}, u'mouseout': {u'state': {u'target': [], u'time': []}, u'edge': {u'target': [], u'time': []}}}","[-4, -8, 48]","[23500, 238, 875]",30.0,"[None, None, None]","[u'', 4, 8, -24, -24, -4, -8, -48, 48, 2, -8, -24, -48]",619176,10.0,26833.0,2.63044322054e+18,mouselab-mdp,12
"[15945, 17197, 18122, 19285, 20641]","[u'left', u'left', u'left', u'up', u'up']",pre_test,"[u'0', u'23', u'24', u'25', u'26', u'27']","{u'mouseover': {u'state': {u'target': [], u'time': []}, u'edge': {u'target': [], u'time': []}}, u'click': {u'state': {u'target': [u'1', u'12', u'23', u'24', u'25'], u'time': [6573, 8261, 9128, 12192, 12999]}, u'edge': {u'target': [], u'time': []}}, u'mouseout': {u'state': {u'target': [], u'time': []}, u'edge': {u'target': [], u'time': []}}}","[1, 0, 9, -3, 25]","[15938, 753, 413, 642, 847]",27.0,"[None, None, None, None, None]","[u'', 0, 2, 1, 5, 2, 47, -64, 3, -10, -31, -26, -1, 1, -4, -1, 9, -37, 36, 19, -22, 29, -10, 1, 0, 9, -3, 25, 19, -35, -17, 19, 27, -17]",128906,0.0,24793.0,7.71696205605e+18,mouselab-mdp,13
"[8060, 8894, 9734]","[u'up', u'up', u'right']",training,"[u'0', u'1', u'2', u'3']","{u'mouseover': {u'state': {u'target': [], u'time': []}, u'edge': {u'target': [], u'time': []}}, u'click': {u'state': {u'target': [u'6', u'7', u'8', u'12', u'11', u'4', u'3'], u'time': [1092, 1965, 2895, 3869, 5669, 6271, 6665]}, u'edge': {u'target': [], u'time': []}}, u'mouseout': {u'state': {u'target': [], u'time': []}, u'edge': {u'target': [], u'time': []}}}","[-2, -4, 48]","[8058, 335, 327]",35.0,"[None, None, None]","[u'', -2, -4, 48, -48, 2, 4, -48, 24, 4, 8, -48, 48]",162934,1.0,11470.0,-2.81709899867e+18,mouselab-mdp,13
"[8465, 9147, 9780]","[u'left', u'left', u'down']",training,"[u'0', u'9', u'10', u'12']","{u'mouseover': {u'state': {u'target': [], u'time': []}, u'edge': {u'target': [], u'time': []}}, u'click': {u'state': {u'target': [u'8', u'7', u'11', u'12', u'4', u'3', u'9', u'10'], u'time': [1289, 1786, 2635, 3142, 4106, 4858, 5681, 6041]}, u'edge': {u'target': [], u'time': []}}, u'mouseout': {u'state': {u'target': [], u'time': []}, u'edge': {u'target': [], u'time': []}}}","[4, -8, 48]","[8463, 169, 117]",36.0,"[None, None, None]","[u'', 2, 8, 24, -24, 2, -8, -24, -24, 4, -8, 48, 48]",175490,2.0,11518.0,-3.20049588135e+18,mouselab-mdp,13
"[5401, 6119, 6875]","[u'left', u'left', u'down']",training,"[u'0', u'9', u'10', u'12']","{u'mouseover': {u'state': {u'target': [], u'time': []}, u'edge': {u'target': [], u'time': []}}, u'click': {u'state': {u'target': [u'12', u'11', u'4', u'3', u'7', u'8'], u'time': [1135, 1549, 2043, 2927, 3484, 4113]}, u'edge': {u'target': [], u'time': []}}, u'mouseout': {u'state': {u'target': [], u'time': []}, u'edge': {u'target': [], u'time': []}}}","[2, 4, 24]","[5398, 199, 237]",24.0,"[None, None, None]","[u'', -2, -4, -48, -48, 2, -8, -24, -24, 2, 4, 24, 24]",185432,3.0,8906.0,-7.65696612779e+18,mouselab-mdp,13
"[8661, 9311, 9925]","[u'right', u'right', u'down']",training,"[u'0', u'5', u'6', u'8']","{u'mouseover': {u'state': {u'target': [], u'time': []}, u'edge': {u'target': [], u'time': []}}, u'click': {u'state': {u'target': [u'11', u'12', u'4', u'3', u'7', u'8', u'6', u'5'], u'time': [948, 1608, 2268, 2712, 3253, 3683, 6945, 7375]}, u'edge': {u'target': [], u'time': []}}, u'mouseout': {u'state': {u'target': [], u'time': []}, u'edge': {u'target': [], u'time': []}}}","[4, 8, 24]","[8659, 138, 104]",28.0,"[None, None, None]","[u'', 2, 4, 24, -24, 4, 8, -48, 24, 4, -8, -24, 24]",197767,4.0,11297.0,8.9509461883e+18,mouselab-mdp,13
"[5844, 6510, 7198]","[u'left', u'left', u'up']",training,"[u'0', u'9', u'10', u'11']","{u'mouseover': {u'state': {u'target': [], u'time': []}, u'edge': {u'target': [], u'time': []}}, u'click': {u'state': {u'target': [u'12', u'11', u'7', u'8', u'3', u'4'], u'time': [1285, 1655, 2769, 3475, 4256, 4683]}, u'edge': {u'target': [], u'time': []}}, u'mouseout': {u'state': {u'target': [], u'time': []}, u'edge': {u'target': [], u'time': []}}}","[-2, -8, 48]","[5841, 158, 179]",32.0,"[None, None, None]","[u'', -2, 8, 24, -48, 2, 4, -24, 24, -2, -8, 48, -24]",208435,5.0,9633.0,6.28255860945e+18,mouselab-mdp,13
"[3075, 3763, 4446]","[u'left', u'left', u'down']",training,"[u'0', u'9', u'10', u'12']","{u'mouseover': {u'state': {u'target': [], u'time': []}, u'edge': {u'target': [], u'time': []}}, u'click': {u'state': {u'target': [u'11', u'12', u'4'], u'time': [666, 1125, 1802]}, u'edge': {u'target': [], u'time': []}}, u'mouseout': {u'state': {u'target': [], u'time': []}, u'edge': {u'target': [], u'time': []}}}","[2, -8, 48]","[3072, 174, 174]",39.0,"[None, None, None]","[u'', 4, 8, -24, 24, -2, 4, -24, 48, 2, -8, 24, 48]",219039,6.0,9560.0,8.86605250045e+18,mouselab-mdp,13
"[5759, 6409, 7056]","[u'up', u'up', u'left']",training,"[u'0', u'1', u'2', u'4']","{u'mouseover': {u'state': {u'target': [], u'time': []}, u'edge': {u'target': [], u'time': []}}, u'click': {u'state': {u'target': [u'12', u'11', u'7', u'8', u'3', u'4'], u'time': [994, 1388, 2083, 2425, 3147, 4075]}, u'edge': {u'target': [], u'time': []}}, u'mouseout': {u'state': {u'target': [], u'time': []}, u'edge': {u'target': [], u'time': []}}}","[-2, -8, 48]","[5755, 139, 135]",32.0,"[None, None, None]","[u'', -2, -8, 24, 48, -2, 8, -24, -24, -2, -4, 24, -24]",229148,7.0,9074.0,-3.60340228201e+18,mouselab-mdp,13
"[11329, 12007, 12635]","[u'left', u'left', u'down']",training,"[u'0', u'9', u'10', u'12']","{u'mouseover': {u'state': {u'target': [], u'time': []}, u'edge': {u'target': [], u'time': []}}, u'click': {u'state': {u'target': [u'12', u'11', u'4', u'3', u'7', u'8', u'10', u'2', u'1', u'9'], u'time': [1256, 1848, 2304, 2923, 3395, 3963, 6817, 7556, 9473, 10202]}, u'edge': {u'target': [], u'time': []}}, u'mouseout': {u'state': {u'target': [], u'time': []}, u'edge': {u'target': [], u'time': []}}}","[4, -4, 24]","[11326, 167, 111]",14.0,"[None, None, None]","[u'', -2, -4, 24, -48, -4, 8, -24, -24, 4, -4, -48, 24]",244102,8.0,13920.0,1.39930365593e+18,mouselab-mdp,13
"[4426, 5072, 5675]","[u'right', u'right', u'up']",training,"[u'0', u'5', u'6', u'7']","{u'mouseover': {u'state': {u'target': [], u'time': []}, u'edge': {u'target': [], u'time': []}}, u'click': {u'state': {u'target': [u'12', u'11', u'4', u'3', u'7', u'8'], u'time': [898, 1450, 1915, 2314, 2898, 3404]}, u'edge': {u'target': [], u'time': []}}, u'mouseout': {u'state': {u'target': [], u'time': []}, u'edge': {u'target': [], u'time': []}}}","[-2, 8, 48]","[4424, 140, 94]",48.0,"[None, None, None]","[u'', 2, 8, -24, -48, -2, 8, 48, 24, 4, 8, -24, -48]",253554,9.0,8416.0,7.70857757142e+18,mouselab-mdp,13
"[3158, 4031, 4729]","[u'right', u'right', u'up']",training,"[u'0', u'5', u'6', u'7']","{u'mouseover': {u'state': {u'target': [], u'time': []}, u'edge': {u'target': [], u'time': []}}, u'click': {u'state': {u'target': [u'7', u'8'], u'time': [1168, 1675]}, u'edge': {u'target': [], u'time': []}}, u'mouseout': {u'state': {u'target': [], u'time': []}, u'edge': {u'target': [], u'time': []}}}","[-2, 4, 48]","[3157, 355, 187]",48.0,"[None, None, None]","[u'', -4, 4, 24, -24, -2, 4, 48, -24, -4, -8, -48, 48]",262980,10.0,8391.0,8.58865579534e+17,mouselab-mdp,13
"[2475, 3569, 4377, 8056, 12964]","[u'up', u'up', u'up', u'left', u'down']",pre_test,"[u'0', u'1', u'2', u'3', u'8', u'10']","{u'mouseover': {u'state': {u'target': [], u'time': []}, u'edge': {u'target': [], u'time': []}}, u'click': {u'state': {u'target': [], u'time': []}, u'edge': {u'target': [], u'time': []}}, u'mouseout': {u'state': {u'target': [], u'time': []}, u'edge': {u'target': [], u'time': []}}}","[1, 3, 9, 7, -65]","[2463, 575, 281, 3160, 4380]",-45.0,"[None, None, None, None, None]","[u'', 1, 3, 9, -11, -46, -16, 5, 7, 10, -65, -10, 1, 0, 3, -2, -6, 6, 13, 2, 4, -21, 12, 0, 2, 5, 1, -12, -20, 14, 1, -11, 1, -20]",102362,0.0,22229.0,-6.93444865984e+18,mouselab-mdp,14
"[4785, 6611, 8356]","[u'right', u'right', u'up']",training,"[u'0', u'5', u'6', u'7']","{u'mouseover': {u'state': {u'target': [], u'time': []}, u'edge': {u'target': [], u'time': []}}, u'click': {u'state': {u'target': [], u'time': []}, u'edge': {u'target': [], u'time': []}}, u'mouseout': {u'state': {u'target': [], u'time': []}, u'edge': {u'target': [], u'time': []}}}","[-4, 8, -48]","[4780, 1314, 1225]",-44.0,"[None, None, None]","[u'', -2, 4, 48, 24, -4, 8, -48, 24, 4, -8, 24, 24]",125370,1.0,12254.0,-1.46177589383e+18,mouselab-mdp,14
"[14170, 15556, 17230]","[u'up', u'up', u'left']",training,"[u'0', u'1', u'2', u'4']","{u'mouseover': {u'state': {u'target': [], u'time': []}, u'edge': {u'target': [], u'time': []}}, u'click': {u'state': {u'target': [u'10', u'9', u'5', u'6', u'1'], u'time': [5371, 6961, 8942, 10341, 11509]}, u'edge': {u'target': [], u'time': []}}, u'mouseout': {u'state': {u'target': [], u'time': []}, u'edge': {u'target': [], u'time': []}}}","[2, 4, -24]","[14166, 861, 1164]",-23.0,"[None, None, None]","[u'', 2, 4, 24, -24, 4, -8, 48, -24, -4, 8, -48, 48]",146332,2.0,19873.0,5.01038116734e+18,mouselab-mdp,14
"[3055, 4602, 9608]","[u'left', u'left', u'up']",training,"[u'0', u'9', u'10', u'11']","{u'mouseover': {u'state': {u'target': [], u'time': []}, u'edge': {u'target': [], u'time': []}}, u'click': {u'state': {u'target': [], u'time': []}, u'edge': {u'target': [], u'time': []}}, u'mouseout': {u'state': {u'target': [], u'time': []}, u'edge': {u'target': [], u'time': []}}}","[-2, -8, 24]","[3051, 1032, 4487]",14.0,"[None, None, None]","[u'', 4, -8, 24, 48, 4, -8, -24, 48, -2, -8, 24, -24]",160087,3.0,12674.0,6.60860815513e+18,mouselab-mdp,14
"[7934, 8813, 10476]","[u'right', u'right', u'up']",training,"[u'0', u'5', u'6', u'7']","{u'mouseover': {u'state': {u'target': [], u'time': []}, u'edge': {u'target': [], u'time': []}}, u'click': {u'state': {u'target': [u'5', u'1', u'9'], u'time': [3118, 4080, 5075]}, u'edge': {u'target': [], u'time': []}}, u'mouseout': {u'state': {u'target': [], u'time': []}, u'edge': {u'target': [], u'time': []}}}","[-2, -4, 24]","[7930, 365, 1141]",15.0,"[None, None, None]","[u'', -4, 8, 48, -24, -2, -4, 24, -48, 4, 4, 48, -48]",174027,4.0,12866.0,7.26324481059e+18,mouselab-mdp,14
"[8393, 9348, 10957]","[u'left', u'left', u'up']",training,"[u'0', u'9', u'10', u'11']","{u'mouseover': {u'state': {u'target': [], u'time': []}, u'edge': {u'target': [], u'time': []}}, u'click': {u'state': {u'target': [u'1', u'2', u'5'], u'time': [2471, 3978, 6850]}, u'edge': {u'target': [], u'time': []}}, u'mouseout': {u'state': {u'target': [], u'time': []}, u'edge': {u'target': [], u'time': []}}}","[-2, 4, -24]","[8390, 447, 1082]",-25.0,"[None, None, None]","[u'', 2, -4, 24, 24, -4, 4, -24, -24, -2, 4, -24, -48]",188627,5.0,13525.0,7.86254308938e+18,mouselab-mdp,14
"[940, 1712, 2896]","[u'left', u'left', u'up']",training,"[u'0', u'9', u'10', u'11']","{u'mouseover': {u'state': {u'target': [], u'time': []}, u'edge': {u'target': [], u'time': []}}, u'click': {u'state': {u'target': [], u'time': []}, u'edge': {u'target': [], u'time': []}}, u'mouseout': {u'state': {u'target': [], u'time': []}, u'edge': {u'target': [], u'time': []}}}","[4, -4, 48]","[936, 263, 664]",48.0,"[None, None, None]","[u'', 2, -4, 24, -24, -2, 8, 24, 48, 4, -4, 48, 48]",201384,6.0,11634.0,5.2467434854e+18,mouselab-mdp,14
