key_press,rt,time_elapsed,trial_type,pid
32.0,11839,38015,text,0
32.0,14807,53823,text,0
32.0,5656,60483,text,0
32.0,10302,106526,text,0
32.0,2775,6920,text,0
32.0,7161,15084,text,0
32.0,6992,23077,text,0
32.0,11573,29896,text,1
32.0,88455,119366,text,1
32.0,3626,123996,text,1
32.0,3541,156029,text,1
32.0,10768,31445,text,2
32.0,15540,47994,text,2
32.0,4034,53034,text,2
32.0,7193,99543,text,2
32.0,2486,9024,text,2
32.0,1221,11254,text,2
32.0,5333,17594,text,2
32.0,16204,25227,text,3
32.0,4126,30355,text,3
32.0,22126,53483,text,3
32.0,18493,52788,text,3
32.0,30014,83804,text,3
32.0,17405,102211,text,3
32.0,12527,142635,text,3
32.0,1031,3261,text,4
32.0,3691,7957,text,4
32.0,767,9733,text,4
32.0,4054,28196,text,4
32.0,22041,25060,text,5
32.0,2793,28862,text,5
32.0,7899,37768,text,5
32.0,11300,107990,text,5
32.0,17752,126745,text,5
32.0,8307,136054,text,5
32.0,12994,184823,text,5
32.0,2428,5172,text,6
32.0,3307,9486,text,6
32.0,5596,16087,text,6
32.0,2734,9571,text,6
32.0,4668,15245,text,6
32.0,1470,17718,text,6
32.0,4249,36745,text,6
32.0,6383,13489,text,7
32.0,8509,23012,text,7
32.0,11761,35780,text,7
32.0,17062,47832,text,7
32.0,12607,61469,text,7
32.0,3955,66434,text,7
32.0,15003,120978,text,7
32.0,15189,53180,text,8
32.0,21912,76097,text,8
32.0,5912,83015,text,8
32.0,5461,112420,text,8
32.0,4813,11471,text,8
32.0,7624,20102,text,8
32.0,5014,26126,text,8
32.0,7269,15628,text,9
32.0,9470,26102,text,9
32.0,7855,34963,text,9
32.0,12773,63204,text,9
32.0,22352,86559,text,9
32.0,2462,90023,text,9
32.0,16521,152957,text,9
32.0,11494,607969,text,10
32.0,13209,622183,text,10
32.0,4835,628022,text,10
32.0,11420,657078,text,10
32.0,3163,10843,text,10
32.0,4681,16536,text,10
32.0,6743,24289,text,10
32.0,3584,22555,text,11
32.0,3795,27357,text,11
32.0,1330,29690,text,11
32.0,4254,73605,text,11
32.0,4708,35733,text,12
39.0,5700,42440,text,12
39.0,1515,44981,text,12
32.0,2456,63191,text,12
32.0,8764,16324,text,13
32.0,9934,27265,text,13
32.0,11982,40255,text,13
32.0,29235,62166,text,13
32.0,24093,87266,text,13
32.0,7602,95872,text,13
32.0,30990,187511,text,13
32.0,23262,39260,text,14
32.0,28148,68419,text,14
32.0,11759,81182,text,14
32.0,37359,122059,text,14
39.0,4260,127324,text,14
39.0,2557,130884,text,14
32.0,18478,199556,text,14
32.0,32642,92866,text,15
32.0,70110,163986,text,15
32.0,8360,173352,text,15
32.0,14756,252774,text,15
32.0,13911,60702,text,16
32.0,23956,85659,text,16
32.0,16230,102891,text,16
32.0,20349,150257,text,16
32.0,3308,12927,text,16
32.0,8479,22408,text,16
32.0,9341,32751,text,16
32.0,23432,56002,text,17
32.0,14805,71820,text,17
32.0,5852,78677,text,17
32.0,8566,111932,text,17
32.0,2855,9838,text,17
32.0,3238,14083,text,17
32.0,7047,22138,text,17
32.0,16308,33448,text,18
32.0,6767,41221,text,18
32.0,1881,44106,text,18
32.0,2812,76058,text,18
32.0,22307,52753,text,19
32.0,13943,67711,text,19
32.0,4821,73542,text,19
32.0,9954,120446,text,19
32.0,11296,36753,text,19
32.0,24889,62651,text,19
32.0,9146,72815,text,19
32.0,18108,29548,text,20
32.0,16763,47314,text,20
32.0,25685,74002,text,20
32.0,18434,70552,text,20
32.0,25568,97125,text,20
32.0,1900,100028,text,20
32.0,20479,141140,text,20
32.0,3698,7370,text,21
32.0,4966,13338,text,21
32.0,9183,23524,text,21
32.0,18622,49598,text,21
32.0,24366,74967,text,21
32.0,5782,81750,text,21
32.0,10528,124061,text,21
32.0,18601,52354,text,22
32.0,20568,73927,text,22
32.0,7251,82181,text,22
32.0,14433,132226,text,22
32.0,13904,22456,text,22
32.0,24191,47661,text,22
32.0,11155,59820,text,22
32.0,3862,12629,text,23
32.0,2979,16610,text,23
32.0,4628,22241,text,23
32.0,4328,50223,text,23
32.0,1090,8206,text,23
32.0,999,10208,text,23
32.0,2972,14182,text,23
32.0,12819,143115,text,24
32.0,19230,163352,text,24
32.0,6948,171303,text,24
32.0,12851,237548,text,24
32.0,21627,40651,text,25
39.0,3960,45621,text,25
32.0,2264,48936,text,25
32.0,3759,68833,text,25
32.0,13151,40137,text,26
32.0,13982,55121,text,26
32.0,4019,60142,text,26
32.0,13058,107360,text,26
32.0,6323,24936,text,27
32.0,12882,38823,text,27
32.0,1915,41743,text,27
32.0,6981,69754,text,27
32.0,33595,101882,text,28
32.0,34037,136938,text,28
32.0,12530,150476,text,28
32.0,21104,214498,text,28
32.0,22650,38186,text,28
32.0,32103,71293,text,28
32.0,26723,99022,text,28
32.0,28254,74933,text,29
32.0,28745,104689,text,29
32.0,6115,111828,text,29
32.0,21204,179663,text,29
32.0,5055,13931,text,30
32.0,5188,20131,text,30
32.0,7344,28481,text,30
32.0,15439,52617,text,30
32.0,15742,69369,text,30
32.0,5217,75589,text,30
32.0,15162,117578,text,30
32.0,17619,58162,text,31
32.0,15768,74932,text,31
32.0,4369,80304,text,31
32.0,14577,121483,text,31
32.0,15951,46505,text,32
32.0,8712,56220,text,32
32.0,3378,60599,text,32
32.0,7409,83546,text,32
32.0,67846,210509,text,33
32.0,79673,291185,text,33
32.0,22540,314729,text,33
32.0,58210,441510,text,33
32.0,28787,43937,text,33
32.0,23871,68814,text,33
32.0,31765,101580,text,33
32.0,37665,89803,text,34
32.0,24170,114988,text,34
32.0,9382,125373,text,34
32.0,20647,190194,text,34
32.0,36449,73498,text,35
39.0,5156,79661,text,35
37.0,5489,86155,text,35
32.0,9710,147562,text,35
32.0,13958,65488,text,36
32.0,24524,91020,text,36
32.0,8120,100159,text,36
32.0,18858,147537,text,36
32.0,11726,51624,text,37
32.0,15138,67763,text,37
32.0,4616,73382,text,37
32.0,15840,106140,text,37
38.0,13469,23145,text,38
32.0,18141,42296,text,38
32.0,13697,56996,text,38
32.0,28452,81098,text,38
32.0,25894,107995,text,38
32.0,8883,117881,text,38
32.0,18759,176587,text,38
32.0,2459,5640,text,39
32.0,2904,9552,text,39
32.0,2659,13213,text,39
32.0,12872,35270,text,39
39.0,7716,43995,text,39
32.0,2674,47674,text,39
32.0,5199,75099,text,39
32.0,16550,55885,text,40
39.0,9390,66282,text,40
32.0,4511,71795,text,40
32.0,15817,111133,text,40
32.0,4806,10036,text,41
32.0,4586,15626,text,41
32.0,9190,25819,text,41
32.0,20557,82774,text,41
32.0,25424,109200,text,41
32.0,6208,116410,text,41
32.0,15793,179266,text,41
32.0,5541,11733,text,42
32.0,8626,21365,text,42
32.0,15148,37517,text,42
32.0,2694,34661,text,42
32.0,20624,56291,text,42
32.0,6627,63921,text,42
32.0,14068,127161,text,42
32.0,15299,49057,text,43
32.0,22645,72704,text,43
32.0,5892,79598,text,43
32.0,10996,151640,text,43
32.0,6890,15382,text,43
32.0,12823,29207,text,43
32.0,7824,38033,text,43
175.0,3259,66033,text,44
32.0,34230,101266,text,44
32.0,11815,114083,text,44
32.0,21736,171860,text,44
32.0,7099,11710,text,45
32.0,6817,19529,text,45
32.0,8560,29093,text,45
32.0,9877,35180,text,45
32.0,11198,47380,text,45
32.0,5195,53576,text,45
32.0,8410,136791,text,45
32.0,29294,168298,text,46
39.0,1855,171161,text,46
32.0,9838,182003,text,46
32.0,22253,246659,text,46
32.0,23555,38812,text,46
32.0,28490,68306,text,46
32.0,18150,87460,text,46
32.0,3907,14051,text,47
32.0,12330,27385,text,47
32.0,16707,45097,text,47
32.0,21989,58811,text,47
32.0,26529,86345,text,47
32.0,10915,98265,text,47
32.0,19652,165582,text,47
32.0,6833,13735,text,48
32.0,7085,21823,text,48
32.0,7740,30565,text,48
32.0,16182,65538,text,48
32.0,20178,86719,text,48
32.0,8399,96120,text,48
32.0,13517,166909,text,48
32.0,33499,115798,text,49
32.0,21405,138209,text,49
32.0,9009,148223,text,49
32.0,15531,207291,text,49
32.0,5173,14393,text,49
32.0,4951,20349,text,49
32.0,9439,30793,text,49
32.0,3494,8252,text,50
32.0,7444,16699,text,50
32.0,2717,20420,text,50
32.0,15698,37171,text,50
32.0,7900,46083,text,50
32.0,4326,51413,text,50
32.0,14834,81835,text,50
32.0,1474,3916,text,51
32.0,4038,8959,text,51
32.0,875,10839,text,51
32.0,2290,80018,text,51
32.0,1493,82512,text,51
32.0,643,84156,text,51
32.0,6576,131138,text,51
32.0,32476,34769,text,52
32.0,1413,37187,text,52
32.0,739,38927,text,52
32.0,2512,53921,text,52
32.0,68601,121659,text,53
32.0,25269,147932,text,53
32.0,10578,159515,text,53
32.0,74456,260594,text,53
32.0,14921,26494,text,53
32.0,22742,50242,text,53
32.0,22800,74058,text,53
32.0,12412,33172,text,54
32.0,9395,43574,text,54
32.0,2279,46876,text,54
32.0,4352,75356,text,54
32.0,21278,75557,text,55
32.0,22665,99247,text,55
32.0,8877,109133,text,55
32.0,18383,170428,text,55
32.0,4363,14783,text,55
32.0,42232,58035,text,55
32.0,15928,74984,text,55
32.0,4974,7365,text,56
32.0,1782,10149,text,56
32.0,1623,12773,text,56
32.0,6953,18438,text,56
32.0,8523,27966,text,56
32.0,3079,32046,text,56
32.0,2959,51550,text,56
32.0,8198,32198,text,57
32.0,6445,39660,text,57
32.0,4407,45076,text,57
32.0,8829,40532,text,57
32.0,7923,49466,text,57
32.0,3359,53838,text,57
32.0,9750,105776,text,57
32.0,3175,19014,text,58
32.0,1303,21329,text,58
32.0,2105,24446,text,58
32.0,3941,57898,text,58
32.0,4524,10677,text,59
32.0,10411,22093,text,59
32.0,8696,31792,text,59
37.0,16420,35631,text,59
32.0,16166,52809,text,59
32.0,4061,57875,text,59
32.0,9037,94648,text,59
38.0,8464,14370,text,60
39.0,3444,18844,text,60
39.0,4115,23996,text,60
32.0,9183,46175,text,60
32.0,16069,63278,text,60
32.0,5433,69733,text,60
32.0,10973,98369,text,60
32.0,10565,18564,text,61
32.0,15881,35447,text,61
32.0,31375,67825,text,61
32.0,13315,46754,text,61
32.0,18395,66153,text,61
32.0,7992,75152,text,61
32.0,14675,190268,text,61
32.0,21368,53534,text,62
32.0,23136,77676,text,62
32.0,10278,88956,text,62
32.0,21671,152471,text,62
32.0,1966,8138,text,63
32.0,2915,12059,text,63
32.0,9564,22630,text,63
32.0,19008,78124,text,63
32.0,42884,122011,text,63
32.0,8995,132010,text,63
32.0,13716,186893,text,63
32.0,48698,155680,text,64
32.0,53982,210674,text,64
32.0,15403,227083,text,64
32.0,42655,350896,text,64
32.0,4367,125546,text,65
32.0,2005,128560,text,65
32.0,1909,131481,text,65
32.0,1699,146248,text,65
