p_rdata,action_times,actions,beliefs,correct,delays,information_used_correctly,meta_actions,path,planned_too_little,planned_too_much,queries,questions,responses,rt,score,time_elapsed,trial_index,trial_i,trial_type,view_history,pid
,,,,,,,,,,,,,,118691,,118693,,,instructions,"[{""page_index"":0,""viewing_time"":55920},{""page_index"":1,""viewing_time"":36863},{""page_index"":2,""viewing_time"":25903}]",0
,,,,,,,,,,,,,,123603,,123605,,,instructions,"[{""page_index"":0,""viewing_time"":62305},{""page_index"":1,""viewing_time"":39242},{""page_index"":2,""viewing_time"":22055}]",1
,,,,,,,,,,,,,,284844,,284846,,,instructions,"[{""page_index"":0,""viewing_time"":57431},{""page_index"":1,""viewing_time"":130360},{""page_index"":2,""viewing_time"":35135},{""page_index"":1,""viewing_time"":671},{""page_index"":0,""viewing_time"":58442},{""page_index"":1,""viewing_time"":1243},{""page_index"":2,""viewing_time"":1562}]",2
,,,,,,,,,,,,,,204635,,204636,,,instructions,"[{""page_index"":0,""viewing_time"":80245},{""page_index"":1,""viewing_time"":92902},{""page_index"":2,""viewing_time"":31487}]",3
,,,,,,,,,,,,,,129787,,129790,,,instructions,"[{""page_index"":0,""viewing_time"":56802},{""page_index"":1,""viewing_time"":49918},{""page_index"":2,""viewing_time"":23064}]",4
,,,,,,,,,,,,,,123945,,123947,,,instructions,"[{""page_index"":0,""viewing_time"":56114},{""page_index"":1,""viewing_time"":41712},{""page_index"":2,""viewing_time"":26117}]",5
,,,,,,,,,,,,,,124060,,124060,,,instructions,"[{""page_index"":0,""viewing_time"":23346},{""page_index"":1,""viewing_time"":14023},{""page_index"":2,""viewing_time"":9235},{""page_index"":1,""viewing_time"":9608},{""page_index"":0,""viewing_time"":26537},{""page_index"":1,""viewing_time"":36},{""page_index"":0,""viewing_time"":6023},{""page_index"":1,""viewing_time"":8339},{""page_index"":0,""viewing_time"":6060},{""page_index"":1,""viewing_time"":11888},{""page_index"":2,""viewing_time"":8964}]",6
,,,,,,,,,,,,,,122373,,280564,,,instructions,"[{""page_index"":0,""viewing_time"":26383},{""page_index"":1,""viewing_time"":27796},{""page_index"":2,""viewing_time"":68194}]",6
,,,,,,,,,,,,,,55878,,377423,,,instructions,"[{""page_index"":0,""viewing_time"":29044},{""page_index"":1,""viewing_time"":20853},{""page_index"":2,""viewing_time"":5981}]",6
,,,,,,,,,,,,,,84640,,84641,,,instructions,"[{""page_index"":0,""viewing_time"":18845},{""page_index"":1,""viewing_time"":44077},{""page_index"":2,""viewing_time"":21717}]",7
,,,,,,,,,,,,,,242742,,242744,,,instructions,"[{""page_index"":0,""viewing_time"":119416},{""page_index"":1,""viewing_time"":65633},{""page_index"":2,""viewing_time"":57692}]",8
,,,,,,,,,,,,,,60093,,367166,,,instructions,"[{""page_index"":0,""viewing_time"":46421},{""page_index"":1,""viewing_time"":9900},{""page_index"":2,""viewing_time"":3772}]",8
,,,,,,,,,,,,,,254977,,254979,,,instructions,"[{""page_index"":0,""viewing_time"":100544},{""page_index"":1,""viewing_time"":120112},{""page_index"":2,""viewing_time"":34320}]",9
,,,,,,,,,,,,,,82479,,82482,,,instructions,"[{""page_index"":0,""viewing_time"":31444},{""page_index"":1,""viewing_time"":34901},{""page_index"":2,""viewing_time"":16131}]",10
,,,,,,,,,,,,,,35677,,35680,,,instructions,"[{""page_index"":0,""viewing_time"":27055},{""page_index"":1,""viewing_time"":7288},{""page_index"":2,""viewing_time"":1333}]",11
,,,,,,,,,,,,,,69926,,69927,,,instructions,"[{""page_index"":0,""viewing_time"":29615},{""page_index"":1,""viewing_time"":24456},{""page_index"":2,""viewing_time"":15854}]",12
,,,,,,,,,,,,,,62821,,62823,,,instructions,"[{""page_index"":0,""viewing_time"":32443},{""page_index"":1,""viewing_time"":16604},{""page_index"":2,""viewing_time"":13769}]",13
,,,,,,,,,,,,,,60560,,142828,,,instructions,"[{""page_index"":0,""viewing_time"":24209},{""page_index"":1,""viewing_time"":11880},{""page_index"":2,""viewing_time"":20569},{""page_index"":1,""viewing_time"":3284},{""page_index"":2,""viewing_time"":614}]",13
,,,,,,,,,,,,,,106115,,106117,,,instructions,"[{""page_index"":0,""viewing_time"":57883},{""page_index"":1,""viewing_time"":26726},{""page_index"":2,""viewing_time"":21504}]",14
,,,,,,,,,,,,,,46281,,176538,,,instructions,"[{""page_index"":0,""viewing_time"":32112},{""page_index"":1,""viewing_time"":13097},{""page_index"":2,""viewing_time"":1071}]",14
,,,,,,,,,,,,,,281986,,281988,,,instructions,"[{""page_index"":0,""viewing_time"":51024},{""page_index"":1,""viewing_time"":180531},{""page_index"":2,""viewing_time"":50430}]",15
,,,,,,,,,,,,,,48161,,361184,,,instructions,"[{""page_index"":0,""viewing_time"":25168},{""page_index"":1,""viewing_time"":12926},{""page_index"":2,""viewing_time"":10066}]",15
,,,,,,,,,,,,,,57540,,57541,,,instructions,"[{""page_index"":0,""viewing_time"":21561},{""page_index"":1,""viewing_time"":13606},{""page_index"":2,""viewing_time"":22373}]",16
,,,,,,,,,,,,,,86806,,86809,,,instructions,"[{""page_index"":0,""viewing_time"":33366},{""page_index"":1,""viewing_time"":35107},{""page_index"":2,""viewing_time"":18331}]",17
,,,,,,,,,,,,,,290426,,290427,,,instructions,"[{""page_index"":0,""viewing_time"":163306},{""page_index"":1,""viewing_time"":112176},{""page_index"":2,""viewing_time"":14943}]",18
,,,,,,,,,,,,,,121047,,448045,,,instructions,"[{""page_index"":0,""viewing_time"":12144},{""page_index"":1,""viewing_time"":16829},{""page_index"":2,""viewing_time"":92072}]",18
,,,,,,,,,,,,,,102275,,102276,,,instructions,"[{""page_index"":0,""viewing_time"":53560},{""page_index"":1,""viewing_time"":32033},{""page_index"":2,""viewing_time"":16681}]",19
,,,,,,,,,,,,,,42823,,42826,,,instructions,"[{""page_index"":0,""viewing_time"":18117},{""page_index"":1,""viewing_time"":1769},{""page_index"":0,""viewing_time"":1823},{""page_index"":1,""viewing_time"":10144},{""page_index"":2,""viewing_time"":10969}]",20
,,,,,,,,,,,,,,107907,,107911,,,instructions,"[{""page_index"":0,""viewing_time"":35803},{""page_index"":1,""viewing_time"":42551},{""page_index"":2,""viewing_time"":29551}]",21
,,,,,,,,,,,,,,221154,,221154,,,instructions,"[{""page_index"":0,""viewing_time"":83325},{""page_index"":1,""viewing_time"":32674},{""page_index"":2,""viewing_time"":24144},{""page_index"":1,""viewing_time"":3850},{""page_index"":0,""viewing_time"":17904},{""page_index"":1,""viewing_time"":8238},{""page_index"":0,""viewing_time"":18945},{""page_index"":1,""viewing_time"":11782},{""page_index"":0,""viewing_time"":6585},{""page_index"":1,""viewing_time"":3216},{""page_index"":2,""viewing_time"":10490}]",22
,,,,,,,,,,,,,,36745,,288865,,,instructions,"[{""page_index"":0,""viewing_time"":20712},{""page_index"":1,""viewing_time"":8007},{""page_index"":2,""viewing_time"":8024}]",22
,,,,,,,,,,,,,,63196,,380675,,,instructions,"[{""page_index"":0,""viewing_time"":19632},{""page_index"":1,""viewing_time"":25136},{""page_index"":2,""viewing_time"":18426}]",22
,,,,,,,,,,,,,,47099,,447393,,,instructions,"[{""page_index"":0,""viewing_time"":5364},{""page_index"":1,""viewing_time"":29554},{""page_index"":2,""viewing_time"":12180}]",22
,,,,,,,,,,,,,,87301,,87303,,,instructions,"[{""page_index"":0,""viewing_time"":29613},{""page_index"":1,""viewing_time"":29616},{""page_index"":2,""viewing_time"":28071}]",23
,,,,,,,,,,,,,,111988,,111990,,,instructions,"[{""page_index"":0,""viewing_time"":61658},{""page_index"":1,""viewing_time"":34322},{""page_index"":2,""viewing_time"":16007}]",24
,,,,,,,,,,,,,,86257,,86260,,,instructions,"[{""page_index"":0,""viewing_time"":59276},{""page_index"":1,""viewing_time"":9023},{""page_index"":2,""viewing_time"":17955}]",25
,,,,,,,,,,,,,,57811,,57812,,,instructions,"[{""page_index"":0,""viewing_time"":26824},{""page_index"":1,""viewing_time"":10772},{""page_index"":2,""viewing_time"":20214}]",26
,,,,,,,,,,,,,,51358,,165297,,,instructions,"[{""page_index"":0,""viewing_time"":10916},{""page_index"":1,""viewing_time"":17659},{""page_index"":2,""viewing_time"":14192},{""page_index"":1,""viewing_time"":1710},{""page_index"":0,""viewing_time"":5527},{""page_index"":1,""viewing_time"":689},{""page_index"":2,""viewing_time"":664}]",26
,,,,,,,,,,,,,,11517,,195423,,,instructions,"[{""page_index"":0,""viewing_time"":6485},{""page_index"":1,""viewing_time"":4174},{""page_index"":2,""viewing_time"":858}]",26
,,,,,,,,,,,,,,46022,,251564,,,instructions,"[{""page_index"":0,""viewing_time"":22652},{""page_index"":1,""viewing_time"":18086},{""page_index"":2,""viewing_time"":5284}]",26
,,,,,,,,,,,,,,2458,,267416,,,instructions,"[{""page_index"":0,""viewing_time"":1503},{""page_index"":1,""viewing_time"":345},{""page_index"":2,""viewing_time"":609}]",26
,,,,,,,,,,,,,,45822,,325430,,,instructions,"[{""page_index"":0,""viewing_time"":21589},{""page_index"":1,""viewing_time"":18098},{""page_index"":2,""viewing_time"":6135}]",26
,,,,,,,,,,,,,,4551,,356970,,,instructions,"[{""page_index"":0,""viewing_time"":2511},{""page_index"":1,""viewing_time"":417},{""page_index"":0,""viewing_time"":645},{""page_index"":1,""viewing_time"":545},{""page_index"":2,""viewing_time"":433}]",26
,,,,,,,,,,,,,,3206,,378370,,,instructions,"[{""page_index"":0,""viewing_time"":2100},{""page_index"":1,""viewing_time"":649},{""page_index"":2,""viewing_time"":456}]",26
,,,,,,,,,,,,,,83462,,83463,,,instructions,"[{""page_index"":0,""viewing_time"":34943},{""page_index"":1,""viewing_time"":6736},{""page_index"":2,""viewing_time"":7912},{""page_index"":1,""viewing_time"":1319},{""page_index"":0,""viewing_time"":1912},{""page_index"":1,""viewing_time"":14762},{""page_index"":2,""viewing_time"":15877}]",27
,,,,,,,,,,,,,,396961,,396965,,,instructions,"[{""page_index"":0,""viewing_time"":232360},{""page_index"":1,""viewing_time"":115589},{""page_index"":2,""viewing_time"":49009}]",28
,,,,,,,,,,,,,,127396,,127400,,,instructions,"[{""page_index"":0,""viewing_time"":54125},{""page_index"":1,""viewing_time"":46672},{""page_index"":2,""viewing_time"":26598}]",29
,,,,,,,,,,,,,,153512,,153517,,,instructions,"[{""page_index"":0,""viewing_time"":85038},{""page_index"":1,""viewing_time"":44581},{""page_index"":2,""viewing_time"":23887}]",30
,,,,,,,,,,,,,,51319,,51320,,,instructions,"[{""page_index"":0,""viewing_time"":14748},{""page_index"":1,""viewing_time"":21825},{""page_index"":2,""viewing_time"":14746}]",31
,,,,,,,,,,,,,,19009,,95092,,,instructions,"[{""page_index"":0,""viewing_time"":13239},{""page_index"":1,""viewing_time"":4223},{""page_index"":2,""viewing_time"":1546}]",31
,,,,,,,,,,,,,,161556,,161556,,,instructions,"[{""page_index"":0,""viewing_time"":71790},{""page_index"":1,""viewing_time"":62716},{""page_index"":2,""viewing_time"":27048}]",32
,,,,,,,,,,,,,,55750,,55754,,,instructions,"[{""page_index"":0,""viewing_time"":28674},{""page_index"":1,""viewing_time"":11933},{""page_index"":2,""viewing_time"":15141}]",33
,,,,,,,,,,,,,,60415,,145482,,,instructions,"[{""page_index"":0,""viewing_time"":21165},{""page_index"":1,""viewing_time"":26054},{""page_index"":2,""viewing_time"":13194}]",33
,,,,,,,,,,,,,,5490,,418322,,,instructions,"[{""page_index"":0,""viewing_time"":3010},{""page_index"":1,""viewing_time"":1303},{""page_index"":2,""viewing_time"":1176}]",33
,,,,,,,,,,,,,,3552,,440896,,,instructions,"[{""page_index"":0,""viewing_time"":2253},{""page_index"":1,""viewing_time"":842},{""page_index"":2,""viewing_time"":456}]",33
,,,,,,,,,,,,,,162201,,162201,,,instructions,"[{""page_index"":0,""viewing_time"":73737},{""page_index"":1,""viewing_time"":60418},{""page_index"":2,""viewing_time"":28044}]",34
,,,,,,,,,,,,,,183179,,183181,,,instructions,"[{""page_index"":0,""viewing_time"":29170},{""page_index"":1,""viewing_time"":32869},{""page_index"":2,""viewing_time"":121137}]",35
,,,,,,,,,,,,,,68358,,68363,,,instructions,"[{""page_index"":0,""viewing_time"":27362},{""page_index"":1,""viewing_time"":26625},{""page_index"":2,""viewing_time"":14367}]",36
,,,,,,,,,,,,,,112463,,112466,,,instructions,"[{""page_index"":0,""viewing_time"":34070},{""page_index"":1,""viewing_time"":56687},{""page_index"":2,""viewing_time"":21703}]",37
,,,,,,,,,,,,,,200636,,200638,,,instructions,"[{""page_index"":0,""viewing_time"":123205},{""page_index"":1,""viewing_time"":35751},{""page_index"":2,""viewing_time"":41678}]",38
,,,,,,,,,,,,,,118669,,118671,,,instructions,"[{""page_index"":0,""viewing_time"":58741},{""page_index"":1,""viewing_time"":41574},{""page_index"":2,""viewing_time"":18353}]",39
,,,,,,,,,,,,,,26641,,181458,,,instructions,"[{""page_index"":0,""viewing_time"":17665},{""page_index"":1,""viewing_time"":7839},{""page_index"":2,""viewing_time"":1136}]",39
,,,,,,,,,,,,,,94143,,94145,,,instructions,"[{""page_index"":0,""viewing_time"":40016},{""page_index"":1,""viewing_time"":32899},{""page_index"":2,""viewing_time"":21226}]",40
,,,,,,,,,,,,,,113225,,113226,,,instructions,"[{""page_index"":0,""viewing_time"":47977},{""page_index"":1,""viewing_time"":49713},{""page_index"":2,""viewing_time"":15535}]",41
,,,,,,,,,,,,,,218314,,218316,,,instructions,"[{""page_index"":0,""viewing_time"":149601},{""page_index"":1,""viewing_time"":53488},{""page_index"":2,""viewing_time"":15224}]",42
,,,,,,,,,,,,,,81388,,81389,,,instructions,"[{""page_index"":0,""viewing_time"":37659},{""page_index"":1,""viewing_time"":29985},{""page_index"":2,""viewing_time"":13743}]",43
,,,,,,,,,,,,,,40009,,40009,,,instructions,"[{""page_index"":0,""viewing_time"":16575},{""page_index"":1,""viewing_time"":8784},{""page_index"":2,""viewing_time"":14649}]",44
,,,,,,,,,,,,,,145515,,203503,,,instructions,"[{""page_index"":0,""viewing_time"":15527},{""page_index"":1,""viewing_time"":8633},{""page_index"":2,""viewing_time"":121354}]",44
,,,,,,,,,,,,,,164812,,164815,,,instructions,"[{""page_index"":0,""viewing_time"":65805},{""page_index"":1,""viewing_time"":3340},{""page_index"":0,""viewing_time"":4827},{""page_index"":1,""viewing_time"":49697},{""page_index"":2,""viewing_time"":41140}]",45
,,,,,,,,,,,,,,99652,,99654,,,instructions,"[{""page_index"":0,""viewing_time"":43376},{""page_index"":1,""viewing_time"":29712},{""page_index"":2,""viewing_time"":26561}]",46
,,,,,,,,,,,,,,49615,,49616,,,instructions,"[{""page_index"":0,""viewing_time"":18717},{""page_index"":1,""viewing_time"":16967},{""page_index"":2,""viewing_time"":13928}]",47
,,,,,,,,,,,,,,102210,,102212,,,instructions,"[{""page_index"":0,""viewing_time"":25581},{""page_index"":1,""viewing_time"":24566},{""page_index"":0,""viewing_time"":10889},{""page_index"":1,""viewing_time"":14312},{""page_index"":0,""viewing_time"":3906},{""page_index"":1,""viewing_time"":5376},{""page_index"":2,""viewing_time"":17579}]",48
,,,,,,,,,,,,,,585230,,585230,,,instructions,"[{""page_index"":0,""viewing_time"":314974},{""page_index"":1,""viewing_time"":174445},{""page_index"":2,""viewing_time"":95810}]",49
,,,,,,,,,,,,,,106527,,106529,,,instructions,"[{""page_index"":0,""viewing_time"":43861},{""page_index"":1,""viewing_time"":24965},{""page_index"":2,""viewing_time"":37698}]",50
,,,,,,,,,,,,,,146225,,146228,,,instructions,"[{""page_index"":0,""viewing_time"":56284},{""page_index"":1,""viewing_time"":62769},{""page_index"":2,""viewing_time"":27169}]",51
,,,,,,,,,,,,,,49094,,49095,,,instructions,"[{""page_index"":0,""viewing_time"":4909},{""page_index"":1,""viewing_time"":27551},{""page_index"":2,""viewing_time"":16632}]",52
,,,,,,,,,,,,,,44431,,119506,,,instructions,"[{""page_index"":0,""viewing_time"":13287},{""page_index"":1,""viewing_time"":12168},{""page_index"":2,""viewing_time"":8632},{""page_index"":1,""viewing_time"":8887},{""page_index"":2,""viewing_time"":1455}]",52
,,,,,,,,,,,,,,30104,,169264,,,instructions,"[{""page_index"":0,""viewing_time"":20615},{""page_index"":1,""viewing_time"":8592},{""page_index"":2,""viewing_time"":896}]",52
,,,,,,,,,,,,,,101767,,101777,,,instructions,"[{""page_index"":0,""viewing_time"":39398},{""page_index"":1,""viewing_time"":47897},{""page_index"":2,""viewing_time"":14472}]",53
,,,,,,,,,,,,,,134601,,134602,,,instructions,"[{""page_index"":0,""viewing_time"":56372},{""page_index"":1,""viewing_time"":45507},{""page_index"":2,""viewing_time"":32720}]",54
,,,,,,,,,,,,,,248339,,248340,,,instructions,"[{""page_index"":0,""viewing_time"":216558},{""page_index"":1,""viewing_time"":17577},{""page_index"":2,""viewing_time"":14203}]",55
,,,,,,,,,,,,,,105493,,105493,,,instructions,"[{""page_index"":0,""viewing_time"":56548},{""page_index"":1,""viewing_time"":24455},{""page_index"":2,""viewing_time"":24489}]",56
,,,,,,,,,,,,,,50097,,50097,,,instructions,"[{""page_index"":0,""viewing_time"":20628},{""page_index"":1,""viewing_time"":12820},{""page_index"":2,""viewing_time"":16648}]",57
,,,,,,,,,,,,,,213281,,213282,,,instructions,"[{""page_index"":0,""viewing_time"":95560},{""page_index"":1,""viewing_time"":83774},{""page_index"":2,""viewing_time"":33946}]",58
,,,,,,,,,,,,,,158335,,158336,,,instructions,"[{""page_index"":0,""viewing_time"":74608},{""page_index"":1,""viewing_time"":50947},{""page_index"":2,""viewing_time"":32777}]",59
,,,,,,,,,,,,,,126814,,126818,,,instructions,"[{""page_index"":0,""viewing_time"":23174},{""page_index"":1,""viewing_time"":81651},{""page_index"":2,""viewing_time"":21984}]",60
,,,,,,,,,,,,,,17956,,361560,,,instructions,"[{""page_index"":0,""viewing_time"":4416},{""page_index"":1,""viewing_time"":2698},{""page_index"":2,""viewing_time"":10839}]",60
,,,,,,,,,,,,,,38245,,478635,,,instructions,"[{""page_index"":0,""viewing_time"":15619},{""page_index"":1,""viewing_time"":21647},{""page_index"":2,""viewing_time"":975}]",60
,,,,,,,,,,,,,,11377,,507454,,,instructions,"[{""page_index"":0,""viewing_time"":8952},{""page_index"":1,""viewing_time"":1161},{""page_index"":2,""viewing_time"":1259}]",60
,,,,,,,,,,,,,,5697,,535575,,,instructions,"[{""page_index"":0,""viewing_time"":3227},{""page_index"":1,""viewing_time"":1614},{""page_index"":2,""viewing_time"":855}]",60
,,,,,,,,,,,,,,46147,,652509,,,instructions,"[{""page_index"":0,""viewing_time"":26643},{""page_index"":1,""viewing_time"":1042},{""page_index"":2,""viewing_time"":1231},{""page_index"":1,""viewing_time"":14029},{""page_index"":2,""viewing_time"":3200}]",60
,,,,,,,,,,,,,,51543,,729023,,,instructions,"[{""page_index"":0,""viewing_time"":49314},{""page_index"":1,""viewing_time"":967},{""page_index"":2,""viewing_time"":1259}]",60
,,,,,,,,,,,,,,170813,,170814,,,instructions,"[{""page_index"":0,""viewing_time"":80963},{""page_index"":1,""viewing_time"":3949},{""page_index"":0,""viewing_time"":5279},{""page_index"":1,""viewing_time"":3563},{""page_index"":0,""viewing_time"":5179},{""page_index"":1,""viewing_time"":35479},{""page_index"":2,""viewing_time"":36400}]",61
,,,,,,,,,,,,,,13800,,13802,,,instructions,"[{""page_index"":0,""viewing_time"":5348},{""page_index"":1,""viewing_time"":4182},{""page_index"":2,""viewing_time"":4270}]",62
,,,,,,,,,,,,,,90010,,126242,,,instructions,"[{""page_index"":0,""viewing_time"":56315},{""page_index"":1,""viewing_time"":22963},{""page_index"":2,""viewing_time"":10731}]",62
,,,,,,,,,,,,,,6678,,167344,,,instructions,"[{""page_index"":0,""viewing_time"":4139},{""page_index"":1,""viewing_time"":1017},{""page_index"":2,""viewing_time"":1521}]",62
,,,,,,,,,,,,,,67646,,268491,,,instructions,"[{""page_index"":0,""viewing_time"":36343},{""page_index"":1,""viewing_time"":17832},{""page_index"":2,""viewing_time"":13471}]",62
,,,,,,,,,,,,,,276795,,276795,,,instructions,"[{""page_index"":0,""viewing_time"":87089},{""page_index"":1,""viewing_time"":153153},{""page_index"":2,""viewing_time"":36552}]",63
,,,,,,,,,,,,,,78162,,78164,,,instructions,"[{""page_index"":0,""viewing_time"":29466},{""page_index"":1,""viewing_time"":38041},{""page_index"":2,""viewing_time"":10653}]",64
,,,,,,,,,,,,,,122399,,122401,,,instructions,"[{""page_index"":0,""viewing_time"":53677},{""page_index"":1,""viewing_time"":46139},{""page_index"":2,""viewing_time"":22581}]",65
,,,,,,,,,,,,,,141425,,141426,,,instructions,"[{""page_index"":0,""viewing_time"":96978},{""page_index"":1,""viewing_time"":26673},{""page_index"":2,""viewing_time"":17773}]",66
,,,,,,,,,,,,,,108537,,280915,,,instructions,"[{""page_index"":0,""viewing_time"":20983},{""page_index"":1,""viewing_time"":84743},{""page_index"":2,""viewing_time"":2810}]",66
,,,,,,,,,,,,,,147668,,147670,,,instructions,"[{""page_index"":0,""viewing_time"":88552},{""page_index"":1,""viewing_time"":33154},{""page_index"":2,""viewing_time"":25961}]",67
,,,,,,,,,,,,,,229736,,229737,,,instructions,"[{""page_index"":0,""viewing_time"":103953},{""page_index"":1,""viewing_time"":69693},{""page_index"":2,""viewing_time"":56087}]",68
,,,,,,,,,,,,,,65910,,342596,,,instructions,"[{""page_index"":0,""viewing_time"":45862},{""page_index"":1,""viewing_time"":15131},{""page_index"":2,""viewing_time"":4915}]",68
,,,,,,,,,,,,,,147824,,147826,,,instructions,"[{""page_index"":0,""viewing_time"":59908},{""page_index"":1,""viewing_time"":62936},{""page_index"":2,""viewing_time"":24978}]",69
,,,,,,,,,,,,,,109519,,109520,,,instructions,"[{""page_index"":0,""viewing_time"":48751},{""page_index"":1,""viewing_time"":27088},{""page_index"":2,""viewing_time"":33680}]",70
,,,,,,,,,,,,,,141205,,141206,,,instructions,"[{""page_index"":0,""viewing_time"":48439},{""page_index"":1,""viewing_time"":64549},{""page_index"":2,""viewing_time"":28216}]",71
,,,,,,,,,,,,,,117732,,117732,,,instructions,"[{""page_index"":0,""viewing_time"":49834},{""page_index"":1,""viewing_time"":46056},{""page_index"":2,""viewing_time"":21841}]",72
,,,,,,,,,,,,,,151438,,151438,,,instructions,"[{""page_index"":0,""viewing_time"":60729},{""page_index"":1,""viewing_time"":55192},{""page_index"":2,""viewing_time"":35516}]",73
,,,,,,,,,,,,,,124442,,124442,,,instructions,"[{""page_index"":0,""viewing_time"":31180},{""page_index"":1,""viewing_time"":35000},{""page_index"":2,""viewing_time"":58261}]",74
,,,,,,,,,,,,,,95185,,95187,,,instructions,"[{""page_index"":0,""viewing_time"":33485},{""page_index"":1,""viewing_time"":42252},{""page_index"":2,""viewing_time"":19448}]",75
,,,,,,,,,,,,,,118898,,118899,,,instructions,"[{""page_index"":0,""viewing_time"":52332},{""page_index"":1,""viewing_time"":36886},{""page_index"":2,""viewing_time"":29680}]",76
,,,,,,,,,,,,,,150703,,150704,,,instructions,"[{""page_index"":0,""viewing_time"":71162},{""page_index"":1,""viewing_time"":46481},{""page_index"":2,""viewing_time"":33060}]",77
,,,,,,,,,,,,,,96910,,284765,,,instructions,"[{""page_index"":0,""viewing_time"":19990},{""page_index"":1,""viewing_time"":26607},{""page_index"":2,""viewing_time"":23248},{""page_index"":1,""viewing_time"":4321},{""page_index"":0,""viewing_time"":16751},{""page_index"":1,""viewing_time"":1848},{""page_index"":0,""viewing_time"":1048},{""page_index"":1,""viewing_time"":1520},{""page_index"":2,""viewing_time"":1576}]",77
,,,,,,,,,,,,,,85761,,85761,,,instructions,"[{""page_index"":0,""viewing_time"":41649},{""page_index"":1,""viewing_time"":25977},{""page_index"":2,""viewing_time"":18134}]",78
,,,,,,,,,,,,,,47080,,179298,,,instructions,"[{""page_index"":0,""viewing_time"":10308},{""page_index"":1,""viewing_time"":12208},{""page_index"":2,""viewing_time"":24564}]",78
,,,,,,,,,,,,,,49689,,251841,,,instructions,"[{""page_index"":0,""viewing_time"":31360},{""page_index"":1,""viewing_time"":11146},{""page_index"":2,""viewing_time"":7183}]",78
,,,,,,,,,,,,,,97888,,365314,,,instructions,"[{""page_index"":0,""viewing_time"":2142},{""page_index"":1,""viewing_time"":1936},{""page_index"":2,""viewing_time"":5940},{""page_index"":1,""viewing_time"":35925},{""page_index"":2,""viewing_time"":12913},{""page_index"":1,""viewing_time"":671},{""page_index"":0,""viewing_time"":36836},{""page_index"":1,""viewing_time"":685},{""page_index"":2,""viewing_time"":840}]",78
,,,,,,,,,,,,,,21330,,21331,,,instructions,"[{""page_index"":0,""viewing_time"":9082},{""page_index"":1,""viewing_time"":9680},{""page_index"":2,""viewing_time"":2567}]",79
,,,,,,,,,,,,,,16318,,61107,,,instructions,"[{""page_index"":0,""viewing_time"":3036},{""page_index"":1,""viewing_time"":3088},{""page_index"":2,""viewing_time"":10193}]",79
,,,,,,,,,,,,,,25182,,97715,,,instructions,"[{""page_index"":0,""viewing_time"":5173},{""page_index"":1,""viewing_time"":17336},{""page_index"":2,""viewing_time"":2672}]",79
,,,,,,,,,,,,,,85256,,85257,,,instructions,"[{""page_index"":0,""viewing_time"":37367},{""page_index"":1,""viewing_time"":28128},{""page_index"":2,""viewing_time"":19760}]",80
,,,,,,,,,,,,,,60304,,60305,,,instructions,"[{""page_index"":0,""viewing_time"":10871},{""page_index"":1,""viewing_time"":18039},{""page_index"":2,""viewing_time"":31392}]",81
,,,,,,,,,,,,,,122981,,208385,,,instructions,"[{""page_index"":0,""viewing_time"":58028},{""page_index"":1,""viewing_time"":50032},{""page_index"":2,""viewing_time"":14920}]",81
,,,,,,,,,,,,,,136457,,136458,,,instructions,"[{""page_index"":0,""viewing_time"":62743},{""page_index"":1,""viewing_time"":37354},{""page_index"":2,""viewing_time"":36360}]",82
,,,,,,,,,,,,,,259215,,259218,,,instructions,"[{""page_index"":0,""viewing_time"":88285},{""page_index"":1,""viewing_time"":109956},{""page_index"":2,""viewing_time"":60971}]",83
,,,,,,,,,,,,,,139891,,139892,,,instructions,"[{""page_index"":0,""viewing_time"":55837},{""page_index"":1,""viewing_time"":55422},{""page_index"":2,""viewing_time"":28632}]",84
,,,,,,,,,,,,,,125505,,125505,,,instructions,"[{""page_index"":0,""viewing_time"":62177},{""page_index"":1,""viewing_time"":44468},{""page_index"":2,""viewing_time"":18857}]",85
,,,,,,,,,,,,,,152293,,152295,,,instructions,"[{""page_index"":0,""viewing_time"":97725},{""page_index"":1,""viewing_time"":24953},{""page_index"":2,""viewing_time"":20016},{""page_index"":1,""viewing_time"":7940},{""page_index"":2,""viewing_time"":1658}]",86
,,,,,,,,,,,,,,125550,,125550,,,instructions,"[{""page_index"":0,""viewing_time"":47177},{""page_index"":1,""viewing_time"":57725},{""page_index"":2,""viewing_time"":20647}]",87
,,,,,,,,,,,,,,36776,,195559,,,instructions,"[{""page_index"":0,""viewing_time"":16812},{""page_index"":1,""viewing_time"":17466},{""page_index"":2,""viewing_time"":2498}]",87
,,,,,,,,,,,,,,153768,,153770,,,instructions,"[{""page_index"":0,""viewing_time"":78482},{""page_index"":1,""viewing_time"":39185},{""page_index"":2,""viewing_time"":36099}]",88
,,,,,,,,,,,,,,156233,,156236,,,instructions,"[{""page_index"":0,""viewing_time"":55432},{""page_index"":1,""viewing_time"":63314},{""page_index"":2,""viewing_time"":37484}]",89
,,,,,,,,,,,,,,50987,,50989,,,instructions,"[{""page_index"":0,""viewing_time"":29333},{""page_index"":1,""viewing_time"":14030},{""page_index"":2,""viewing_time"":7623}]",90
,,,,,,,,,,,,,,25627,,103282,,,instructions,"[{""page_index"":0,""viewing_time"":11840},{""page_index"":1,""viewing_time"":9212},{""page_index"":2,""viewing_time"":4574}]",90
,,,,,,,,,,,,,,196317,,196320,,,instructions,"[{""page_index"":0,""viewing_time"":88082},{""page_index"":1,""viewing_time"":71615},{""page_index"":2,""viewing_time"":36615}]",91
,,,,,,,,,,,,,,14042,,14042,,,instructions,"[{""page_index"":0,""viewing_time"":4521},{""page_index"":1,""viewing_time"":8113},{""page_index"":2,""viewing_time"":1407}]",92
,,,,,,,,,,,,,,43213,,99249,,,instructions,"[{""page_index"":0,""viewing_time"":14478},{""page_index"":1,""viewing_time"":15063},{""page_index"":2,""viewing_time"":13672}]",92
,,,,,,,,,,,,,,133744,,133746,,,instructions,"[{""page_index"":0,""viewing_time"":88295},{""page_index"":1,""viewing_time"":24868},{""page_index"":2,""viewing_time"":20579}]",93
,,,,,,,,,,,,,,21692,,185017,,,instructions,"[{""page_index"":0,""viewing_time"":5168},{""page_index"":1,""viewing_time"":4368},{""page_index"":2,""viewing_time"":12155}]",93
,,,,,,,,,,,,,,92270,,92272,,,instructions,"[{""page_index"":0,""viewing_time"":43865},{""page_index"":1,""viewing_time"":30272},{""page_index"":2,""viewing_time"":18131}]",94
,,,,,,,,,,,,,,63979,,63982,,,instructions,"[{""page_index"":0,""viewing_time"":14436},{""page_index"":1,""viewing_time"":28069},{""page_index"":2,""viewing_time"":21472}]",95
,,,,,,,,,,,,,,89785,,89787,,,instructions,"[{""page_index"":0,""viewing_time"":46830},{""page_index"":1,""viewing_time"":20449},{""page_index"":2,""viewing_time"":22505}]",96
,,,,,,,,,,,,,,510141,,510143,,,instructions,"[{""page_index"":0,""viewing_time"":397753},{""page_index"":1,""viewing_time"":85645},{""page_index"":2,""viewing_time"":26742}]",97
,,,,,,,,,,,,,,100037,,100039,,,instructions,"[{""page_index"":0,""viewing_time"":35451},{""page_index"":1,""viewing_time"":46167},{""page_index"":2,""viewing_time"":18418}]",98
,,,,,,,,,,,,,,93990,,93993,,,instructions,"[{""page_index"":0,""viewing_time"":40403},{""page_index"":1,""viewing_time"":33941},{""page_index"":2,""viewing_time"":19642}]",99
,,,,,,,,,,,,,,182246,,182247,,,instructions,"[{""page_index"":0,""viewing_time"":59565},{""page_index"":1,""viewing_time"":44506},{""page_index"":2,""viewing_time"":3575},{""page_index"":1,""viewing_time"":46985},{""page_index"":2,""viewing_time"":27611}]",100
,,,,,,,,,,,,,,189271,,189273,,,instructions,"[{""page_index"":0,""viewing_time"":32458},{""page_index"":1,""viewing_time"":139132},{""page_index"":2,""viewing_time"":17680}]",101
,,,,,,,,,,,,,,82902,,82903,,,instructions,"[{""page_index"":0,""viewing_time"":38713},{""page_index"":1,""viewing_time"":36372},{""page_index"":2,""viewing_time"":7816}]",102
,,,,,,,,,,,,,,159356,,159361,,,instructions,"[{""page_index"":0,""viewing_time"":64107},{""page_index"":1,""viewing_time"":69375},{""page_index"":2,""viewing_time"":25863}]",103
,,,,,,,,,,,,,,63968,,63969,,,instructions,"[{""page_index"":0,""viewing_time"":21032},{""page_index"":1,""viewing_time"":29567},{""page_index"":2,""viewing_time"":13368}]",104
,,,,,,,,,,,,,,232787,,232789,,,instructions,"[{""page_index"":0,""viewing_time"":158664},{""page_index"":1,""viewing_time"":48245},{""page_index"":2,""viewing_time"":25878}]",105
