p_rdata,action_times,actions,beliefs,correct,delays,information_used_correctly,meta_actions,path,planned_too_little,planned_too_much,queries,questions,responses,rt,score,time_elapsed,trial_index,trial_i,trial_type,view_history,pid
"[{u'Q': 5.1359999999999975, u'action': 5, u'Qs': [5.1359999999999975, 5.1359999999999975, 5.135999999999999, 5.135999999999999, 5.1359999999999975, 5.1359999999999975, 5.135999999999999, 5.135999999999999, 5.1359999999999975, 5.1359999999999975, 5.135999999999999, 5.135999999999999, 5.1359999999999975, 5.1359999999999975, 5.135999999999999, 5.135999999999999, -1.9984014443252818e-15], u'state': [0, u'__', u'__', u'__', u'__', u'__', u'__', u'__', u'__', u'__', u'__', u'__', u'__', u'__', u'__', u'__', u'__'], u'V': 5.135999999999999}, {u'Q': 13.439999999999998, u'action': 6, u'Qs': [13.44, 13.44, 13.44, 13.44, 13.439999999999998, 17.136, 17.136, 13.44, 13.44, 13.44, 13.44, 13.44, 13.44, 13.44, 13.44, 11.999999999999998], u'state': [0, u'__', u'__', u'__', u'__', 12, u'__', u'__', u'__', u'__', u'__', u'__', u'__', u'__', u'__', u'__', u'__'], u'V': 17.136}, {u'Q': 21.136, u'action': 7, u'Qs': [17.220000000000002, 17.22, 17.220000000000002, 17.220000000000002, 21.136, 21.136, 17.220000000000002, 17.22, 17.220000000000002, 17.220000000000002, 17.220000000000002, 17.22, 17.220000000000002, 17.220000000000002, 16], u'state': [0, u'__', u'__', u'__', u'__', 12, 4, u'__', u'__', u'__', u'__', u'__', u'__', u'__', u'__', u'__', u'__'], u'V': 21.136}, {u'Q': 29.44, u'action': 8, u'Qs': [29, 29, 29, 29, 29.44, 29, 29, 29, 29, 29, 29, 29, 29, 28], u'state': [0, u'__', u'__', u'__', u'__', 12, 4, 12, u'__', u'__', u'__', u'__', u'__', u'__', u'__', u'__', u'__'], u'V': 29.44}, {u'Q': 29, u'action': 9, u'Qs': [29, 29, 29, 29, 29, 29, 29, 29, 29, 29, 29, 29, 28], u'state': [0, u'__', u'__', u'__', u'__', 12, 4, 12, -12, u'__', u'__', u'__', u'__', u'__', u'__', u'__', u'__'], u'V': 29}, {u'Q': 29, u'action': 10, u'Qs': [29, 29, 29, 29, 29, 29, 29, 29, 29, 29, 29, 28], u'state': [0, u'__', u'__', u'__', u'__', 12, 4, 12, -12, -12, u'__', u'__', u'__', u'__', u'__', u'__', u'__'], u'V': 29}, {u'Q': 29, u'action': 12, u'Qs': [29, 29, 29, 29, 29, 29, 29, 29, 29, 29, 28], u'state': [0, u'__', u'__', u'__', u'__', 12, 4, 12, -12, -12, 12, u'__', u'__', u'__', u'__', u'__', u'__'], u'V': 29}, {u'Q': 29, u'action': 11, u'Qs': [29, 29, 29, 29, 29, 29, 29, 29, 29, 28], u'state': [0, u'__', u'__', u'__', u'__', 12, 4, 12, -12, -12, 12, u'__', -12, u'__', u'__', u'__', u'__'], u'V': 29}, {u'Q': 29, u'action': 1, u'Qs': [29, 29, 29, 29, 29, 29, 29, 29, 28], u'state': [0, u'__', u'__', u'__', u'__', 12, 4, 12, -12, -12, 12, -4, -12, u'__', u'__', u'__', u'__'], u'V': 29}, {u'Q': 29, u'action': 2, u'Qs': [29, 29, 29, 29, 29, 29, 29, 28], u'state': [0, -20, u'__', u'__', u'__', 12, 4, 12, -12, -12, 12, -4, -12, u'__', u'__', u'__', u'__'], u'V': 29}, {u'Q': 29, u'action': 3, u'Qs': [29, 29, 29, 29, 29, 29, 28], u'state': [0, -20, 4, u'__', u'__', 12, 4, 12, -12, -12, 12, -4, -12, u'__', u'__', u'__', u'__'], u'V': 29}, {u'Q': 29, u'action': 4, u'Qs': [29, 29, 29, 29, 29, 28], u'state': [0, -20, 4, 4, u'__', 12, 4, 12, -12, -12, 12, -4, -12, u'__', u'__', u'__', u'__'], u'V': 29}, {u'Q': 29, u'action': 13, u'Qs': [29, 29, 29, 29, 28], u'state': [0, -20, 4, 4, 4, 12, 4, 12, -12, -12, 12, -4, -12, u'__', u'__', u'__', u'__'], u'V': 29}, {u'Q': 29.220000000000002, u'action': 14, u'Qs': [29.220000000000002, 29.220000000000002, 29.220000000000002, 28], u'state': [0, -20, 4, 4, 4, 12, 4, 12, -12, -12, 12, -4, -12, 12, u'__', u'__', u'__'], u'V': 29.220000000000002}, {u'Q': 29, u'action': 15, u'Qs': [29, 29, 28], u'state': [0, -20, 4, 4, 4, 12, 4, 12, -12, -12, 12, -4, -12, 12, -4, u'__', u'__'], u'V': 29}, {u'Q': 29, u'action': 16, u'Qs': [29, 28], u'state': [0, -20, 4, 4, 4, 12, 4, 12, -12, -12, 12, -4, -12, 12, -4, 4, u'__'], u'V': 29}, {u'Q': 28, u'action': u'__TERM_ACTION__', u'Qs': [28], u'state': [0, -20, 4, 4, 4, 12, 4, 12, -12, -12, 12, -4, -12, 12, -4, 4, 4], u'V': 28}]","[71892, 77817, 81863]","[u'1', u'1', u'2']","[[0, u'__', u'__', u'__', u'__', u'__', u'__', u'__', u'__', u'__', u'__', u'__', u'__', u'__', u'__', u'__', u'__'], [0, u'__', u'__', u'__', u'__', 12, u'__', u'__', u'__', u'__', u'__', u'__', u'__', u'__', u'__', u'__', u'__'], [0, u'__', u'__', u'__', u'__', 12, 4, u'__', u'__', u'__', u'__', u'__', u'__', u'__', u'__', u'__', u'__'], [0, u'__', u'__', u'__', u'__', 12, 4, 12, u'__', u'__', u'__', u'__', u'__', u'__', u'__', u'__', u'__'], [0, u'__', u'__', u'__', u'__', 12, 4, 12, -12, u'__', u'__', u'__', u'__', u'__', u'__', u'__', u'__'], [0, u'__', u'__', u'__', u'__', 12, 4, 12, -12, -12, u'__', u'__', u'__', u'__', u'__', u'__', u'__'], [0, u'__', u'__', u'__', u'__', 12, 4, 12, -12, -12, 12, u'__', u'__', u'__', u'__', u'__', u'__'], [0, u'__', u'__', u'__', u'__', 12, 4, 12, -12, -12, 12, u'__', -12, u'__', u'__', u'__', u'__'], [0, u'__', u'__', u'__', u'__', 12, 4, 12, -12, -12, 12, -4, -12, u'__', u'__', u'__', u'__'], [0, -20, u'__', u'__', u'__', 12, 4, 12, -12, -12, 12, -4, -12, u'__', u'__', u'__', u'__'], [0, -20, 4, u'__', u'__', 12, 4, 12, -12, -12, 12, -4, -12, u'__', u'__', u'__', u'__'], [0, -20, 4, 4, u'__', 12, 4, 12, -12, -12, 12, -4, -12, u'__', u'__', u'__', u'__'], [0, -20, 4, 4, 4, 12, 4, 12, -12, -12, 12, -4, -12, u'__', u'__', u'__', u'__'], [0, -20, 4, 4, 4, 12, 4, 12, -12, -12, 12, -4, -12, 12, u'__', u'__', u'__'], [0, -20, 4, 4, 4, 12, 4, 12, -12, -12, 12, -4, -12, 12, -4, u'__', u'__'], [0, -20, 4, 4, 4, 12, 4, 12, -12, -12, 12, -4, -12, 12, -4, 4, u'__'], [0, -20, 4, 4, 4, 12, 4, 12, -12, -12, 12, -4, -12, 12, -4, 4, 4]]",,[3],[True],"[5, 6, 7, 8, 9, 10, 12, 11, 1, 2, 3, 4, 13, 14, 15, 16, u'__TERM_ACTION__']","[0, 5, 6, 7]",[True],[False],"{u'mouseover': {u'state': {u'target': [], u'time': []}, u'edge': {u'target': [], u'time': []}}, u'click': {u'state': {u'target': [5, 6, 7, 8, 9, 10, 12, 11, 1, 2, 3, 4, 13, 14, 15, 16], u'time': [2692, 3813, 4808, 7601, 13713, 15045, 15845, 16963, 18016, 18875, 19582, 20507, 21892, 23415, 24672, 26085]}, u'edge': {u'target': [], u'time': []}}, u'mouseout': {u'state': {u'target': [], u'time': []}, u'edge': {u'target': [], u'time': []}}}",,,"[71889, 2418, 3549]",12.0,227786,1.0,,mouselab-mdp,,0
"[{u'Q': 5.1359999999999975, u'action': 5, u'Qs': [5.1359999999999975, 5.1359999999999975, 5.135999999999999, 5.135999999999999, 5.1359999999999975, 5.1359999999999975, 5.135999999999999, 5.135999999999999, 5.1359999999999975, 5.1359999999999975, 5.135999999999999, 5.135999999999999, 5.1359999999999975, 5.1359999999999975, 5.135999999999999, 5.135999999999999, -1.9984014443252818e-15], u'state': [0, u'__', u'__', u'__', u'__', u'__', u'__', u'__', u'__', u'__', u'__', u'__', u'__', u'__', u'__', u'__', u'__'], u'V': 5.135999999999999}, {u'Q': 5.1359999999999975, u'action': 9, u'Qs': [5.1359999999999975, 5.1359999999999975, 5.135999999999999, 5.135999999999999, 0.9999999999999981, 0.9999999999999981, 0.9999999999999981, 5.1359999999999975, 5.1359999999999975, 5.135999999999999, 5.135999999999999, 5.1359999999999975, 5.1359999999999975, 5.135999999999999, 5.135999999999999, -1.9984014443252818e-15], u'state': [0, u'__', u'__', u'__', u'__', -20, u'__', u'__', u'__', u'__', u'__', u'__', u'__', u'__', u'__', u'__', u'__'], u'V': 5.135999999999999}, {u'Q': 20, u'action': u'__TERM_ACTION__', u'Qs': [21, 21, 21, 21, 21, 21, 21, 21, 25.135999999999996, 25.135999999999996, 21, 21, 21, 21, 20], u'state': [0, u'__', u'__', u'__', u'__', -20, u'__', u'__', u'__', 20, u'__', u'__', u'__', u'__', u'__', u'__', u'__'], u'V': 25.135999999999996}]","[7534, 21008, 22827]","[u'2', u'2', u'1']","[[0, u'__', u'__', u'__', u'__', u'__', u'__', u'__', u'__', u'__', u'__', u'__', u'__', u'__', u'__', u'__', u'__'], [0, u'__', u'__', u'__', u'__', -20, u'__', u'__', u'__', u'__', u'__', u'__', u'__', u'__', u'__', u'__', u'__'], [0, u'__', u'__', u'__', u'__', -20, u'__', u'__', u'__', 20, u'__', u'__', u'__', u'__', u'__', u'__', u'__']]",,[3],[True],"[5, 9, u'__TERM_ACTION__']","[0, 9, 10, 12]",[True],[False],"{u'mouseover': {u'state': {u'target': [], u'time': []}, u'edge': {u'target': [], u'time': []}}, u'click': {u'state': {u'target': [5, 9], u'time': [3801, 5825]}, u'edge': {u'target': [], u'time': []}}, u'mouseout': {u'state': {u'target': [], u'time': []}, u'edge': {u'target': [], u'time': []}}}",,,"[7534, 5640, 1328]",26.0,293871,2.0,,mouselab-mdp,,0
"[{u'Q': 5.1359999999999975, u'action': 5, u'Qs': [5.1359999999999975, 5.1359999999999975, 5.135999999999999, 5.135999999999999, 5.1359999999999975, 5.1359999999999975, 5.135999999999999, 5.135999999999999, 5.1359999999999975, 5.1359999999999975, 5.135999999999999, 5.135999999999999, 5.1359999999999975, 5.1359999999999975, 5.135999999999999, 5.135999999999999, -1.9984014443252818e-15], u'state': [0, u'__', u'__', u'__', u'__', u'__', u'__', u'__', u'__', u'__', u'__', u'__', u'__', u'__', u'__', u'__', u'__'], u'V': 5.135999999999999}, {u'Q': 13.439999999999998, u'action': 6, u'Qs': [13.44, 13.44, 13.44, 13.44, 13.439999999999998, 17.136, 17.136, 13.44, 13.44, 13.44, 13.44, 13.44, 13.44, 13.44, 13.44, 11.999999999999998], u'state': [0, u'__', u'__', u'__', u'__', 12, u'__', u'__', u'__', u'__', u'__', u'__', u'__', u'__', u'__', u'__', u'__'], u'V': 17.136}, {u'Q': 24, u'action': u'__TERM_ACTION__', u'Qs': [25, 25, 25, 25, 29.136000000000003, 29.136000000000003, 25, 25, 25, 25, 25, 25, 25, 25, 24], u'state': [0, u'__', u'__', u'__', u'__', 12, 12, u'__', u'__', u'__', u'__', u'__', u'__', u'__', u'__', u'__', u'__'], u'V': 29.136000000000003}]","[5649, 14086, 16738]","[u'1', u'1', u'0']","[[0, u'__', u'__', u'__', u'__', u'__', u'__', u'__', u'__', u'__', u'__', u'__', u'__', u'__', u'__', u'__', u'__'], [0, u'__', u'__', u'__', u'__', 12, u'__', u'__', u'__', u'__', u'__', u'__', u'__', u'__', u'__', u'__', u'__'], [0, u'__', u'__', u'__', u'__', 12, 12, u'__', u'__', u'__', u'__', u'__', u'__', u'__', u'__', u'__', u'__']]",,[3],[True],"[5, 6, u'__TERM_ACTION__']","[0, 5, 6, 8]",[True],[False],"{u'mouseover': {u'state': {u'target': [], u'time': []}, u'edge': {u'target': [], u'time': []}}, u'click': {u'state': {u'target': [5, 6], u'time': [2081, 3815]}, u'edge': {u'target': [], u'time': []}}, u'mouseout': {u'state': {u'target': [], u'time': []}, u'edge': {u'target': [], u'time': []}}}",,,"[5649, 2950, 2143]",26.0,350397,3.0,,mouselab-mdp,,0
"[{u'Q': 5.1359999999999975, u'action': 5, u'Qs': [5.1359999999999975, 5.1359999999999975, 5.135999999999999, 5.135999999999999, 5.1359999999999975, 5.1359999999999975, 5.135999999999999, 5.135999999999999, 5.1359999999999975, 5.1359999999999975, 5.135999999999999, 5.135999999999999, 5.1359999999999975, 5.1359999999999975, 5.135999999999999, 5.135999999999999, -1.9984014443252818e-15], u'state': [0, u'__', u'__', u'__', u'__', u'__', u'__', u'__', u'__', u'__', u'__', u'__', u'__', u'__', u'__', u'__', u'__'], u'V': 5.135999999999999}, {u'Q': 7.135999999999999, u'action': 13, u'Qs': [7.135999999999999, 7.135999999999998, 7.135999999999999, 7.135999999999999, 7.1359999999999975, 9.136, 9.136, 7.135999999999999, 7.135999999999998, 7.135999999999999, 7.135999999999999, 7.135999999999999, 7.135999999999998, 7.135999999999999, 7.135999999999999, 3.9999999999999987], u'state': [0, u'__', u'__', u'__', u'__', 4, u'__', u'__', u'__', u'__', u'__', u'__', u'__', u'__', u'__', u'__', u'__'], u'V': 9.136}, {u'Q': 7.135999999999999, u'action': 9, u'Qs': [7.135999999999999, 7.135999999999998, 7.135999999999999, 7.135999999999999, 9.135999999999997, 9.136, 9.136, 7.135999999999999, 7.135999999999998, 7.135999999999999, 7.135999999999999, 9.135999999999997, 9.136, 9.136, 3.9999999999999987], u'state': [0, u'__', u'__', u'__', u'__', 4, u'__', u'__', u'__', u'__', u'__', u'__', u'__', 4, u'__', u'__', u'__'], u'V': 9.136}, {u'Q': 7.135999999999999, u'action': 1, u'Qs': [7.135999999999999, 7.135999999999998, 7.135999999999999, 7.135999999999999, 9.135999999999997, 9.136, 9.136, 6.2879999999999985, 6.287999999999999, 6.287999999999999, 9.135999999999997, 9.136, 9.136, 3.9999999999999987], u'state': [0, u'__', u'__', u'__', u'__', 4, u'__', u'__', u'__', -4, u'__', u'__', u'__', 4, u'__', u'__', u'__'], u'V': 9.136}, {u'Q': 3.9999999999999987, u'action': u'__TERM_ACTION__', u'Qs': [9.135999999999997, 9.136, 9.136, 9.135999999999997, 9.136, 9.136, 6.2879999999999985, 6.287999999999999, 6.287999999999999, 9.135999999999997, 9.136, 9.136, 3.9999999999999987], u'state': [0, 4, u'__', u'__', u'__', 4, u'__', u'__', u'__', -4, u'__', u'__', u'__', 4, u'__', u'__', u'__'], u'V': 9.136}]","[8788, 15820, 17077]","[u'1', u'1', u'2']","[[0, u'__', u'__', u'__', u'__', u'__', u'__', u'__', u'__', u'__', u'__', u'__', u'__', u'__', u'__', u'__', u'__'], [0, u'__', u'__', u'__', u'__', 4, u'__', u'__', u'__', u'__', u'__', u'__', u'__', u'__', u'__', u'__', u'__'], [0, u'__', u'__', u'__', u'__', 4, u'__', u'__', u'__', u'__', u'__', u'__', u'__', 4, u'__', u'__', u'__'], [0, u'__', u'__', u'__', u'__', 4, u'__', u'__', u'__', -4, u'__', u'__', u'__', 4, u'__', u'__', u'__'], [0, 4, u'__', u'__', u'__', 4, u'__', u'__', u'__', -4, u'__', u'__', u'__', 4, u'__', u'__', u'__']]",,[3],[True],"[5, 13, 9, 1, u'__TERM_ACTION__']","[0, 5, 6, 7]",[True],[False],"{u'mouseover': {u'state': {u'target': [], u'time': []}, u'edge': {u'target': [], u'time': []}}, u'click': {u'state': {u'target': [5, 13, 9, 1], u'time': [1609, 2946, 4339, 5745]}, u'edge': {u'target': [], u'time': []}}, u'mouseout': {u'state': {u'target': [], u'time': []}, u'edge': {u'target': [], u'time': []}}}",,,"[8788, 364, 729]",-8.0,403138,4.0,,mouselab-mdp,,0
"[{u'Q': 5.1359999999999975, u'action': 5, u'Qs': [5.1359999999999975, 5.1359999999999975, 5.135999999999999, 5.135999999999999, 5.1359999999999975, 5.1359999999999975, 5.135999999999999, 5.135999999999999, 5.1359999999999975, 5.1359999999999975, 5.135999999999999, 5.135999999999999, 5.1359999999999975, 5.1359999999999975, 5.135999999999999, 5.135999999999999, -1.9984014443252818e-15], u'state': [0, u'__', u'__', u'__', u'__', u'__', u'__', u'__', u'__', u'__', u'__', u'__', u'__', u'__', u'__', u'__', u'__'], u'V': 5.135999999999999}, {u'Q': 3.9999999999999987, u'action': u'__TERM_ACTION__', u'Qs': [7.135999999999999, 7.135999999999998, 7.135999999999999, 7.135999999999999, 7.1359999999999975, 9.136, 9.136, 7.135999999999999, 7.135999999999998, 7.135999999999999, 7.135999999999999, 7.135999999999999, 7.135999999999998, 7.135999999999999, 7.135999999999999, 3.9999999999999987], u'state': [0, u'__', u'__', u'__', u'__', 4, u'__', u'__', u'__', u'__', u'__', u'__', u'__', u'__', u'__', u'__', u'__'], u'V': 9.136}]","[5477, 9516, 14710]","[u'1', u'1', u'2']","[[0, u'__', u'__', u'__', u'__', u'__', u'__', u'__', u'__', u'__', u'__', u'__', u'__', u'__', u'__', u'__', u'__'], [0, u'__', u'__', u'__', u'__', 4, u'__', u'__', u'__', u'__', u'__', u'__', u'__', u'__', u'__', u'__', u'__']]",,[3],[True],"[5, u'__TERM_ACTION__']","[0, 5, 6, 7]",[True],[False],"{u'mouseover': {u'state': {u'target': [], u'time': []}, u'edge': {u'target': [], u'time': []}}, u'click': {u'state': {u'target': [5], u'time': [3112]}, u'edge': {u'target': [], u'time': []}}, u'mouseout': {u'state': {u'target': [], u'time': []}, u'edge': {u'target': [], u'time': []}}}",,,"[5477, 539, 4687]",19.0,457983,5.0,,mouselab-mdp,,0
"[{u'Q': -1.9984014443252818e-15, u'action': u'__TERM_ACTION__', u'Qs': [5.1359999999999975, 5.1359999999999975, 5.135999999999999, 5.135999999999999, 5.1359999999999975, 5.1359999999999975, 5.135999999999999, 5.135999999999999, 5.1359999999999975, 5.1359999999999975, 5.135999999999999, 5.135999999999999, 5.1359999999999975, 5.1359999999999975, 5.135999999999999, 5.135999999999999, -1.9984014443252818e-15], u'state': [0, u'__', u'__', u'__', u'__', u'__', u'__', u'__', u'__', u'__', u'__', u'__', u'__', u'__', u'__', u'__', u'__'], u'V': 5.135999999999999}]","[3077, 7200, 10754]","[u'1', u'1', u'0']","[[0, u'__', u'__', u'__', u'__', u'__', u'__', u'__', u'__', u'__', u'__', u'__', u'__', u'__', u'__', u'__', u'__']]",,[3],[True],[u'__TERM_ACTION__'],"[0, 5, 6, 8]",[True],[False],"{u'mouseover': {u'state': {u'target': [], u'time': []}, u'edge': {u'target': [], u'time': []}}, u'click': {u'state': {u'target': [], u'time': []}, u'edge': {u'target': [], u'time': []}}, u'mouseout': {u'state': {u'target': [], u'time': []}, u'edge': {u'target': [], u'time': []}}}",,,"[3077, 505, 3052]",4.0,526687,6.0,,mouselab-mdp,,0
"[{u'Q': -1.9984014443252818e-15, u'action': u'__TERM_ACTION__', u'Qs': [5.1359999999999975, 5.1359999999999975, 5.135999999999999, 5.135999999999999, 5.1359999999999975, 5.1359999999999975, 5.135999999999999, 5.135999999999999, 5.1359999999999975, 5.1359999999999975, 5.135999999999999, 5.135999999999999, 5.1359999999999975, 5.1359999999999975, 5.135999999999999, 5.135999999999999, -1.9984014443252818e-15], u'state': [0, u'__', u'__', u'__', u'__', u'__', u'__', u'__', u'__', u'__', u'__', u'__', u'__', u'__', u'__', u'__', u'__'], u'V': 5.135999999999999}]","[2198, 6520, 8274]","[u'2', u'2', u'1']","[[0, u'__', u'__', u'__', u'__', u'__', u'__', u'__', u'__', u'__', u'__', u'__', u'__', u'__', u'__', u'__', u'__']]",,[3],[True],[u'__TERM_ACTION__'],"[0, 9, 10, 12]",[True],[False],"{u'mouseover': {u'state': {u'target': [], u'time': []}, u'edge': {u'target': [], u'time': []}}, u'click': {u'state': {u'target': [], u'time': []}, u'edge': {u'target': [], u'time': []}}, u'mouseout': {u'state': {u'target': [], u'time': []}, u'edge': {u'target': [], u'time': []}}}",,,"[2198, 816, 1261]",28.0,606422,7.0,,mouselab-mdp,,0
"[{u'Q': -1.9984014443252818e-15, u'action': u'__TERM_ACTION__', u'Qs': [5.1359999999999975, 5.1359999999999975, 5.135999999999999, 5.135999999999999, 5.1359999999999975, 5.1359999999999975, 5.135999999999999, 5.135999999999999, 5.1359999999999975, 5.1359999999999975, 5.135999999999999, 5.135999999999999, 5.1359999999999975, 5.1359999999999975, 5.135999999999999, 5.135999999999999, -1.9984014443252818e-15], u'state': [0, u'__', u'__', u'__', u'__', u'__', u'__', u'__', u'__', u'__', u'__', u'__', u'__', u'__', u'__', u'__', u'__'], u'V': 5.135999999999999}]","[3118, 6943, 8352]","[u'0', u'0', u'3']","[[0, u'__', u'__', u'__', u'__', u'__', u'__', u'__', u'__', u'__', u'__', u'__', u'__', u'__', u'__', u'__', u'__']]",,[3],[True],[u'__TERM_ACTION__'],"[0, 1, 2, 4]",[True],[False],"{u'mouseover': {u'state': {u'target': [], u'time': []}, u'edge': {u'target': [], u'time': []}}, u'click': {u'state': {u'target': [], u'time': []}, u'edge': {u'target': [], u'time': []}}, u'mouseout': {u'state': {u'target': [], u'time': []}, u'edge': {u'target': [], u'time': []}}}",,,"[3118, 295, 908]",-4.0,743493,8.0,,mouselab-mdp,,0
"[{u'Q': -1.9984014443252818e-15, u'action': u'__TERM_ACTION__', u'Qs': [5.1359999999999975, 5.1359999999999975, 5.135999999999999, 5.135999999999999, 5.1359999999999975, 5.1359999999999975, 5.135999999999999, 5.135999999999999, 5.1359999999999975, 5.1359999999999975, 5.135999999999999, 5.135999999999999, 5.1359999999999975, 5.1359999999999975, 5.135999999999999, 5.135999999999999, -1.9984014443252818e-15], u'state': [0, u'__', u'__', u'__', u'__', u'__', u'__', u'__', u'__', u'__', u'__', u'__', u'__', u'__', u'__', u'__', u'__'], u'V': 5.135999999999999}]","[2954, 6727, 8846]","[u'1', u'1', u'2']","[[0, u'__', u'__', u'__', u'__', u'__', u'__', u'__', u'__', u'__', u'__', u'__', u'__', u'__', u'__', u'__', u'__']]",,[3],[True],[u'__TERM_ACTION__'],"[0, 5, 6, 7]",[True],[False],"{u'mouseover': {u'state': {u'target': [], u'time': []}, u'edge': {u'target': [], u'time': []}}, u'click': {u'state': {u'target': [], u'time': []}, u'edge': {u'target': [], u'time': []}}, u'mouseout': {u'state': {u'target': [], u'time': []}, u'edge': {u'target': [], u'time': []}}}",,,"[2954, 270, 1627]",4.0,892158,9.0,,mouselab-mdp,,0
"[{u'Q': 5.1359999999999975, u'action': 5, u'Qs': [5.1359999999999975, 5.1359999999999975, 5.135999999999999, 5.135999999999999, 5.1359999999999975, 5.1359999999999975, 5.135999999999999, 5.135999999999999, 5.1359999999999975, 5.1359999999999975, 5.135999999999999, 5.135999999999999, 5.1359999999999975, 5.1359999999999975, 5.135999999999999, 5.135999999999999, -1.9984014443252818e-15], u'state': [0, u'__', u'__', u'__', u'__', u'__', u'__', u'__', u'__', u'__', u'__', u'__', u'__', u'__', u'__', u'__', u'__'], u'V': 5.135999999999999}, {u'Q': 5.1359999999999975, u'action': 9, u'Qs': [5.1359999999999975, 5.1359999999999975, 5.135999999999999, 5.135999999999999, 1.4399999999999982, 1.4399999999999984, 1.4399999999999984, 5.1359999999999975, 5.1359999999999975, 5.135999999999999, 5.135999999999999, 5.1359999999999975, 5.1359999999999975, 5.135999999999999, 5.135999999999999, -1.9984014443252818e-15], u'state': [0, u'__', u'__', u'__', u'__', -12, u'__', u'__', u'__', u'__', u'__', u'__', u'__', u'__', u'__', u'__', u'__'], u'V': 5.135999999999999}, {u'Q': 7.135999999999999, u'action': 13, u'Qs': [7.135999999999999, 7.135999999999998, 7.135999999999999, 7.135999999999999, 5.219999999999999, 5.219999999999999, 5.219999999999999, 7.1359999999999975, 9.136, 9.136, 7.135999999999999, 7.135999999999998, 7.135999999999999, 7.135999999999999, 3.9999999999999987], u'state': [0, u'__', u'__', u'__', u'__', -12, u'__', u'__', u'__', 4, u'__', u'__', u'__', u'__', u'__', u'__', u'__'], u'V': 9.136}, {u'Q': 7.135999999999999, u'action': 1, u'Qs': [7.135999999999999, 7.135999999999998, 7.135999999999999, 7.135999999999999, 5.219999999999999, 5.219999999999999, 5.219999999999999, 7.1359999999999975, 9.136, 9.136, 5.219999999999999, 5.219999999999999, 5.219999999999999, 3.9999999999999987], u'state': [0, u'__', u'__', u'__', u'__', -12, u'__', u'__', u'__', 4, u'__', u'__', u'__', -12, u'__', u'__', u'__'], u'V': 9.136}, {u'Q': 3.9999999999999987, u'action': u'__TERM_ACTION__', u'Qs': [6.2879999999999985, 6.287999999999999, 6.287999999999999, 5.219999999999999, 5.219999999999999, 5.219999999999999, 6.287999999999998, 9.136, 9.136, 5.219999999999999, 5.219999999999999, 5.219999999999999, 3.9999999999999987], u'state': [0, -4, u'__', u'__', u'__', -12, u'__', u'__', u'__', 4, u'__', u'__', u'__', -12, u'__', u'__', u'__'], u'V': 9.136}]","[12048, 25717, 27326]","[u'2', u'2', u'1']","[[0, u'__', u'__', u'__', u'__', u'__', u'__', u'__', u'__', u'__', u'__', u'__', u'__', u'__', u'__', u'__', u'__'], [0, u'__', u'__', u'__', u'__', -12, u'__', u'__', u'__', u'__', u'__', u'__', u'__', u'__', u'__', u'__', u'__'], [0, u'__', u'__', u'__', u'__', -12, u'__', u'__', u'__', 4, u'__', u'__', u'__', u'__', u'__', u'__', u'__'], [0, u'__', u'__', u'__', u'__', -12, u'__', u'__', u'__', 4, u'__', u'__', u'__', -12, u'__', u'__', u'__'], [0, -4, u'__', u'__', u'__', -12, u'__', u'__', u'__', 4, u'__', u'__', u'__', -12, u'__', u'__', u'__']]",,[3],[True],"[5, 9, 13, 1, u'__TERM_ACTION__']","[0, 9, 10, 12]",[True],[False],"{u'mouseover': {u'state': {u'target': [], u'time': []}, u'edge': {u'target': [], u'time': []}}, u'click': {u'state': {u'target': [5, 9, 13, 1], u'time': [7675, 8558, 9695, 10726]}, u'edge': {u'target': [], u'time': []}}, u'mouseout': {u'state': {u'target': [], u'time': []}, u'edge': {u'target': [], u'time': []}}}",,,"[12048, 4328, 1081]",-8.0,1076229,10.0,,mouselab-mdp,,0
,"[15977, 16992, 17881]","[u'0', u'0', u'1']","[[0, u'__', u'__', u'__', u'__', u'__', u'__', u'__', u'__', u'__', u'__', u'__', u'__', u'__', u'__', u'__', u'__'], [0, u'__', u'__', u'__', u'__', u'__', u'__', u'__', u'__', -20, u'__', u'__', u'__', u'__', u'__', u'__', u'__'], [0, u'__', u'__', u'__', u'__', u'__', u'__', u'__', u'__', -20, 20, u'__', u'__', u'__', u'__', u'__', u'__'], [0, u'__', u'__', u'__', u'__', u'__', u'__', u'__', u'__', -20, 20, u'__', -20, u'__', u'__', u'__', u'__'], [0, u'__', u'__', u'__', u'__', u'__', u'__', u'__', u'__', -20, 20, 12, -20, u'__', u'__', u'__', u'__'], [0, u'__', u'__', u'__', u'__', u'__', u'__', u'__', u'__', -20, 20, 12, -20, -12, u'__', u'__', u'__'], [0, u'__', u'__', u'__', u'__', -12, u'__', u'__', u'__', -20, 20, 12, -20, -12, u'__', u'__', u'__'], [0, u'__', u'__', u'__', u'__', -12, -12, u'__', u'__', -20, 20, 12, -20, -12, u'__', u'__', u'__'], [0, u'__', u'__', u'__', u'__', -12, -12, u'__', u'__', -20, 20, 12, -20, -12, -4, u'__', u'__'], [0, u'__', 12, u'__', u'__', -12, -12, u'__', u'__', -20, 20, 12, -20, -12, -4, u'__', u'__']]",,[],[],"[9, 10, 12, 11, 13, 5, 6, 14, 2, u'__TERM_ACTION__']","[0, 1, 2, 3]",[],[],"{u'mouseover': {u'state': {u'target': [], u'time': []}, u'edge': {u'target': [], u'time': []}}, u'click': {u'state': {u'target': [9, 10, 12, 11, 13, 5, 6, 14, 2], u'time': [4161, 5847, 6725, 7624, 9149, 10183, 11338, 12426, 14934]}, u'edge': {u'target': [], u'time': []}}, u'mouseout': {u'state': {u'target': [], u'time': []}, u'edge': {u'target': [], u'time': []}}}",,,"[15977, 439, 397]",11.0,1158213,11.0,,mouselab-mdp,,0
,"[3828, 8826, 10006]","[u'2', u'2', u'1']","[[0, u'__', u'__', u'__', u'__', u'__', u'__', u'__', u'__', u'__', u'__', u'__', u'__', u'__', u'__', u'__', u'__'], [0, u'__', u'__', u'__', u'__', u'__', u'__', u'__', u'__', 12, u'__', u'__', u'__', u'__', u'__', u'__', u'__']]",,[],[],"[9, u'__TERM_ACTION__']","[0, 9, 10, 12]",[],[],"{u'mouseover': {u'state': {u'target': [], u'time': []}, u'edge': {u'target': [], u'time': []}}, u'click': {u'state': {u'target': [9], u'time': [2442]}, u'edge': {u'target': [], u'time': []}}, u'mouseout': {u'state': {u'target': [], u'time': []}, u'edge': {u'target': [], u'time': []}}}",,,"[3828, 1077, 676]",11.0,1206385,12.0,,mouselab-mdp,,0
,"[1411, 2960, 4159]","[u'1', u'1', u'2']","[[0, u'__', u'__', u'__', u'__', u'__', u'__', u'__', u'__', u'__', u'__', u'__', u'__', u'__', u'__', u'__', u'__']]",,[],[],[u'__TERM_ACTION__'],"[0, 5, 6, 7]",[],[],"{u'mouseover': {u'state': {u'target': [], u'time': []}, u'edge': {u'target': [], u'time': []}}, u'click': {u'state': {u'target': [], u'time': []}, u'edge': {u'target': [], u'time': []}}, u'mouseout': {u'state': {u'target': [], u'time': []}, u'edge': {u'target': [], u'time': []}}}",,,"[1411, 1045, 694]",-44.0,1290782,13.0,,mouselab-mdp,,0
,"[2085, 4279, 5691]","[u'2', u'2', u'1']","[[0, u'__', u'__', u'__', u'__', u'__', u'__', u'__', u'__', u'__', u'__', u'__', u'__', u'__', u'__', u'__', u'__']]",,[],[],[u'__TERM_ACTION__'],"[0, 9, 10, 12]",[],[],"{u'mouseover': {u'state': {u'target': [], u'time': []}, u'edge': {u'target': [], u'time': []}}, u'click': {u'state': {u'target': [], u'time': []}, u'edge': {u'target': [], u'time': []}}, u'mouseout': {u'state': {u'target': [], u'time': []}, u'edge': {u'target': [], u'time': []}}}",,,"[2084, 1688, 904]",4.0,1386188,14.0,,mouselab-mdp,,0
,"[5478, 10990, 12063]","[u'2', u'2', u'1']","[[0, u'__', u'__', u'__', u'__', u'__', u'__', u'__', u'__', u'__', u'__', u'__', u'__', u'__', u'__', u'__', u'__'], [0, u'__', u'__', u'__', u'__', u'__', u'__', u'__', u'__', u'__', u'__', u'__', 12, u'__', u'__', u'__', u'__']]",,[],[],"[12, u'__TERM_ACTION__']","[0, 9, 10, 12]",[],[],"{u'mouseover': {u'state': {u'target': [], u'time': []}, u'edge': {u'target': [], u'time': []}}, u'click': {u'state': {u'target': [12], u'time': [2361]}, u'edge': {u'target': [], u'time': []}}, u'mouseout': {u'state': {u'target': [], u'time': []}, u'edge': {u'target': [], u'time': []}}}",,,"[5478, 1145, 567]",35.0,1451728,15.0,,mouselab-mdp,,0
,"[5700, 12812, 13802]","[u'1', u'1', u'0']","[[0, u'__', u'__', u'__', u'__', u'__', u'__', u'__', u'__', u'__', u'__', u'__', u'__', u'__', u'__', u'__', u'__'], [0, u'__', u'__', u'__', u'__', u'__', u'__', -12, u'__', u'__', u'__', u'__', u'__', u'__', u'__', u'__', u'__'], [0, u'__', u'__', u'__', u'__', u'__', u'__', -12, 20, u'__', u'__', u'__', u'__', u'__', u'__', u'__', u'__']]",,[],[],"[7, 8, u'__TERM_ACTION__']","[0, 5, 6, 8]",[],[],"{u'mouseover': {u'state': {u'target': [], u'time': []}, u'edge': {u'target': [], u'time': []}}, u'click': {u'state': {u'target': [7, 8], u'time': [2091, 4038]}, u'edge': {u'target': [], u'time': []}}, u'mouseout': {u'state': {u'target': [], u'time': []}, u'edge': {u'target': [], u'time': []}}}",,,"[5700, 680, 485]",2.0,1520875,16.0,,mouselab-mdp,,0
"[{u'Q': -1.9984014443252818e-15, u'action': u'__TERM_ACTION__', u'Qs': [4.3859999999999975, 4.3859999999999975, 4.385999999999999, 4.385999999999999, 4.3859999999999975, 4.3859999999999975, 4.385999999999999, 4.385999999999999, 4.3859999999999975, 4.3859999999999975, 4.385999999999999, 4.385999999999999, 4.3859999999999975, 4.3859999999999975, 4.385999999999999, 4.385999999999999, -1.9984014443252818e-15], u'state': [0, u'__', u'__', u'__', u'__', u'__', u'__', u'__', u'__', u'__', u'__', u'__', u'__', u'__', u'__', u'__', u'__'], u'V': 4.385999999999999}]","[5201, 9632, 15394]","[u'0', u'0', u'1']","[[0, u'__', u'__', u'__', u'__', u'__', u'__', u'__', u'__', u'__', u'__', u'__', u'__', u'__', u'__', u'__', u'__']]",,[None],[True],[u'__TERM_ACTION__'],"[0, 1, 2, 3]",[True],[False],"{u'mouseover': {u'state': {u'target': [], u'time': []}, u'edge': {u'target': [], u'time': []}}, u'click': {u'state': {u'target': [], u'time': []}, u'edge': {u'target': [], u'time': []}}, u'mouseout': {u'state': {u'target': [], u'time': []}, u'edge': {u'target': [], u'time': []}}}",,,"[5200, 3397, 5252]",-12.0,194268,1.0,,mouselab-mdp,,1
"[{u'Q': 4.3859999999999975, u'action': 9, u'Qs': [4.3859999999999975, 4.3859999999999975, 4.385999999999999, 4.385999999999999, 4.3859999999999975, 4.3859999999999975, 4.385999999999999, 4.385999999999999, 4.3859999999999975, 4.3859999999999975, 4.385999999999999, 4.385999999999999, 4.3859999999999975, 4.3859999999999975, 4.385999999999999, 4.385999999999999, -1.9984014443252818e-15], u'state': [0, u'__', u'__', u'__', u'__', u'__', u'__', u'__', u'__', u'__', u'__', u'__', u'__', u'__', u'__', u'__', u'__'], u'V': 4.385999999999999}, {u'Q': 11.999999999999998, u'action': u'__TERM_ACTION__', u'Qs': [12.69, 12.69, 12.69, 12.69, 12.69, 12.69, 12.69, 12.69, 12.689999999999998, 16.386, 16.386, 12.69, 12.69, 12.69, 12.69, 11.999999999999998], u'state': [0, u'__', u'__', u'__', u'__', u'__', u'__', u'__', u'__', 12, u'__', u'__', u'__', u'__', u'__', u'__', u'__'], u'V': 16.386}]","[4048, 25349, 28004]","[u'2', u'2', u'1']","[[0, u'__', u'__', u'__', u'__', u'__', u'__', u'__', u'__', u'__', u'__', u'__', u'__', u'__', u'__', u'__', u'__'], [0, u'__', u'__', u'__', u'__', u'__', u'__', u'__', u'__', 12, u'__', u'__', u'__', u'__', u'__', u'__', u'__']]",,[None],[True],"[9, u'__TERM_ACTION__']","[0, 9, 10, 12]",[True],[False],"{u'mouseover': {u'state': {u'target': [], u'time': []}, u'edge': {u'target': [], u'time': []}}, u'click': {u'state': {u'target': [9], u'time': [2341]}, u'edge': {u'target': [], u'time': []}}, u'mouseout': {u'state': {u'target': [], u'time': []}, u'edge': {u'target': [], u'time': []}}}",,,"[4048, 20388, 2137]",27.75,260511,2.0,,mouselab-mdp,,1
"[{u'Q': 4.3859999999999975, u'action': 1, u'Qs': [4.3859999999999975, 4.3859999999999975, 4.385999999999999, 4.385999999999999, 4.3859999999999975, 4.3859999999999975, 4.385999999999999, 4.385999999999999, 4.3859999999999975, 4.3859999999999975, 4.385999999999999, 4.385999999999999, 4.3859999999999975, 4.3859999999999975, 4.385999999999999, 4.385999999999999, -1.9984014443252818e-15], u'state': [0, u'__', u'__', u'__', u'__', u'__', u'__', u'__', u'__', u'__', u'__', u'__', u'__', u'__', u'__', u'__', u'__'], u'V': 4.385999999999999}, {u'Q': 11.999999999999998, u'action': u'__TERM_ACTION__', u'Qs': [12.689999999999998, 16.386, 16.386, 12.69, 12.69, 12.69, 12.69, 12.69, 12.69, 12.69, 12.69, 12.69, 12.69, 12.69, 12.69, 11.999999999999998], u'state': [0, 12, u'__', u'__', u'__', u'__', u'__', u'__', u'__', u'__', u'__', u'__', u'__', u'__', u'__', u'__', u'__'], u'V': 16.386}]","[7592, 9750, 11712]","[u'0', u'0', u'3']","[[0, u'__', u'__', u'__', u'__', u'__', u'__', u'__', u'__', u'__', u'__', u'__', u'__', u'__', u'__', u'__', u'__'], [0, 12, u'__', u'__', u'__', u'__', u'__', u'__', u'__', u'__', u'__', u'__', u'__', u'__', u'__', u'__', u'__']]",,[None],[True],"[1, u'__TERM_ACTION__']","[0, 1, 2, 4]",[True],[False],"{u'mouseover': {u'state': {u'target': [], u'time': []}, u'edge': {u'target': [], u'time': []}}, u'click': {u'state': {u'target': [1], u'time': [5583]}, u'edge': {u'target': [], u'time': []}}, u'mouseout': {u'state': {u'target': [], u'time': []}, u'edge': {u'target': [], u'time': []}}}",,,"[7591, 1340, 1453]",19.75,308301,3.0,,mouselab-mdp,,1
"[{u'Q': 4.3859999999999975, u'action': 5, u'Qs': [4.3859999999999975, 4.3859999999999975, 4.385999999999999, 4.385999999999999, 4.3859999999999975, 4.3859999999999975, 4.385999999999999, 4.385999999999999, 4.3859999999999975, 4.3859999999999975, 4.385999999999999, 4.385999999999999, 4.3859999999999975, 4.3859999999999975, 4.385999999999999, 4.385999999999999, -1.9984014443252818e-15], u'state': [0, u'__', u'__', u'__', u'__', u'__', u'__', u'__', u'__', u'__', u'__', u'__', u'__', u'__', u'__', u'__', u'__'], u'V': 4.385999999999999}, {u'Q': 4.3859999999999975, u'action': 14, u'Qs': [4.3859999999999975, 4.3859999999999975, 4.385999999999999, 4.385999999999999, 2.3859999999999983, 2.3859999999999992, 2.3859999999999992, 4.3859999999999975, 4.3859999999999975, 4.385999999999999, 4.385999999999999, 4.3859999999999975, 4.3859999999999975, 4.385999999999999, 4.385999999999999, -1.9984014443252818e-15], u'state': [0, u'__', u'__', u'__', u'__', -4, u'__', u'__', u'__', u'__', u'__', u'__', u'__', u'__', u'__', u'__', u'__'], u'V': 4.385999999999999}, {u'Q': 6.385999999999998, u'action': 10, u'Qs': [6.3859999999999975, 6.385999999999998, 6.385999999999999, 6.385999999999999, 5.5379999999999985, 5.537999999999999, 5.537999999999999, 6.3859999999999975, 6.385999999999998, 6.385999999999999, 6.385999999999999, 6.385999999999998, 8.386, 8.386, 3.9999999999999982], u'state': [0, u'__', u'__', u'__', u'__', -4, u'__', u'__', u'__', u'__', u'__', u'__', u'__', u'__', 4, u'__', u'__'], u'V': 8.386}, {u'Q': 6.385999999999998, u'action': 2, u'Qs': [6.3859999999999975, 6.385999999999998, 6.385999999999999, 6.385999999999999, 5.5379999999999985, 5.537999999999999, 5.537999999999999, 8.386, 8.386, 8.386, 8.386, 8.386, 8.386, 3.9999999999999982], u'state': [0, u'__', u'__', u'__', u'__', -4, u'__', u'__', u'__', u'__', 4, u'__', u'__', u'__', 4, u'__', u'__'], u'V': 8.386}, {u'Q': 3.9999999999999982, u'action': u'__TERM_ACTION__', u'Qs': [8.386, 8.386, 8.386, 5.5379999999999985, 5.537999999999999, 5.537999999999999, 8.386, 8.386, 8.386, 8.386, 8.386, 8.386, 3.9999999999999982], u'state': [0, u'__', 4, u'__', u'__', -4, u'__', u'__', u'__', u'__', 4, u'__', u'__', u'__', 4, u'__', u'__'], u'V': 8.386}]","[14408, 16307, 18605]","[u'3', u'3', u'2']","[[0, u'__', u'__', u'__', u'__', u'__', u'__', u'__', u'__', u'__', u'__', u'__', u'__', u'__', u'__', u'__', u'__'], [0, u'__', u'__', u'__', u'__', -4, u'__', u'__', u'__', u'__', u'__', u'__', u'__', u'__', u'__', u'__', u'__'], [0, u'__', u'__', u'__', u'__', -4, u'__', u'__', u'__', u'__', u'__', u'__', u'__', u'__', 4, u'__', u'__'], [0, u'__', u'__', u'__', u'__', -4, u'__', u'__', u'__', u'__', 4, u'__', u'__', u'__', 4, u'__', u'__'], [0, u'__', 4, u'__', u'__', -4, u'__', u'__', u'__', u'__', 4, u'__', u'__', u'__', 4, u'__', u'__']]",,[None],[True],"[5, 14, 10, 2, u'__TERM_ACTION__']","[0, 13, 14, 16]",[True],[False],"{u'mouseover': {u'state': {u'target': [], u'time': []}, u'edge': {u'target': [], u'time': []}}, u'click': {u'state': {u'target': [5, 14, 10, 2], u'time': [2547, 6400, 8835, 11486]}, u'edge': {u'target': [], u'time': []}}, u'mouseout': {u'state': {u'target': [], u'time': []}, u'edge': {u'target': [], u'time': []}}}",,,"[14408, 1251, 1784]",-5.0,383366,4.0,,mouselab-mdp,,1
"[{u'Q': 4.3859999999999975, u'action': 5, u'Qs': [4.3859999999999975, 4.3859999999999975, 4.385999999999999, 4.385999999999999, 4.3859999999999975, 4.3859999999999975, 4.385999999999999, 4.385999999999999, 4.3859999999999975, 4.3859999999999975, 4.385999999999999, 4.385999999999999, 4.3859999999999975, 4.3859999999999975, 4.385999999999999, 4.385999999999999, -1.9984014443252818e-15], u'state': [0, u'__', u'__', u'__', u'__', u'__', u'__', u'__', u'__', u'__', u'__', u'__', u'__', u'__', u'__', u'__', u'__'], u'V': 4.385999999999999}, {u'Q': 11.999999999999998, u'action': u'__TERM_ACTION__', u'Qs': [12.69, 12.69, 12.69, 12.69, 12.689999999999998, 16.386, 16.386, 12.69, 12.69, 12.69, 12.69, 12.69, 12.69, 12.69, 12.69, 11.999999999999998], u'state': [0, u'__', u'__', u'__', u'__', 12, u'__', u'__', u'__', u'__', u'__', u'__', u'__', u'__', u'__', u'__', u'__'], u'V': 16.386}]","[3511, 4924, 6106]","[u'1', u'1', u'0']","[[0, u'__', u'__', u'__', u'__', u'__', u'__', u'__', u'__', u'__', u'__', u'__', u'__', u'__', u'__', u'__', u'__'], [0, u'__', u'__', u'__', u'__', 12, u'__', u'__', u'__', u'__', u'__', u'__', u'__', u'__', u'__', u'__', u'__']]",,[None],[True],"[5, u'__TERM_ACTION__']","[0, 5, 6, 8]",[True],[False],"{u'mouseover': {u'state': {u'target': [], u'time': []}, u'edge': {u'target': [], u'time': []}}, u'click': {u'state': {u'target': [5], u'time': [2270]}, u'edge': {u'target': [], u'time': []}}, u'mouseout': {u'state': {u'target': [], u'time': []}, u'edge': {u'target': [], u'time': []}}}",,,"[3511, 568, 652]",27.75,431169,5.0,,mouselab-mdp,,1
"[{u'Q': 4.3859999999999975, u'action': 9, u'Qs': [4.3859999999999975, 4.3859999999999975, 4.385999999999999, 4.385999999999999, 4.3859999999999975, 4.3859999999999975, 4.385999999999999, 4.385999999999999, 4.3859999999999975, 4.3859999999999975, 4.385999999999999, 4.385999999999999, 4.3859999999999975, 4.3859999999999975, 4.385999999999999, 4.385999999999999, -1.9984014443252818e-15], u'state': [0, u'__', u'__', u'__', u'__', u'__', u'__', u'__', u'__', u'__', u'__', u'__', u'__', u'__', u'__', u'__', u'__'], u'V': 4.385999999999999}, {u'Q': 4.3859999999999975, u'action': 1, u'Qs': [4.3859999999999975, 4.3859999999999975, 4.385999999999999, 4.385999999999999, 4.3859999999999975, 4.3859999999999975, 4.385999999999999, 4.385999999999999, 2.3859999999999983, 2.3859999999999992, 2.3859999999999992, 4.3859999999999975, 4.3859999999999975, 4.385999999999999, 4.385999999999999, -1.9984014443252818e-15], u'state': [0, u'__', u'__', u'__', u'__', u'__', u'__', u'__', u'__', -4, u'__', u'__', u'__', u'__', u'__', u'__', u'__'], u'V': 4.385999999999999}, {u'Q': -1.9984014443252818e-15, u'action': u'__TERM_ACTION__', u'Qs': [2.3859999999999983, 2.3859999999999992, 2.3859999999999992, 4.3859999999999975, 4.3859999999999975, 4.385999999999999, 4.385999999999999, 2.3859999999999983, 2.3859999999999992, 2.3859999999999992, 4.3859999999999975, 4.3859999999999975, 4.385999999999999, 4.385999999999999, -1.9984014443252818e-15], u'state': [0, -4, u'__', u'__', u'__', u'__', u'__', u'__', u'__', -4, u'__', u'__', u'__', u'__', u'__', u'__', u'__'], u'V': 4.385999999999999}]","[5812, 7466, 9151]","[u'3', u'3', u'0']","[[0, u'__', u'__', u'__', u'__', u'__', u'__', u'__', u'__', u'__', u'__', u'__', u'__', u'__', u'__', u'__', u'__'], [0, u'__', u'__', u'__', u'__', u'__', u'__', u'__', u'__', -4, u'__', u'__', u'__', u'__', u'__', u'__', u'__'], [0, -4, u'__', u'__', u'__', u'__', u'__', u'__', u'__', -4, u'__', u'__', u'__', u'__', u'__', u'__', u'__']]",,[None],[True],"[9, 1, u'__TERM_ACTION__']","[0, 13, 14, 15]",[True],[False],"{u'mouseover': {u'state': {u'target': [], u'time': []}, u'edge': {u'target': [], u'time': []}}, u'click': {u'state': {u'target': [9, 1], u'time': [1793, 3594]}, u'edge': {u'target': [], u'time': []}}, u'mouseout': {u'state': {u'target': [], u'time': []}, u'edge': {u'target': [], u'time': []}}}",,,"[5812, 909, 1179]",-20.5,544663,6.0,,mouselab-mdp,,1
"[{u'Q': 4.3859999999999975, u'action': 9, u'Qs': [4.3859999999999975, 4.3859999999999975, 4.385999999999999, 4.385999999999999, 4.3859999999999975, 4.3859999999999975, 4.385999999999999, 4.385999999999999, 4.3859999999999975, 4.3859999999999975, 4.385999999999999, 4.385999999999999, 4.3859999999999975, 4.3859999999999975, 4.385999999999999, 4.385999999999999, -1.9984014443252818e-15], u'state': [0, u'__', u'__', u'__', u'__', u'__', u'__', u'__', u'__', u'__', u'__', u'__', u'__', u'__', u'__', u'__', u'__'], u'V': 4.385999999999999}, {u'Q': 6.385999999999999, u'action': 1, u'Qs': [6.385999999999999, 6.385999999999998, 6.385999999999999, 6.385999999999999, 6.385999999999999, 6.385999999999998, 6.385999999999999, 6.385999999999999, 6.3859999999999975, 8.386, 8.386, 6.385999999999999, 6.385999999999998, 6.385999999999999, 6.385999999999999, 3.9999999999999987], u'state': [0, u'__', u'__', u'__', u'__', u'__', u'__', u'__', u'__', 4, u'__', u'__', u'__', u'__', u'__', u'__', u'__'], u'V': 8.386}, {u'Q': 3.9999999999999987, u'action': u'__TERM_ACTION__', u'Qs': [5.5379999999999985, 5.537999999999999, 5.537999999999999, 6.385999999999999, 6.385999999999998, 6.385999999999999, 6.385999999999999, 6.3859999999999975, 8.386, 8.386, 6.385999999999999, 6.385999999999998, 6.385999999999999, 6.385999999999999, 3.9999999999999987], u'state': [0, -4, u'__', u'__', u'__', u'__', u'__', u'__', u'__', 4, u'__', u'__', u'__', u'__', u'__', u'__', u'__'], u'V': 8.386}]","[6296, 7439, 8755]","[u'2', u'2', u'1']","[[0, u'__', u'__', u'__', u'__', u'__', u'__', u'__', u'__', u'__', u'__', u'__', u'__', u'__', u'__', u'__', u'__'], [0, u'__', u'__', u'__', u'__', u'__', u'__', u'__', u'__', 4, u'__', u'__', u'__', u'__', u'__', u'__', u'__'], [0, -4, u'__', u'__', u'__', u'__', u'__', u'__', u'__', 4, u'__', u'__', u'__', u'__', u'__', u'__', u'__']]",,[None],[True],"[9, 1, u'__TERM_ACTION__']","[0, 9, 10, 12]",[True],[False],"{u'mouseover': {u'state': {u'target': [], u'time': []}, u'edge': {u'target': [], u'time': []}}, u'click': {u'state': {u'target': [9, 1], u'time': [1834, 4756]}, u'edge': {u'target': [], u'time': []}}, u'mouseout': {u'state': {u'target': [], u'time': []}, u'edge': {u'target': [], u'time': []}}}",,,"[6296, 398, 800]",27.5,639850,7.0,,mouselab-mdp,,1
"[{u'Q': 4.3859999999999975, u'action': 6, u'Qs': [4.3859999999999975, 4.3859999999999975, 4.385999999999999, 4.385999999999999, 4.3859999999999975, 4.3859999999999975, 4.385999999999999, 4.385999999999999, 4.3859999999999975, 4.3859999999999975, 4.385999999999999, 4.385999999999999, 4.3859999999999975, 4.3859999999999975, 4.385999999999999, 4.385999999999999, -1.9984014443252818e-15], u'state': [0, u'__', u'__', u'__', u'__', u'__', u'__', u'__', u'__', u'__', u'__', u'__', u'__', u'__', u'__', u'__', u'__'], u'V': 4.385999999999999}, {u'Q': 20, u'action': u'__TERM_ACTION__', u'Qs': [20.25, 20.25, 20.25, 20.25, 20.25, 24.385999999999996, 24.385999999999996, 20.25, 20.25, 20.25, 20.25, 20.25, 20.25, 20.25, 20.25, 20], u'state': [0, u'__', u'__', u'__', u'__', u'__', 20, u'__', u'__', u'__', u'__', u'__', u'__', u'__', u'__', u'__', u'__'], u'V': 24.385999999999996}]","[4689, 6669, 7930]","[u'1', u'1', u'2']","[[0, u'__', u'__', u'__', u'__', u'__', u'__', u'__', u'__', u'__', u'__', u'__', u'__', u'__', u'__', u'__', u'__'], [0, u'__', u'__', u'__', u'__', u'__', 20, u'__', u'__', u'__', u'__', u'__', u'__', u'__', u'__', u'__', u'__']]",,[None],[True],"[6, u'__TERM_ACTION__']","[0, 5, 6, 7]",[True],[False],"{u'mouseover': {u'state': {u'target': [], u'time': []}, u'edge': {u'target': [], u'time': []}}, u'click': {u'state': {u'target': [6], u'time': [3520]}, u'edge': {u'target': [], u'time': []}}, u'mouseout': {u'state': {u'target': [], u'time': []}, u'edge': {u'target': [], u'time': []}}}",,,"[4688, 1111, 757]",27.75,687175,8.0,,mouselab-mdp,,1
"[{u'Q': 4.3859999999999975, u'action': 14, u'Qs': [4.3859999999999975, 4.3859999999999975, 4.385999999999999, 4.385999999999999, 4.3859999999999975, 4.3859999999999975, 4.385999999999999, 4.385999999999999, 4.3859999999999975, 4.3859999999999975, 4.385999999999999, 4.385999999999999, 4.3859999999999975, 4.3859999999999975, 4.385999999999999, 4.385999999999999, -1.9984014443252818e-15], u'state': [0, u'__', u'__', u'__', u'__', u'__', u'__', u'__', u'__', u'__', u'__', u'__', u'__', u'__', u'__', u'__', u'__'], u'V': 4.385999999999999}, {u'Q': 4.3859999999999975, u'action': 6, u'Qs': [4.3859999999999975, 4.3859999999999975, 4.385999999999999, 4.385999999999999, 4.3859999999999975, 4.3859999999999975, 4.385999999999999, 4.385999999999999, 4.3859999999999975, 4.3859999999999975, 4.385999999999999, 4.385999999999999, 2.3859999999999983, 2.3859999999999983, 2.3859999999999983, -1.9984014443252818e-15], u'state': [0, u'__', u'__', u'__', u'__', u'__', u'__', u'__', u'__', u'__', u'__', u'__', u'__', u'__', -4, u'__', u'__'], u'V': 4.385999999999999}, {u'Q': 4.3859999999999975, u'action': 2, u'Qs': [4.3859999999999975, 4.3859999999999975, 4.385999999999999, 4.385999999999999, 2.3859999999999983, 2.3859999999999983, 2.3859999999999983, 4.3859999999999975, 4.3859999999999975, 4.385999999999999, 4.385999999999999, 2.3859999999999983, 2.3859999999999983, 2.3859999999999983, -1.9984014443252818e-15], u'state': [0, u'__', u'__', u'__', u'__', u'__', -4, u'__', u'__', u'__', u'__', u'__', u'__', u'__', -4, u'__', u'__'], u'V': 4.385999999999999}, {u'Q': 2.3859999999999983, u'action': 10, u'Qs': [0.6899999999999984, 0.6899999999999983, 0.6899999999999983, 2.3859999999999983, 2.3859999999999983, 2.3859999999999983, 2.3859999999999983, 2.3859999999999983, 4.385999999999999, 4.385999999999999, 2.3859999999999983, 2.3859999999999983, 2.3859999999999983, -1.9984014443252818e-15], u'state': [0, u'__', -12, u'__', u'__', u'__', -4, u'__', u'__', u'__', u'__', u'__', u'__', u'__', -4, u'__', u'__'], u'V': 4.385999999999999}, {u'Q': -4.000000000000002, u'action': u'__TERM_ACTION__', u'Qs': [-2.4620000000000015, -2.4620000000000015, -2.4620000000000015, 0.38599999999999834, 0.38599999999999834, 0.38599999999999834, -2.4620000000000015, -2.4620000000000015, -2.4620000000000015, 0.38599999999999834, 0.38599999999999834, 0.38599999999999834, -4.000000000000002], u'state': [0, u'__', -12, u'__', u'__', u'__', -4, u'__', u'__', u'__', -12, u'__', u'__', u'__', -4, u'__', u'__'], u'V': 0.38599999999999834}]","[7633, 9181, 10044]","[u'3', u'3', u'2']","[[0, u'__', u'__', u'__', u'__', u'__', u'__', u'__', u'__', u'__', u'__', u'__', u'__', u'__', u'__', u'__', u'__'], [0, u'__', u'__', u'__', u'__', u'__', u'__', u'__', u'__', u'__', u'__', u'__', u'__', u'__', -4, u'__', u'__'], [0, u'__', u'__', u'__', u'__', u'__', -4, u'__', u'__', u'__', u'__', u'__', u'__', u'__', -4, u'__', u'__'], [0, u'__', -12, u'__', u'__', u'__', -4, u'__', u'__', u'__', u'__', u'__', u'__', u'__', -4, u'__', u'__'], [0, u'__', -12, u'__', u'__', u'__', -4, u'__', u'__', u'__', -12, u'__', u'__', u'__', -4, u'__', u'__']]",,[None],[True],"[14, 6, 2, 10, u'__TERM_ACTION__']","[0, 13, 14, 16]",[True],[False],"{u'mouseover': {u'state': {u'target': [], u'time': []}, u'edge': {u'target': [], u'time': []}}, u'click': {u'state': {u'target': [14, 6, 2, 10], u'time': [842, 2724, 4003, 6189]}, u'edge': {u'target': [], u'time': []}}, u'mouseout': {u'state': {u'target': [], u'time': []}, u'edge': {u'target': [], u'time': []}}}",,,"[7633, 922, 354]",-21.0,772133,9.0,,mouselab-mdp,,1
"[{u'Q': 4.3859999999999975, u'action': 14, u'Qs': [4.3859999999999975, 4.3859999999999975, 4.385999999999999, 4.385999999999999, 4.3859999999999975, 4.3859999999999975, 4.385999999999999, 4.385999999999999, 4.3859999999999975, 4.3859999999999975, 4.385999999999999, 4.385999999999999, 4.3859999999999975, 4.3859999999999975, 4.385999999999999, 4.385999999999999, -1.9984014443252818e-15], u'state': [0, u'__', u'__', u'__', u'__', u'__', u'__', u'__', u'__', u'__', u'__', u'__', u'__', u'__', u'__', u'__', u'__'], u'V': 4.385999999999999}, {u'Q': 4.3859999999999975, u'action': 1, u'Qs': [4.3859999999999975, 4.3859999999999975, 4.385999999999999, 4.385999999999999, 4.3859999999999975, 4.3859999999999975, 4.385999999999999, 4.385999999999999, 4.3859999999999975, 4.3859999999999975, 4.385999999999999, 4.385999999999999, 2.3859999999999983, 2.3859999999999983, 2.3859999999999983, -1.9984014443252818e-15], u'state': [0, u'__', u'__', u'__', u'__', u'__', u'__', u'__', u'__', u'__', u'__', u'__', u'__', u'__', -4, u'__', u'__'], u'V': 4.385999999999999}, {u'Q': 3.9999999999999987, u'action': u'__TERM_ACTION__', u'Qs': [6.3859999999999975, 8.386, 8.386, 6.385999999999999, 6.385999999999998, 6.385999999999999, 6.385999999999999, 6.385999999999999, 6.385999999999998, 6.385999999999999, 6.385999999999999, 5.537999999999999, 5.537999999999999, 5.537999999999999, 3.9999999999999987], u'state': [0, 4, u'__', u'__', u'__', u'__', u'__', u'__', u'__', u'__', u'__', u'__', u'__', u'__', -4, u'__', u'__'], u'V': 8.386}]","[4601, 6144, 7528]","[u'0', u'0', u'1']","[[0, u'__', u'__', u'__', u'__', u'__', u'__', u'__', u'__', u'__', u'__', u'__', u'__', u'__', u'__', u'__', u'__'], [0, u'__', u'__', u'__', u'__', u'__', u'__', u'__', u'__', u'__', u'__', u'__', u'__', u'__', -4, u'__', u'__'], [0, 4, u'__', u'__', u'__', u'__', u'__', u'__', u'__', u'__', u'__', u'__', u'__', u'__', -4, u'__', u'__']]",,[None],[True],"[14, 1, u'__TERM_ACTION__']","[0, 1, 2, 3]",[True],[False],"{u'mouseover': {u'state': {u'target': [], u'time': []}, u'edge': {u'target': [], u'time': []}}, u'click': {u'state': {u'target': [14, 1], u'time': [2088, 3656]}, u'edge': {u'target': [], u'time': []}}, u'mouseout': {u'state': {u'target': [], u'time': []}, u'edge': {u'target': [], u'time': []}}}",,,"[4601, 753, 871]",19.5,857093,10.0,,mouselab-mdp,,1
,"[6396, 8089, 9101]","[u'3', u'3', u'0']","[[0, u'__', u'__', u'__', u'__', u'__', u'__', u'__', u'__', u'__', u'__', u'__', u'__', u'__', u'__', u'__', u'__'], [0, u'__', u'__', u'__', u'__', u'__', -12, u'__', u'__', u'__', u'__', u'__', u'__', u'__', u'__', u'__', u'__'], [0, u'__', u'__', u'__', u'__', u'__', -12, u'__', u'__', u'__', u'__', u'__', u'__', u'__', 12, u'__', u'__']]",,[],[],"[6, 14, u'__TERM_ACTION__']","[0, 13, 14, 15]",[],[],"{u'mouseover': {u'state': {u'target': [], u'time': []}, u'edge': {u'target': [], u'time': []}}, u'click': {u'state': {u'target': [6, 14], u'time': [3204, 5254]}, u'edge': {u'target': [], u'time': []}}, u'mouseout': {u'state': {u'target': [], u'time': []}, u'edge': {u'target': [], u'time': []}}}",,,"[6396, 873, 501]",11.5,1037811,11.0,,mouselab-mdp,,1
,"[6524, 9133, 10475]","[u'2', u'2', u'1']","[[0, u'__', u'__', u'__', u'__', u'__', u'__', u'__', u'__', u'__', u'__', u'__', u'__', u'__', u'__', u'__', u'__'], [0, u'__', u'__', u'__', u'__', u'__', u'__', u'__', u'__', u'__', u'__', u'__', u'__', u'__', -4, u'__', u'__'], [0, u'__', 4, u'__', u'__', u'__', u'__', u'__', u'__', u'__', u'__', u'__', u'__', u'__', -4, u'__', u'__']]",,[],[],"[14, 2, u'__TERM_ACTION__']","[0, 9, 10, 12]",[],[],"{u'mouseover': {u'state': {u'target': [], u'time': []}, u'edge': {u'target': [], u'time': []}}, u'click': {u'state': {u'target': [14, 2], u'time': [3313, 4943]}, u'edge': {u'target': [], u'time': []}}, u'mouseout': {u'state': {u'target': [], u'time': []}, u'edge': {u'target': [], u'time': []}}}",,,"[6524, 1824, 833]",35.5,1086043,12.0,,mouselab-mdp,,1
,"[2489, 3921, 5433]","[u'3', u'3', u'2']","[[0, u'__', u'__', u'__', u'__', u'__', u'__', u'__', u'__', u'__', u'__', u'__', u'__', u'__', u'__', u'__', u'__']]",,[],[],[u'__TERM_ACTION__'],"[0, 13, 14, 16]",[],[],"{u'mouseover': {u'state': {u'target': [], u'time': []}, u'edge': {u'target': [], u'time': []}}, u'click': {u'state': {u'target': [], u'time': []}, u'edge': {u'target': [], u'time': []}}, u'mouseout': {u'state': {u'target': [], u'time': []}, u'edge': {u'target': [], u'time': []}}}",,,"[2489, 919, 998]",28.0,1134543,13.0,,mouselab-mdp,,1
,"[4507, 6343, 7705]","[u'3', u'3', u'0']","[[0, u'__', u'__', u'__', u'__', u'__', u'__', u'__', u'__', u'__', u'__', u'__', u'__', u'__', u'__', u'__', u'__'], [0, u'__', u'__', u'__', u'__', u'__', -20, u'__', u'__', u'__', u'__', u'__', u'__', u'__', u'__', u'__', u'__']]",,[],[],"[6, u'__TERM_ACTION__']","[0, 13, 14, 15]",[],[],"{u'mouseover': {u'state': {u'target': [], u'time': []}, u'edge': {u'target': [], u'time': []}}, u'click': {u'state': {u'target': [6], u'time': [2066]}, u'edge': {u'target': [], u'time': []}}, u'mouseout': {u'state': {u'target': [], u'time': []}, u'edge': {u'target': [], u'time': []}}}",,,"[4507, 990, 854]",11.75,1186393,14.0,,mouselab-mdp,,1
,"[18169, 19553, 20983]","[u'1', u'1', u'2']","[[0, u'__', u'__', u'__', u'__', u'__', u'__', u'__', u'__', u'__', u'__', u'__', u'__', u'__', u'__', u'__', u'__'], [0, u'__', u'__', u'__', u'__', 12, u'__', u'__', u'__', u'__', u'__', u'__', u'__', u'__', u'__', u'__', u'__'], [0, u'__', u'__', u'__', u'__', 12, u'__', u'__', u'__', -12, u'__', u'__', u'__', u'__', u'__', u'__', u'__'], [0, u'__', 4, u'__', u'__', 12, u'__', u'__', u'__', -12, u'__', u'__', u'__', u'__', u'__', u'__', u'__']]",,[],[],"[5, 9, 2, u'__TERM_ACTION__']","[0, 5, 6, 7]",[],[],"{u'mouseover': {u'state': {u'target': [], u'time': []}, u'edge': {u'target': [], u'time': []}}, u'click': {u'state': {u'target': [5, 9, 2], u'time': [2770, 9929, 15511]}, u'edge': {u'target': [], u'time': []}}, u'mouseout': {u'state': {u'target': [], u'time': []}, u'edge': {u'target': [], u'time': []}}}",,,"[18169, 699, 914]",27.25,1242067,15.0,,mouselab-mdp,,1
,"[5639, 7017, 8007]","[u'0', u'0', u'1']","[[0, u'__', u'__', u'__', u'__', u'__', u'__', u'__', u'__', u'__', u'__', u'__', u'__', u'__', u'__', u'__', u'__'], [0, u'__', u'__', u'__', u'__', u'__', u'__', u'__', u'__', u'__', u'__', u'__', u'__', u'__', -4, u'__', u'__'], [0, u'__', 12, u'__', u'__', u'__', u'__', u'__', u'__', u'__', u'__', u'__', u'__', u'__', -4, u'__', u'__']]",,[],[],"[14, 2, u'__TERM_ACTION__']","[0, 1, 2, 3]",[],[],"{u'mouseover': {u'state': {u'target': [], u'time': []}, u'edge': {u'target': [], u'time': []}}, u'click': {u'state': {u'target': [14, 2], u'time': [2918, 4534]}, u'edge': {u'target': [], u'time': []}}, u'mouseout': {u'state': {u'target': [], u'time': []}, u'edge': {u'target': [], u'time': []}}}",,,"[5639, 602, 478]",19.5,1324913,16.0,,mouselab-mdp,,1
"[{u'Q': 8.135999999999997, u'action': 13, u'Qs': [8.135999999999997, 8.135999999999997, 8.136, 8.136, 8.135999999999997, 8.135999999999997, 8.136, 8.136, 8.135999999999997, 8.135999999999997, 8.136, 8.136, 8.135999999999997, 8.135999999999997, 8.136, 8.136, -1.9984014443252818e-15], u'state': [0, u'__', u'__', u'__', u'__', u'__', u'__', u'__', u'__', u'__', u'__', u'__', u'__', u'__', u'__', u'__', u'__'], u'V': 8.136}, {u'Q': 8.135999999999997, u'action': 5, u'Qs': [8.135999999999997, 8.135999999999997, 8.136, 8.136, 8.135999999999997, 8.135999999999997, 8.136, 8.136, 8.135999999999997, 8.135999999999997, 8.136, 8.136, 4.439999999999999, 4.439999999999999, 4.439999999999999, -1.9984014443252818e-15], u'state': [0, u'__', u'__', u'__', u'__', u'__', u'__', u'__', u'__', u'__', u'__', u'__', u'__', -12, u'__', u'__', u'__'], u'V': 8.136}, {u'Q': 3.9999999999999987, u'action': u'__TERM_ACTION__', u'Qs': [10.136, 10.136, 10.136, 10.136, 10.135999999999997, 12.136, 12.136, 10.136, 10.136, 10.136, 10.136, 8.219999999999999, 8.219999999999999, 8.219999999999999, 3.9999999999999987], u'state': [0, u'__', u'__', u'__', u'__', 4, u'__', u'__', u'__', u'__', u'__', u'__', u'__', -12, u'__', u'__', u'__'], u'V': 12.136}]","[11957, 19763, 22018]","[u'1', u'1', u'0']","[[0, u'__', u'__', u'__', u'__', u'__', u'__', u'__', u'__', u'__', u'__', u'__', u'__', u'__', u'__', u'__', u'__'], [0, u'__', u'__', u'__', u'__', u'__', u'__', u'__', u'__', u'__', u'__', u'__', u'__', -12, u'__', u'__', u'__'], [0, u'__', u'__', u'__', u'__', 4, u'__', u'__', u'__', u'__', u'__', u'__', u'__', -12, u'__', u'__', u'__']]",,[None],[True],"[13, 5, u'__TERM_ACTION__']","[0, 5, 6, 8]",[True],[False],"{u'mouseover': {u'state': {u'target': [], u'time': []}, u'edge': {u'target': [], u'time': []}}, u'click': {u'state': {u'target': [13, 5], u'time': [4078, 7734]}, u'edge': {u'target': [], u'time': []}}, u'mouseout': {u'state': {u'target': [], u'time': []}, u'edge': {u'target': [], u'time': []}}}",,,"[11956, 7064, 1759]",-4.0,373006,1.0,,mouselab-mdp,,2
"[{u'Q': 8.135999999999997, u'action': 1, u'Qs': [8.135999999999997, 8.135999999999997, 8.136, 8.136, 8.135999999999997, 8.135999999999997, 8.136, 8.136, 8.135999999999997, 8.135999999999997, 8.136, 8.136, 8.135999999999997, 8.135999999999997, 8.136, 8.136, -1.9984014443252818e-15], u'state': [0, u'__', u'__', u'__', u'__', u'__', u'__', u'__', u'__', u'__', u'__', u'__', u'__', u'__', u'__', u'__', u'__'], u'V': 8.136}, {u'Q': 8.136, u'action': 12, u'Qs': [3.9999999999999982, 3.9999999999999982, 3.9999999999999982, 8.135999999999997, 8.135999999999997, 8.136, 8.136, 8.135999999999997, 8.135999999999997, 8.136, 8.136, 8.135999999999997, 8.135999999999997, 8.136, 8.136, -1.9984014443252818e-15], u'state': [0, -20, u'__', u'__', u'__', u'__', u'__', u'__', u'__', u'__', u'__', u'__', u'__', u'__', u'__', u'__', u'__'], u'V': 8.136}, {u'Q': 8.136, u'action': 16, u'Qs': [3.9999999999999982, 3.9999999999999982, 3.9999999999999982, 8.135999999999997, 8.135999999999997, 8.136, 8.136, 8.135999999999997, 8.135999999999997, 8.136, 8.135999999999997, 8.135999999999997, 8.136, 8.136, -1.9984014443252818e-15], u'state': [0, -20, u'__', u'__', u'__', u'__', u'__', u'__', u'__', u'__', u'__', u'__', -12, u'__', u'__', u'__', u'__'], u'V': 8.136}, {u'Q': 3.9999999999999982, u'action': u'__TERM_ACTION__', u'Qs': [7.999999999999998, 7.999999999999998, 7.999999999999998, 10.135999999999997, 10.136, 10.136, 10.136, 10.135999999999997, 10.136, 10.136, 10.136, 10.136, 10.136, 3.9999999999999982], u'state': [0, -20, u'__', u'__', u'__', u'__', u'__', u'__', u'__', u'__', u'__', u'__', -12, u'__', u'__', u'__', 4], u'V': 10.136}]","[24105, 25369, 26280]","[u'2', u'2', u'3']","[[0, u'__', u'__', u'__', u'__', u'__', u'__', u'__', u'__', u'__', u'__', u'__', u'__', u'__', u'__', u'__', u'__'], [0, -20, u'__', u'__', u'__', u'__', u'__', u'__', u'__', u'__', u'__', u'__', u'__', u'__', u'__', u'__', u'__'], [0, -20, u'__', u'__', u'__', u'__', u'__', u'__', u'__', u'__', u'__', u'__', -12, u'__', u'__', u'__', u'__'], [0, -20, u'__', u'__', u'__', u'__', u'__', u'__', u'__', u'__', u'__', u'__', -12, u'__', u'__', u'__', 4]]",,[None],[False],"[1, 12, 16, u'__TERM_ACTION__']","[0, 9, 10, 11]",[True],[False],"{u'mouseover': {u'state': {u'target': [], u'time': []}, u'edge': {u'target': [], u'time': []}}, u'click': {u'state': {u'target': [1, 12, 16], u'time': [1631, 5486, 16661]}, u'edge': {u'target': [], u'time': []}}, u'mouseout': {u'state': {u'target': [], u'time': []}, u'edge': {u'target': [], u'time': []}}}",,,"[24105, 473, 419]",-16.0,428223,2.0,,mouselab-mdp,,2
"[{u'Q': 8.135999999999997, u'action': 5, u'Qs': [8.135999999999997, 8.135999999999997, 8.136, 8.136, 8.135999999999997, 8.135999999999997, 8.136, 8.136, 8.135999999999997, 8.135999999999997, 8.136, 8.136, 8.135999999999997, 8.135999999999997, 8.136, 8.136, -1.9984014443252818e-15], u'state': [0, u'__', u'__', u'__', u'__', u'__', u'__', u'__', u'__', u'__', u'__', u'__', u'__', u'__', u'__', u'__', u'__'], u'V': 8.136}, {u'Q': 12.136, u'action': 8, u'Qs': [10.136, 10.136, 10.136, 10.136, 10.135999999999997, 12.136, 12.136, 10.136, 10.136, 10.136, 10.136, 10.136, 10.136, 10.136, 10.136, 3.9999999999999987], u'state': [0, u'__', u'__', u'__', u'__', 4, u'__', u'__', u'__', u'__', u'__', u'__', u'__', u'__', u'__', u'__', u'__'], u'V': 12.136}, {u'Q': 10.136, u'action': 7, u'Qs': [10.136, 10.136, 10.136, 10.136, 10.135999999999997, 10.136, 10.136, 10.136, 10.136, 10.136, 10.136, 10.136, 10.136, 10.136, 3.9999999999999987], u'state': [0, u'__', u'__', u'__', u'__', 4, u'__', u'__', -4, u'__', u'__', u'__', u'__', u'__', u'__', u'__', u'__'], u'V': 10.136}, {u'Q': 8.136, u'action': 9, u'Qs': [8.136, 8.136, 8.136, 8.136, 8.136, 8.136, 8.136, 8.136, 8.136, 8.136, 8.136, 8.136, 8.136, -8.881784197001252e-16], u'state': [0, u'__', u'__', u'__', u'__', 4, u'__', -20, -4, u'__', u'__', u'__', u'__', u'__', u'__', u'__', u'__'], u'V': 8.136}, {u'Q': 12.136, u'action': 12, u'Qs': [10.136, 10.136, 10.136, 10.136, 10.136, 10.135999999999997, 12.136, 12.136, 10.136, 10.136, 10.136, 10.136, 3.9999999999999987], u'state': [0, u'__', u'__', u'__', u'__', 4, u'__', -20, -4, 4, u'__', u'__', u'__', u'__', u'__', u'__', u'__'], u'V': 12.136}, {u'Q': 24, u'action': u'__TERM_ACTION__', u'Qs': [28, 28, 28, 28, 28, 28, 28, 28, 28, 28, 28, 24], u'state': [0, u'__', u'__', u'__', u'__', 4, u'__', -20, -4, 4, u'__', u'__', 20, u'__', u'__', u'__', u'__'], u'V': 28}]","[11667, 12489, 13625]","[u'2', u'2', u'1']","[[0, u'__', u'__', u'__', u'__', u'__', u'__', u'__', u'__', u'__', u'__', u'__', u'__', u'__', u'__', u'__', u'__'], [0, u'__', u'__', u'__', u'__', 4, u'__', u'__', u'__', u'__', u'__', u'__', u'__', u'__', u'__', u'__', u'__'], [0, u'__', u'__', u'__', u'__', 4, u'__', u'__', -4, u'__', u'__', u'__', u'__', u'__', u'__', u'__', u'__'], [0, u'__', u'__', u'__', u'__', 4, u'__', -20, -4, u'__', u'__', u'__', u'__', u'__', u'__', u'__', u'__'], [0, u'__', u'__', u'__', u'__', 4, u'__', -20, -4, 4, u'__', u'__', u'__', u'__', u'__', u'__', u'__'], [0, u'__', u'__', u'__', u'__', 4, u'__', -20, -4, 4, u'__', u'__', 20, u'__', u'__', u'__', u'__']]",,[None],[True],"[5, 8, 7, 9, 12, u'__TERM_ACTION__']","[0, 9, 10, 12]",[True],[False],"{u'mouseover': {u'state': {u'target': [], u'time': []}, u'edge': {u'target': [], u'time': []}}, u'click': {u'state': {u'target': [5, 8, 7, 9, 12], u'time': [1079, 2278, 5141, 8999, 10809]}, u'edge': {u'target': [], u'time': []}}, u'mouseout': {u'state': {u'target': [], u'time': []}, u'edge': {u'target': [], u'time': []}}}",,,"[11667, 225, 646]",16.0,475671,3.0,,mouselab-mdp,,2
"[{u'Q': 8.135999999999997, u'action': 9, u'Qs': [8.135999999999997, 8.135999999999997, 8.136, 8.136, 8.135999999999997, 8.135999999999997, 8.136, 8.136, 8.135999999999997, 8.135999999999997, 8.136, 8.136, 8.135999999999997, 8.135999999999997, 8.136, 8.136, -1.9984014443252818e-15], u'state': [0, u'__', u'__', u'__', u'__', u'__', u'__', u'__', u'__', u'__', u'__', u'__', u'__', u'__', u'__', u'__', u'__'], u'V': 8.136}, {u'Q': 8.135999999999997, u'action': 13, u'Qs': [8.135999999999997, 8.135999999999997, 8.136, 8.136, 8.135999999999997, 8.135999999999997, 8.136, 8.136, 3.9999999999999982, 3.9999999999999982, 3.9999999999999982, 8.135999999999997, 8.135999999999997, 8.136, 8.136, -1.9984014443252818e-15], u'state': [0, u'__', u'__', u'__', u'__', u'__', u'__', u'__', u'__', -20, u'__', u'__', u'__', u'__', u'__', u'__', u'__'], u'V': 8.136}, {u'Q': 8.135999999999997, u'action': 1, u'Qs': [8.135999999999997, 8.135999999999997, 8.136, 8.136, 8.135999999999997, 8.135999999999997, 8.136, 8.136, 3.9999999999999982, 3.9999999999999982, 3.9999999999999982, 4.439999999999999, 4.439999999999999, 4.439999999999999, -1.9984014443252818e-15], u'state': [0, u'__', u'__', u'__', u'__', u'__', u'__', u'__', u'__', -20, u'__', u'__', u'__', -12, u'__', u'__', u'__'], u'V': 8.136}, {u'Q': 20.136, u'action': 3, u'Qs': [16.439999999999998, 20.136, 20.136, 16.439999999999998, 16.439999999999998, 16.439999999999998, 16.439999999999998, 15.999999999999998, 15.999999999999998, 15.999999999999998, 15.999999999999998, 15.999999999999998, 15.999999999999998, 11.999999999999998], u'state': [0, 12, u'__', u'__', u'__', u'__', u'__', u'__', u'__', -20, u'__', u'__', u'__', -12, u'__', u'__', u'__'], u'V': 20.136}, {u'Q': 11.999999999999998, u'action': u'__TERM_ACTION__', u'Qs': [16.439999999999998, 18.136, 16.439999999999998, 16.439999999999998, 16.439999999999998, 16.439999999999998, 15.999999999999998, 15.999999999999998, 15.999999999999998, 15.999999999999998, 15.999999999999998, 15.999999999999998, 11.999999999999998], u'state': [0, 12, u'__', -4, u'__', u'__', u'__', u'__', u'__', -20, u'__', u'__', u'__', -12, u'__', u'__', u'__'], u'V': 18.136}]","[13903, 14815, 15572]","[u'0', u'0', u'3']","[[0, u'__', u'__', u'__', u'__', u'__', u'__', u'__', u'__', u'__', u'__', u'__', u'__', u'__', u'__', u'__', u'__'], [0, u'__', u'__', u'__', u'__', u'__', u'__', u'__', u'__', -20, u'__', u'__', u'__', u'__', u'__', u'__', u'__'], [0, u'__', u'__', u'__', u'__', u'__', u'__', u'__', u'__', -20, u'__', u'__', u'__', -12, u'__', u'__', u'__'], [0, 12, u'__', u'__', u'__', u'__', u'__', u'__', u'__', -20, u'__', u'__', u'__', -12, u'__', u'__', u'__'], [0, 12, u'__', -4, u'__', u'__', u'__', u'__', u'__', -20, u'__', u'__', u'__', -12, u'__', u'__', u'__']]",,[None],[True],"[9, 13, 1, 3, u'__TERM_ACTION__']","[0, 1, 2, 4]",[True],[False],"{u'mouseover': {u'state': {u'target': [], u'time': []}, u'edge': {u'target': [], u'time': []}}, u'click': {u'state': {u'target': [9, 13, 1, 3], u'time': [3841, 7388, 9287, 11463]}, u'edge': {u'target': [], u'time': []}}, u'mouseout': {u'state': {u'target': [], u'time': []}, u'edge': {u'target': [], u'time': []}}}",,,"[13903, 300, 258]",28.0,523901,4.0,,mouselab-mdp,,2
"[{u'Q': 8.135999999999997, u'action': 9, u'Qs': [8.135999999999997, 8.135999999999997, 8.136, 8.136, 8.135999999999997, 8.135999999999997, 8.136, 8.136, 8.135999999999997, 8.135999999999997, 8.136, 8.136, 8.135999999999997, 8.135999999999997, 8.136, 8.136, -1.9984014443252818e-15], u'state': [0, u'__', u'__', u'__', u'__', u'__', u'__', u'__', u'__', u'__', u'__', u'__', u'__', u'__', u'__', u'__', u'__'], u'V': 8.136}, {u'Q': 20.136, u'action': 12, u'Qs': [16.439999999999998, 16.439999999999998, 16.439999999999998, 16.439999999999998, 16.439999999999998, 16.439999999999998, 16.439999999999998, 16.439999999999998, 16.439999999999998, 20.136, 20.136, 16.439999999999998, 16.439999999999998, 16.439999999999998, 16.439999999999998, 11.999999999999998], u'state': [0, u'__', u'__', u'__', u'__', u'__', u'__', u'__', u'__', 12, u'__', u'__', u'__', u'__', u'__', u'__', u'__'], u'V': 20.136}, {u'Q': 22.136000000000003, u'action': 11, u'Qs': [20.220000000000002, 20.22, 20.220000000000002, 20.220000000000002, 20.220000000000002, 20.22, 20.220000000000002, 20.220000000000002, 20.220000000000002, 22.136000000000003, 20.220000000000002, 20.22, 20.220000000000002, 20.220000000000002, 16], u'state': [0, u'__', u'__', u'__', u'__', u'__', u'__', u'__', u'__', 12, u'__', u'__', 4, u'__', u'__', u'__', u'__'], u'V': 22.136000000000003}, {u'Q': 20.220000000000002, u'action': 10, u'Qs': [20.220000000000002, 20.22, 20.220000000000002, 20.220000000000002, 20.220000000000002, 20.22, 20.220000000000002, 20.220000000000002, 20.220000000000002, 20.220000000000002, 20.22, 20.220000000000002, 20.220000000000002, 16], u'state': [0, u'__', u'__', u'__', u'__', u'__', u'__', u'__', u'__', 12, u'__', -4, 4, u'__', u'__', u'__', u'__'], u'V': 20.220000000000002}, {u'Q': 16.439999999999998, u'action': 1, u'Qs': [16.439999999999998, 16.439999999999998, 16.439999999999998, 16.439999999999998, 16.439999999999998, 16.439999999999998, 16.439999999999998, 16.439999999999998, 16.439999999999998, 16.439999999999998, 16.439999999999998, 16.439999999999998, 12], u'state': [0, u'__', u'__', u'__', u'__', u'__', u'__', u'__', u'__', 12, -4, -4, 4, u'__', u'__', u'__', u'__'], u'V': 16.439999999999998}, {u'Q': 16.439999999999998, u'action': 5, u'Qs': [16.22, 16.22, 16.22, 16.439999999999998, 16.439999999999998, 16.439999999999998, 16.439999999999998, 16.439999999999998, 16.439999999999998, 16.439999999999998, 16.439999999999998, 12], u'state': [0, -4, u'__', u'__', u'__', u'__', u'__', u'__', u'__', 12, -4, -4, 4, u'__', u'__', u'__', u'__'], u'V': 16.439999999999998}, {u'Q': 20.136, u'action': 7, u'Qs': [16.22, 16.22, 16.22, 20.136, 20.136, 20.136, 16.439999999999998, 16.439999999999998, 16.439999999999998, 16.439999999999998, 12], u'state': [0, -4, u'__', u'__', u'__', 12, u'__', u'__', u'__', 12, -4, -4, 4, u'__', u'__', u'__', u'__'], u'V': 20.136}, {u'Q': 12, u'action': u'__TERM_ACTION__', u'Qs': [16.22, 16.22, 16.22, 20.136, 20.136, 16.439999999999998, 16.439999999999998, 16.439999999999998, 16.439999999999998, 12], u'state': [0, -4, u'__', u'__', u'__', 12, u'__', -4, u'__', 12, -4, -4, 4, u'__', u'__', u'__', u'__'], u'V': 20.136}]","[21082, 21899, 22680]","[u'1', u'1', u'0']","[[0, u'__', u'__', u'__', u'__', u'__', u'__', u'__', u'__', u'__', u'__', u'__', u'__', u'__', u'__', u'__', u'__'], [0, u'__', u'__', u'__', u'__', u'__', u'__', u'__', u'__', 12, u'__', u'__', u'__', u'__', u'__', u'__', u'__'], [0, u'__', u'__', u'__', u'__', u'__', u'__', u'__', u'__', 12, u'__', u'__', 4, u'__', u'__', u'__', u'__'], [0, u'__', u'__', u'__', u'__', u'__', u'__', u'__', u'__', 12, u'__', -4, 4, u'__', u'__', u'__', u'__'], [0, u'__', u'__', u'__', u'__', u'__', u'__', u'__', u'__', 12, -4, -4, 4, u'__', u'__', u'__', u'__'], [0, -4, u'__', u'__', u'__', u'__', u'__', u'__', u'__', 12, -4, -4, 4, u'__', u'__', u'__', u'__'], [0, -4, u'__', u'__', u'__', 12, u'__', u'__', u'__', 12, -4, -4, 4, u'__', u'__', u'__', u'__'], [0, -4, u'__', u'__', u'__', 12, u'__', -4, u'__', 12, -4, -4, 4, u'__', u'__', u'__', u'__']]",,[None],[True],"[9, 12, 11, 10, 1, 5, 7, u'__TERM_ACTION__']","[0, 5, 6, 8]",[True],[False],"{u'mouseover': {u'state': {u'target': [], u'time': []}, u'edge': {u'target': [], u'time': []}}, u'click': {u'state': {u'target': [9, 12, 11, 10, 1, 5, 7], u'time': [1704, 3016, 6161, 7843, 16513, 17954, 19884]}, u'edge': {u'target': [], u'time': []}}, u'mouseout': {u'state': {u'target': [], u'time': []}, u'edge': {u'target': [], u'time': []}}}",,,"[21082, 277, 276]",0.0,575824,5.0,,mouselab-mdp,,2
"[{u'Q': 8.135999999999997, u'action': 5, u'Qs': [8.135999999999997, 8.135999999999997, 8.136, 8.136, 8.135999999999997, 8.135999999999997, 8.136, 8.136, 8.135999999999997, 8.135999999999997, 8.136, 8.136, 8.135999999999997, 8.135999999999997, 8.136, 8.136, -1.9984014443252818e-15], u'state': [0, u'__', u'__', u'__', u'__', u'__', u'__', u'__', u'__', u'__', u'__', u'__', u'__', u'__', u'__', u'__', u'__'], u'V': 8.136}, {u'Q': 10.136, u'action': 1, u'Qs': [10.136, 10.136, 10.136, 10.136, 10.135999999999997, 12.136, 12.136, 10.136, 10.136, 10.136, 10.136, 10.136, 10.136, 10.136, 10.136, 3.9999999999999987], u'state': [0, u'__', u'__', u'__', u'__', 4, u'__', u'__', u'__', u'__', u'__', u'__', u'__', u'__', u'__', u'__', u'__'], u'V': 12.136}, {u'Q': 28.135999999999996, u'action': 3, u'Qs': [24.22, 28.135999999999996, 28.135999999999996, 24.220000000000002, 24.220000000000002, 24.220000000000002, 24, 24, 24, 24, 24, 24, 24, 24, 20], u'state': [0, 20, u'__', u'__', u'__', 4, u'__', u'__', u'__', u'__', u'__', u'__', u'__', u'__', u'__', u'__', u'__'], u'V': 28.135999999999996}, {u'Q': 24, u'action': u'__TERM_ACTION__', u'Qs': [28, 30.136, 28, 28, 28, 28, 28, 28, 28, 28, 28, 28, 28, 24], u'state': [0, 20, u'__', 4, u'__', 4, u'__', u'__', u'__', u'__', u'__', u'__', u'__', u'__', u'__', u'__', u'__'], u'V': 30.136}]","[9427, 10931, 12174]","[u'0', u'0', u'3']","[[0, u'__', u'__', u'__', u'__', u'__', u'__', u'__', u'__', u'__', u'__', u'__', u'__', u'__', u'__', u'__', u'__'], [0, u'__', u'__', u'__', u'__', 4, u'__', u'__', u'__', u'__', u'__', u'__', u'__', u'__', u'__', u'__', u'__'], [0, 20, u'__', u'__', u'__', 4, u'__', u'__', u'__', u'__', u'__', u'__', u'__', u'__', u'__', u'__', u'__'], [0, 20, u'__', 4, u'__', 4, u'__', u'__', u'__', u'__', u'__', u'__', u'__', u'__', u'__', u'__', u'__']]",,[None],[False],"[5, 1, 3, u'__TERM_ACTION__']","[0, 1, 2, 4]",[True],[False],"{u'mouseover': {u'state': {u'target': [], u'time': []}, u'edge': {u'target': [], u'time': []}}, u'click': {u'state': {u'target': [5, 1, 3], u'time': [1525, 2666, 6245]}, u'edge': {u'target': [], u'time': []}}, u'mouseout': {u'state': {u'target': [], u'time': []}, u'edge': {u'target': [], u'time': []}}}",,,"[9427, 847, 725]",8.0,624168,6.0,,mouselab-mdp,,2
"[{u'Q': 8.135999999999997, u'action': 1, u'Qs': [8.135999999999997, 8.135999999999997, 8.136, 8.136, 8.135999999999997, 8.135999999999997, 8.136, 8.136, 8.135999999999997, 8.135999999999997, 8.136, 8.136, 8.135999999999997, 8.135999999999997, 8.136, 8.136, -1.9984014443252818e-15], u'state': [0, u'__', u'__', u'__', u'__', u'__', u'__', u'__', u'__', u'__', u'__', u'__', u'__', u'__', u'__', u'__', u'__'], u'V': 8.136}, {u'Q': 20.136, u'action': 3, u'Qs': [16.439999999999998, 20.136, 20.136, 16.439999999999998, 16.439999999999998, 16.439999999999998, 16.439999999999998, 16.439999999999998, 16.439999999999998, 16.439999999999998, 16.439999999999998, 16.439999999999998, 16.439999999999998, 16.439999999999998, 16.439999999999998, 11.999999999999998], u'state': [0, 12, u'__', u'__', u'__', u'__', u'__', u'__', u'__', u'__', u'__', u'__', u'__', u'__', u'__', u'__', u'__'], u'V': 20.136}, {u'Q': 11.999999999999998, u'action': u'__TERM_ACTION__', u'Qs': [16.439999999999998, 16.439999999999998, 16.439999999999998, 16.439999999999998, 16.439999999999998, 16.439999999999998, 16.439999999999998, 16.439999999999998, 16.439999999999998, 16.439999999999998, 16.439999999999998, 16.439999999999998, 16.439999999999998, 16.439999999999998, 11.999999999999998], u'state': [0, 12, u'__', -20, u'__', u'__', u'__', u'__', u'__', u'__', u'__', u'__', u'__', u'__', u'__', u'__', u'__'], u'V': 16.439999999999998}]","[11602, 12846, 13632]","[u'0', u'0', u'3']","[[0, u'__', u'__', u'__', u'__', u'__', u'__', u'__', u'__', u'__', u'__', u'__', u'__', u'__', u'__', u'__', u'__'], [0, 12, u'__', u'__', u'__', u'__', u'__', u'__', u'__', u'__', u'__', u'__', u'__', u'__', u'__', u'__', u'__'], [0, 12, u'__', -20, u'__', u'__', u'__', u'__', u'__', u'__', u'__', u'__', u'__', u'__', u'__', u'__', u'__']]",,[None],[True],"[1, 3, u'__TERM_ACTION__']","[0, 1, 2, 4]",[True],[False],"{u'mouseover': {u'state': {u'target': [], u'time': []}, u'edge': {u'target': [], u'time': []}}, u'click': {u'state': {u'target': [1, 3], u'time': [4877, 9535]}, u'edge': {u'target': [], u'time': []}}, u'mouseout': {u'state': {u'target': [], u'time': []}, u'edge': {u'target': [], u'time': []}}}",,,"[11602, 466, 284]",12.0,673050,7.0,,mouselab-mdp,,2
"[{u'Q': 8.135999999999997, u'action': 9, u'Qs': [8.135999999999997, 8.135999999999997, 8.136, 8.136, 8.135999999999997, 8.135999999999997, 8.136, 8.136, 8.135999999999997, 8.135999999999997, 8.136, 8.136, 8.135999999999997, 8.135999999999997, 8.136, 8.136, -1.9984014443252818e-15], u'state': [0, u'__', u'__', u'__', u'__', u'__', u'__', u'__', u'__', u'__', u'__', u'__', u'__', u'__', u'__', u'__', u'__'], u'V': 8.136}, {u'Q': 10.136, u'action': 1, u'Qs': [10.136, 10.136, 10.136, 10.136, 10.136, 10.136, 10.136, 10.136, 10.135999999999997, 12.136, 12.136, 10.136, 10.136, 10.136, 10.136, 3.9999999999999987], u'state': [0, u'__', u'__', u'__', u'__', u'__', u'__', u'__', u'__', 4, u'__', u'__', u'__', u'__', u'__', u'__', u'__'], u'V': 12.136}, {u'Q': 10.136, u'action': 5, u'Qs': [9.287999999999998, 9.288, 9.288, 10.136, 10.136, 10.136, 10.136, 10.135999999999997, 12.136, 12.136, 10.136, 10.136, 10.136, 10.136, 3.9999999999999987], u'state': [0, -4, u'__', u'__', u'__', u'__', u'__', u'__', u'__', 4, u'__', u'__', u'__', u'__', u'__', u'__', u'__'], u'V': 12.136}, {u'Q': 10.136, u'action': 13, u'Qs': [9.287999999999998, 9.288, 9.288, 8.219999999999999, 8.219999999999999, 8.219999999999999, 10.135999999999997, 12.136, 12.136, 10.136, 10.136, 10.136, 10.136, 3.9999999999999987], u'state': [0, -4, u'__', u'__', u'__', -12, u'__', u'__', u'__', 4, u'__', u'__', u'__', u'__', u'__', u'__', u'__'], u'V': 12.136}, {u'Q': 12.136, u'action': 12, u'Qs': [9.287999999999998, 9.288, 9.288, 8.219999999999999, 8.219999999999999, 8.219999999999999, 9.287999999999997, 12.136, 12.136, 8.219999999999999, 8.219999999999999, 8.219999999999999, 3.9999999999999987], u'state': [0, -4, u'__', u'__', u'__', -12, u'__', u'__', u'__', 4, u'__', u'__', u'__', -12, u'__', u'__', u'__'], u'V': 12.136}, {u'Q': 7.999999999999999, u'action': u'__TERM_ACTION__', u'Qs': [12.44, 12.44, 12.44, 12, 12, 12, 12.439999999999998, 14.136, 12, 12, 12, 7.999999999999999], u'state': [0, -4, u'__', u'__', u'__', -12, u'__', u'__', u'__', 4, u'__', u'__', 4, -12, u'__', u'__', u'__'], u'V': 14.136}]","[13523, 15533, 17512]","[u'2', u'2', u'3']","[[0, u'__', u'__', u'__', u'__', u'__', u'__', u'__', u'__', u'__', u'__', u'__', u'__', u'__', u'__', u'__', u'__'], [0, u'__', u'__', u'__', u'__', u'__', u'__', u'__', u'__', 4, u'__', u'__', u'__', u'__', u'__', u'__', u'__'], [0, -4, u'__', u'__', u'__', u'__', u'__', u'__', u'__', 4, u'__', u'__', u'__', u'__', u'__', u'__', u'__'], [0, -4, u'__', u'__', u'__', -12, u'__', u'__', u'__', 4, u'__', u'__', u'__', u'__', u'__', u'__', u'__'], [0, -4, u'__', u'__', u'__', -12, u'__', u'__', u'__', 4, u'__', u'__', u'__', -12, u'__', u'__', u'__'], [0, -4, u'__', u'__', u'__', -12, u'__', u'__', u'__', 4, u'__', u'__', 4, -12, u'__', u'__', u'__']]",,[None],[True],"[9, 1, 5, 13, 12, u'__TERM_ACTION__']","[0, 9, 10, 11]",[True],[False],"{u'mouseover': {u'state': {u'target': [], u'time': []}, u'edge': {u'target': [], u'time': []}}, u'click': {u'state': {u'target': [9, 1, 5, 13, 12], u'time': [1657, 3564, 5077, 6451, 10582]}, u'edge': {u'target': [], u'time': []}}, u'mouseout': {u'state': {u'target': [], u'time': []}, u'edge': {u'target': [], u'time': []}}}",,,"[13522, 1403, 1480]",-24.0,721029,8.0,,mouselab-mdp,,2
"[{u'Q': 8.135999999999997, u'action': 5, u'Qs': [8.135999999999997, 8.135999999999997, 8.136, 8.136, 8.135999999999997, 8.135999999999997, 8.136, 8.136, 8.135999999999997, 8.135999999999997, 8.136, 8.136, 8.135999999999997, 8.135999999999997, 8.136, 8.136, -1.9984014443252818e-15], u'state': [0, u'__', u'__', u'__', u'__', u'__', u'__', u'__', u'__', u'__', u'__', u'__', u'__', u'__', u'__', u'__', u'__'], u'V': 8.136}, {u'Q': 8.136, u'action': 3, u'Qs': [8.135999999999997, 8.135999999999997, 8.136, 8.136, 4.439999999999999, 4.439999999999999, 4.439999999999999, 8.135999999999997, 8.135999999999997, 8.136, 8.136, 8.135999999999997, 8.135999999999997, 8.136, 8.136, -1.9984014443252818e-15], u'state': [0, u'__', u'__', u'__', u'__', -12, u'__', u'__', u'__', u'__', u'__', u'__', u'__', u'__', u'__', u'__', u'__'], u'V': 8.136}, {u'Q': 8.136, u'action': 12, u'Qs': [8.135999999999997, 8.135999999999997, 8.136, 4.439999999999999, 4.439999999999999, 4.439999999999999, 8.135999999999997, 8.135999999999997, 8.136, 8.136, 8.135999999999997, 8.135999999999997, 8.136, 8.136, -1.9984014443252818e-15], u'state': [0, u'__', u'__', -20, u'__', -12, u'__', u'__', u'__', u'__', u'__', u'__', u'__', u'__', u'__', u'__', u'__'], u'V': 8.136}, {u'Q': 10.136, u'action': 14, u'Qs': [10.135999999999997, 10.136, 10.136, 8.219999999999999, 8.219999999999999, 8.219999999999999, 10.136, 10.136, 10.136, 10.135999999999997, 10.136, 10.136, 10.136, 3.9999999999999982], u'state': [0, u'__', u'__', -20, u'__', -12, u'__', u'__', u'__', u'__', u'__', u'__', 4, u'__', u'__', u'__', u'__'], u'V': 10.136}, {u'Q': 12, u'action': u'__TERM_ACTION__', u'Qs': [16.439999999999998, 16.439999999999998, 16.439999999999998, 16, 16, 16, 17.288, 17.288, 16.439999999999998, 17.287999999999997, 20.136, 20.136, 12], u'state': [0, u'__', u'__', -20, u'__', -12, u'__', u'__', u'__', u'__', u'__', u'__', 4, u'__', 12, u'__', u'__'], u'V': 20.136}]","[16505, 18143, 20444]","[u'3', u'3', u'2']","[[0, u'__', u'__', u'__', u'__', u'__', u'__', u'__', u'__', u'__', u'__', u'__', u'__', u'__', u'__', u'__', u'__'], [0, u'__', u'__', u'__', u'__', -12, u'__', u'__', u'__', u'__', u'__', u'__', u'__', u'__', u'__', u'__', u'__'], [0, u'__', u'__', -20, u'__', -12, u'__', u'__', u'__', u'__', u'__', u'__', u'__', u'__', u'__', u'__', u'__'], [0, u'__', u'__', -20, u'__', -12, u'__', u'__', u'__', u'__', u'__', u'__', 4, u'__', u'__', u'__', u'__'], [0, u'__', u'__', -20, u'__', -12, u'__', u'__', u'__', u'__', u'__', u'__', 4, u'__', 12, u'__', u'__']]",,[None],[False],"[5, 3, 12, 14, u'__TERM_ACTION__']","[0, 13, 14, 16]",[True],[False],"{u'mouseover': {u'state': {u'target': [], u'time': []}, u'edge': {u'target': [], u'time': []}}, u'click': {u'state': {u'target': [5, 3, 12, 14], u'time': [1567, 4227, 8943, 14068]}, u'edge': {u'target': [], u'time': []}}, u'mouseout': {u'state': {u'target': [], u'time': []}, u'edge': {u'target': [], u'time': []}}}",,,"[16505, 976, 1811]",-12.0,769087,9.0,,mouselab-mdp,,2
"[{u'Q': 8.136, u'action': 12, u'Qs': [8.135999999999997, 8.135999999999997, 8.136, 8.136, 8.135999999999997, 8.135999999999997, 8.136, 8.136, 8.135999999999997, 8.135999999999997, 8.136, 8.136, 8.135999999999997, 8.135999999999997, 8.136, 8.136, -1.9984014443252818e-15], u'state': [0, u'__', u'__', u'__', u'__', u'__', u'__', u'__', u'__', u'__', u'__', u'__', u'__', u'__', u'__', u'__', u'__'], u'V': 8.136}, {u'Q': 10.136, u'action': 11, u'Qs': [10.135999999999997, 10.136, 10.136, 10.136, 10.135999999999997, 10.136, 10.136, 10.136, 10.136, 10.136, 10.136, 10.135999999999997, 10.136, 10.136, 10.136, 3.9999999999999982], u'state': [0, u'__', u'__', u'__', u'__', u'__', u'__', u'__', u'__', u'__', u'__', u'__', 4, u'__', u'__', u'__', u'__'], u'V': 10.136}, {u'Q': 12, u'action': u'__TERM_ACTION__', u'Qs': [16.439999999999998, 16.439999999999998, 16.439999999999998, 16.439999999999998, 16.439999999999998, 16.439999999999998, 16.439999999999998, 16.439999999999998, 16.439999999999998, 16.439999999999998, 16.439999999999998, 16.439999999999998, 16.439999999999998, 16.439999999999998, 12], u'state': [0, u'__', u'__', u'__', u'__', u'__', u'__', u'__', u'__', u'__', u'__', 12, 4, u'__', u'__', u'__', u'__'], u'V': 16.439999999999998}]","[4528, 5429, 6176]","[u'2', u'2', u'3']","[[0, u'__', u'__', u'__', u'__', u'__', u'__', u'__', u'__', u'__', u'__', u'__', u'__', u'__', u'__', u'__', u'__'], [0, u'__', u'__', u'__', u'__', u'__', u'__', u'__', u'__', u'__', u'__', u'__', 4, u'__', u'__', u'__', u'__'], [0, u'__', u'__', u'__', u'__', u'__', u'__', u'__', u'__', u'__', u'__', 12, 4, u'__', u'__', u'__', u'__']]",,[None],[True],"[12, 11, u'__TERM_ACTION__']","[0, 9, 10, 11]",[True],[False],"{u'mouseover': {u'state': {u'target': [], u'time': []}, u'edge': {u'target': [], u'time': []}}, u'click': {u'state': {u'target': [12, 11], u'time': [1167, 3812]}, u'edge': {u'target': [], u'time': []}}, u'mouseout': {u'state': {u'target': [], u'time': []}, u'edge': {u'target': [], u'time': []}}}",,,"[4528, 134, 247]",28.0,817769,10.0,,mouselab-mdp,,2
,"[8246, 9183, 9859]","[u'0', u'0', u'3']","[[0, u'__', u'__', u'__', u'__', u'__', u'__', u'__', u'__', u'__', u'__', u'__', u'__', u'__', u'__', u'__', u'__'], [0, u'__', u'__', u'__', 20, u'__', u'__', u'__', u'__', u'__', u'__', u'__', u'__', u'__', u'__', u'__', u'__']]",,[],[],"[4, u'__TERM_ACTION__']","[0, 1, 2, 4]",[],[],"{u'mouseover': {u'state': {u'target': [], u'time': []}, u'edge': {u'target': [], u'time': []}}, u'click': {u'state': {u'target': [4], u'time': [6622]}, u'edge': {u'target': [], u'time': []}}, u'mouseout': {u'state': {u'target': [], u'time': []}, u'edge': {u'target': [], u'time': []}}}",,,"[8246, 147, 173]",0.0,865416,11.0,,mouselab-mdp,,2
,"[4031, 4913, 5605]","[u'2', u'2', u'1']","[[0, u'__', u'__', u'__', u'__', u'__', u'__', u'__', u'__', u'__', u'__', u'__', u'__', u'__', u'__', u'__', u'__'], [0, u'__', u'__', u'__', u'__', u'__', u'__', u'__', u'__', u'__', u'__', u'__', 20, u'__', u'__', u'__', u'__']]",,[],[],"[12, u'__TERM_ACTION__']","[0, 9, 10, 12]",[],[],"{u'mouseover': {u'state': {u'target': [], u'time': []}, u'edge': {u'target': [], u'time': []}}, u'click': {u'state': {u'target': [12], u'time': [2328]}, u'edge': {u'target': [], u'time': []}}, u'mouseout': {u'state': {u'target': [], u'time': []}, u'edge': {u'target': [], u'time': []}}}",,,"[4031, 107, 167]",24.0,916884,12.0,,mouselab-mdp,,2
,"[15829, 16986, 17823]","[u'2', u'2', u'3']","[[0, u'__', u'__', u'__', u'__', u'__', u'__', u'__', u'__', u'__', u'__', u'__', u'__', u'__', u'__', u'__', u'__'], [0, u'__', u'__', u'__', u'__', u'__', u'__', u'__', 4, u'__', u'__', u'__', u'__', u'__', u'__', u'__', u'__'], [0, u'__', u'__', u'__', u'__', u'__', u'__', -4, 4, u'__', u'__', u'__', u'__', u'__', u'__', u'__', u'__'], [0, u'__', u'__', u'__', u'__', u'__', u'__', -4, 4, u'__', u'__', u'__', -20, u'__', u'__', u'__', u'__']]",,[],[],"[8, 7, 12, u'__TERM_ACTION__']","[0, 9, 10, 11]",[],[],"{u'mouseover': {u'state': {u'target': [], u'time': []}, u'edge': {u'target': [], u'time': []}}, u'click': {u'state': {u'target': [8, 7, 12], u'time': [887, 5170, 9677]}, u'edge': {u'target': [], u'time': []}}, u'mouseout': {u'state': {u'target': [], u'time': []}, u'edge': {u'target': [], u'time': []}}}",,,"[15829, 365, 335]",0.0,964117,13.0,,mouselab-mdp,,2
,"[8670, 9559, 10259]","[u'3', u'3', u'2']","[[0, u'__', u'__', u'__', u'__', u'__', u'__', u'__', u'__', u'__', u'__', u'__', u'__', u'__', u'__', u'__', u'__'], [0, u'__', u'__', u'__', u'__', u'__', u'__', u'__', u'__', u'__', u'__', u'__', -4, u'__', u'__', u'__', u'__'], [0, u'__', u'__', -12, u'__', u'__', u'__', u'__', u'__', u'__', u'__', u'__', -4, u'__', u'__', u'__', u'__'], [0, u'__', u'__', -12, u'__', u'__', u'__', u'__', u'__', u'__', u'__', u'__', -4, u'__', u'__', u'__', 12]]",,[],[],"[12, 3, 16, u'__TERM_ACTION__']","[0, 13, 14, 16]",[],[],"{u'mouseover': {u'state': {u'target': [], u'time': []}, u'edge': {u'target': [], u'time': []}}, u'click': {u'state': {u'target': [12, 3, 16], u'time': [983, 3201, 4954]}, u'edge': {u'target': [], u'time': []}}, u'mouseout': {u'state': {u'target': [], u'time': []}, u'edge': {u'target': [], u'time': []}}}",,,"[8670, 131, 179]",16.0,1010993,14.0,,mouselab-mdp,,2
,"[9864, 10616, 11177]","[u'2', u'2', u'1']","[[0, u'__', u'__', u'__', u'__', u'__', u'__', u'__', u'__', u'__', u'__', u'__', u'__', u'__', u'__', u'__', u'__'], [0, u'__', u'__', 4, u'__', u'__', u'__', u'__', u'__', u'__', u'__', u'__', u'__', u'__', u'__', u'__', u'__'], [0, u'__', u'__', 4, u'__', u'__', u'__', u'__', u'__', u'__', u'__', u'__', 20, u'__', u'__', u'__', u'__']]",,[],[],"[3, 12, u'__TERM_ACTION__']","[0, 9, 10, 12]",[],[],"{u'mouseover': {u'state': {u'target': [], u'time': []}, u'edge': {u'target': [], u'time': []}}, u'click': {u'state': {u'target': [3, 12], u'time': [5167, 7970]}, u'edge': {u'target': [], u'time': []}}, u'mouseout': {u'state': {u'target': [], u'time': []}, u'edge': {u'target': [], u'time': []}}}",,,"[9864, 15, 43]",20.0,1061849,15.0,,mouselab-mdp,,2
,"[633, 1291, 1952]","[u'3', u'3', u'2']","[[0, u'__', u'__', u'__', u'__', u'__', u'__', u'__', u'__', u'__', u'__', u'__', u'__', u'__', u'__', u'__', u'__']]",,[],[],[u'__TERM_ACTION__'],"[0, 13, 14, 16]",[],[],"{u'mouseover': {u'state': {u'target': [], u'time': []}, u'edge': {u'target': [], u'time': []}}, u'click': {u'state': {u'target': [], u'time': []}, u'edge': {u'target': [], u'time': []}}, u'mouseout': {u'state': {u'target': [], u'time': []}, u'edge': {u'target': [], u'time': []}}}",,,"[633, 155, 168]",4.0,1110549,16.0,,mouselab-mdp,,2
"[{u'Q': 5.135999999999999, u'action': 7, u'Qs': [5.1359999999999975, 5.1359999999999975, 5.135999999999999, 5.135999999999999, 5.1359999999999975, 5.1359999999999975, 5.135999999999999, 5.135999999999999, 5.1359999999999975, 5.1359999999999975, 5.135999999999999, 5.135999999999999, 5.1359999999999975, 5.1359999999999975, 5.135999999999999, 5.135999999999999, -1.9984014443252818e-15], u'state': [0, u'__', u'__', u'__', u'__', u'__', u'__', u'__', u'__', u'__', u'__', u'__', u'__', u'__', u'__', u'__', u'__'], u'V': 5.135999999999999}, {u'Q': 13.44, u'action': 8, u'Qs': [13.44, 13.44, 13.44, 13.44, 13.44, 13.44, 13.44, 13.44, 13.44, 13.44, 13.44, 13.44, 13.44, 13.44, 13.44, 12], u'state': [0, u'__', u'__', u'__', u'__', u'__', u'__', 12, u'__', u'__', u'__', u'__', u'__', u'__', u'__', u'__', u'__'], u'V': 13.44}, {u'Q': 13.44, u'action': 6, u'Qs': [13.44, 13.44, 13.44, 13.44, 13.44, 13.44, 13.44, 13.44, 13.44, 13.44, 13.44, 13.44, 13.44, 13.44, 12], u'state': [0, u'__', u'__', u'__', u'__', u'__', u'__', 12, -4, u'__', u'__', u'__', u'__', u'__', u'__', u'__', u'__'], u'V': 13.44}, {u'Q': 17.22, u'action': 5, u'Qs': [17.220000000000002, 17.22, 17.220000000000002, 17.220000000000002, 17.22, 17.220000000000002, 17.22, 17.220000000000002, 17.220000000000002, 17.220000000000002, 17.22, 17.220000000000002, 17.220000000000002, 16], u'state': [0, u'__', u'__', u'__', u'__', u'__', 4, 12, -4, u'__', u'__', u'__', u'__', u'__', u'__', u'__', u'__'], u'V': 17.220000000000002}, {u'Q': 13.44, u'action': 3, u'Qs': [13.44, 13.44, 13.44, 13.44, 13.44, 13.44, 13.44, 13.44, 13.44, 13.44, 13.44, 13.44, 12], u'state': [0, u'__', u'__', u'__', u'__', -4, 4, 12, -4, u'__', u'__', u'__', u'__', u'__', u'__', u'__', u'__'], u'V': 13.44}, {u'Q': 13.44, u'action': 4, u'Qs': [13.44, 13.44, 13.44, 13.44, 13.44, 13.44, 13.44, 13.44, 13.44, 13.44, 13.44, 12], u'state': [0, u'__', u'__', -20, u'__', -4, 4, 12, -4, u'__', u'__', u'__', u'__', u'__', u'__', u'__', u'__'], u'V': 13.44}, {u'Q': 14.288, u'action': 1, u'Qs': [14.288, 14.288, 13.44, 13.44, 13.44, 13.44, 13.44, 13.44, 13.44, 13.44, 12], u'state': [0, u'__', u'__', -20, 4, -4, 4, 12, -4, u'__', u'__', u'__', u'__', u'__', u'__', u'__', u'__'], u'V': 14.288}, {u'Q': 19.136000000000003, u'action': 2, u'Qs': [19.136000000000003, 17.220000000000002, 17.22, 17.220000000000002, 17.220000000000002, 17.220000000000002, 17.22, 17.220000000000002, 17.220000000000002, 16], u'state': [0, 12, u'__', -20, 4, -4, 4, 12, -4, u'__', u'__', u'__', u'__', u'__', u'__', u'__', u'__'], u'V': 19.136000000000003}, {u'Q': 20, u'action': u'__TERM_ACTION__', u'Qs': [21, 21, 21, 21, 21, 21, 21, 21, 20], u'state': [0, 12, 4, -20, 4, -4, 4, 12, -4, u'__', u'__', u'__', u'__', u'__', u'__', u'__', u'__'], u'V': 21}]","[61087, 64983, 66590]","[u'0', u'0', u'3']","[[0, u'__', u'__', u'__', u'__', u'__', u'__', u'__', u'__', u'__', u'__', u'__', u'__', u'__', u'__', u'__', u'__'], [0, u'__', u'__', u'__', u'__', u'__', u'__', 12, u'__', u'__', u'__', u'__', u'__', u'__', u'__', u'__', u'__'], [0, u'__', u'__', u'__', u'__', u'__', u'__', 12, -4, u'__', u'__', u'__', u'__', u'__', u'__', u'__', u'__'], [0, u'__', u'__', u'__', u'__', u'__', 4, 12, -4, u'__', u'__', u'__', u'__', u'__', u'__', u'__', u'__'], [0, u'__', u'__', u'__', u'__', -4, 4, 12, -4, u'__', u'__', u'__', u'__', u'__', u'__', u'__', u'__'], [0, u'__', u'__', -20, u'__', -4, 4, 12, -4, u'__', u'__', u'__', u'__', u'__', u'__', u'__', u'__'], [0, u'__', u'__', -20, 4, -4, 4, 12, -4, u'__', u'__', u'__', u'__', u'__', u'__', u'__', u'__'], [0, 12, u'__', -20, 4, -4, 4, 12, -4, u'__', u'__', u'__', u'__', u'__', u'__', u'__', u'__'], [0, 12, 4, -20, 4, -4, 4, 12, -4, u'__', u'__', u'__', u'__', u'__', u'__', u'__', u'__']]",,[3],[True],"[7, 8, 6, 5, 3, 4, 1, 2, u'__TERM_ACTION__']","[0, 1, 2, 4]",[True],[False],"{u'mouseover': {u'state': {u'target': [], u'time': []}, u'edge': {u'target': [], u'time': []}}, u'click': {u'state': {u'target': [7, 8, 6, 5, 3, 4, 1, 2], u'time': [11151, 19815, 21250, 24158, 40812, 41981, 43878, 44962]}, u'edge': {u'target': [], u'time': []}}, u'mouseout': {u'state': {u'target': [], u'time': []}, u'edge': {u'target': [], u'time': []}}}",,,"[61087, 368, 1098]",12.0,294107,1.0,,mouselab-mdp,,3
"[{u'Q': 5.1359999999999975, u'action': 14, u'Qs': [5.1359999999999975, 5.1359999999999975, 5.135999999999999, 5.135999999999999, 5.1359999999999975, 5.1359999999999975, 5.135999999999999, 5.135999999999999, 5.1359999999999975, 5.1359999999999975, 5.135999999999999, 5.135999999999999, 5.1359999999999975, 5.1359999999999975, 5.135999999999999, 5.135999999999999, -1.9984014443252818e-15], u'state': [0, u'__', u'__', u'__', u'__', u'__', u'__', u'__', u'__', u'__', u'__', u'__', u'__', u'__', u'__', u'__', u'__'], u'V': 5.135999999999999}, {u'Q': 5.1359999999999975, u'action': 10, u'Qs': [5.1359999999999975, 5.1359999999999975, 5.135999999999999, 5.135999999999999, 5.1359999999999975, 5.1359999999999975, 5.135999999999999, 5.135999999999999, 5.1359999999999975, 5.1359999999999975, 5.135999999999999, 5.135999999999999, 3.1359999999999983, 3.1359999999999983, 3.1359999999999983, -1.9984014443252818e-15], u'state': [0, u'__', u'__', u'__', u'__', u'__', u'__', u'__', u'__', u'__', u'__', u'__', u'__', u'__', -4, u'__', u'__'], u'V': 5.135999999999999}, {u'Q': 21, u'action': 6, u'Qs': [21, 21, 21, 21, 21, 21, 21, 21, 21, 25.135999999999996, 25.135999999999996, 21, 21, 21, 20], u'state': [0, u'__', u'__', u'__', u'__', u'__', u'__', u'__', u'__', u'__', 20, u'__', u'__', u'__', -4, u'__', u'__'], u'V': 25.135999999999996}, {u'Q': 21, u'action': 2, u'Qs': [21, 21, 21, 21, 21, 21, 21, 21, 25.135999999999996, 25.135999999999996, 21, 21, 21, 20], u'state': [0, u'__', u'__', u'__', u'__', u'__', -12, u'__', u'__', u'__', 20, u'__', u'__', u'__', -4, u'__', u'__'], u'V': 25.135999999999996}, {u'Q': 22.288, u'action': 9, u'Qs': [22.288000000000004, 22.288000000000004, 22.288000000000004, 21, 21, 21, 22.288, 25.135999999999996, 25.135999999999996, 21, 21, 21, 20], u'state': [0, u'__', 12, u'__', u'__', u'__', -12, u'__', u'__', u'__', 20, u'__', u'__', u'__', -4, u'__', u'__'], u'V': 25.135999999999996}, {u'Q': 13.44, u'action': 1, u'Qs': [13.44, 17.136, 17.136, 13, 13, 13, 13.44, 13.44, 13.22, 13.22, 13.22, 12], u'state': [0, u'__', 12, u'__', u'__', u'__', -12, u'__', u'__', -20, 20, u'__', u'__', u'__', -4, u'__', u'__'], u'V': 17.136}, {u'Q': 29.136000000000003, u'action': 3, u'Qs': [29.136000000000003, 29.136000000000003, 25, 25, 25, 25, 25, 25, 25, 25, 24], u'state': [0, 12, 12, u'__', u'__', u'__', -12, u'__', u'__', -20, 20, u'__', u'__', u'__', -4, u'__', u'__'], u'V': 29.136000000000003}, {u'Q': 27.136000000000003, u'action': 4, u'Qs': [27.136000000000003, 25, 25, 25, 25, 25, 25, 25, 25, 24], u'state': [0, 12, 12, -4, u'__', u'__', -12, u'__', u'__', -20, 20, u'__', u'__', u'__', -4, u'__', u'__'], u'V': 27.136000000000003}, {u'Q': 44, u'action': u'__TERM_ACTION__', u'Qs': [45, 45, 45, 45, 45, 45, 45, 45, 44], u'state': [0, 12, 12, -4, 20, u'__', -12, u'__', u'__', -20, 20, u'__', u'__', u'__', -4, u'__', u'__'], u'V': 45}]","[24699, 28544, 29995]","[u'0', u'0', u'3']","[[0, u'__', u'__', u'__', u'__', u'__', u'__', u'__', u'__', u'__', u'__', u'__', u'__', u'__', u'__', u'__', u'__'], [0, u'__', u'__', u'__', u'__', u'__', u'__', u'__', u'__', u'__', u'__', u'__', u'__', u'__', -4, u'__', u'__'], [0, u'__', u'__', u'__', u'__', u'__', u'__', u'__', u'__', u'__', 20, u'__', u'__', u'__', -4, u'__', u'__'], [0, u'__', u'__', u'__', u'__', u'__', -12, u'__', u'__', u'__', 20, u'__', u'__', u'__', -4, u'__', u'__'], [0, u'__', 12, u'__', u'__', u'__', -12, u'__', u'__', u'__', 20, u'__', u'__', u'__', -4, u'__', u'__'], [0, u'__', 12, u'__', u'__', u'__', -12, u'__', u'__', -20, 20, u'__', u'__', u'__', -4, u'__', u'__'], [0, 12, 12, u'__', u'__', u'__', -12, u'__', u'__', -20, 20, u'__', u'__', u'__', -4, u'__', u'__'], [0, 12, 12, -4, u'__', u'__', -12, u'__', u'__', -20, 20, u'__', u'__', u'__', -4, u'__', u'__'], [0, 12, 12, -4, 20, u'__', -12, u'__', u'__', -20, 20, u'__', u'__', u'__', -4, u'__', u'__']]",,[3],[True],"[14, 10, 6, 2, 9, 1, 3, 4, u'__TERM_ACTION__']","[0, 1, 2, 4]",[True],[False],"{u'mouseover': {u'state': {u'target': [], u'time': []}, u'edge': {u'target': [], u'time': []}}, u'click': {u'state': {u'target': [14, 10, 6, 2, 9, 1, 3, 4], u'time': [7628, 8305, 9046, 9788, 16776, 17605, 22220, 23041]}, u'edge': {u'target': [], u'time': []}}, u'mouseout': {u'state': {u'target': [], u'time': []}, u'edge': {u'target': [], u'time': []}}}",,,"[24699, 311, 932]",36.0,345184,2.0,,mouselab-mdp,,3
