p_rdata,action_times,actions,beliefs,correct,delays,information_used_correctly,meta_actions,path,planned_too_little,planned_too_much,queries,questions,responses,rt,score,time_elapsed,trial_index,trial_i,trial_type,view_history,pid
,,,,,,,,,,,,,"{""Q0"":""I looked at a few circles and made educational guesses."",""Q1"":""Not really"",""Q2"":""21"",""Q3"":""female""}",166204,,1688110,,,survey-text,,0
,,,,,,,,,,,,,"{""Q0"":""I tried to show just enough location prizes to see if I was going to lose/win a lot of money"",""Q1"":""I figured that many times a route has either 2 winning points or 2 losing points, with the final stop being 50/50"",""Q2"":""31"",""Q3"":""Female""}",61390,,1387320,,,survey-text,,1
,,,,,,,,,,,,,"{""Q0"":""I tried different methods none seemed to work well."",""Q1"":""Not really. I think I could have with more time."",""Q2"":""33"",""Q3"":""male""}",88602,,1200167,,,survey-text,,2
,,,,,,,,,,,,,"{""Q0"":""I tried the nearest locations first because if the a near location was heavy negative then I think it was worth the risk of spending more for revealing other locations. Once I found a profitable near location I would look at the location after it, and if the that second location was profitable then I would invest $2 to find both of the ending locations."",""Q1"":""Not really, I think it was mostly luck if you found a goldmine route on your first reveals then stick with it. Otherwise, you're just trying to minimize your losses."",""Q2"":""21"",""Q3"":""Male""}",254123,,1344516,,,survey-text,,3
,,,,,,,,,,,,,"{""Q0"":""Tried to follow the paths with the most positive amounts. Once I found a path with the most positives and least negatives, I stopped clicking and started moving."",""Q1"":""Better to spend time and money planning rather than go without a plan."",""Q2"":""48"",""Q3"":""Male""}",122536,,1099410,,,survey-text,,4
,,,,,,,,,,,,,"{""Q0"":""i didn't plan at all in the first few rounds, but then tried to find the destinations with the biggest payouts and least deductions on the routes"",""Q1"":"""",""Q2"":""47"",""Q3"":""female""}",47306,,993684,,,survey-text,,5
,,,,,,,,,,,,,"{""Q0"":""Just picked random spots"",""Q1"":""no"",""Q2"":""28"",""Q3"":""female""}",47672,,1302586,,,survey-text,,6
,,,,,,,,,,,,,"{""Q0"":""totally random"",""Q1"":""no"",""Q2"":""36"",""Q3"":""female""}",18052,,977728,,,survey-text,,7
,,,,,,,,,,,,,"{""Q0"":""I like to have options so I tried to reveal as many as I could without spending to much. Then I took the routes that were most profitable."",""Q1"":""I stopped trying to reveal as many and just took the routes that were positive income."",""Q2"":""29"",""Q3"":""female""}",155042,,1467939,,,survey-text,,8
,,,,,,,,,,,,,"{""Q0"":""i found a profitable route and took it"",""Q1"":"""",""Q2"":""26"",""Q3"":""male""}",92916,,1795605,,,survey-text,,9
,,,,,,,,,,,,,"{""Q0"":""I just picked a direction"",""Q1"":""No"",""Q2"":""34"",""Q3"":""female""}",14952,,1041359,,,survey-text,,10
,,,,,,,,,,,,,"{""Q0"":""tried to find the best route thta paid the most"",""Q1"":""reveal as many as  i can to find the best one"",""Q2"":""28"",""Q3"":""male""}",48143,,958869,,,survey-text,,11
,,,,,,,,,,,,,"{""Q0"":""I just kinda picked one"",""Q1"":""Not really, it kinda seemed like a luck thing"",""Q2"":""40"",""Q3"":""Female""}",70959,,966986,,,survey-text,,12
,,,,,,,,,,,,,"{""Q0"":""I started checking the endpoints and worked backwards when I found a favorable ending"",""Q1"":""Not really, "",""Q2"":""33"",""Q3"":""male""}",42244,,1081560,,,survey-text,,13
,,,,,,,,,,,,,"{""Q0"":""tried to guess where the money was"",""Q1"":""no, it seemed stacked to make you lose, revealing numbers did no good"",""Q2"":""58"",""Q3"":""female""}",46570,,1724066,,,survey-text,,14
,,,,,,,,,,,,,"{""Q0"":""I tried to go different routes everytime"",""Q1"":""No, not really :/"",""Q2"":""34"",""Q3"":""female""}",50085,,1293784,,,survey-text,,15
,,,,,,,,,,,,,"{""Q0"":""I didn't do much planning I just kind of took my chances."",""Q1"":""Nothing really helped as there didn't seem to be any pattern"",""Q2"":""31"",""Q3"":""male""}",27544,,879372,,,survey-text,,16
,,,,,,,,,,,,,"{""Q0"":""First I priced the destinations, and then I tried to choose the most beneficial route."",""Q1"":""I learned to look at all routes in some cases because even with some lower price destinations, there were routes that made them worth it."",""Q2"":""39"",""Q3"":""female""}",48524,,1163273,,,survey-text,,17
,,,,,,,,,,,,,"{""Q0"":""I randomly picked a route"",""Q1"":""Not really"",""Q2"":""26"",""Q3"":""female""}",27429,,1751213,,,survey-text,,18
,,,,,,,,,,,,,"{""Q0"":""I started with the first decision, if one was more, I then checked the third decision, since the second has no choice. If two were the same, then I checked the second and sometimes the third to decide."",""Q1"":""I learned early to check more than one level"",""Q2"":""48"",""Q3"":""female""}",70458,,977267,,,survey-text,,19
,,,,,,,,,,,,,"{""Q0"":""Random"",""Q1"":""No"",""Q2"":""35"",""Q3"":""Female""}",13985,,895719,,,survey-text,,20
,,,,,,,,,,,,,"{""Q0"":""I'd just click the middle icons first to get a feel for which path was good, then would go from there. "",""Q1"":""To look at the route leading up to a point, and use that to narrow down the best option."",""Q2"":""35"",""Q3"":""male""}",61688,,1079842,,,survey-text,,21
,,,,,,,,,,,,,"{""Q0"":""random"",""Q1"":""not really"",""Q2"":""42"",""Q3"":""female""}",24790,,1314245,,,survey-text,,22
,,,,,,,,,,,,,"{""Q0"":""I just clicked the highest paying ones."",""Q1"":""Yes to plan further ahead."",""Q2"":""23"",""Q3"":""Male""}",61605,,999585,,,survey-text,,23
,,,,,,,,,,,,,"{""Q0"":""No plan. You made it frankly impossible to plan with any sense of accuracy or real hope of gaining a bonus, and I pretty much gave up trying once I realized that."",""Q1"":""Everything changes at random each turn, plus it costs so much to find out any information that it's just as effective to go at random. TBH I'm pretty damn irritated right now because this took way too much time for the lousy $.75 you put on it as a base wage with a bonus teaser. Cocosci has a reputation for treating its workers fairly and respecting our time, and you really dropped the ball on this one. I will be posting a Turkopticon review and will NOT be recommending this HIT."",""Q2"":""34"",""Q3"":""female""}",192561,,1136769,,,survey-text,,24
,,,,,,,,,,,,,"{""Q0"":""I tried to not spend that much money if I could find a paying route right in the beginning."",""Q1"":""It took me a few rounds before I started understanding how to do the paying."",""Q2"":""26"",""Q3"":""Male""}",59980,,1019789,,,survey-text,,25
,,,,,,,,,,,,,"{""Q0"":""try to guess my best"",""Q1"":""figure out which step had a positive money first"",""Q2"":""24"",""Q3"":""male""}",30937,,934524,,,survey-text,,27
,,,,,,,,,,,,,"{""Q0"":""My plan at first was to fly randomly without spending much money, but then i realized it's better to spend it figuring out the path."",""Q1"":""yes, sometimes it's better to pay for information if you're getting a higher benefit from it."",""Q2"":""30"",""Q3"":""Male""}",170634,,1440856,,,survey-text,,28
,,,,,,,,,,,,,"{""Q0"":""I tried different strategies.  Focusing on the destination and also focusing on the through ways.  "",""Q1"":""Sometimes it's better to guess randomly"",""Q2"":""31"",""Q3"":""male""}",90363,,1071985,,,survey-text,,29
,,,,,,,,,,,,,"{""Q0"":""I picked a circle closest to the plane first and if it was a positive number I checked the following circles to see if they were also positive amounts of money."",""Q1"":""I learned not to check as many and just go with the first or second positive circle."",""Q2"":""26"",""Q3"":""Female""}",397086,,1435318,,,survey-text,,31
,,,,,,,,,,,,,"{""Q0"":""I tried to see if the first stop was going to cause a big penalty. If the first stop was costly, I tried another path."",""Q1"":""I wondered if I should have shifted to try the farthest center point as the beginning point, however I was a bit afraid to try another technique because mistakes were costly."",""Q2"":""53"",""Q3"":""Female""}",117017,,1161149,,,survey-text,,32
,,,,,,,,,,,,,"{""Q0"":""I opened as many as I felt I needed to in order to find a good path, stopped when I found one that paid well"",""Q1"":""I dont think so"",""Q2"":""46"",""Q3"":""male""}",63310,,1038602,,,survey-text,,34
,,,,,,,,,,,,,"{""Q0"":""If the path had been a bad one...then I decided to try it again figuring the path wouldn't repeat"",""Q1"":""Not really"",""Q2"":""27"",""Q3"":""Female""}",35495,,1134093,,,survey-text,,35
,,,,,,,,,,,,,"{""Q0"":""I checked the values of the end points to see which ones brought more money. I was looking for circles that gave $20"",""Q1"":""At first I did not want to spend the $1 to look ahead, but I learned that it was usually worth it to have the information about which routes were more profitable. "",""Q2"":""48"",""Q3"":""male""}",105545,,1020138,,,survey-text,,36
,,,,,,,,,,,,,"{""Q0"":""I tried to avoid moving to spaces with losses."",""Q1"":""I learned to choose the plan that I felt would pay more."",""Q2"":""63"",""Q3"":""Male""}",80950,,1015162,,,survey-text,,37
,,,,,,,,,,,,,"{""Q0"":""I just tried to make the most money that I could"",""Q1"":""No, I kind of just guessed until I got to an amount I was happy with"",""Q2"":""34"",""Q3"":""male""}",39104,,1165843,,,survey-text,,38
,,,,,,,,,,,,,"{""Q0"":""I didn't really understand how to plan the route. I just tried to try a different route"",""Q1"":""No I did not"",""Q2"":""34"",""Q3"":""female""}",56131,,1169512,,,survey-text,,40
,,,,,,,,,,,,,"{""Q0"":""I didn't"",""Q1"":""No"",""Q2"":""25"",""Q3"":""male""}",38832,,942487,,,survey-text,,41
,,,,,,,,,,,,,"{""Q0"":""I tried to peek at the second spot over, and tried to stick with the route that used the highest value in those spots."",""Q1"":""It made sense to look at more stops before moving, even if it cost more to look at."",""Q2"":""19"",""Q3"":""Male""}",63718,,1153075,,,survey-text,,42
,,,,,,,,,,,,,"{""Q0"":""Tried to know everything."",""Q1"":""No."",""Q2"":""21"",""Q3"":""Male""}",24740,,974645,,,survey-text,,43
,,,,,,,,,,,,,"{""Q0"":""learned to determine if the first spot, then later ones were profitable."",""Q1"":""I ended up avoiding clicking more tiles if I already had what looked like a modest profit to gain from a path I'd already uncovered"",""Q2"":""36"",""Q3"":""m""}",50148,,2169115,,,survey-text,,44
,,,,,,,,,,,,,"{""Q0"":""This was really fun. I got to decide how to pay some money to prevent myself from losing money. It's almost like buying insurance. "",""Q1"":""Yes. Pay the money and learn each step to minimize the loss."",""Q2"":""28"",""Q3"":""Female""}",99327,,1306831,,,survey-text,,45
,,,,,,,,,,,,,"{""Q0"":""look for a large umber and head for it"",""Q1"":""not rally"",""Q2"":""46"",""Q3"":""male""}",92114,,1147908,,,survey-text,,46
,,,,,,,,,,,,,"{""Q0"":""Randomly"",""Q1"":""Not at all. It seemed like it was random."",""Q2"":""31"",""Q3"":""Female""}",19096,,1330978,,,survey-text,,47
,,,,,,,,,,,,,"{""Q0"":""I just tried a different route each time for the airplane."",""Q1"":""Not particularly."",""Q2"":""56"",""Q3"":""Female""}",37735,,1064838,,,survey-text,,48
,,,,,,,,,,,,,"{""Q0"":""I started with the routes closest until i got a positive and then checked ones further out."",""Q1"":""I accidentally didn't check my route one time and the result reinforced how important it was to check."",""Q2"":""27"",""Q3"":""female""}",70099,,1613678,,,survey-text,,49
,,,,,,,,,,,,,"{""Q0"":""I uncovered all of the values (cost of $4), then chose the route with the highest payment (usually more than $4)."",""Q1"":""I exercised my option to find all options and payments, and used that to maximize my bonus.  I learned that that was an effective (for me) approach."",""Q2"":""42"",""Q3"":""Male""}",97859,,1059689,,,survey-text,,51
,,,,,,,,,,,,,"{""Q0"":""what made sense so a hunch"",""Q1"":""not really but I have been working since 430 am"",""Q2"":""40"",""Q3"":""f""}",29415,,1316010,,,survey-text,,52
,,,,,,,,,,,,,"{""Q0"":""I tried to find the path that I didn't lose out on.  If it was positive, I went with it instead of looking more."",""Q1"":""Yes, clicking more spots lost you money, so I learned to just look for the first positive route."",""Q2"":""38"",""Q3"":""male""}",51501,,980692,,,survey-text,,53
,,,,,,,,,,,,,"{""Q0"":""I checked the first circle on each route, and just went with the one that had the best payout.  I figured checking all the circles would prove too expensive, so I thought it bets to start out stroingly as possible and hope for the best after that."",""Q1"":""Nope.  This was all random.  You can't plan for chaos."",""Q2"":""50"",""Q3"":""male""}",99912,,1073626,,,survey-text,,54
,,,,,,,,,,,,,"{""Q0"":""Poorly"",""Q1"":""Not really"",""Q2"":""43"",""Q3"":""male""}",20002,,1748305,,,survey-text,,55
,,,,,,,,,,,,,"{""Q0"":""I just kind of picked one. No real plan."",""Q1"":""Don't go to the right. "",""Q2"":""30"",""Q3"":""Gender fluid""}",31933,,920696,,,survey-text,,56
,,,,,,,,,,,,,"{""Q0"":""I clicked to see the value of each circle and chose the highest value, then chose randomly."",""Q1"":""Regardless of how many were left, I always moved on a +20 circle "",""Q2"":""22"",""Q3"":""Female""}",63138,,1059248,,,survey-text,,57
,,,,,,,,,,,,,"{""Q0"":""In the beginning I determined that the penalty for learning the hidden values was low, so I didn't mind selecting them.  I"",""Q1"":""I started the game selecting the outermost corners and then evolved towards selecting the innermost ones.  I knew that $36 was the max I could win so if I had a sense early I was following the best route I would just keep going to minimize the penalties. "",""Q2"":""33"",""Q3"":""Male""}",95300,,1231423,,,survey-text,,58
,,,,,,,,,,,,,"{""Q0"":""I just did the same thing over and over."",""Q1"":""No"",""Q2"":""63"",""Q3"":""male""}",51983,,1020715,,,survey-text,,59
,,,,,,,,,,,,,"{""Q0"":""trying not to be influenced by previous reward or deduction"",""Q1"":""not really"",""Q2"":""32"",""Q3"":""female""}",38880,,1025449,,,survey-text,,61
,,,,,,,,,,,,,"{""Q0"":""Usually the first leg less "",""Q1"":""yes I made money by taking the lowest first leg "",""Q2"":""46"",""Q3"":""male""}",49338,,1161571,,,survey-text,,62
,,,,,,,,,,,,,"{""Q0"":""I would check the final destinations first looking for green, then work backward and calculate. If I found a good one quickly I would go for it, otherwise I kept clicking until I found something."",""Q1"":""I learned that it never goes above 20, so if I find a 20 and any other greens in the route I will go with that and not waste money by clicking."",""Q2"":""30"",""Q3"":""Male""}",203425,,1404896,,,survey-text,,63
,,,,,,,,,,,,,"{""Q0"":""just tried to find the most profitable route"",""Q1"":""not really"",""Q2"":""38"",""Q3"":""male""}",27413,,1166465,,,survey-text,,64
,,,,,,,,,,,,,"{""Q0"":""I would check the first stop and find a positive dollar amount and then I would click on the last stop along that route to find another positive amount. I tried not to click more than three times. "",""Q1"":""I tried to limit how many times I uncovered the monetary value of the stops. "",""Q2"":""31"",""Q3"":""male""}",72913,,1022138,,,survey-text,,65
,,,,,,,,,,,,,"{""Q0"":""I tried to plan things, but it didn't work out very well.  "",""Q1"":""Yes, I definitely learned to quit while you're ahead, instead of being greedy and trying to get more.  "",""Q2"":""48"",""Q3"":""Caucasian American ""}",71135,,1664718,,,survey-text,,66
,,,,,,,,,,,,,"{""Q0"":""I mostly just chose randomly. Once in awhile I would duplicate the pattern twice in a row, but mostly tried to rotate through the options."",""Q1"":""Not really."",""Q2"":""35"",""Q3"":""Female""}",78704,,1102892,,,survey-text,,67
,,,,,,,,,,,,,"{""Q0"":""I randomly picked a route every time."",""Q1"":""No, it seemed like if I had an idea about how it would go, it would go the opposite."",""Q2"":""31"",""Q3"":""Female""}",47267,,1006566,,,survey-text,,69
,,,,,,,,,,,,,"{""Q0"":""I had good luck with going north, so I went that direction."",""Q1"":""Not really.  "",""Q2"":""34"",""Q3"":""female""}",30077,,1035341,,,survey-text,,70
,,,,,,,,,,,,,"{""Q0"":""Try to find the best paying bubble directly connected to my departure spot, then select the next bubble from the best paying bubble and proceed out the best paying combined branch."",""Q1"":""Yeah, sometimes the worst option on level 1 ended up giving the best overall result."",""Q2"":""46"",""Q3"":""Male""}",104563,,1137211,,,survey-text,,71
,,,,,,,,,,,,,"{""Q0"":""I would try to look for profit amounts then plan route."",""Q1"":""I learned I'm not good a route planning or aviation! Even when there were profits in the end, it still came up negative."",""Q2"":""43"",""Q3"":""male""}",89311,,988226,,,survey-text,,72
,,,,,,,,,,,,,"{""Q0"":""I checked the value of all the destination points first, then the intermediate points to determine the best outcome"",""Q1"":""look at the goal first, then figure out the steps in between"",""Q2"":""68"",""Q3"":""female""}",67745,,1096710,,,survey-text,,73
,,,,,,,,,,,,,"{""Q0"":""there was no good way"",""Q1"":""no"",""Q2"":""33"",""Q3"":""female""}",26315,,1495086,,,survey-text,,74
,,,,,,,,,,,,,"{""Q0"":""I first checked to see if there were any very profitable routes immediately surrounding my starting position, If there were any +12 or +20 routes nearby, I would explore those."",""Q1"":""Yes, once I learned the possible values I was able to gauge much better if further exploration of dots along the path were worth the investment."",""Q2"":""33"",""Q3"":""Male""}",145615,,1110865,,,survey-text,,75
,,,,,,,,,,,,,"{""Q0"":""first at random, then for highest value"",""Q1"":""look at all options"",""Q2"":""31"",""Q3"":""female""}",30767,,1081693,,,survey-text,,76
,,,,,,,,,,,,,"{""Q0"":""none"",""Q1"":""no"",""Q2"":""43"",""Q3"":""male""}",38657,,1245652,,,survey-text,,77
,,,,,,,,,,,,,"{""Q0"":""Random choice"",""Q1"":""no"",""Q2"":""53"",""Q3"":""Male""}",17352,,1201697,,,survey-text,,78
,,,,,,,,,,,,,"{""Q0"":""At first I thought I would click anywhere but once I saw the penalties I decided to click on the end routes in a clockwise fashion."",""Q1"":""Spend a little to get more."",""Q2"":""48"",""Q3"":""Male""}",69709,,980005,,,survey-text,,80
,,,,,,,,,,,,,"{""Q0"":""The routes that worked before for good payouts."",""Q1"":""Where ever you go you can only make 3 moves."",""Q2"":""39"",""Q3"":""Male""}",60176,,1055749,,,survey-text,,82
,,,,,,,,,,,,,"{""Q0"":""I guessed"",""Q1"":""No not really, numbers seemed random"",""Q2"":""30"",""Q3"":""male""}",44920,,1155601,,,survey-text,,83
,,,,,,,,,,,,,"{""Q0"":""At first I picked several random circles and looked at their values. That ended up costing more than I could make up for. Then I tried picking routes without looking -- that failed too, Then I tried looking at one or two first steps, that didn;t work well either."",""Q1"":""No. I could see no pattern, rhyme or reason to determine the best route."",""Q2"":""56"",""Q3"":""Male""}",285752,,1298861,,,survey-text,,84
,,,,,,,,,,,,,"{""Q0"":""Checked a far circle in each of the sectors until I found a positive value."",""Q1"":""Yes, limited checking in each of the four sectors; stopping the check when I found a positive value."",""Q2"":""43"",""Q3"":""Male""}",50264,,1410545,,,survey-text,,85
,,,,,,,,,,,,,"{""Q0"":""I started by looking at all possibilities, then realized it was difficult to retrieve the losses."",""Q1"":""Once I had found a good route, that ended up being more profitable than spending extra \""reveals\"" to try and find the optimal route."",""Q2"":""47"",""Q3"":""Male""}",79185,,1075892,,,survey-text,,86
,,,,,,,,,,,,,"{""Q0"":""I figured I could only afford to lose $8 (2 hints) for each round."",""Q1"":""I don't think so"",""Q2"":""58"",""Q3"":""female""}",66602,,1055618,,,survey-text,,87
,,,,,,,,,,,,,"{""Q0"":""no specific route...just moved "",""Q1"":""not really"",""Q2"":""46"",""Q3"":""female""}",61217,,1094704,,,survey-text,,88
,,,,,,,,,,,,,"{""Q0"":""I took the route each time that had given me positive results in the past"",""Q1"":""A little bit.  Most of the time, the same route each time gave me positive results. But sometimes it gave me negative results"",""Q2"":""48"",""Q3"":""female""}",79825,,1189220,,,survey-text,,89
,,,,,,,,,,,,,"{""Q0"":""i checked the intersection of each route first, then checked the sides connected to the positive ones"",""Q1"":""not to check them all"",""Q2"":""45"",""Q3"":""female""}",49614,,1032264,,,survey-text,,90
,,,,,,,,,,,,,"{""Q0"":""went with higher numbers"",""Q1"":""go with route that will give me a profit, not necessarily the highest"",""Q2"":""26"",""Q3"":""female""}",133924,,1334600,,,survey-text,,92
,,,,,,,,,,,,,"{""Q0"":""just went with my gut"",""Q1"":""no, not really"",""Q2"":""64"",""Q3"":""female""}",34860,,1226807,,,survey-text,,93
,,,,,,,,,,,,,"{""Q0"":""The first profitable route i found i took"",""Q1"":""Not really. I just had to think about where i wanted to end up and do some quick math"",""Q2"":""29"",""Q3"":""Male""}",83444,,993414,,,survey-text,,94
,,,,,,,,,,,,,"{""Q0"":""I tried to reveal at least one route and if the first one was negative I avoided that branch"",""Q1"":""At first I revealed several routes but was wasting money so I stopped doing that. "",""Q2"":""29"",""Q3"":""female""}",48605,,962795,,,survey-text,,95
,,,,,,,,,,,,,"{""Q0"":""By chance"",""Q1"":""I don't think it mattered. "",""Q2"":""42"",""Q3"":""male""}",35692,,918801,,,survey-text,,96
,,,,,,,,,,,,,"{""Q0"":""I found values of all possible end points. Eventually I also found values of the routes that went to the highest end point values."",""Q1"":""Yes, eventually I planned a lot better."",""Q2"":""68"",""Q3"":""Female""}",78705,,1471748,,,survey-text,,97
,,,,,,,,,,,,,"{""Q0"":""I tried to make the most money, or at least not lose too much. I started in and worked my way out."",""Q1"":""I think I could have looked at more routes, but usually if one looked good enough, I went for it."",""Q2"":""44"",""Q3"":""female""}",90912,,1021462,,,survey-text,,98
,,,,,,,,,,,,,"{""Q0"":""I went with my gut"",""Q1"":""no"",""Q2"":""50"",""Q3"":""female""}",19075,,964292,,,survey-text,,99
,,,,,,,,,,,,,"{""Q0"":""pretty much random; spending $4 for each look didn't seem to help much"",""Q1"":""not really"",""Q2"":""68"",""Q3"":""female""}",51926,,1304825,,,survey-text,,100
,,,,,,,,,,,,,"{""Q0"":""I chose to show a few spots, searching for a positive number instead of negative. once I found a good route I went that way, without looking for a more profitable way."",""Q1"":""Not really"",""Q2"":""33"",""Q3"":""female""}",51922,,1512642,,,survey-text,,101
,,,,,,,,,,,,,"{""Q0"":""I have no freaking clue I wasted all my money"",""Q1"":""No"",""Q2"":""23"",""Q3"":""female""}",24378,,1461265,,,survey-text,,102
,,,,,,,,,,,,,"{""Q0"":""In the beginning, I viewed the first stop to look for the highest paid, and then the next stops to avoid losing money.  didn't work all that well - inconsistent.  At the end, I tried some random paths - seemed to work better. "",""Q1"":""Not really "",""Q2"":""64"",""Q3"":""female""}",91391,,1075101,,,survey-text,,103
,,,,,,,,,,,,,"{""Q0"":""Trial and error."",""Q1"":""Nope, not a thing."",""Q2"":""29"",""Q3"":""male""}",20802,,890788,,,survey-text,,104
,,,,,,,,,,,,,"{""Q0"":""I tried to expose the route with the highest payout, then progressed where I'd just reveal the first 4 legs and took a gamble."",""Q1"":""I think that revealing the routes further paid out more than just gambling even though it cost more upfront."",""Q2"":""29"",""Q3"":""Male""}",87375,,1187654,,,survey-text,,105
