A1160COTUR26JZ:3Z4AIRP3C6DIYXK4A1BYW08522LX1L,0,1520270830402,"{""rt"": 17588, ""trial_type"": ""text"", ""internal_node_id"": ""0.0-0.0"", ""time_elapsed"": 17596, ""key_press"": 32, ""trial_index"": 0}"
A1160COTUR26JZ:3Z4AIRP3C6DIYXK4A1BYW08522LX1L,1,1520270861511,"{""rt"": 30104, ""trial_type"": ""text"", ""internal_node_id"": ""0.0-1.0"", ""time_elapsed"": 48705, ""key_press"": 32, ""trial_index"": 1}"
A1160COTUR26JZ:3Z4AIRP3C6DIYXK4A1BYW08522LX1L,2,1520270870449,"{""rt"": 7935, ""trial_type"": ""text"", ""internal_node_id"": ""0.0-2.0"", ""time_elapsed"": 57643, ""key_press"": 32, ""trial_index"": 2}"
A1160COTUR26JZ:3Z4AIRP3C6DIYXK4A1BYW08522LX1L,3,1520270894096,"{""rt"": [7967, 3954, 3030, 1085, 1582], ""trial_type"": ""mouselab-mdp"", ""trialTime"": 22342, ""rewards"": [1, -1, 0, -5, -43], ""stateRewards"": ["""", 1, -1, 0, 9, 2, -26, -23, -5, 0, 27, -43, -1, -2, -7, 11, -1, 61, -46, 10, -22, -13, -32, -1, -3, 1, -11, -8, 0, 21, 1, 10, 16, -1], ""actionTimes"": [7975, 12430, 15959, 17550, 19630], ""trial_id"": 3459662858762147000, ""time_elapsed"": 81290, ""actions"": [""up"", ""up"", ""up"", ""left"", ""left""], ""trialIndex"": 0, ""score"": -48, ""trial_index"": 3, ""simulationMode"": [null, null, null, null, null], ""queries"": {""mouseover"": {""state"": {""target"": [], ""time"": []}, ""edge"": {""target"": [], ""time"": []}}, ""click"": {""state"": {""target"": [], ""time"": []}, ""edge"": {""target"": [], ""time"": []}}, ""mouseout"": {""state"": {""target"": [], ""time"": []}, ""edge"": {""target"": [], ""time"": []}}}, ""path"": [""0"", ""1"", ""2"", ""3"", ""8"", ""11""], ""internal_node_id"": ""0.0-3.0-0.0"", ""block"": ""pre_test""}"
A1160COTUR26JZ:3Z4AIRP3C6DIYXK4A1BYW08522LX1L,4,1520270911903,"{""rt"": 16806, ""trial_type"": ""text"", ""internal_node_id"": ""0.0-4.0"", ""time_elapsed"": 99097, ""key_press"": 32, ""trial_index"": 4}"
A1160COTUR26JZ:3Z4AIRP3C6DIYXK4A1BYW08522LX1L,5,1520270972007,"{""rt"": [6427, 5442, 1353], ""trial_type"": ""mouselab-mdp"", ""trialTime"": 58883, ""rewards"": [2, -8, -24], ""stateRewards"": ["""", 2, 8, 24, -24, 2, -8, -24, -24, 4, -8, 48, 48], ""actionTimes"": [6429, 54403, 56251], ""trial_id"": -3200495881349436000, ""time_elapsed"": 159201, ""actions"": [""right"", ""right"", ""up""], ""trialIndex"": 1, ""score"": -30, ""trial_index"": 5, ""simulationMode"": [null, null, null], ""queries"": {""mouseover"": {""state"": {""target"": [], ""time"": []}, ""edge"": {""target"": [], ""time"": []}}, ""click"": {""state"": {""target"": [], ""time"": []}, ""edge"": {""target"": [], ""time"": []}}, ""mouseout"": {""state"": {""target"": [], ""time"": []}, ""edge"": {""target"": [], ""time"": []}}}, ""path"": [""0"", ""5"", ""6"", ""7""], ""internal_node_id"": ""0.0-5.0-0.0"", ""block"": ""training""}"
A1160COTUR26JZ:3Z4AIRP3C6DIYXK4A1BYW08522LX1L,6,1520271027382,"{""rt"": [7990, 1087, 639], ""trial_type"": ""mouselab-mdp"", ""trialTime"": 54331, ""rewards"": [4, -4, 48], ""stateRewards"": ["""", 2, -4, 24, -24, -2, 8, 24, 48, 4, -4, 48, 48], ""actionTimes"": [7994, 49596, 50731], ""trial_id"": 5246743485396079000, ""time_elapsed"": 214576, ""actions"": [""left"", ""left"", ""up""], ""trialIndex"": 2, ""score"": 47, ""trial_index"": 6, ""simulationMode"": [null, null, null], ""queries"": {""mouseover"": {""state"": {""target"": [], ""time"": []}, ""edge"": {""target"": [], ""time"": []}}, ""click"": {""state"": {""target"": [""9""], ""time"": [6189]}, ""edge"": {""target"": [], ""time"": []}}, ""mouseout"": {""state"": {""target"": [], ""time"": []}, ""edge"": {""target"": [], ""time"": []}}}, ""path"": [""0"", ""9"", ""10"", ""11""], ""internal_node_id"": ""0.0-5.0-1.0"", ""block"": ""training""}"
A1160COTUR26JZ:3Z4AIRP3C6DIYXK4A1BYW08522LX1L,7,1520271057128,"{""rt"": [10291, 685, 541], ""trial_type"": ""mouselab-mdp"", ""trialTime"": 28698, ""rewards"": [-2, -4, 24], ""stateRewards"": ["""", -2, -4, 24, -48, -4, 8, -24, -24, 4, -4, -48, 24], ""actionTimes"": [10296, 25505, 26546], ""trial_id"": 1399303655934214400, ""time_elapsed"": 244322, ""actions"": [""up"", ""up"", ""right""], ""trialIndex"": 3, ""score"": 15, ""trial_index"": 7, ""simulationMode"": [null, null, null], ""queries"": {""mouseover"": {""state"": {""target"": [], ""time"": []}, ""edge"": {""target"": [], ""time"": []}}, ""click"": {""state"": {""target"": [""11"", ""7"", ""3""], ""time"": [5260, 7556, 9012]}, ""edge"": {""target"": [], ""time"": []}}, ""mouseout"": {""state"": {""target"": [], ""time"": []}, ""edge"": {""target"": [], ""time"": []}}}, ""path"": [""0"", ""1"", ""2"", ""3""], ""internal_node_id"": ""0.0-5.0-2.0"", ""block"": ""training""}"
A1160COTUR26JZ:3Z4AIRP3C6DIYXK4A1BYW08522LX1L,8,1520271074631,"{""rt"": [10779, 1127, 504], ""trial_type"": ""mouselab-mdp"", ""trialTime"": 16461, ""rewards"": [-2, 8, 48], ""stateRewards"": ["""", -4, -8, 24, -24, -2, 8, 24, 48, 4, -4, 24, -48], ""actionTimes"": [10781, 12402, 13396], ""trial_id"": -1100449030722574200, ""time_elapsed"": 261825, ""actions"": [""right"", ""right"", ""down""], ""trialIndex"": 4, ""score"": 48, ""trial_index"": 8, ""simulationMode"": [null, null, null], ""queries"": {""mouseover"": {""state"": {""target"": [], ""time"": []}, ""edge"": {""target"": [], ""time"": []}}, ""click"": {""state"": {""target"": [""4"", ""3"", ""7"", ""8"", ""12"", ""11""], ""time"": [3137, 4779, 6057, 7169, 7992, 8639]}, ""edge"": {""target"": [], ""time"": []}}, ""mouseout"": {""state"": {""target"": [], ""time"": []}, ""edge"": {""target"": [], ""time"": []}}}, ""path"": [""0"", ""5"", ""6"", ""8""], ""internal_node_id"": ""0.0-5.0-3.0"", ""block"": ""training""}"
A1160COTUR26JZ:3Z4AIRP3C6DIYXK4A1BYW08522LX1L,9,1520271097277,"{""rt"": [16929, 629, 832], ""trial_type"": ""mouselab-mdp"", ""trialTime"": 21592, ""rewards"": [-4, 8, 48], ""stateRewards"": ["""", -4, 8, -24, -48, -4, 8, -48, 48, 4, -8, -24, 48], ""actionTimes"": [16945, 18072, 19408], ""trial_id"": -1414845178968030700, ""time_elapsed"": 284471, ""actions"": [""right"", ""right"", ""down""], ""trialIndex"": 5, ""score"": 45, ""trial_index"": 9, ""simulationMode"": [null, null, null], ""queries"": {""mouseover"": {""state"": {""target"": [], ""time"": []}, ""edge"": {""target"": [], ""time"": []}}, ""click"": {""state"": {""target"": [""8"", ""7"", ""4"", ""12"", ""11"", ""6"", ""10""], ""time"": [2461, 4540, 5921, 7212, 13184, 14013, 15588]}, ""edge"": {""target"": [], ""time"": []}}, ""mouseout"": {""state"": {""target"": [], ""time"": []}, ""edge"": {""target"": [], ""time"": []}}}, ""path"": [""0"", ""5"", ""6"", ""8""], ""internal_node_id"": ""0.0-5.0-4.0"", ""block"": ""training""}"
A1160COTUR26JZ:3Z4AIRP3C6DIYXK4A1BYW08522LX1L,10,1520271115687,"{""rt"": [12783, 687, 902], ""trial_type"": ""mouselab-mdp"", ""trialTime"": 17370, ""rewards"": [2, 4, 24], ""stateRewards"": ["""", -2, -4, -48, -48, 2, -8, -24, -24, 2, 4, 24, 24], ""actionTimes"": [12787, 13962, 15378], ""trial_id"": -7656966127788694000, ""time_elapsed"": 302881, ""actions"": [""left"", ""left"", ""up""], ""trialIndex"": 6, ""score"": 24, ""trial_index"": 10, ""simulationMode"": [null, null, null], ""queries"": {""mouseover"": {""state"": {""target"": [], ""time"": []}, ""edge"": {""target"": [], ""time"": []}}, ""click"": {""state"": {""target"": [""7"", ""8"", ""12"", ""11"", ""4"", ""3""], ""time"": [2587, 3788, 4939, 6123, 7116, 7947]}, ""edge"": {""target"": [], ""time"": []}}, ""mouseout"": {""state"": {""target"": [], ""time"": []}, ""edge"": {""target"": [], ""time"": []}}}, ""path"": [""0"", ""9"", ""10"", ""11""], ""internal_node_id"": ""0.0-5.0-5.0"", ""block"": ""training""}"
A1160COTUR26JZ:3Z4AIRP3C6DIYXK4A1BYW08522LX1L,11,1520271131814,"{""rt"": [11667, 551, 389], ""trial_type"": ""mouselab-mdp"", ""trialTime"": 15092, ""rewards"": [2, 4, 48], ""stateRewards"": ["""", 4, -8, 24, 24, 2, 4, 24, 48, -2, 4, 24, -48], ""actionTimes"": [11668, 12716, 13604], ""trial_id"": 6722698278557235000, ""time_elapsed"": 319008, ""actions"": [""right"", ""right"", ""down""], ""trialIndex"": 7, ""score"": 49, ""trial_index"": 11, ""simulationMode"": [null, null, null], ""queries"": {""mouseover"": {""state"": {""target"": [], ""time"": []}, ""edge"": {""target"": [], ""time"": []}}, ""click"": {""state"": {""target"": [""7"", ""4"", ""12"", ""11"", ""8""], ""time"": [4592, 6216, 7337, 8216, 9297]}, ""edge"": {""target"": [], ""time"": []}}, ""mouseout"": {""state"": {""target"": [], ""time"": []}, ""edge"": {""target"": [], ""time"": []}}}, ""path"": [""0"", ""5"", ""6"", ""8""], ""internal_node_id"": ""0.0-5.0-6.0"", ""block"": ""training""}"
A1160COTUR26JZ:3Z4AIRP3C6DIYXK4A1BYW08522LX1L,12,1520271145853,"{""rt"": [9106, 327, 183], ""trial_type"": ""mouselab-mdp"", ""trialTime"": 13004, ""rewards"": [4, -4, 24], ""stateRewards"": ["""", 2, 8, -48, -24, 2, 8, -24, -48, 4, -4, 24, -48], ""actionTimes"": [9108, 9924, 10598], ""trial_id"": 495354184512700500, ""time_elapsed"": 333047, ""actions"": [""left"", ""left"", ""up""], ""trialIndex"": 8, ""score"": 18, ""trial_index"": 12, ""simulationMode"": [null, null, null], ""queries"": {""mouseover"": {""state"": {""target"": [], ""time"": []}, ""edge"": {""target"": [], ""time"": []}}, ""click"": {""state"": {""target"": [""7"", ""8"", ""12"", ""11"", ""4"", ""3""], ""time"": [2577, 3580, 4377, 5160, 5825, 6616]}, ""edge"": {""target"": [], ""time"": []}}, ""mouseout"": {""state"": {""target"": [], ""time"": []}, ""edge"": {""target"": [], ""time"": []}}}, ""path"": [""0"", ""9"", ""10"", ""11""], ""internal_node_id"": ""0.0-5.0-7.0"", ""block"": ""training""}"
A1160COTUR26JZ:3Z4AIRP3C6DIYXK4A1BYW08522LX1L,13,1520271158428,"{""rt"": [7824, 384, 244], ""trial_type"": ""mouselab-mdp"", ""trialTime"": 11514, ""rewards"": [-2, -8, 48], ""stateRewards"": ["""", -4, -4, -48, -48, -2, -8, 24, 48, 2, 4, -24, -48], ""actionTimes"": [7827, 8707, 9451], ""trial_id"": -1848243683464450000, ""time_elapsed"": 345622, ""actions"": [""right"", ""right"", ""down""], ""trialIndex"": 9, ""score"": 32, ""trial_index"": 13, ""simulationMode"": [null, null, null], ""queries"": {""mouseover"": {""state"": {""target"": [], ""time"": []}, ""edge"": {""target"": [], ""time"": []}}, ""click"": {""state"": {""target"": [""7"", ""8"", ""12"", ""11"", ""4"", ""3""], ""time"": [1943, 3319, 4902, 5511, 6047, 6614]}, ""edge"": {""target"": [], ""time"": []}}, ""mouseout"": {""state"": {""target"": [], ""time"": []}, ""edge"": {""target"": [], ""time"": []}}}, ""path"": [""0"", ""5"", ""6"", ""8""], ""internal_node_id"": ""0.0-5.0-8.0"", ""block"": ""training""}"
A1160COTUR26JZ:3Z4AIRP3C6DIYXK4A1BYW08522LX1L,14,1520271169518,"{""rt"": [6770, 251, 292], ""trial_type"": ""mouselab-mdp"", ""trialTime"": 10054, ""rewards"": [-2, 8, 24], ""stateRewards"": ["""", 2, 4, -24, -48, -2, -4, -24, -24, -2, 8, 24, -24], ""actionTimes"": [6772, 7516, 8308], ""trial_id"": 11823864361136648, ""time_elapsed"": 356712, ""actions"": [""left"", ""left"", ""up""], ""trialIndex"": 10, ""score"": 24, ""trial_index"": 14, ""simulationMode"": [null, null, null], ""queries"": {""mouseover"": {""state"": {""target"": [], ""time"": []}, ""edge"": {""target"": [], ""time"": []}}, ""click"": {""state"": {""target"": [""7"", ""8"", ""12"", ""11"", ""4"", ""3""], ""time"": [2176, 2856, 3721, 4448, 5072, 5600]}, ""edge"": {""target"": [], ""time"": []}}, ""mouseout"": {""state"": {""target"": [], ""time"": []}, ""edge"": {""target"": [], ""time"": []}}}, ""path"": [""0"", ""9"", ""10"", ""11""], ""internal_node_id"": ""0.0-5.0-9.0"", ""block"": ""training""}"
A1160COTUR26JZ:3Z4AIRP3C6DIYXK4A1BYW08522LX1L,15,1520271172777,"{""rt"": 2258, ""trial_type"": ""text"", ""internal_node_id"": ""0.0-6.0"", ""time_elapsed"": 359971, ""key_press"": 32, ""trial_index"": 15}"
A1160COTUR26JZ:3Z4AIRP3C6DIYXK4A1BYW08522LX1L,16,1520271184582,"{""rt"": 10802, ""trial_type"": ""text"", ""internal_node_id"": ""0.0-7.0"", ""time_elapsed"": 371776, ""key_press"": 32, ""trial_index"": 16}"
A1160COTUR26JZ:3Z4AIRP3C6DIYXK4A1BYW08522LX1L,17,1520271223212,"{""rt"": [30153, 416, 746, 407, 874], ""trial_type"": ""mouselab-mdp"", ""trialTime"": 37419, ""rewards"": [-1, 2, 3, -16, 61], ""stateRewards"": ["""", -1, 2, 3, 8, 8, -25, -39, -16, -2, 61, 15, 0, -3, -3, 0, -7, 29, -5, 6, -4, -6, 40, -1, -1, -5, 1, 34, 22, 23, 8, 20, 24, 13], ""actionTimes"": [30162, 31075, 32322, 33235, 34602], ""trial_id"": -4353233720578277000, ""time_elapsed"": 410406, ""actions"": [""up"", ""up"", ""up"", ""left"", ""down""], ""trialIndex"": 11, ""score"": 31, ""trial_index"": 17, ""simulationMode"": [null, null, null, null, null], ""queries"": {""mouseover"": {""state"": {""target"": [], ""time"": []}, ""edge"": {""target"": [], ""time"": []}}, ""click"": {""state"": {""target"": [""5"", ""9"", ""11"", ""6"", ""16"", ""17"", ""20"", ""18"", ""29"", ""33"", ""31"", ""28"", ""10"", ""7"", ""22"", ""21"", ""27"", ""32""], ""time"": [3033, 4946, 6770, 7609, 8338, 9689, 10561, 13953, 15001, 16362, 18402, 19466, 20634, 22049, 23329, 24585, 25626, 26458]}, ""edge"": {""target"": [], ""time"": []}}, ""mouseout"": {""state"": {""target"": [], ""time"": []}, ""edge"": {""target"": [], ""time"": []}}}, ""path"": [""0"", ""1"", ""2"", ""3"", ""8"", ""10""], ""internal_node_id"": ""0.0-8.0-0.0"", ""block"": ""test""}"
A1160COTUR26JZ:3Z4AIRP3C6DIYXK4A1BYW08522LX1L,18,1520271251590,"{""rt"": [20794, 847, 344, 382, 980], ""trial_type"": ""mouselab-mdp"", ""trialTime"": 27149, ""rewards"": [1, 1, 1, -2, 70], ""stateRewards"": ["""", -1, 1, 3, -5, 17, -37, 26, 0, -6, -3, 28, 1, 1, 1, 1, 20, 7, 22, -2, -78, 33, 70, 0, 0, -1, -1, 1, -36, -17, -8, 8, -9, 16], ""actionTimes"": [20798, 22150, 22997, 23885, 25366], ""trial_id"": 2568974962861317000, ""time_elapsed"": 438783, ""actions"": [""right"", ""right"", ""right"", ""down"", ""left""], ""trialIndex"": 12, ""score"": 53, ""trial_index"": 18, ""simulationMode"": [null, null, null, null, null], ""queries"": {""mouseover"": {""state"": {""target"": [], ""time"": []}, ""edge"": {""target"": [], ""time"": []}}, ""click"": {""state"": {""target"": [""11"", ""10"", ""9"", ""5"", ""6"", ""7"", ""16"", ""17"", ""18"", ""22"", ""20"", ""21"", ""31"", ""32"", ""33"", ""29"", ""27"", ""28""], ""time"": [1992, 2801, 3632, 4225, 4987, 6556, 9236, 9804, 10419, 11000, 11612, 12531, 14075, 14699, 15291, 15899, 16443, 16995]}, ""edge"": {""target"": [], ""time"": []}}, ""mouseout"": {""state"": {""target"": [], ""time"": []}, ""edge"": {""target"": [], ""time"": []}}}, ""path"": [""0"", ""12"", ""13"", ""14"", ""19"", ""22""], ""internal_node_id"": ""0.0-8.0-1.0"", ""block"": ""test""}"
A1160COTUR26JZ:3Z4AIRP3C6DIYXK4A1BYW08522LX1L,19,1520271276956,"{""rt"": [18951, 423, 361, 518, 406], ""trial_type"": ""mouselab-mdp"", ""trialTime"": 24125, ""rewards"": [0, 0, 2, -12, 59], ""stateRewards"": ["""", 1, -2, -6, 10, 10, -20, -34, -6, 39, -1, -45, 1, 1, -1, 5, -26, 31, -46, -7, -44, -13, -24, 0, 0, 2, 1, 8, 51, -9, -12, 30, 59, 6], ""actionTimes"": [18957, 19885, 20741, 21764, 22669], ""trial_id"": -7446303971998027000, ""time_elapsed"": 464150, ""actions"": [""left"", ""left"", ""left"", ""down"", ""down""], ""trialIndex"": 13, ""score"": 31, ""trial_index"": 19, ""simulationMode"": [null, null, null, null, null], ""queries"": {""mouseover"": {""state"": {""target"": [], ""time"": []}, ""edge"": {""target"": [], ""time"": []}}, ""click"": {""state"": {""target"": [""32"", ""27"", ""33"", ""29"", ""31"", ""28"", ""11"", ""6"", ""5"", ""9"", ""10"", ""7"", ""16"", ""17"", ""20"", ""21"", ""22"", ""18""], ""time"": [1827, 3666, 4379, 5267, 6018, 7043, 8403, 9357, 10226, 11026, 11899, 12947, 13682, 14322, 14866, 15515, 16210, 16882]}, ""edge"": {""target"": [], ""time"": []}}, ""mouseout"": {""state"": {""target"": [], ""time"": []}, ""edge"": {""target"": [], ""time"": []}}}, ""path"": [""0"", ""23"", ""24"", ""25"", ""30"", ""32""], ""internal_node_id"": ""0.0-8.0-2.0"", ""block"": ""test""}"
A1160COTUR26JZ:3Z4AIRP3C6DIYXK4A1BYW08522LX1L,20,1520271305183,"{""rt"": [18787, 298, 232, 402, 4054], ""trial_type"": ""mouselab-mdp"", ""trialTime"": 27049, ""rewards"": [-1, -2, 3, -2, 51], ""stateRewards"": ["""", 1, -5, -2, -2, -65, 14, 39, -16, -50, 30, 36, -1, -2, 3, -2, -17, 51, 10, -15, 8, -45, 24, 1, 1, 4, 16, 23, -12, -35, 2, -33, -46, -15], ""actionTimes"": [18792, 19592, 20344, 21263, 25816], ""trial_id"": -5050476032982882000, ""time_elapsed"": 492377, ""actions"": [""right"", ""right"", ""right"", ""up"", ""right""], ""trialIndex"": 14, ""score"": 32, ""trial_index"": 20, ""simulationMode"": [null, null, null, null, null], ""queries"": {""mouseover"": {""state"": {""target"": [], ""time"": []}, ""edge"": {""target"": [], ""time"": []}}, ""click"": {""state"": {""target"": [""5"", ""9"", ""32"", ""21"", ""20"", ""22"", ""17"", ""18"", ""6"", ""7"", ""10"", ""11"", ""27"", ""28"", ""29"", ""33"", ""31""], ""time"": [2570, 3842, 4882, 5946, 6698, 7315, 7995, 8818, 9658, 10314, 10970, 12086, 12798, 13590, 14166, 14725, 15486]}, ""edge"": {""target"": [], ""time"": []}}, ""mouseout"": {""state"": {""target"": [], ""time"": []}, ""edge"": {""target"": [], ""time"": []}}}, ""path"": [""0"", ""12"", ""13"", ""14"", ""15"", ""17""], ""internal_node_id"": ""0.0-8.0-3.0"", ""block"": ""test""}"
A1160COTUR26JZ:3Z4AIRP3C6DIYXK4A1BYW08522LX1L,21,1520271330363,"{""rt"": [17274, 353, 279, 384, 1395], ""trial_type"": ""mouselab-mdp"", ""trialTime"": 23966, ""rewards"": [0, -1, -1, 8, 39], ""stateRewards"": ["""", 0, -1, -1, 8, 39, -38, -15, -6, 39, -2, 46, 0, 0, -5, 10, -12, -48, -19, -18, -1, 4, 9, 1, -1, 3, 2, -6, -66, 30, -4, 1, -41, 9], ""actionTimes"": [17279, 18135, 18911, 19799, 21711], ""trial_id"": -3870512213130664400, ""time_elapsed"": 517557, ""actions"": [""up"", ""up"", ""up"", ""right"", ""up""], ""trialIndex"": 15, ""score"": 27, ""trial_index"": 21, ""simulationMode"": [null, null, null, null, null], ""queries"": {""mouseover"": {""state"": {""target"": [], ""time"": []}, ""edge"": {""target"": [], ""time"": []}}, ""click"": {""state"": {""target"": [""5"", ""9"", ""10"", ""11"", ""7"", ""6"", ""16"", ""18"", ""17"", ""20"", ""21"", ""22"", ""31"", ""32"", ""33"", ""29"", ""27"", ""28""], ""time"": [1430, 1989, 2661, 3286, 4029, 4653, 5357, 5997, 6533, 7237, 7782, 8293, 9269, 9829, 10492, 11293, 12006, 13221]}, ""edge"": {""target"": [], ""time"": []}}, ""mouseout"": {""state"": {""target"": [], ""time"": []}, ""edge"": {""target"": [], ""time"": []}}}, ""path"": [""0"", ""1"", ""2"", ""3"", ""4"", ""5""], ""internal_node_id"": ""0.0-8.0-4.0"", ""block"": ""test""}"
A1160COTUR26JZ:3Z4AIRP3C6DIYXK4A1BYW08522LX1L,22,1520271399026,"{""rt"": [63648, 82, 170, 104, 134], ""trial_type"": ""mouselab-mdp"", ""trialTime"": 67481, ""rewards"": [0, 2, -6, -8, 48], ""stateRewards"": ["""", 0, 2, -6, -8, 17, 48, 1, 2, -26, -1, -23, 0, 1, -8, 2, -26, -21, 36, 2, 30, -56, -13, 0, -1, 2, 7, -35, -31, -40, 9, -16, -3, -11], ""actionTimes"": [63658, 64249, 64921, 65537, 66185], ""trial_id"": 5466546309607817000, ""time_elapsed"": 586220, ""actions"": [""up"", ""up"", ""up"", ""right"", ""right""], ""trialIndex"": 16, ""score"": 18, ""trial_index"": 22, ""simulationMode"": [null, null, null, null, null], ""queries"": {""mouseover"": {""state"": {""target"": [], ""time"": []}, ""edge"": {""target"": [], ""time"": []}}, ""click"": {""state"": {""target"": [""27"", ""32"", ""31"", ""33"", ""9"", ""11"", ""10"", ""5"", ""6"", ""7"", ""16"", ""18"", ""17"", ""20"", ""21"", ""22"", ""28"", ""29""], ""time"": [50967, 51704, 52303, 53005, 54271, 54808, 55256, 55983, 56687, 57367, 58104, 58687, 59231, 59719, 60382, 60919, 61895, 62350]}, ""edge"": {""target"": [], ""time"": []}}, ""mouseout"": {""state"": {""target"": [], ""time"": []}, ""edge"": {""target"": [], ""time"": []}}}, ""path"": [""0"", ""1"", ""2"", ""3"", ""4"", ""6""], ""internal_node_id"": ""0.0-8.0-5.0"", ""block"": ""test""}"
A1160COTUR26JZ:3Z4AIRP3C6DIYXK4A1BYW08522LX1L,23,1520271410141,"{""rt"": [3420, 357, 290, 328, 327], ""trial_type"": ""mouselab-mdp"", ""trialTime"": 9875, ""rewards"": [0, -2, -6, 8, 65], ""stateRewards"": ["""", 0, -2, -6, -4, -2, 53, -45, 8, 7, 26, 65, 0, 0, -7, -5, 50, 65, 5, 0, 15, 10, 72, -1, -3, -3, -11, 4, 2, -48, 0, -9, 8, -21], ""actionTimes"": [3425, 4289, 5088, 5928, 6759], ""trial_id"": -5125511017190641000, ""time_elapsed"": 597335, ""actions"": [""up"", ""up"", ""up"", ""left"", ""left""], ""trialIndex"": 17, ""score"": 62, ""trial_index"": 23, ""simulationMode"": [null, null, null, null, null], ""queries"": {""mouseover"": {""state"": {""target"": [], ""time"": []}, ""edge"": {""target"": [], ""time"": []}}, ""click"": {""state"": {""target"": [""9"", ""11"", ""10""], ""time"": [973, 1701, 2413]}, ""edge"": {""target"": [], ""time"": []}}, ""mouseout"": {""state"": {""target"": [], ""time"": []}, ""edge"": {""target"": [], ""time"": []}}}, ""path"": [""0"", ""1"", ""2"", ""3"", ""8"", ""11""], ""internal_node_id"": ""0.0-8.0-6.0"", ""block"": ""test""}"
A1160COTUR26JZ:3Z4AIRP3C6DIYXK4A1BYW08522LX1L,24,1520271430348,"{""rt"": [14534, 75, 179, 247, 249], ""trial_type"": ""mouselab-mdp"", ""trialTime"": 18939, ""rewards"": [0, 2, -7, -10, 47], ""stateRewards"": ["""", 0, 2, -7, 2, -4, 0, -28, -10, -15, -8, 47, 0, 0, 3, -13, 23, 29, 29, -3, -40, -32, 8, 1, 3, 6, 7, 1, 8, -8, 8, 19, 7, -40], ""actionTimes"": [14539, 15259, 15939, 16691, 17443], ""trial_id"": 763808305667995500, ""time_elapsed"": 617542, ""actions"": [""up"", ""up"", ""up"", ""left"", ""left""], ""trialIndex"": 18, ""score"": 14, ""trial_index"": 24, ""simulationMode"": [null, null, null, null, null], ""queries"": {""mouseover"": {""state"": {""target"": [], ""time"": []}, ""edge"": {""target"": [], ""time"": []}}, ""click"": {""state"": {""target"": [""11"", ""6"", ""16"", ""21"", ""32"", ""27"", ""9"", ""10"", ""29"", ""33"", ""31"", ""28"", ""17"", ""18"", ""22"", ""20"", ""5"", ""7""], ""time"": [1089, 1866, 2417, 3129, 4071, 4809, 5672, 6280, 7009, 7513, 8184, 8769, 9529, 10153, 10648, 11354, 12009, 12881]}, ""edge"": {""target"": [], ""time"": []}}, ""mouseout"": {""state"": {""target"": [], ""time"": []}, ""edge"": {""target"": [], ""time"": []}}}, ""path"": [""0"", ""1"", ""2"", ""3"", ""8"", ""11""], ""internal_node_id"": ""0.0-8.0-7.0"", ""block"": ""test""}"
A1160COTUR26JZ:3Z4AIRP3C6DIYXK4A1BYW08522LX1L,25,1520271453155,"{""rt"": [17518, 194, 276, 245, 287], ""trial_type"": ""mouselab-mdp"", ""trialTime"": 21614, ""rewards"": [1, 1, 4, 2, 36], ""stateRewards"": ["""", 1, -2, -1, 5, 11, -3, -31, 1, 23, -23, 2, 2, 1, 2, -8, -18, -10, -27, -10, -50, -7, 27, 1, 1, 4, -7, -22, -8, -29, 2, -21, 36, -28], ""actionTimes"": [17525, 18238, 19022, 19774, 20566], ""trial_id"": 8083441736047887000, ""time_elapsed"": 640349, ""actions"": [""left"", ""left"", ""left"", ""down"", ""down""], ""trialIndex"": 19, ""score"": 26, ""trial_index"": 25, ""simulationMode"": [null, null, null, null, null], ""queries"": {""mouseover"": {""state"": {""target"": [], ""time"": []}, ""edge"": {""target"": [], ""time"": []}}, ""click"": {""state"": {""target"": [""21"", ""32"", ""27"", ""16"", ""6"", ""11"", ""28"", ""29"", ""33"", ""31"", ""22"", ""20"", ""17"", ""18"", ""7"", ""10"", ""9"", ""5""], ""time"": [3772, 4563, 5507, 6387, 7035, 7627, 8597, 9115, 9627, 10300, 11253, 12252, 13052, 13732, 14302, 14900, 15451, 16011]}, ""edge"": {""target"": [], ""time"": []}}, ""mouseout"": {""state"": {""target"": [], ""time"": []}, ""edge"": {""target"": [], ""time"": []}}}, ""path"": [""0"", ""23"", ""24"", ""25"", ""30"", ""32""], ""internal_node_id"": ""0.0-8.0-8.0"", ""block"": ""test""}"
A1160COTUR26JZ:3Z4AIRP3C6DIYXK4A1BYW08522LX1L,26,1520271477988,"{""rt"": [19005, 198, 284, 413, 692], ""trial_type"": ""mouselab-mdp"", ""trialTime"": 23597, ""rewards"": [0, -1, 1, 1, 57], ""stateRewards"": ["""", -1, -4, -1, -2, -3, 42, 4, 17, 12, -35, 36, 0, -1, 1, 1, -50, -27, 37, 1, 20, 33, 57, -1, -1, -4, -5, -29, 0, -3, 5, -38, -21, 12], ""actionTimes"": [19013, 19725, 20509, 21421, 22653], ""trial_id"": 3036237284199421400, ""time_elapsed"": 665182, ""actions"": [""right"", ""right"", ""right"", ""down"", ""left""], ""trialIndex"": 20, ""score"": 40, ""trial_index"": 26, ""simulationMode"": [null, null, null, null, null], ""queries"": {""mouseover"": {""state"": {""target"": [], ""time"": []}, ""edge"": {""target"": [], ""time"": []}}, ""click"": {""state"": {""target"": [""16"", ""21"", ""17"", ""18"", ""11"", ""6"", ""5"", ""9"", ""10"", ""7"", ""20"", ""22"", ""32"", ""33"", ""31"", ""28"", ""29"", ""27""], ""time"": [2667, 3497, 4368, 5544, 6344, 7128, 7968, 8488, 8960, 9424, 10968, 11695, 13553, 14176, 14671, 15330, 15819, 16290]}, ""edge"": {""target"": [], ""time"": []}}, ""mouseout"": {""state"": {""target"": [], ""time"": []}, ""edge"": {""target"": [], ""time"": []}}}, ""path"": [""0"", ""12"", ""13"", ""14"", ""19"", ""22""], ""internal_node_id"": ""0.0-8.0-9.0"", ""block"": ""test""}"
A1160COTUR26JZ:3Z4AIRP3C6DIYXK4A1BYW08522LX1L,27,1520271505818,"{""rt"": [21744, 114, 140, 282, 479], ""trial_type"": ""mouselab-mdp"", ""trialTime"": 26556, ""rewards"": [2, -1, -2, -9, 56], ""stateRewards"": ["""", 2, -1, -2, -9, 28, -74, 56, -6, 10, -8, 47, -2, -1, -2, 9, -35, -6, -28, 0, 19, -35, 37, 1, 1, 4, -5, -4, -30, -9, 4, -22, -13, -22], ""actionTimes"": [21748, 22372, 23029, 23853, 24844], ""trial_id"": 3656281603793530400, ""time_elapsed"": 693012, ""actions"": [""up"", ""up"", ""up"", ""right"", ""down""], ""trialIndex"": 21, ""score"": 28, ""trial_index"": 27, ""simulationMode"": [null, null, null, null, null], ""queries"": {""mouseover"": {""state"": {""target"": [], ""time"": []}, ""edge"": {""target"": [], ""time"": []}}, ""click"": {""state"": {""target"": [""5"", ""9"", ""10"", ""7"", ""6"", ""11"", ""16"", ""21"", ""22"", ""20"", ""17"", ""18"", ""27"", ""29"", ""33"", ""32"", ""31"", ""28""], ""time"": [9020, 9705, 10304, 10786, 11386, 12114, 12978, 13850, 14378, 14978, 15690, 16186, 17042, 17562, 18114, 18682, 19841, 20330]}, ""edge"": {""target"": [], ""time"": []}}, ""mouseout"": {""state"": {""target"": [], ""time"": []}, ""edge"": {""target"": [], ""time"": []}}}, ""path"": [""0"", ""1"", ""2"", ""3"", ""4"", ""7""], ""internal_node_id"": ""0.0-8.0-10.0"", ""block"": ""test""}"
A1160COTUR26JZ:3Z4AIRP3C6DIYXK4A1BYW08522LX1L,28,1520271527633,"{""rt"": [16362, 193, 276, 212, 312], ""trial_type"": ""mouselab-mdp"", ""trialTime"": 20568, ""rewards"": [-1, 1, -2, 8, 28], ""stateRewards"": ["""", 0, -2, -2, -8, -65, 26, -5, -7, -42, -18, -40, 1, -4, -4, -7, 15, 8, -5, -1, 13, -25, 15, -1, 1, -2, 9, -39, -15, -26, 8, -45, 28, 15], ""actionTimes"": [16368, 17064, 17848, 18568, 19384], ""trial_id"": -3543506475518153700, ""time_elapsed"": 714827, ""actions"": [""left"", ""left"", ""left"", ""down"", ""down""], ""trialIndex"": 22, ""score"": 16, ""trial_index"": 28, ""simulationMode"": [null, null, null, null, null], ""queries"": {""mouseover"": {""state"": {""target"": [], ""time"": []}, ""edge"": {""target"": [], ""time"": []}}, ""click"": {""state"": {""target"": [""11"", ""32"", ""33"", ""27"", ""28"", ""31"", ""29"", ""21"", ""22"", ""20"", ""17"", ""18"", ""16"", ""6"", ""5"", ""9"", ""10"", ""7""], ""time"": [1655, 2470, 3246, 3933, 4485, 4958, 5582, 6421, 6934, 7438, 7934, 8414, 8990, 9742, 10334, 11150, 11663, 12141]}, ""edge"": {""target"": [], ""time"": []}}, ""mouseout"": {""state"": {""target"": [], ""time"": []}, ""edge"": {""target"": [], ""time"": []}}}, ""path"": [""0"", ""23"", ""24"", ""25"", ""30"", ""32""], ""internal_node_id"": ""0.0-8.0-11.0"", ""block"": ""test""}"
A1160COTUR26JZ:3Z4AIRP3C6DIYXK4A1BYW08522LX1L,29,1520271539155,"{""rt"": [2867, 82, 212, 191, 393], ""trial_type"": ""mouselab-mdp"", ""trialTime"": 10344, ""rewards"": [1, -3, -1, 7, 65], ""stateRewards"": ["""", -1, -2, 3, -3, -6, -5, 35, 13, 14, -8, 45, 0, -1, 4, 2, -46, 20, 10, -15, -69, 4, 22, 1, -3, -1, 5, -49, 3, 7, 7, -79, 5, 65], ""actionTimes"": [2873, 3465, 4177, 4873, 5777], ""trial_id"": -8336695814689934000, ""time_elapsed"": 726349, ""actions"": [""left"", ""left"", ""left"", ""down"", ""left""], ""trialIndex"": 23, ""score"": 68, ""trial_index"": 29, ""simulationMode"": [null, null, null, null, null], ""queries"": {""mouseover"": {""state"": {""target"": [], ""time"": []}, ""edge"": {""target"": [], ""time"": []}}, ""click"": {""state"": {""target"": [""33""], ""time"": [1502]}, ""edge"": {""target"": [], ""time"": []}}, ""mouseout"": {""state"": {""target"": [], ""time"": []}, ""edge"": {""target"": [], ""time"": []}}}, ""path"": [""0"", ""23"", ""24"", ""25"", ""30"", ""33""], ""internal_node_id"": ""0.0-8.0-12.0"", ""block"": ""test""}"
A1160COTUR26JZ:3Z4AIRP3C6DIYXK4A1BYW08522LX1L,30,1520271551786,"{""rt"": [6927, 130, 114, 235, 131], ""trial_type"": ""mouselab-mdp"", ""trialTime"": 11414, ""rewards"": [1, -2, -2, 2, 64], ""stateRewards"": ["""", -3, 1, 3, -12, 3, 9, 11, -4, 3, 19, -57, 1, -1, 3, -6, -55, 38, 53, -15, -41, 3, -34, 1, -2, -2, 2, -70, -10, 64, 5, -32, 33, 66], ""actionTimes"": [6959, 7591, 8231, 8983, 9631], ""trial_id"": -7408310872886357000, ""time_elapsed"": 738980, ""actions"": [""left"", ""left"", ""left"", ""up"", ""left""], ""trialIndex"": 24, ""score"": 59, ""trial_index"": 30, ""simulationMode"": [null, null, null, null, null], ""queries"": {""mouseover"": {""state"": {""target"": [], ""time"": []}, ""edge"": {""target"": [], ""time"": []}}, ""click"": {""state"": {""target"": [""17"", ""5"", ""10"", ""29""], ""time"": [1428, 3206, 4507, 5492]}, ""edge"": {""target"": [], ""time"": []}}, ""mouseout"": {""state"": {""target"": [], ""time"": []}, ""edge"": {""target"": [], ""time"": []}}}, ""path"": [""0"", ""23"", ""24"", ""25"", ""26"", ""29""], ""internal_node_id"": ""0.0-8.0-13.0"", ""block"": ""test""}"
A1160COTUR26JZ:3Z4AIRP3C6DIYXK4A1BYW08522LX1L,31,1520271562674,"{""rt"": [5156, 136, 165, 204, 244], ""trial_type"": ""mouselab-mdp"", ""trialTime"": 9672, ""rewards"": [0, 0, -2, -4, 64], ""stateRewards"": ["""", 0, 0, -2, -4, 64, 0, 55, -8, 24, 0, 54, 0, 4, -2, 0, -37, -1, -7, -9, -59, 29, 16, -1, 0, -3, -1, 8, 11, -16, -2, 17, -21, -18], ""actionTimes"": [5161, 5792, 6472, 7192, 7952], ""trial_id"": -2342175778698088400, ""time_elapsed"": 749868, ""actions"": [""up"", ""up"", ""up"", ""right"", ""up""], ""trialIndex"": 25, ""score"": 56, ""trial_index"": 31, ""simulationMode"": [null, null, null, null, null], ""queries"": {""mouseover"": {""state"": {""target"": [], ""time"": []}, ""edge"": {""target"": [], ""time"": []}}, ""click"": {""state"": {""target"": [""32"", ""5""], ""time"": [1758, 2829]}, ""edge"": {""target"": [], ""time"": []}}, ""mouseout"": {""state"": {""target"": [], ""time"": []}, ""edge"": {""target"": [], ""time"": []}}}, ""path"": [""0"", ""1"", ""2"", ""3"", ""4"", ""5""], ""internal_node_id"": ""0.0-8.0-14.0"", ""block"": ""test""}"
A1160COTUR26JZ:3Z4AIRP3C6DIYXK4A1BYW08522LX1L,32,1520271576026,"{""rt"": [8227, 110, 167, 175, 275], ""trial_type"": ""mouselab-mdp"", ""trialTime"": 12089, ""rewards"": [1, 0, 4, 12, 56], ""stateRewards"": ["""", -1, 1, -9, -9, -1, -55, 2, -6, -9, -8, 6, -1, 0, -2, 4, 54, 6, 5, -9, 22, -24, -26, 1, 0, 4, 12, -17, 4, 56, 8, 23, 42, -19], ""actionTimes"": [8233, 8858, 9537, 10225, 11009], ""trial_id"": 5551401596523726000, ""time_elapsed"": 763219, ""actions"": [""left"", ""left"", ""left"", ""up"", ""left""], ""trialIndex"": 26, ""score"": 65, ""trial_index"": 32, ""simulationMode"": [null, null, null, null, null], ""queries"": {""mouseover"": {""state"": {""target"": [], ""time"": []}, ""edge"": {""target"": [], ""time"": []}}, ""click"": {""state"": {""target"": [""21"", ""9"", ""29"", ""33"", ""17"", ""18"", ""6"", ""11""], ""time"": [1143, 2294, 3039, 3910, 5039, 5710, 6239, 7248]}, ""edge"": {""target"": [], ""time"": []}}, ""mouseout"": {""state"": {""target"": [], ""time"": []}, ""edge"": {""target"": [], ""time"": []}}}, ""path"": [""0"", ""23"", ""24"", ""25"", ""26"", ""29""], ""internal_node_id"": ""0.0-8.0-15.0"", ""block"": ""test""}"
A1160COTUR26JZ:3Z4AIRP3C6DIYXK4A1BYW08522LX1L,33,1520271594443,"{""rt"": [13821, 34, 79, 95, 208], ""trial_type"": ""mouselab-mdp"", ""trialTime"": 17214, ""rewards"": [0, 1, -1, -6, 38], ""stateRewards"": ["""", 1, -1, -3, -3, -34, 1, -32, -7, 10, -18, -7, 2, 1, 5, 4, 19, -43, -18, -2, -14, -6, 5, 0, 1, -1, 9, 0, -19, -40, -6, -8, 38, -41], ""actionTimes"": [13831, 14374, 14966, 15566, 16279], ""trial_id"": 5019688220286024000, ""time_elapsed"": 781637, ""actions"": [""left"", ""left"", ""left"", ""down"", ""down""], ""trialIndex"": 27, ""score"": 17, ""trial_index"": 33, ""simulationMode"": [null, null, null, null, null], ""queries"": {""mouseover"": {""state"": {""target"": [], ""time"": []}, ""edge"": {""target"": [], ""time"": []}}, ""click"": {""state"": {""target"": [""11"", ""6"", ""16"", ""33"", ""32"", ""27"", ""29"", ""9"", ""5"", ""21"", ""20"", ""22"", ""17"", ""31"", ""28""], ""time"": [1313, 2041, 2529, 3513, 4208, 5072, 5665, 6561, 7801, 8552, 9089, 9704, 10352, 11305, 11970]}, ""edge"": {""target"": [], ""time"": []}}, ""mouseout"": {""state"": {""target"": [], ""time"": []}, ""edge"": {""target"": [], ""time"": []}}}, ""path"": [""0"", ""23"", ""24"", ""25"", ""30"", ""32""], ""internal_node_id"": ""0.0-8.0-16.0"", ""block"": ""test""}"
A1160COTUR26JZ:3Z4AIRP3C6DIYXK4A1BYW08522LX1L,34,1520271614122,"{""rt"": [13845, 549, 305, 312, 214], ""trial_type"": ""mouselab-mdp"", ""trialTime"": 18350, ""rewards"": [0, 2, -4, -1, 46], ""stateRewards"": ["""", 0, 2, -4, -1, 46, -20, -65, -16, -80, -68, -13, 1, -1, 1, -1, 0, -5, -6, 4, -38, 32, 29, 0, 2, -3, -4, 5, -6, -14, -5, -18, 30, -62], ""actionTimes"": [13855, 14911, 15734, 16558, 17294], ""trial_id"": -3135801206866439000, ""time_elapsed"": 801316, ""actions"": [""up"", ""up"", ""up"", ""right"", ""up""], ""trialIndex"": 28, ""score"": 27, ""trial_index"": 34, ""simulationMode"": [null, null, null, null, null], ""queries"": {""mouseover"": {""state"": {""target"": [], ""time"": []}, ""edge"": {""target"": [], ""time"": []}}, ""click"": {""state"": {""target"": [""9"", ""21"", ""16"", ""29"", ""33"", ""31"", ""32"", ""28"", ""27"", ""11"", ""6"", ""5"", ""17"", ""20"", ""22"", ""18""], ""time"": [1173, 2100, 3020, 3668, 4276, 4836, 5420, 6019, 7204, 7764, 8701, 9636, 10836, 11347, 11980, 12532]}, ""edge"": {""target"": [], ""time"": []}}, ""mouseout"": {""state"": {""target"": [], ""time"": []}, ""edge"": {""target"": [], ""time"": []}}}, ""path"": [""0"", ""1"", ""2"", ""3"", ""4"", ""5""], ""internal_node_id"": ""0.0-8.0-17.0"", ""block"": ""test""}"
A1160COTUR26JZ:3Z4AIRP3C6DIYXK4A1BYW08522LX1L,35,1520271635105,"{""rt"": [16230, 54, 160, 93, 170], ""trial_type"": ""mouselab-mdp"", ""trialTime"": 19700, ""rewards"": [-1, 0, -2, 0, 55], ""stateRewards"": ["""", -1, 0, -2, 1, 18, 17, 42, 0, 31, 55, -39, 1, -2, -6, 13, 36, 17, -15, 12, -44, 2, 16, 1, -3, -12, 1, 10, 6, -28, 0, -49, 13, 29], ""actionTimes"": [16237, 16796, 17468, 18084, 18764], ""trial_id"": -5256780874555580000, ""time_elapsed"": 822299, ""actions"": [""up"", ""up"", ""up"", ""left"", ""down""], ""trialIndex"": 29, ""score"": 36, ""trial_index"": 35, ""simulationMode"": [null, null, null, null, null], ""queries"": {""mouseover"": {""state"": {""target"": [], ""time"": []}, ""edge"": {""target"": [], ""time"": []}}, ""click"": {""state"": {""target"": [""9"", ""6"", ""21"", ""32"", ""27"", ""29"", ""33"", ""28"", ""31"", ""16"", ""11"", ""10"", ""17"", ""18"", ""22"", ""20""], ""time"": [1570, 2250, 3154, 3953, 4682, 5513, 6178, 7034, 7756, 8625, 10354, 10906, 12065, 12850, 13393, 13929]}, ""edge"": {""target"": [], ""time"": []}}, ""mouseout"": {""state"": {""target"": [], ""time"": []}, ""edge"": {""target"": [], ""time"": []}}}, ""path"": [""0"", ""1"", ""2"", ""3"", ""8"", ""10""], ""internal_node_id"": ""0.0-8.0-18.0"", ""block"": ""test""}"
A1160COTUR26JZ:3Z4AIRP3C6DIYXK4A1BYW08522LX1L,36,1520271654946,"{""rt"": [14271, 420, 156, 57, 156], ""trial_type"": ""mouselab-mdp"", ""trialTime"": 18598, ""rewards"": [-1, -1, 0, -2, 54], ""stateRewards"": ["""", -1, -1, 0, -9, 8, 53, 24, -2, -28, -24, 54, 0, -1, 1, 17, 4, 20, 10, -3, -37, -11, -7, 1, 2, 4, 2, 28, -24, 40, 4, -10, 16, -2], ""actionTimes"": [14280, 15199, 15873, 16455, 17119], ""trial_id"": -8141988675068219000, ""time_elapsed"": 842140, ""actions"": [""up"", ""up"", ""up"", ""left"", ""left""], ""trialIndex"": 30, ""score"": 33, ""trial_index"": 36, ""simulationMode"": [null, null, null, null, null], ""queries"": {""mouseover"": {""state"": {""target"": [], ""time"": []}, ""edge"": {""target"": [], ""time"": []}}, ""click"": {""state"": {""target"": [""9"", ""32"", ""6"", ""11"", ""17"", ""18"", ""16"", ""20"", ""21"", ""22"", ""31"", ""33"", ""29"", ""28"", ""27"", ""5"", ""7""], ""time"": [1058, 2282, 3041, 3753, 4698, 5409, 5945, 6497, 6987, 7474, 8330, 9178, 9882, 10666, 11338, 12209, 12874]}, ""edge"": {""target"": [], ""time"": []}}, ""mouseout"": {""state"": {""target"": [], ""time"": []}, ""edge"": {""target"": [], ""time"": []}}}, ""path"": [""0"", ""1"", ""2"", ""3"", ""8"", ""11""], ""internal_node_id"": ""0.0-8.0-19.0"", ""block"": ""test""}"
A1160COTUR26JZ:3Z4AIRP3C6DIYXK4A1BYW08522LX1L,37,1520271695860,"{""rt"": 39901, ""trial_type"": ""survey-multi-choice"", ""responses"": ""[\""$-48 to $48\"",\""$-48 to $48\"",\""$1\"",\""5 cents for every $10 you make in the game\""]"", ""internal_node_id"": ""0.0-9.0"", ""time_elapsed"": 883054, ""questions"": ""[\""What is the range of node values in the first step?\"",\""What is the range of node values in the last step?\"",\""What is the cost of clicking?\"",\""How much REAL money do you earn?\""]"", ""correct"": null, ""trial_index"": 37}"
A1160COTUR26JZ:3Z4AIRP3C6DIYXK4A1BYW08522LX1L,38,1520271736691,"{""rt"": 39824, ""trial_type"": ""survey-text"", ""responses"": ""{\""Q0\"":\""Clicking on the end of the trails\"",\""Q1\"":\""Not clicking withing the trail\"",\""Q2\"":\""When I saw a high number\"",\""Q3\"":\""the end of the trails.\"",\""Q4\"":\""n/a\""}"", ""internal_node_id"": ""0.0-10.0"", ""time_elapsed"": 923885, ""trial_index"": 38}"
A1160COTUR26JZ:3Z4AIRP3C6DIYXK4A1BYW08522LX1L,39,1520271763593,"{""rt"": 25897, ""trial_type"": ""survey-text"", ""responses"": ""{\""Q0\"":\""To not be greedy and to stop sometimes sooner when I saw a high number. \"",\""Q1\"":\""\"",\""Q2\"":\""47\"",\""Q3\"":\""\""}"", ""internal_node_id"": ""0.0-11.0"", ""time_elapsed"": 950787, ""trial_index"": 39}"
A12BTFPKFKKD2I:3OVHNO1VE611VN0VRCJEUNPPZZMZDA,0,1520271107559,"{""rt"": 10781, ""trial_type"": ""text"", ""internal_node_id"": ""0.0-0.0"", ""time_elapsed"": 10792, ""key_press"": 32, ""trial_index"": 0}"
A12BTFPKFKKD2I:3OVHNO1VE611VN0VRCJEUNPPZZMZDA,1,1520271121679,"{""rt"": 13117, ""trial_type"": ""text"", ""internal_node_id"": ""0.0-1.0"", ""time_elapsed"": 24912, ""key_press"": 32, ""trial_index"": 1}"
A12BTFPKFKKD2I:3OVHNO1VE611VN0VRCJEUNPPZZMZDA,2,1520271127667,"{""rt"": 4978, ""trial_type"": ""text"", ""internal_node_id"": ""0.0-2.0"", ""time_elapsed"": 30900, ""key_press"": 32, ""trial_index"": 2}"
A12BTFPKFKKD2I:3OVHNO1VE611VN0VRCJEUNPPZZMZDA,3,1520271158742,"{""rt"": [16320, 305, 569, 163, 317], ""trial_type"": ""mouselab-mdp"", ""trialTime"": 29756, ""rewards"": [-1, -1, -5, 1, 22], ""stateRewards"": ["""", -1, 2, 3, 8, 8, -25, -39, -16, -2, 61, 15, 0, -3, -3, 0, -7, 29, -5, 6, -4, -6, 40, -1, -1, -5, 1, 34, 22, 23, 8, 20, 24, 13], ""actionTimes"": [16329, 17152, 18227, 18912, 19734], ""trial_id"": -4353233720578277000, ""time_elapsed"": 61975, ""actions"": [""left"", ""left"", ""left"", ""up"", ""right""], ""trialIndex"": 0, ""score"": 0, ""trial_index"": 3, ""simulationMode"": [null, null, null, null, null], ""queries"": {""mouseover"": {""state"": {""target"": [], ""time"": []}, ""edge"": {""target"": [], ""time"": []}}, ""click"": {""state"": {""target"": [""12"", ""1"", ""23"", ""24"", ""25"", ""26"", ""28"", ""27"", ""29"", ""31"", ""30"", ""32"", ""33"", ""13"", ""14"", ""15""], ""time"": [1274, 1893, 2421, 2937, 3345, 3703, 4380, 5101, 5650, 6505, 9069, 9869, 10469, 13785, 14500, 15146]}, ""edge"": {""target"": [], ""time"": []}}, ""mouseout"": {""state"": {""target"": [], ""time"": []}, ""edge"": {""target"": [], ""time"": []}}}, ""path"": [""0"", ""23"", ""24"", ""25"", ""26"", ""28""], ""internal_node_id"": ""0.0-3.0-0.0"", ""block"": ""pre_test""}"
A12BTFPKFKKD2I:3OVHNO1VE611VN0VRCJEUNPPZZMZDA,4,1520271166397,"{""rt"": 6652, ""trial_type"": ""text"", ""internal_node_id"": ""0.0-4.0"", ""time_elapsed"": 69630, ""key_press"": 32, ""trial_index"": 4}"
A12BTFPKFKKD2I:3OVHNO1VE611VN0VRCJEUNPPZZMZDA,5,1520271189452,"{""rt"": [18065, 535, 121], ""trial_type"": ""mouselab-mdp"", ""trialTime"": 21805, ""rewards"": [-4, 8, 48], ""stateRewards"": ["""", -4, 8, 48, 24, 2, -8, -48, -24, -4, -4, 48, -24], ""actionTimes"": [18070, 19130, 19768], ""trial_id"": 3419769505624262700, ""time_elapsed"": 92685, ""actions"": [""up"", ""up"", ""right""], ""trialIndex"": 1, ""score"": 43, ""trial_index"": 5, ""simulationMode"": [null, null, null], ""queries"": {""mouseover"": {""state"": {""target"": [], ""time"": []}, ""edge"": {""target"": [], ""time"": []}}, ""click"": {""state"": {""target"": [""5"", ""7"", ""8"", ""3"", ""4"", ""11"", ""12"", ""2"", ""10""], ""time"": [7372, 7618, 8980, 10121, 11008, 11709, 15225, 15626, 16476]}, ""edge"": {""target"": [], ""time"": []}}, ""mouseout"": {""state"": {""target"": [], ""time"": []}, ""edge"": {""target"": [], ""time"": []}}}, ""path"": [""0"", ""1"", ""2"", ""3""], ""internal_node_id"": ""0.0-5.0-0.0"", ""block"": ""training""}"
A12BTFPKFKKD2I:3OVHNO1VE611VN0VRCJEUNPPZZMZDA,6,1520271211094,"{""rt"": [9470, 136, 225], ""trial_type"": ""mouselab-mdp"", ""trialTime"": 20582, ""rewards"": [4, 8, 48], ""stateRewards"": ["""", -2, -8, -24, -24, 4, 8, 48, 24, -2, 8, -24, -48], ""actionTimes"": [9473, 10115, 10849], ""trial_id"": 4079752410143045600, ""time_elapsed"": 114327, ""actions"": [""right"", ""right"", ""up""], ""trialIndex"": 2, ""score"": 54, ""trial_index"": 6, ""simulationMode"": [null, null, null], ""queries"": {""mouseover"": {""state"": {""target"": [], ""time"": []}, ""edge"": {""target"": [], ""time"": []}}, ""click"": {""state"": {""target"": [""3"", ""4"", ""11"", ""12"", ""8"", ""7""], ""time"": [2544, 3701, 4496, 5187, 5910, 7618]}, ""edge"": {""target"": [], ""time"": []}}, ""mouseout"": {""state"": {""target"": [], ""time"": []}, ""edge"": {""target"": [], ""time"": []}}}, ""path"": [""0"", ""5"", ""6"", ""7""], ""internal_node_id"": ""0.0-5.0-1.0"", ""block"": ""training""}"
A12BTFPKFKKD2I:3OVHNO1VE611VN0VRCJEUNPPZZMZDA,7,1520271229793,"{""rt"": [14157, 58, 345], ""trial_type"": ""mouselab-mdp"", ""trialTime"": 17643, ""rewards"": [2, 4, 24], ""stateRewards"": ["""", 2, -4, 24, -48, -2, -8, 24, -48, 2, 4, 24, -48], ""actionTimes"": [14160, 14734, 15589], ""trial_id"": 2653018761906401300, ""time_elapsed"": 133026, ""actions"": [""left"", ""left"", ""up""], ""trialIndex"": 3, ""score"": 21, ""trial_index"": 7, ""simulationMode"": [null, null, null], ""queries"": {""mouseover"": {""state"": {""target"": [], ""time"": []}, ""edge"": {""target"": [], ""time"": []}}, ""click"": {""state"": {""target"": [""3"", ""4"", ""7"", ""8"", ""12"", ""11"", ""10"", ""2"", ""6""], ""time"": [7789, 8528, 9105, 9754, 10580, 11070, 11849, 12371, 13117]}, ""edge"": {""target"": [], ""time"": []}}, ""mouseout"": {""state"": {""target"": [], ""time"": []}, ""edge"": {""target"": [], ""time"": []}}}, ""path"": [""0"", ""9"", ""10"", ""11""], ""internal_node_id"": ""0.0-5.0-2.0"", ""block"": ""training""}"
A12BTFPKFKKD2I:3OVHNO1VE611VN0VRCJEUNPPZZMZDA,8,1520271241757,"{""rt"": [7353, 294, 399], ""trial_type"": ""mouselab-mdp"", ""trialTime"": 10918, ""rewards"": [4, 8, 24], ""stateRewards"": ["""", 2, 4, 24, -24, 4, 8, -48, 24, 4, -8, -24, 24], ""actionTimes"": [7355, 8164, 9068], ""trial_id"": 8950946188299295000, ""time_elapsed"": 144990, ""actions"": [""right"", ""right"", ""down""], ""trialIndex"": 4, ""score"": 27, ""trial_index"": 8, ""simulationMode"": [null, null, null], ""queries"": {""mouseover"": {""state"": {""target"": [], ""time"": []}, ""edge"": {""target"": [], ""time"": []}}, ""click"": {""state"": {""target"": [""4"", ""3"", ""7"", ""8"", ""12"", ""11"", ""10"", ""6"", ""2""], ""time"": [1013, 1572, 2186, 2758, 3771, 4262, 4699, 5492, 6355]}, ""edge"": {""target"": [], ""time"": []}}, ""mouseout"": {""state"": {""target"": [], ""time"": []}, ""edge"": {""target"": [], ""time"": []}}}, ""path"": [""0"", ""5"", ""6"", ""8""], ""internal_node_id"": ""0.0-5.0-3.0"", ""block"": ""training""}"
A12BTFPKFKKD2I:3OVHNO1VE611VN0VRCJEUNPPZZMZDA,9,1520271252368,"{""rt"": [4767, 95, 69], ""trial_type"": ""mouselab-mdp"", ""trialTime"": 9560, ""rewards"": [2, -4, 24], ""stateRewards"": ["""", 2, -4, 24, 24, -4, 4, -24, -24, -2, 4, -24, -48], ""actionTimes"": [4769, 5375, 5950], ""trial_id"": 7862543089384343000, ""time_elapsed"": 155601, ""actions"": [""up"", ""up"", ""right""], ""trialIndex"": 5, ""score"": 16, ""trial_index"": 9, ""simulationMode"": [null, null, null], ""queries"": {""mouseover"": {""state"": {""target"": [], ""time"": []}, ""edge"": {""target"": [], ""time"": []}}, ""click"": {""state"": {""target"": [""3"", ""4"", ""11"", ""12"", ""7"", ""8""], ""time"": [707, 1350, 1807, 2267, 2804, 3271]}, ""edge"": {""target"": [], ""time"": []}}, ""mouseout"": {""state"": {""target"": [], ""time"": []}, ""edge"": {""target"": [], ""time"": []}}}, ""path"": [""0"", ""1"", ""2"", ""3""], ""internal_node_id"": ""0.0-5.0-4.0"", ""block"": ""training""}"
A12BTFPKFKKD2I:3OVHNO1VE611VN0VRCJEUNPPZZMZDA,10,1520271267491,"{""rt"": [11125, 105, 170], ""trial_type"": ""mouselab-mdp"", ""trialTime"": 14055, ""rewards"": [-4, 8, 48], ""stateRewards"": ["""", 2, 4, -24, 48, -4, 8, -48, 48, 2, -4, 24, -24], ""actionTimes"": [11129, 11754, 12437], ""trial_id"": -8327671364504025000, ""time_elapsed"": 170723, ""actions"": [""right"", ""right"", ""down""], ""trialIndex"": 6, ""score"": 45, ""trial_index"": 10, ""simulationMode"": [null, null, null], ""queries"": {""mouseover"": {""state"": {""target"": [], ""time"": []}, ""edge"": {""target"": [], ""time"": []}}, ""click"": {""state"": {""target"": [""4"", ""3"", ""7"", ""8"", ""12"", ""2"", ""6""], ""time"": [1151, 1596, 2141, 3618, 8769, 9289, 10233]}, ""edge"": {""target"": [], ""time"": []}}, ""mouseout"": {""state"": {""target"": [], ""time"": []}, ""edge"": {""target"": [], ""time"": []}}}, ""path"": [""0"", ""5"", ""6"", ""8""], ""internal_node_id"": ""0.0-5.0-5.0"", ""block"": ""training""}"
A12BTFPKFKKD2I:3OVHNO1VE611VN0VRCJEUNPPZZMZDA,11,1520271277402,"{""rt"": [6372, 125, 59], ""trial_type"": ""mouselab-mdp"", ""trialTime"": 8874, ""rewards"": [2, 8, 48], ""stateRewards"": ["""", 2, 8, 48, 24, -2, 4, 24, 24, -2, -4, -48, -24], ""actionTimes"": [6374, 7012, 7581], ""trial_id"": -8923867603615937000, ""time_elapsed"": 180635, ""actions"": [""up"", ""up"", ""right""], ""trialIndex"": 7, ""score"": 53, ""trial_index"": 11, ""simulationMode"": [null, null, null], ""queries"": {""mouseover"": {""state"": {""target"": [], ""time"": []}, ""edge"": {""target"": [], ""time"": []}}, ""click"": {""state"": {""target"": [""3"", ""4"", ""7"", ""8"", ""2""], ""time"": [1039, 1619, 2326, 3040, 5444]}, ""edge"": {""target"": [], ""time"": []}}, ""mouseout"": {""state"": {""target"": [], ""time"": []}, ""edge"": {""target"": [], ""time"": []}}}, ""path"": [""0"", ""1"", ""2"", ""3""], ""internal_node_id"": ""0.0-5.0-6.0"", ""block"": ""training""}"
A12BTFPKFKKD2I:3OVHNO1VE611VN0VRCJEUNPPZZMZDA,12,1520271287170,"{""rt"": [5274, 77, 84], ""trial_type"": ""mouselab-mdp"", ""trialTime"": 8717, ""rewards"": [-2, -8, 48], ""stateRewards"": ["""", -4, -4, -48, -48, -2, -8, 24, 48, 2, 4, -24, -48], ""actionTimes"": [5278, 5871, 6462], ""trial_id"": -1848243683464450000, ""time_elapsed"": 190403, ""actions"": [""right"", ""right"", ""down""], ""trialIndex"": 8, ""score"": 32, ""trial_index"": 12, ""simulationMode"": [null, null, null], ""queries"": {""mouseover"": {""state"": {""target"": [], ""time"": []}, ""edge"": {""target"": [], ""time"": []}}, ""click"": {""state"": {""target"": [""4"", ""3"", ""7"", ""8"", ""12"", ""11""], ""time"": [1139, 1831, 2319, 2874, 3399, 3878]}, ""edge"": {""target"": [], ""time"": []}}, ""mouseout"": {""state"": {""target"": [], ""time"": []}, ""edge"": {""target"": [], ""time"": []}}}, ""path"": [""0"", ""5"", ""6"", ""8""], ""internal_node_id"": ""0.0-5.0-7.0"", ""block"": ""training""}"
A12BTFPKFKKD2I:3OVHNO1VE611VN0VRCJEUNPPZZMZDA,13,1520271307260,"{""rt"": [16177, 200, 156], ""trial_type"": ""mouselab-mdp"", ""trialTime"": 19044, ""rewards"": [4, -8, 48], ""stateRewards"": ["""", 4, -8, 24, 48, 4, -8, -24, 48, -2, -8, 24, -24], ""actionTimes"": [16180, 16896, 17564], ""trial_id"": 6608608155125090000, ""time_elapsed"": 210493, ""actions"": [""right"", ""right"", ""down""], ""trialIndex"": 9, ""score"": 35, ""trial_index"": 13, ""simulationMode"": [null, null, null], ""queries"": {""mouseover"": {""state"": {""target"": [], ""time"": []}, ""edge"": {""target"": [], ""time"": []}}, ""click"": {""state"": {""target"": [""4"", ""3"", ""7"", ""8"", ""12"", ""6"", ""2"", ""5"", ""11""], ""time"": [974, 1497, 2046, 2595, 6489, 7105, 7963, 13145, 13669]}, ""edge"": {""target"": [], ""time"": []}}, ""mouseout"": {""state"": {""target"": [], ""time"": []}, ""edge"": {""target"": [], ""time"": []}}}, ""path"": [""0"", ""5"", ""6"", ""8""], ""internal_node_id"": ""0.0-5.0-8.0"", ""block"": ""training""}"
A12BTFPKFKKD2I:3OVHNO1VE611VN0VRCJEUNPPZZMZDA,14,1520271316845,"{""rt"": [5791, 26, 281], ""trial_type"": ""mouselab-mdp"", ""trialTime"": 8518, ""rewards"": [-2, -8, 48], ""stateRewards"": ["""", -2, 8, 24, -48, 2, 4, -24, 24, -2, -8, 48, -24], ""actionTimes"": [5793, 6338, 7133], ""trial_id"": 6282558609452272000, ""time_elapsed"": 220078, ""actions"": [""left"", ""left"", ""up""], ""trialIndex"": 10, ""score"": 32, ""trial_index"": 14, ""simulationMode"": [null, null, null], ""queries"": {""mouseover"": {""state"": {""target"": [], ""time"": []}, ""edge"": {""target"": [], ""time"": []}}, ""click"": {""state"": {""target"": [""4"", ""3"", ""7"", ""8"", ""12"", ""11""], ""time"": [1089, 1578, 2123, 2872, 3840, 4396]}, ""edge"": {""target"": [], ""time"": []}}, ""mouseout"": {""state"": {""target"": [], ""time"": []}, ""edge"": {""target"": [], ""time"": []}}}, ""path"": [""0"", ""9"", ""10"", ""11""], ""internal_node_id"": ""0.0-5.0-9.0"", ""block"": ""training""}"
A12BTFPKFKKD2I:3OVHNO1VE611VN0VRCJEUNPPZZMZDA,15,1520271319353,"{""rt"": 1505, ""trial_type"": ""text"", ""internal_node_id"": ""0.0-6.0"", ""time_elapsed"": 222586, ""key_press"": 32, ""trial_index"": 15}"
A12BTFPKFKKD2I:3OVHNO1VE611VN0VRCJEUNPPZZMZDA,16,1520271330319,"{""rt"": 9960, ""trial_type"": ""text"", ""internal_node_id"": ""0.0-7.0"", ""time_elapsed"": 233551, ""key_press"": 32, ""trial_index"": 16}"
A12BTFPKFKKD2I:3OVHNO1VE611VN0VRCJEUNPPZZMZDA,17,1520271347136,"{""rt"": [10722, 142, 130, 167, 339], ""trial_type"": ""mouselab-mdp"", ""trialTime"": 15473, ""rewards"": [1, 0, 1, -5, 58], ""stateRewards"": ["""", 0, 1, 0, 7, -3, 60, -35, 7, 32, 41, -4, 0, 3, 2, -5, 27, 51, 21, -6, 31, -49, 25, 1, 0, 1, 1, -17, -27, -9, -5, 48, -43, 58], ""actionTimes"": [10729, 11366, 12018, 12704, 13560], ""trial_id"": 2451295554793890000, ""time_elapsed"": 250369, ""actions"": [""left"", ""left"", ""left"", ""down"", ""left""], ""trialIndex"": 11, ""score"": 51, ""trial_index"": 17, ""simulationMode"": [null, null, null, null, null], ""queries"": {""mouseover"": {""state"": {""target"": [], ""time"": []}, ""edge"": {""target"": [], ""time"": []}}, ""click"": {""state"": {""target"": [""27"", ""28"", ""29"", ""33""], ""time"": [4332, 5124, 5874, 6561]}, ""edge"": {""target"": [], ""time"": []}}, ""mouseout"": {""state"": {""target"": [], ""time"": []}, ""edge"": {""target"": [], ""time"": []}}}, ""path"": [""0"", ""23"", ""24"", ""25"", ""30"", ""33""], ""internal_node_id"": ""0.0-8.0-0.0"", ""block"": ""test""}"
A12BTFPKFKKD2I:3OVHNO1VE611VN0VRCJEUNPPZZMZDA,18,1520271373715,"{""rt"": [18717, 459, 534, 512, 285], ""trial_type"": ""mouselab-mdp"", ""trialTime"": 25195, ""rewards"": [-1, 1, -2, 8, 28], ""stateRewards"": ["""", 0, -2, -2, -8, -65, 26, -5, -7, -42, -18, -40, 1, -4, -4, -7, 15, 8, -5, -1, 13, -25, 15, -1, 1, -2, 9, -39, -15, -26, 8, -45, 28, 15], ""actionTimes"": [18721, 19701, 20743, 21771, 22579], ""trial_id"": -3543506475518153700, ""time_elapsed"": 276948, ""actions"": [""left"", ""left"", ""left"", ""down"", ""down""], ""trialIndex"": 12, ""score"": 16, ""trial_index"": 18, ""simulationMode"": [null, null, null, null, null], ""queries"": {""mouseover"": {""state"": {""target"": [], ""time"": []}, ""edge"": {""target"": [], ""time"": []}}, ""click"": {""state"": {""target"": [""27"", ""29"", ""33"", ""32"", ""31"", ""28"", ""9"", ""10"", ""11"", ""7"", ""5"", ""6"", ""17"", ""16"", ""18"", ""20"", ""21"", ""22""], ""time"": [5554, 6202, 7385, 7858, 8443, 8995, 10069, 11069, 11733, 12312, 13200, 13612, 14693, 15241, 15734, 16395, 16871, 17333]}, ""edge"": {""target"": [], ""time"": []}}, ""mouseout"": {""state"": {""target"": [], ""time"": []}, ""edge"": {""target"": [], ""time"": []}}}, ""path"": [""0"", ""23"", ""24"", ""25"", ""30"", ""32""], ""internal_node_id"": ""0.0-8.0-1.0"", ""block"": ""test""}"
A12BTFPKFKKD2I:3OVHNO1VE611VN0VRCJEUNPPZZMZDA,19,1520271385384,"{""rt"": [4755, 24, 239, 203, 357], ""trial_type"": ""mouselab-mdp"", ""trialTime"": 10456, ""rewards"": [0, 0, -1, -7, 57], ""stateRewards"": ["""", 0, 0, 3, 4, -89, 19, 10, 0, -15, 27, -13, 2, 1, 9, -6, -56, 23, 27, 0, -49, -14, 20, 0, 0, -1, -7, -17, -46, 57, -4, 15, -33, 25], ""actionTimes"": [4761, 5306, 6054, 6771, 7642], ""trial_id"": -3345026250755156500, ""time_elapsed"": 288617, ""actions"": [""left"", ""left"", ""left"", ""up"", ""left""], ""trialIndex"": 13, ""score"": 48, ""trial_index"": 19, ""simulationMode"": [null, null, null, null, null], ""queries"": {""mouseover"": {""state"": {""target"": [], ""time"": []}, ""edge"": {""target"": [], ""time"": []}}, ""click"": {""state"": {""target"": [""29""], ""time"": [2598]}, ""edge"": {""target"": [], ""time"": []}}, ""mouseout"": {""state"": {""target"": [], ""time"": []}, ""edge"": {""target"": [], ""time"": []}}}, ""path"": [""0"", ""23"", ""24"", ""25"", ""26"", ""29""], ""internal_node_id"": ""0.0-8.0-2.0"", ""block"": ""test""}"
A12BTFPKFKKD2I:3OVHNO1VE611VN0VRCJEUNPPZZMZDA,20,1520271397693,"{""rt"": [4502, 100, 162, 254, 169], ""trial_type"": ""mouselab-mdp"", ""trialTime"": 11011, ""rewards"": [0, 6, -3, 11, 54], ""stateRewards"": ["""", 1, -3, 4, 7, 45, -19, 6, 7, 10, -14, 10, 0, 2, -3, 3, 9, 24, -2, 1, -2, 1, 0, 0, 6, -3, -9, -25, -23, 0, 11, 54, 8, -80], ""actionTimes"": [4507, 5115, 5785, 6561, 7246], ""trial_id"": -8901475606039394000, ""time_elapsed"": 300926, ""actions"": [""left"", ""left"", ""left"", ""down"", ""right""], ""trialIndex"": 14, ""score"": 64, ""trial_index"": 20, ""simulationMode"": [null, null, null, null, null], ""queries"": {""mouseover"": {""state"": {""target"": [], ""time"": []}, ""edge"": {""target"": [], ""time"": []}}, ""click"": {""state"": {""target"": [""29"", ""27"", ""28"", ""31""], ""time"": [1499, 2012, 2502, 3106]}, ""edge"": {""target"": [], ""time"": []}}, ""mouseout"": {""state"": {""target"": [], ""time"": []}, ""edge"": {""target"": [], ""time"": []}}}, ""path"": [""0"", ""23"", ""24"", ""25"", ""30"", ""31""], ""internal_node_id"": ""0.0-8.0-3.0"", ""block"": ""test""}"
A12BTFPKFKKD2I:3OVHNO1VE611VN0VRCJEUNPPZZMZDA,21,1520271413846,"{""rt"": [5573, 67, 92, 130, 319], ""trial_type"": ""mouselab-mdp"", ""trialTime"": 14949, ""rewards"": [0, -2, 9, -7, 52], ""stateRewards"": ["""", 1, 3, -5, -4, -25, -34, 8, 4, -23, -16, 8, 0, -2, 9, -2, 3, -20, -8, -7, 52, -59, -6, 1, -3, 2, 11, 9, 0, -1, -2, 19, -28, 10], ""actionTimes"": [5580, 6157, 6763, 7404, 8242], ""trial_id"": -7292978147705355000, ""time_elapsed"": 317079, ""actions"": [""right"", ""right"", ""right"", ""down"", ""right""], ""trialIndex"": 15, ""score"": 47, ""trial_index"": 21, ""simulationMode"": [null, null, null, null, null], ""queries"": {""mouseover"": {""state"": {""target"": [], ""time"": []}, ""edge"": {""target"": [], ""time"": []}}, ""click"": {""state"": {""target"": [""33"", ""32"", ""31"", ""21"", ""20""], ""time"": [1609, 2152, 2674, 3689, 4246]}, ""edge"": {""target"": [], ""time"": []}}, ""mouseout"": {""state"": {""target"": [], ""time"": []}, ""edge"": {""target"": [], ""time"": []}}}, ""path"": [""0"", ""12"", ""13"", ""14"", ""19"", ""20""], ""internal_node_id"": ""0.0-8.0-4.0"", ""block"": ""test""}"
A12BTFPKFKKD2I:3OVHNO1VE611VN0VRCJEUNPPZZMZDA,22,1520271435927,"{""rt"": [8234, 99, 120, 227, 262], ""trial_type"": ""mouselab-mdp"", ""trialTime"": 20903, ""rewards"": [0, 2, 0, -5, 55], ""stateRewards"": ["""", 0, 3, 2, -13, 127, 21, 3, -11, 3, -15, 21, 0, 4, 1, 4, 12, -5, -6, 9, 25, -20, -36, 0, 2, 0, 14, -25, 5, -81, -5, -10, 16, 55], ""actionTimes"": [8239, 8858, 9497, 10243, 11021], ""trial_id"": -7720109870475634000, ""time_elapsed"": 339160, ""actions"": [""left"", ""left"", ""left"", ""down"", ""left""], ""trialIndex"": 16, ""score"": 43, ""trial_index"": 22, ""simulationMode"": [null, null, null, null, null], ""queries"": {""mouseover"": {""state"": {""target"": [], ""time"": []}, ""edge"": {""target"": [], ""time"": []}}, ""click"": {""state"": {""target"": [""20"", ""21"", ""22"", ""17"", ""16"", ""18"", ""31"", ""32"", ""33""], ""time"": [1452, 2283, 2746, 3226, 3931, 5252, 6246, 6714, 7197]}, ""edge"": {""target"": [], ""time"": []}}, ""mouseout"": {""state"": {""target"": [], ""time"": []}, ""edge"": {""target"": [], ""time"": []}}}, ""path"": [""0"", ""23"", ""24"", ""25"", ""30"", ""33""], ""internal_node_id"": ""0.0-8.0-5.0"", ""block"": ""test""}"
A12BTFPKFKKD2I:3OVHNO1VE611VN0VRCJEUNPPZZMZDA,23,1520271450067,"{""rt"": [4256, 131, 181, 229, 225], ""trial_type"": ""mouselab-mdp"", ""trialTime"": 12989, ""rewards"": [0, 1, 0, 9, 61], ""stateRewards"": ["""", 0, 2, 1, 18, -61, -21, 29, 20, -8, 1, -7, 1, -1, 3, -3, -41, 10, 16, 10, -4, -20, 18, 0, 1, 0, 9, 12, 61, 36, 5, -52, 19, 13], ""actionTimes"": [4261, 4914, 5615, 6361, 7108], ""trial_id"": 6775716342507357000, ""time_elapsed"": 353300, ""actions"": [""left"", ""left"", ""left"", ""up"", ""right""], ""trialIndex"": 17, ""score"": 68, ""trial_index"": 23, ""simulationMode"": [null, null, null, null, null], ""queries"": {""mouseover"": {""state"": {""target"": [], ""time"": []}, ""edge"": {""target"": [], ""time"": []}}, ""click"": {""state"": {""target"": [""29"", ""27"", ""28""], ""time"": [1220, 2051, 2614]}, ""edge"": {""target"": [], ""time"": []}}, ""mouseout"": {""state"": {""target"": [], ""time"": []}, ""edge"": {""target"": [], ""time"": []}}}, ""path"": [""0"", ""23"", ""24"", ""25"", ""26"", ""28""], ""internal_node_id"": ""0.0-8.0-6.0"", ""block"": ""test""}"
A12BTFPKFKKD2I:3OVHNO1VE611VN0VRCJEUNPPZZMZDA,24,1520271465922,"{""rt"": [9020, 92, 117, 164, 290], ""trial_type"": ""mouselab-mdp"", ""trialTime"": 14453, ""rewards"": [0, 2, -4, -1, 46], ""stateRewards"": ["""", 0, 2, -4, -1, 46, -20, -65, -16, -80, -68, -13, 1, -1, 1, -1, 0, -5, -6, 4, -38, 32, 29, 0, 2, -3, -4, 5, -6, -14, -5, -18, 30, -62], ""actionTimes"": [9023, 9630, 10256, 10936, 11744], ""trial_id"": -3135801206866439000, ""time_elapsed"": 369155, ""actions"": [""up"", ""up"", ""up"", ""right"", ""up""], ""trialIndex"": 18, ""score"": 33, ""trial_index"": 24, ""simulationMode"": [null, null, null, null, null], ""queries"": {""mouseover"": {""state"": {""target"": [], ""time"": []}, ""edge"": {""target"": [], ""time"": []}}, ""click"": {""state"": {""target"": [""29"", ""27"", ""28"", ""31"", ""32"", ""33"", ""9"", ""11"", ""5"", ""6""], ""time"": [1278, 1806, 2344, 2996, 3456, 4841, 5764, 6309, 7456, 8018]}, ""edge"": {""target"": [], ""time"": []}}, ""mouseout"": {""state"": {""target"": [], ""time"": []}, ""edge"": {""target"": [], ""time"": []}}}, ""path"": [""0"", ""1"", ""2"", ""3"", ""4"", ""5""], ""internal_node_id"": ""0.0-8.0-7.0"", ""block"": ""test""}"
A12BTFPKFKKD2I:3OVHNO1VE611VN0VRCJEUNPPZZMZDA,25,1520271479318,"{""rt"": [5746, 97, 85, 197, 313], ""trial_type"": ""mouselab-mdp"", ""trialTime"": 12191, ""rewards"": [0, 1, 6, 0, 65], ""stateRewards"": ["""", 0, 1, 6, 0, 65, -20, -17, 3, -11, 38, -21, 1, 0, 10, -4, -6, 5, -70, 5, 15, 3, -49, -2, 1, 5, 13, -29, -33, -9, -16, -19, 27, 52], ""actionTimes"": [5750, 6356, 6964, 7663, 8489], ""trial_id"": -1644624340515527000, ""time_elapsed"": 382551, ""actions"": [""up"", ""up"", ""up"", ""right"", ""up""], ""trialIndex"": 19, ""score"": 71, ""trial_index"": 25, ""simulationMode"": [null, null, null, null, null], ""queries"": {""mouseover"": {""state"": {""target"": [], ""time"": []}, ""edge"": {""target"": [], ""time"": []}}, ""click"": {""state"": {""target"": [""5""], ""time"": [4683]}, ""edge"": {""target"": [], ""time"": []}}, ""mouseout"": {""state"": {""target"": [], ""time"": []}, ""edge"": {""target"": [], ""time"": []}}}, ""path"": [""0"", ""1"", ""2"", ""3"", ""4"", ""5""], ""internal_node_id"": ""0.0-8.0-8.0"", ""block"": ""test""}"
A12BTFPKFKKD2I:3OVHNO1VE611VN0VRCJEUNPPZZMZDA,26,1520271490801,"{""rt"": [5106, 100, 119, 265, 245], ""trial_type"": ""mouselab-mdp"", ""trialTime"": 10201, ""rewards"": [-1, 4, 3, -8, 46], ""stateRewards"": ["""", -1, 4, 3, -5, 1, 10, -3, -8, 46, -38, 28, 0, -2, -1, -15, 9, 23, -17, 2, -80, -17, -43, 1, 0, 0, -2, -8, 25, -33, 7, 22, 33, -11], ""actionTimes"": [5129, 5751, 6389, 7166, 7929], ""trial_id"": 4291835154346257000, ""time_elapsed"": 394034, ""actions"": [""up"", ""up"", ""up"", ""left"", ""up""], ""trialIndex"": 20, ""score"": 38, ""trial_index"": 26, ""simulationMode"": [null, null, null, null, null], ""queries"": {""mouseover"": {""state"": {""target"": [], ""time"": []}, ""edge"": {""target"": [], ""time"": []}}, ""click"": {""state"": {""target"": [""5"", ""6"", ""7"", ""10"", ""11"", ""9""], ""time"": [1086, 1676, 2205, 2732, 3175, 3676]}, ""edge"": {""target"": [], ""time"": []}}, ""mouseout"": {""state"": {""target"": [], ""time"": []}, ""edge"": {""target"": [], ""time"": []}}}, ""path"": [""0"", ""1"", ""2"", ""3"", ""8"", ""9""], ""internal_node_id"": ""0.0-8.0-9.0"", ""block"": ""test""}"
A12BTFPKFKKD2I:3OVHNO1VE611VN0VRCJEUNPPZZMZDA,27,1520271510312,"{""rt"": [12606, 225, 175, 240, 220], ""trial_type"": ""mouselab-mdp"", ""trialTime"": 18186, ""rewards"": [0, 1, 2, 9, 28], ""stateRewards"": ["""", -2, -3, 2, -4, -10, -1, -63, 1, 0, -1, 11, -2, 4, -1, -11, 4, -41, 2, 4, -42, 27, 4, 0, 1, 2, 9, 28, 16, -24, 2, -18, -46, -1], ""actionTimes"": [12615, 13362, 14050, 14810, 15540], ""trial_id"": 942220564742499600, ""time_elapsed"": 413544, ""actions"": [""left"", ""left"", ""left"", ""up"", ""up""], ""trialIndex"": 21, ""score"": 22, ""trial_index"": 27, ""simulationMode"": [null, null, null, null, null], ""queries"": {""mouseover"": {""state"": {""target"": [], ""time"": []}, ""edge"": {""target"": [], ""time"": []}}, ""click"": {""state"": {""target"": [""27"", ""29"", ""28"", ""31"", ""32"", ""33"", ""21"", ""22"", ""20"", ""17"", ""16"", ""18"", ""6"", ""5"", ""7"", ""10"", ""11"", ""9""], ""time"": [979, 1574, 2147, 2714, 3183, 4226, 4852, 5420, 5877, 6657, 7166, 7691, 8394, 8828, 9322, 9946, 10411, 10797]}, ""edge"": {""target"": [], ""time"": []}}, ""mouseout"": {""state"": {""target"": [], ""time"": []}, ""edge"": {""target"": [], ""time"": []}}}, ""path"": [""0"", ""23"", ""24"", ""25"", ""26"", ""27""], ""internal_node_id"": ""0.0-8.0-10.0"", ""block"": ""test""}"
A12BTFPKFKKD2I:3OVHNO1VE611VN0VRCJEUNPPZZMZDA,28,1520271534940,"{""rt"": [12323, 166, 292, 271, 327], ""trial_type"": ""mouselab-mdp"", ""trialTime"": 23336, ""rewards"": [0, -3, -3, 5, 58], ""stateRewards"": ["""", 0, 1, 7, -1, -39, -38, -21, -13, 26, -16, -10, 0, -3, -3, 5, 20, -14, 58, -10, -11, -7, -89, 2, 1, -4, 16, 19, 14, -19, 1, -49, 25, -12], ""actionTimes"": [12335, 13020, 13830, 14607, 15448], ""trial_id"": -2396313176890896400, ""time_elapsed"": 438173, ""actions"": [""right"", ""right"", ""right"", ""up"", ""left""], ""trialIndex"": 22, ""score"": 39, ""trial_index"": 28, ""simulationMode"": [null, null, null, null, null], ""queries"": {""mouseover"": {""state"": {""target"": [], ""time"": []}, ""edge"": {""target"": [], ""time"": []}}, ""click"": {""state"": {""target"": [""9"", ""11"", ""10"", ""7"", ""6"", ""5"", ""27"", ""29"", ""28"", ""31"", ""32"", ""33"", ""21"", ""22"", ""20"", ""17"", ""16"", ""18""], ""time"": [989, 1533, 1954, 2500, 2848, 3206, 4344, 4873, 5318, 5906, 6297, 6908, 7716, 8294, 8969, 9565, 10934, 11424]}, ""edge"": {""target"": [], ""time"": []}}, ""mouseout"": {""state"": {""target"": [], ""time"": []}, ""edge"": {""target"": [], ""time"": []}}}, ""path"": [""0"", ""12"", ""13"", ""14"", ""15"", ""18""], ""internal_node_id"": ""0.0-8.0-11.0"", ""block"": ""test""}"
A12BTFPKFKKD2I:3OVHNO1VE611VN0VRCJEUNPPZZMZDA,29,1520271545600,"{""rt"": [3168, 79, 73, 218, 280], ""trial_type"": ""mouselab-mdp"", ""trialTime"": 9441, ""rewards"": [0, 2, 4, 4, 57], ""stateRewards"": ["""", 0, 2, 4, 7, -3, 37, -2, 4, 33, 26, 57, 0, -3, -5, 11, -11, 12, -27, 8, -12, 47, -17, 1, 1, -3, 9, -29, -26, 23, -5, -19, -11, -32], ""actionTimes"": [3173, 3760, 4352, 5083, 5877], ""trial_id"": 4994596835271397000, ""time_elapsed"": 448833, ""actions"": [""up"", ""up"", ""up"", ""left"", ""left""], ""trialIndex"": 23, ""score"": 65, ""trial_index"": 29, ""simulationMode"": [null, null, null, null, null], ""queries"": {""mouseover"": {""state"": {""target"": [], ""time"": []}, ""edge"": {""target"": [], ""time"": []}}, ""click"": {""state"": {""target"": [""9"", ""11""], ""time"": [1334, 2028]}, ""edge"": {""target"": [], ""time"": []}}, ""mouseout"": {""state"": {""target"": [], ""time"": []}, ""edge"": {""target"": [], ""time"": []}}}, ""path"": [""0"", ""1"", ""2"", ""3"", ""8"", ""11""], ""internal_node_id"": ""0.0-8.0-12.0"", ""block"": ""test""}"
A12BTFPKFKKD2I:3OVHNO1VE611VN0VRCJEUNPPZZMZDA,30,1520271561504,"{""rt"": [10903, 98, 134, 73, 314], ""trial_type"": ""mouselab-mdp"", ""trialTime"": 14704, ""rewards"": [-1, 1, 6, 3, 52], ""stateRewards"": ["""", -2, -3, 6, 5, 20, 37, -65, 12, -37, -31, 33, -1, 1, 6, -5, -19, 22, 29, 3, -51, 52, 20, -2, -2, -4, -6, 8, -23, 39, 9, 2, -34, 0], ""actionTimes"": [10909, 11515, 12167, 12757, 13580], ""trial_id"": -2218318238418373400, ""time_elapsed"": 464737, ""actions"": [""right"", ""right"", ""right"", ""down"", ""down""], ""trialIndex"": 24, ""score"": 46, ""trial_index"": 30, ""simulationMode"": [null, null, null, null, null], ""queries"": {""mouseover"": {""state"": {""target"": [], ""time"": []}, ""edge"": {""target"": [], ""time"": []}}, ""click"": {""state"": {""target"": [""9"", ""11"", ""10"", ""7"", ""6"", ""5"", ""27"", ""29"", ""28"", ""31"", ""32"", ""33"", ""22"", ""21"", ""20""], ""time"": [1093, 1698, 2117, 2719, 3112, 3499, 4530, 5051, 5655, 6252, 7042, 7736, 8881, 9357, 9889]}, ""edge"": {""target"": [], ""time"": []}}, ""mouseout"": {""state"": {""target"": [], ""time"": []}, ""edge"": {""target"": [], ""time"": []}}}, ""path"": [""0"", ""12"", ""13"", ""14"", ""19"", ""21""], ""internal_node_id"": ""0.0-8.0-13.0"", ""block"": ""test""}"
A12BTFPKFKKD2I:3OVHNO1VE611VN0VRCJEUNPPZZMZDA,31,1520271573033,"{""rt"": [2541, 129, 160, 210, 271], ""trial_type"": ""mouselab-mdp"", ""trialTime"": 10354, ""rewards"": [-1, -1, 0, -2, 54], ""stateRewards"": ["""", -1, -1, 0, -9, 8, 53, 24, -2, -28, -24, 54, 0, -1, 1, 17, 4, 20, 10, -3, -37, -11, -7, 1, 2, 4, 2, 28, -24, 40, 4, -10, 16, -2], ""actionTimes"": [2545, 3182, 3864, 4595, 5373], ""trial_id"": -8141988675068219000, ""time_elapsed"": 476266, ""actions"": [""up"", ""up"", ""up"", ""left"", ""left""], ""trialIndex"": 25, ""score"": 48, ""trial_index"": 31, ""simulationMode"": [null, null, null, null, null], ""queries"": {""mouseover"": {""state"": {""target"": [], ""time"": []}, ""edge"": {""target"": [], ""time"": []}}, ""click"": {""state"": {""target"": [""9"", ""11""], ""time"": [828, 1431]}, ""edge"": {""target"": [], ""time"": []}}, ""mouseout"": {""state"": {""target"": [], ""time"": []}, ""edge"": {""target"": [], ""time"": []}}}, ""path"": [""0"", ""1"", ""2"", ""3"", ""8"", ""11""], ""internal_node_id"": ""0.0-8.0-14.0"", ""block"": ""test""}"
A12BTFPKFKKD2I:3OVHNO1VE611VN0VRCJEUNPPZZMZDA,32,1520271585934,"{""rt"": [2921, 85, 118, 125, 274], ""trial_type"": ""mouselab-mdp"", ""trialTime"": 11737, ""rewards"": [0, 0, 4, 1, 53], ""stateRewards"": ["""", 0, 0, 4, 4, -39, 45, 32, 1, 5, 43, 53, 1, -2, 0, 7, -27, -39, 0, 1, 12, 39, -70, 0, 0, 0, 1, 33, 18, -1, 1, 3, -4, 42], ""actionTimes"": [2927, 3534, 4156, 4795, 5588], ""trial_id"": -6008935542970539000, ""time_elapsed"": 489167, ""actions"": [""up"", ""up"", ""up"", ""left"", ""left""], ""trialIndex"": 26, ""score"": 56, ""trial_index"": 32, ""simulationMode"": [null, null, null, null, null], ""queries"": {""mouseover"": {""state"": {""target"": [], ""time"": []}, ""edge"": {""target"": [], ""time"": []}}, ""click"": {""state"": {""target"": [""9"", ""11""], ""time"": [1177, 1880]}, ""edge"": {""target"": [], ""time"": []}}, ""mouseout"": {""state"": {""target"": [], ""time"": []}, ""edge"": {""target"": [], ""time"": []}}}, ""path"": [""0"", ""1"", ""2"", ""3"", ""8"", ""11""], ""internal_node_id"": ""0.0-8.0-15.0"", ""block"": ""test""}"
A12BTFPKFKKD2I:3OVHNO1VE611VN0VRCJEUNPPZZMZDA,33,1520271598877,"{""rt"": [7517, 93, 115, 212, 269], ""trial_type"": ""mouselab-mdp"", ""trialTime"": 11789, ""rewards"": [1, 1, -1, -3, 58], ""stateRewards"": ["""", -2, 3, 1, 5, 6, -6, -11, 1, 5, 37, 11, 0, 4, -5, -11, 11, -7, -57, -2, -23, 36, -20, 1, 1, -1, 0, 14, -74, 10, -3, 58, -22, 37], ""actionTimes"": [7524, 8131, 8768, 9500, 10278], ""trial_id"": 3275425026275453400, ""time_elapsed"": 502110, ""actions"": [""left"", ""left"", ""left"", ""down"", ""right""], ""trialIndex"": 27, ""score"": 46, ""trial_index"": 33, ""simulationMode"": [null, null, null, null, null], ""queries"": {""mouseover"": {""state"": {""target"": [], ""time"": []}, ""edge"": {""target"": [], ""time"": []}}, ""click"": {""state"": {""target"": [""9"", ""11"", ""10"", ""7"", ""6"", ""5"", ""27"", ""29"", ""28"", ""31""], ""time"": [1268, 2034, 2574, 3311, 3680, 4106, 4761, 5233, 5698, 6205]}, ""edge"": {""target"": [], ""time"": []}}, ""mouseout"": {""state"": {""target"": [], ""time"": []}, ""edge"": {""target"": [], ""time"": []}}}, ""path"": [""0"", ""23"", ""24"", ""25"", ""30"", ""31""], ""internal_node_id"": ""0.0-8.0-16.0"", ""block"": ""test""}"
A12BTFPKFKKD2I:3OVHNO1VE611VN0VRCJEUNPPZZMZDA,34,1520271610840,"{""rt"": [6049, 140, 129, 321, 203], ""trial_type"": ""mouselab-mdp"", ""trialTime"": 10782, ""rewards"": [-1, 2, -9, 4, 50], ""stateRewards"": ["""", -2, 1, 1, -6, 26, 13, 9, -3, 15, 34, -21, -1, 2, -9, -21, -58, 6, 5, 4, 2, 49, 50, 1, -2, 1, -7, -16, -33, 0, 4, 3, -38, -49], ""actionTimes"": [6053, 6705, 7342, 8184, 8900], ""trial_id"": -3697334046442943000, ""time_elapsed"": 514073, ""actions"": [""right"", ""right"", ""right"", ""down"", ""left""], ""trialIndex"": 28, ""score"": 39, ""trial_index"": 34, ""simulationMode"": [null, null, null, null, null], ""queries"": {""mouseover"": {""state"": {""target"": [], ""time"": []}, ""edge"": {""target"": [], ""time"": []}}, ""click"": {""state"": {""target"": [""27"", ""29"", ""28"", ""31"", ""32"", ""33"", ""22""], ""time"": [1274, 1777, 2448, 3038, 3534, 4204, 5046]}, ""edge"": {""target"": [], ""time"": []}}, ""mouseout"": {""state"": {""target"": [], ""time"": []}, ""edge"": {""target"": [], ""time"": []}}}, ""path"": [""0"", ""12"", ""13"", ""14"", ""19"", ""22""], ""internal_node_id"": ""0.0-8.0-17.0"", ""block"": ""test""}"
A12BTFPKFKKD2I:3OVHNO1VE611VN0VRCJEUNPPZZMZDA,35,1520271622654,"{""rt"": [3745, 152, 188, 312, 369], ""trial_type"": ""mouselab-mdp"", ""trialTime"": 10627, ""rewards"": [0, 0, -1, 8, 106], ""stateRewards"": ["""", 0, 0, -1, 8, 31, 23, 106, -5, -12, -32, 14, -1, -5, -5, 1, 32, -50, -20, -1, -23, 17, 0, 0, -1, 6, 0, 41, -14, 19, -5, -30, -23, -1], ""actionTimes"": [3748, 4416, 5115, 5941, 6827], ""trial_id"": -7639533896303170000, ""time_elapsed"": 525887, ""actions"": [""up"", ""up"", ""up"", ""right"", ""down""], ""trialIndex"": 29, ""score"": 109, ""trial_index"": 35, ""simulationMode"": [null, null, null, null, null], ""queries"": {""mouseover"": {""state"": {""target"": [], ""time"": []}, ""edge"": {""target"": [], ""time"": []}}, ""click"": {""state"": {""target"": [""9"", ""11"", ""10"", ""7""], ""time"": [1024, 1653, 2181, 2680]}, ""edge"": {""target"": [], ""time"": []}}, ""mouseout"": {""state"": {""target"": [], ""time"": []}, ""edge"": {""target"": [], ""time"": []}}}, ""path"": [""0"", ""1"", ""2"", ""3"", ""4"", ""7""], ""internal_node_id"": ""0.0-8.0-18.0"", ""block"": ""test""}"
A12BTFPKFKKD2I:3OVHNO1VE611VN0VRCJEUNPPZZMZDA,36,1520271639071,"{""rt"": [5177, 150, 110, 133, 333], ""trial_type"": ""mouselab-mdp"", ""trialTime"": 15222, ""rewards"": [-1, -2, -6, 5, 45], ""stateRewards"": ["""", -1, -2, -6, 7, -14, 35, -26, 5, 45, -3, -36, 0, 3, 3, -3, -56, 23, 52, 13, 14, -6, -25, -1, -3, 9, 0, 76, -2, -52, 15, -28, -14, 53], ""actionTimes"": [5181, 5850, 6477, 7132, 7982], ""trial_id"": -6298844505872408000, ""time_elapsed"": 542304, ""actions"": [""up"", ""up"", ""up"", ""left"", ""up""], ""trialIndex"": 30, ""score"": 35, ""trial_index"": 36, ""simulationMode"": [null, null, null, null, null], ""queries"": {""mouseover"": {""state"": {""target"": [], ""time"": []}, ""edge"": {""target"": [], ""time"": []}}, ""click"": {""state"": {""target"": [""9"", ""11"", ""10"", ""7"", ""6"", ""5""], ""time"": [1354, 2192, 2802, 3165, 3513, 4400]}, ""edge"": {""target"": [], ""time"": []}}, ""mouseout"": {""state"": {""target"": [], ""time"": []}, ""edge"": {""target"": [], ""time"": []}}}, ""path"": [""0"", ""1"", ""2"", ""3"", ""8"", ""9""], ""internal_node_id"": ""0.0-8.0-19.0"", ""block"": ""test""}"
A12BTFPKFKKD2I:3OVHNO1VE611VN0VRCJEUNPPZZMZDA,37,1520271663855,"{""rt"": 23762, ""trial_type"": ""survey-multi-choice"", ""responses"": ""[\""$-4 to $4\"",\""$-48 to $48\"",\""$1\"",\""1 cent for every $5 you make in the game\""]"", ""internal_node_id"": ""0.0-9.0"", ""time_elapsed"": 567088, ""questions"": ""[\""What is the range of node values in the first step?\"",\""What is the range of node values in the last step?\"",\""What is the cost of clicking?\"",\""How much REAL money do you earn?\""]"", ""correct"": null, ""trial_index"": 37}"
A12BTFPKFKKD2I:3OVHNO1VE611VN0VRCJEUNPPZZMZDA,38,1520271741644,"{""rt"": 76775, ""trial_type"": ""survey-text"", ""responses"": ""{\""Q0\"":\""I started with the farthest nodes and found the highest value\"",\""Q1\"":\""I did not go in the direction of low nodes\"",\""Q2\"":\""I stopped clicking when I found a value close to 50\"",\""Q3\"":\""I started with the outside nodes in random order\"",\""Q4\"":\""I simply clicked outside nodes until I was satisfied with a value.\""}"", ""internal_node_id"": ""0.0-10.0"", ""time_elapsed"": 644876, ""trial_index"": 38}"
A12BTFPKFKKD2I:3OVHNO1VE611VN0VRCJEUNPPZZMZDA,39,1520271757578,"{""rt"": 14920, ""trial_type"": ""survey-text"", ""responses"": ""{\""Q0\"":\""I learned how to optimize my path\"",\""Q1\"":\""It was easy\"",\""Q2\"":\""23\"",\""Q3\"":\""\""}"", ""internal_node_id"": ""0.0-11.0"", ""time_elapsed"": 660810, ""trial_index"": 39}"
A12GJUCS7AJ4K:3MH9DQ757WCNL8GCNFLEJGD7A9NUGQ,0,1520272449173,"{""rt"": 28230, ""trial_type"": ""text"", ""internal_node_id"": ""0.0-0.0"", ""time_elapsed"": 28240, ""key_press"": 18, ""trial_index"": 0}"
A12GJUCS7AJ4K:3MH9DQ757WCNL8GCNFLEJGD7A9NUGQ,1,1520272491411,"{""rt"": 41232, ""trial_type"": ""text"", ""internal_node_id"": ""0.0-1.0"", ""time_elapsed"": 70479, ""key_press"": 32, ""trial_index"": 1}"
A12GJUCS7AJ4K:3MH9DQ757WCNL8GCNFLEJGD7A9NUGQ,2,1520272500934,"{""rt"": 8522, ""trial_type"": ""text"", ""internal_node_id"": ""0.0-2.0"", ""time_elapsed"": 80002, ""key_press"": 32, ""trial_index"": 2}"
A12GJUCS7AJ4K:3MH9DQ757WCNL8GCNFLEJGD7A9NUGQ,3,1520272536356,"{""rt"": [15165, 1601, 6213, 4963, 731], ""trial_type"": ""mouselab-mdp"", ""trialTime"": 34067, ""rewards"": [1, -1, 1, -1, -6], ""stateRewards"": ["""", 0, 2, -4, -1, 46, -20, -65, -16, -80, -68, -13, 1, -1, 1, -1, 0, -5, -6, 4, -38, 32, 29, 0, 2, -3, -4, 5, -6, -14, -5, -18, 30, -62], ""actionTimes"": [15173, 17283, 23999, 29480, 30711], ""trial_id"": -3135801206866439000, ""time_elapsed"": 115424, ""actions"": [""right"", ""right"", ""right"", ""up"", ""left""], ""trialIndex"": 0, ""score"": -9, ""trial_index"": 3, ""simulationMode"": [null, null, null, null, null], ""queries"": {""mouseover"": {""state"": {""target"": [], ""time"": []}, ""edge"": {""target"": [], ""time"": []}}, ""click"": {""state"": {""target"": [""23"", ""1"", ""12""], ""time"": [10047, 12065, 13594]}, ""edge"": {""target"": [], ""time"": []}}, ""mouseout"": {""state"": {""target"": [], ""time"": []}, ""edge"": {""target"": [], ""time"": []}}}, ""path"": [""0"", ""12"", ""13"", ""14"", ""15"", ""18""], ""internal_node_id"": ""0.0-3.0-0.0"", ""block"": ""pre_test""}"
A12GJUCS7AJ4K:3MH9DQ757WCNL8GCNFLEJGD7A9NUGQ,4,1520272563337,"{""rt"": 25979, ""trial_type"": ""text"", ""internal_node_id"": ""0.0-4.0"", ""time_elapsed"": 142405, ""key_press"": 32, ""trial_index"": 4}"
A12GJUCS7AJ4K:3MH9DQ757WCNL8GCNFLEJGD7A9NUGQ,5,1520272618912,"{""rt"": [49751, 421, 349], ""trial_type"": ""mouselab-mdp"", ""trialTime"": 54252, ""rewards"": [4, -8, 48], ""stateRewards"": ["""", -4, 4, -24, -24, -4, -8, 24, -24, 4, -8, 48, -48], ""actionTimes"": [49758, 50679, 51522], ""trial_id"": 460924718031657700, ""time_elapsed"": 197980, ""actions"": [""left"", ""left"", ""up""], ""trialIndex"": 1, ""score"": 32, ""trial_index"": 5, ""simulationMode"": [null, null, null], ""queries"": {""mouseover"": {""state"": {""target"": [], ""time"": []}, ""edge"": {""target"": [], ""time"": []}}, ""click"": {""state"": {""target"": [""5"", ""1"", ""9"", ""10"", ""6"", ""2"", ""4"", ""3"", ""7"", ""8"", ""11"", ""12""], ""time"": [6899, 8626, 9715, 13802, 16821, 18059, 23113, 34377, 37172, 44685, 45843, 47915]}, ""edge"": {""target"": [], ""time"": []}}, ""mouseout"": {""state"": {""target"": [], ""time"": []}, ""edge"": {""target"": [], ""time"": []}}}, ""path"": [""0"", ""9"", ""10"", ""11""], ""internal_node_id"": ""0.0-5.0-0.0"", ""block"": ""training""}"
A12GJUCS7AJ4K:3MH9DQ757WCNL8GCNFLEJGD7A9NUGQ,6,1520272644177,"{""rt"": [20915, 152, 194], ""trial_type"": ""mouselab-mdp"", ""trialTime"": 24195, ""rewards"": [4, -8, 48], ""stateRewards"": ["""", 4, -8, 24, 48, 4, -8, -24, 48, -2, -8, 24, -24], ""actionTimes"": [20920, 21574, 22274], ""trial_id"": 6608608155125090000, ""time_elapsed"": 223244, ""actions"": [""right"", ""right"", ""down""], ""trialIndex"": 2, ""score"": 32, ""trial_index"": 6, ""simulationMode"": [null, null, null], ""queries"": {""mouseover"": {""state"": {""target"": [], ""time"": []}, ""edge"": {""target"": [], ""time"": []}}, ""click"": {""state"": {""target"": [""5"", ""6"", ""7"", ""8"", ""1"", ""2"", ""4"", ""3"", ""9"", ""10"", ""11"", ""12""], ""time"": [3042, 3735, 4785, 6452, 10096, 10545, 11129, 12323, 13808, 14252, 14661, 15404]}, ""edge"": {""target"": [], ""time"": []}}, ""mouseout"": {""state"": {""target"": [], ""time"": []}, ""edge"": {""target"": [], ""time"": []}}}, ""path"": [""0"", ""5"", ""6"", ""8""], ""internal_node_id"": ""0.0-5.0-1.0"", ""block"": ""training""}"
A12GJUCS7AJ4K:3MH9DQ757WCNL8GCNFLEJGD7A9NUGQ,7,1520272659360,"{""rt"": [11831, 55, 4], ""trial_type"": ""mouselab-mdp"", ""trialTime"": 14127, ""rewards"": [4, 4, 48], ""stateRewards"": ["""", 2, 4, 24, -24, 4, 8, 24, -24, 4, 4, 24, 48], ""actionTimes"": [11835, 12389, 12889], ""trial_id"": 5959115827255457000, ""time_elapsed"": 238428, ""actions"": [""left"", ""left"", ""down""], ""trialIndex"": 3, ""score"": 44, ""trial_index"": 7, ""simulationMode"": [null, null, null], ""queries"": {""mouseover"": {""state"": {""target"": [], ""time"": []}, ""edge"": {""target"": [], ""time"": []}}, ""click"": {""state"": {""target"": [""9"", ""10"", ""11"", ""12"", ""1"", ""2"", ""4"", ""3"", ""5"", ""7"", ""6"", ""8""], ""time"": [1665, 2310, 2832, 3595, 5962, 6439, 6855, 7461, 8291, 9046, 9435, 9887]}, ""edge"": {""target"": [], ""time"": []}}, ""mouseout"": {""state"": {""target"": [], ""time"": []}, ""edge"": {""target"": [], ""time"": []}}}, ""path"": [""0"", ""9"", ""10"", ""12""], ""internal_node_id"": ""0.0-5.0-2.0"", ""block"": ""training""}"
A12GJUCS7AJ4K:3MH9DQ757WCNL8GCNFLEJGD7A9NUGQ,8,1520272678635,"{""rt"": [15240, 72, 174], ""trial_type"": ""mouselab-mdp"", ""trialTime"": 18207, ""rewards"": [-2, -8, 48], ""stateRewards"": ["""", -2, 8, 24, -48, 2, 4, -24, 24, -2, -8, 48, -24], ""actionTimes"": [15244, 15828, 16512], ""trial_id"": 6282558609452272000, ""time_elapsed"": 257703, ""actions"": [""left"", ""left"", ""up""], ""trialIndex"": 4, ""score"": 26, ""trial_index"": 8, ""simulationMode"": [null, null, null], ""queries"": {""mouseover"": {""state"": {""target"": [], ""time"": []}, ""edge"": {""target"": [], ""time"": []}}, ""click"": {""state"": {""target"": [""9"", ""10"", ""11"", ""12"", ""1"", ""2"", ""4"", ""3"", ""5"", ""6"", ""7"", ""8""], ""time"": [1026, 1418, 1815, 2384, 3005, 3449, 3825, 4600, 5239, 5674, 6247, 7031]}, ""edge"": {""target"": [], ""time"": []}}, ""mouseout"": {""state"": {""target"": [], ""time"": []}, ""edge"": {""target"": [], ""time"": []}}}, ""path"": [""0"", ""9"", ""10"", ""11""], ""internal_node_id"": ""0.0-5.0-3.0"", ""block"": ""training""}"
A12GJUCS7AJ4K:3MH9DQ757WCNL8GCNFLEJGD7A9NUGQ,9,1520272692608,"{""rt"": [9300, 550, 194], ""trial_type"": ""mouselab-mdp"", ""trialTime"": 12908, ""rewards"": [2, 8, 48], ""stateRewards"": ["""", 2, 8, 48, -24, -4, -4, -48, 24, -4, -8, -48, -24], ""actionTimes"": [9303, 10361, 11049], ""trial_id"": 2372710761025483000, ""time_elapsed"": 271676, ""actions"": [""up"", ""up"", ""right""], ""trialIndex"": 5, ""score"": 46, ""trial_index"": 9, ""simulationMode"": [null, null, null], ""queries"": {""mouseover"": {""state"": {""target"": [], ""time"": []}, ""edge"": {""target"": [], ""time"": []}}, ""click"": {""state"": {""target"": [""11"", ""10"", ""12"", ""9"", ""1"", ""2"", ""4"", ""3"", ""5"", ""6"", ""7"", ""8""], ""time"": [967, 1365, 1751, 2158, 3488, 3907, 4302, 4842, 5498, 5993, 6362, 6918]}, ""edge"": {""target"": [], ""time"": []}}, ""mouseout"": {""state"": {""target"": [], ""time"": []}, ""edge"": {""target"": [], ""time"": []}}}, ""path"": [""0"", ""1"", ""2"", ""3""], ""internal_node_id"": ""0.0-5.0-4.0"", ""block"": ""training""}"
A12GJUCS7AJ4K:3MH9DQ757WCNL8GCNFLEJGD7A9NUGQ,10,1520272705214,"{""rt"": [9241, 67, 91], ""trial_type"": ""mouselab-mdp"", ""trialTime"": 11558, ""rewards"": [4, 8, 24], ""stateRewards"": ["""", 2, 4, 24, -24, 4, 8, -48, 24, 4, -8, -24, 24], ""actionTimes"": [9244, 9814, 10401], ""trial_id"": 8950946188299295000, ""time_elapsed"": 284282, ""actions"": [""right"", ""right"", ""down""], ""trialIndex"": 6, ""score"": 24, ""trial_index"": 10, ""simulationMode"": [null, null, null], ""queries"": {""mouseover"": {""state"": {""target"": [], ""time"": []}, ""edge"": {""target"": [], ""time"": []}}, ""click"": {""state"": {""target"": [""9"", ""10"", ""12"", ""11"", ""1"", ""2"", ""4"", ""3"", ""5"", ""7"", ""6"", ""8""], ""time"": [1019, 1478, 1888, 2445, 2917, 3246, 3589, 4059, 4662, 5038, 5485, 5925]}, ""edge"": {""target"": [], ""time"": []}}, ""mouseout"": {""state"": {""target"": [], ""time"": []}, ""edge"": {""target"": [], ""time"": []}}}, ""path"": [""0"", ""5"", ""6"", ""8""], ""internal_node_id"": ""0.0-5.0-5.0"", ""block"": ""training""}"
A12GJUCS7AJ4K:3MH9DQ757WCNL8GCNFLEJGD7A9NUGQ,11,1520272723927,"{""rt"": [13664, 1210, 82], ""trial_type"": ""mouselab-mdp"", ""trialTime"": 17664, ""rewards"": [2, 4, 48], ""stateRewards"": ["""", -2, -4, 48, 24, 2, 4, -48, 48, -4, 4, 48, 24], ""actionTimes"": [13666, 15380, 15968], ""trial_id"": 7946552191512982000, ""time_elapsed"": 302995, ""actions"": [""right"", ""right"", ""down""], ""trialIndex"": 7, ""score"": 42, ""trial_index"": 11, ""simulationMode"": [null, null, null], ""queries"": {""mouseover"": {""state"": {""target"": [], ""time"": []}, ""edge"": {""target"": [], ""time"": []}}, ""click"": {""state"": {""target"": [""1"", ""2"", ""4"", ""3"", ""5"", ""6"", ""7"", ""8"", ""9"", ""10"", ""11"", ""12""], ""time"": [1023, 1339, 1745, 2324, 3156, 4184, 4580, 6015, 9068, 9558, 9970, 10547]}, ""edge"": {""target"": [], ""time"": []}}, ""mouseout"": {""state"": {""target"": [], ""time"": []}, ""edge"": {""target"": [], ""time"": []}}}, ""path"": [""0"", ""5"", ""6"", ""8""], ""internal_node_id"": ""0.0-5.0-6.0"", ""block"": ""training""}"
A12GJUCS7AJ4K:3MH9DQ757WCNL8GCNFLEJGD7A9NUGQ,12,1520272740101,"{""rt"": [12414, 494, 45], ""trial_type"": ""mouselab-mdp"", ""trialTime"": 15086, ""rewards"": [-4, 4, 48], ""stateRewards"": ["""", -4, 4, 24, 24, 2, 8, -24, 24, -4, 4, -24, 48], ""actionTimes"": [12419, 13410, 14013], ""trial_id"": 5347440239323845000, ""time_elapsed"": 319169, ""actions"": [""left"", ""left"", ""down""], ""trialIndex"": 8, ""score"": 36, ""trial_index"": 12, ""simulationMode"": [null, null, null], ""queries"": {""mouseover"": {""state"": {""target"": [], ""time"": []}, ""edge"": {""target"": [], ""time"": []}}, ""click"": {""state"": {""target"": [""1"", ""2"", ""4"", ""3"", ""5"", ""6"", ""7"", ""8"", ""9"", ""10"", ""11"", ""12""], ""time"": [1007, 1440, 2022, 3158, 4953, 5405, 6028, 6895, 9307, 9664, 10084, 10678]}, ""edge"": {""target"": [], ""time"": []}}, ""mouseout"": {""state"": {""target"": [], ""time"": []}, ""edge"": {""target"": [], ""time"": []}}}, ""path"": [""0"", ""9"", ""10"", ""12""], ""internal_node_id"": ""0.0-5.0-7.0"", ""block"": ""training""}"
A12GJUCS7AJ4K:3MH9DQ757WCNL8GCNFLEJGD7A9NUGQ,13,1520272754764,"{""rt"": [11046, 54, 93], ""trial_type"": ""mouselab-mdp"", ""trialTime"": 13597, ""rewards"": [2, 4, 24], ""stateRewards"": ["""", -2, -4, -48, -48, 2, -8, -24, -24, 2, 4, 24, 24], ""actionTimes"": [11057, 11611, 12198], ""trial_id"": -7656966127788694000, ""time_elapsed"": 333832, ""actions"": [""left"", ""left"", ""down""], ""trialIndex"": 9, ""score"": 18, ""trial_index"": 13, ""simulationMode"": [null, null, null], ""queries"": {""mouseover"": {""state"": {""target"": [], ""time"": []}, ""edge"": {""target"": [], ""time"": []}}, ""click"": {""state"": {""target"": [""1"", ""2"", ""4"", ""3"", ""5"", ""6"", ""7"", ""8"", ""9"", ""10"", ""11"", ""12""], ""time"": [916, 1363, 1884, 2464, 3599, 4194, 4810, 5515, 6534, 7044, 7618, 8396]}, ""edge"": {""target"": [], ""time"": []}}, ""mouseout"": {""state"": {""target"": [], ""time"": []}, ""edge"": {""target"": [], ""time"": []}}}, ""path"": [""0"", ""9"", ""10"", ""12""], ""internal_node_id"": ""0.0-5.0-8.0"", ""block"": ""training""}"
A12GJUCS7AJ4K:3MH9DQ757WCNL8GCNFLEJGD7A9NUGQ,14,1520272771104,"{""rt"": [12746, 26, 66], ""trial_type"": ""mouselab-mdp"", ""trialTime"": 15277, ""rewards"": [-2, 4, 24], ""stateRewards"": ["""", -2, 4, -24, 24, -2, -4, -48, -48, 4, -8, 24, 24], ""actionTimes"": [12748, 13273, 13842], ""trial_id"": 282020194745400500, ""time_elapsed"": 350171, ""actions"": [""up"", ""up"", ""left""], ""trialIndex"": 10, ""score"": 14, ""trial_index"": 14, ""simulationMode"": [null, null, null], ""queries"": {""mouseover"": {""state"": {""target"": [], ""time"": []}, ""edge"": {""target"": [], ""time"": []}}, ""click"": {""state"": {""target"": [""1"", ""2"", ""4"", ""3"", ""5"", ""6"", ""7"", ""8"", ""9"", ""10"", ""11"", ""12""], ""time"": [1162, 1538, 2833, 3492, 4455, 4881, 5344, 6008, 7041, 7401, 7821, 8413]}, ""edge"": {""target"": [], ""time"": []}}, ""mouseout"": {""state"": {""target"": [], ""time"": []}, ""edge"": {""target"": [], ""time"": []}}}, ""path"": [""0"", ""1"", ""2"", ""4""], ""internal_node_id"": ""0.0-5.0-9.0"", ""block"": ""training""}"
A12GJUCS7AJ4K:3MH9DQ757WCNL8GCNFLEJGD7A9NUGQ,15,1520272773738,"{""rt"": 1633, ""trial_type"": ""text"", ""internal_node_id"": ""0.0-6.0"", ""time_elapsed"": 352806, ""key_press"": 32, ""trial_index"": 15}"
A12GJUCS7AJ4K:3MH9DQ757WCNL8GCNFLEJGD7A9NUGQ,16,1520272797378,"{""rt"": 22633, ""trial_type"": ""text"", ""internal_node_id"": ""0.0-7.0"", ""time_elapsed"": 376446, ""key_press"": 32, ""trial_index"": 16}"
A12GJUCS7AJ4K:3MH9DQ757WCNL8GCNFLEJGD7A9NUGQ,17,1520272838347,"{""rt"": [35174, 34, 84, 97, 230], ""trial_type"": ""mouselab-mdp"", ""trialTime"": 39733, ""rewards"": [0, -2, 9, -7, 52], ""stateRewards"": ["""", 1, 3, -5, -4, -25, -34, 8, 4, -23, -16, 8, 0, -2, 9, -2, 3, -20, -8, -7, 52, -59, -6, 1, -3, 2, 11, 9, 0, -1, -2, 19, -28, 10], ""actionTimes"": [35180, 35711, 36295, 36896, 37626], ""trial_id"": -7292978147705355000, ""time_elapsed"": 417415, ""actions"": [""right"", ""right"", ""right"", ""down"", ""right""], ""trialIndex"": 11, ""score"": 19, ""trial_index"": 17, ""simulationMode"": [null, null, null, null, null], ""queries"": {""mouseover"": {""state"": {""target"": [], ""time"": []}, ""edge"": {""target"": [], ""time"": []}}, ""click"": {""state"": {""target"": [""23"", ""24"", ""25"", ""26"", ""28"", ""29"", ""27"", ""30"", ""32"", ""33"", ""31"", ""1"", ""2"", ""10"", ""8"", ""11"", ""9"", ""3"", ""4"", ""5"", ""7"", ""6"", ""12"", ""13"", ""18"", ""15"", ""16"", ""17"", ""14"", ""22"", ""19"", ""20"", ""21""], ""time"": [5091, 5563, 6204, 7058, 7513, 8169, 8654, 9610, 10182, 10686, 11397, 12730, 13082, 13474, 14113, 14609, 15166, 15668, 16179, 17396, 18105, 18892, 19970, 20483, 20962, 21389, 21758, 22377, 22952, 23463, 23918, 24295, 24870]}, ""edge"": {""target"": [], ""time"": []}}, ""mouseout"": {""state"": {""target"": [], ""time"": []}, ""edge"": {""target"": [], ""time"": []}}}, ""path"": [""0"", ""12"", ""13"", ""14"", ""19"", ""20""], ""internal_node_id"": ""0.0-8.0-0.0"", ""block"": ""test""}"
A12GJUCS7AJ4K:3MH9DQ757WCNL8GCNFLEJGD7A9NUGQ,18,1520272873848,"{""rt"": [26509, 110, 555, 132, 511], ""trial_type"": ""mouselab-mdp"", ""trialTime"": 34262, ""rewards"": [-3, 2, 1, -1, 72], ""stateRewards"": ["""", -3, 2, 1, -2, -4, -8, 14, -1, -57, -6, 72, 0, 1, -2, 1, 6, -8, 28, -7, -4, 16, -9, -1, 1, -4, -4, -27, -4, -14, -4, 22, 56, -11], ""actionTimes"": [26514, 27135, 28189, 28818, 29831], ""trial_id"": -4460918575611191300, ""time_elapsed"": 452915, ""actions"": [""up"", ""up"", ""up"", ""left"", ""left""], ""trialIndex"": 12, ""score"": 38, ""trial_index"": 18, ""simulationMode"": [null, null, null, null, null], ""queries"": {""mouseover"": {""state"": {""target"": [], ""time"": []}, ""edge"": {""target"": [], ""time"": []}}, ""click"": {""state"": {""target"": [""23"", ""24"", ""25"", ""26"", ""28"", ""27"", ""29"", ""30"", ""31"", ""33"", ""32"", ""1"", ""2"", ""10"", ""7"", ""4"", ""6"", ""5"", ""3"", ""8"", ""9"", ""11"", ""12"", ""13"", ""18"", ""16"", ""15"", ""17"", ""14"", ""22"", ""19"", ""20"", ""21""], ""time"": [1626, 2159, 2681, 3122, 3504, 4000, 4614, 5382, 6141, 6974, 7557, 10533, 10956, 11379, 12122, 12623, 13147, 13599, 14278, 14713, 15084, 15573, 17188, 17582, 18150, 18774, 19158, 20052, 20559, 21145, 21496, 22061, 22556]}, ""edge"": {""target"": [], ""time"": []}}, ""mouseout"": {""state"": {""target"": [], ""time"": []}, ""edge"": {""target"": [], ""time"": []}}}, ""path"": [""0"", ""1"", ""2"", ""3"", ""8"", ""11""], ""internal_node_id"": ""0.0-8.0-1.0"", ""block"": ""test""}"
A12GJUCS7AJ4K:3MH9DQ757WCNL8GCNFLEJGD7A9NUGQ,19,1520272928423,"{""rt"": [47674, 109, 217, 160, 536], ""trial_type"": ""mouselab-mdp"", ""trialTime"": 53363, ""rewards"": [0, -4, -1, 13, 66], ""stateRewards"": ["""", -2, 2, 0, 17, -42, 2, 12, 10, -14, 3, -69, -1, 1, 4, -2, 66, 56, -2, -19, -57, -25, 36, 0, -4, -1, 13, -12, -24, 66, 0, -15, 11, 1], ""actionTimes"": [47680, 48295, 49033, 49698, 50742], ""trial_id"": -3668511446971501600, ""time_elapsed"": 507491, ""actions"": [""left"", ""left"", ""left"", ""up"", ""left""], ""trialIndex"": 13, ""score"": 41, ""trial_index"": 19, ""simulationMode"": [null, null, null, null, null], ""queries"": {""mouseover"": {""state"": {""target"": [], ""time"": []}, ""edge"": {""target"": [], ""time"": []}}, ""click"": {""state"": {""target"": [""23"", ""24"", ""25"", ""28"", ""26"", ""29"", ""27"", ""30"", ""33"", ""31"", ""32"", ""1"", ""2"", ""10"", ""7"", ""4"", ""6"", ""5"", ""3"", ""8"", ""9"", ""11"", ""12"", ""13"", ""14"", ""18"", ""15"", ""17"", ""16"", ""19"", ""22"", ""20"", ""21""], ""time"": [1780, 2661, 3242, 4169, 4605, 5061, 18090, 19095, 19571, 20038, 20745, 23025, 23388, 23781, 24216, 24585, 24994, 25482, 26004, 26440, 26868, 27305, 28414, 28938, 29612, 30082, 30694, 31084, 31617, 34006, 34505, 35148, 35687]}, ""edge"": {""target"": [], ""time"": []}}, ""mouseout"": {""state"": {""target"": [], ""time"": []}, ""edge"": {""target"": [], ""time"": []}}}, ""path"": [""0"", ""23"", ""24"", ""25"", ""26"", ""29""], ""internal_node_id"": ""0.0-8.0-2.0"", ""block"": ""test""}"
A12GJUCS7AJ4K:3MH9DQ757WCNL8GCNFLEJGD7A9NUGQ,20,1520272975419,"{""rt"": [41476, 42, 109, 185, 100], ""trial_type"": ""mouselab-mdp"", ""trialTime"": 45781, ""rewards"": [0, 3, 4, 13, 39], ""stateRewards"": ["""", 0, 1, -6, -9, 23, -1, -7, -1, 16, -19, 16, -1, -1, 4, 9, -35, 27, -33, 6, -61, -36, -16, 0, 3, 4, 13, 39, -9, -9, 9, 1, -5, -43], ""actionTimes"": [41482, 42023, 42644, 43344, 43959], ""trial_id"": 6023346548847730000, ""time_elapsed"": 554486, ""actions"": [""left"", ""left"", ""left"", ""up"", ""up""], ""trialIndex"": 14, ""score"": 26, ""trial_index"": 20, ""simulationMode"": [null, null, null, null, null], ""queries"": {""mouseover"": {""state"": {""target"": [], ""time"": []}, ""edge"": {""target"": [], ""time"": []}}, ""click"": {""state"": {""target"": [""23"", ""24"", ""25"", ""26"", ""28"", ""27"", ""29"", ""30"", ""33"", ""32"", ""31"", ""2"", ""1"", ""10"", ""7"", ""4"", ""6"", ""5"", ""3"", ""8"", ""9"", ""11"", ""12"", ""13"", ""14"", ""15"", ""18"", ""16"", ""17"", ""19"", ""20"", ""21"", ""22""], ""time"": [1072, 1843, 2245, 2740, 3157, 3614, 4196, 10581, 10965, 11578, 12070, 15543, 16370, 16943, 17448, 17844, 18858, 19374, 20097, 20524, 20992, 21608, 22617, 23104, 23631, 23993, 24598, 25091, 25667, 26355, 26861, 27435, 28014]}, ""edge"": {""target"": [], ""time"": []}}, ""mouseout"": {""state"": {""target"": [], ""time"": []}, ""edge"": {""target"": [], ""time"": []}}}, ""path"": [""0"", ""23"", ""24"", ""25"", ""26"", ""27""], ""internal_node_id"": ""0.0-8.0-3.0"", ""block"": ""test""}"
A12GJUCS7AJ4K:3MH9DQ757WCNL8GCNFLEJGD7A9NUGQ,21,1520273019175,"{""rt"": [35800, 50, 110, 759, 98], ""trial_type"": ""mouselab-mdp"", ""trialTime"": 42516, ""rewards"": [-1, 2, 3, -16, 61], ""stateRewards"": ["""", -1, 2, 3, 8, 8, -25, -39, -16, -2, 61, 15, 0, -3, -3, 0, -7, 29, -5, 6, -4, -6, 40, -1, -1, -5, 1, 34, 22, 23, 8, 20, 24, 13], ""actionTimes"": [35807, 36371, 36985, 38254, 38861], ""trial_id"": -4353233720578277000, ""time_elapsed"": 598243, ""actions"": [""up"", ""up"", ""up"", ""left"", ""down""], ""trialIndex"": 15, ""score"": 16, ""trial_index"": 21, ""simulationMode"": [null, null, null, null, null], ""queries"": {""mouseover"": {""state"": {""target"": [], ""time"": []}, ""edge"": {""target"": [], ""time"": []}}, ""click"": {""state"": {""target"": [""23"", ""24"", ""25"", ""26"", ""28"", ""27"", ""29"", ""30"", ""31"", ""32"", ""33"", ""1"", ""2"", ""10"", ""8"", ""11"", ""9"", ""3"", ""4"", ""5"", ""6"", ""7"", ""12"", ""13"", ""14"", ""15"", ""18"", ""16"", ""17"", ""19"", ""20"", ""21"", ""22""], ""time"": [3018, 3420, 4021, 4525, 5010, 5534, 6072, 6809, 7190, 7682, 8157, 9239, 9587, 10067, 10476, 10853, 11226, 11761, 12125, 12536, 12948, 13392, 14177, 14526, 15004, 15355, 15711, 16067, 16577, 17189, 17603, 18099, 18667]}, ""edge"": {""target"": [], ""time"": []}}, ""mouseout"": {""state"": {""target"": [], ""time"": []}, ""edge"": {""target"": [], ""time"": []}}}, ""path"": [""0"", ""1"", ""2"", ""3"", ""8"", ""10""], ""internal_node_id"": ""0.0-8.0-4.0"", ""block"": ""test""}"
A12GJUCS7AJ4K:3MH9DQ757WCNL8GCNFLEJGD7A9NUGQ,22,1520273061078,"{""rt"": [35716, 237, 273, 447, 252], ""trial_type"": ""mouselab-mdp"", ""trialTime"": 40670, ""rewards"": [0, -1, -3, -2, 42], ""stateRewards"": ["""", 1, 3, 6, -6, -8, 12, -9, -3, 22, -11, -57, 0, -1, -3, -13, 32, -71, -54, -2, 39, 42, -37, 0, -3, 4, -12, -5, 33, -7, 12, -28, 12, 27], ""actionTimes"": [35724, 36466, 37234, 38258, 39018], ""trial_id"": 1955680206653714700, ""time_elapsed"": 640146, ""actions"": [""right"", ""right"", ""right"", ""down"", ""down""], ""trialIndex"": 16, ""score"": 12, ""trial_index"": 22, ""simulationMode"": [null, null, null, null, null], ""queries"": {""mouseover"": {""state"": {""target"": [], ""time"": []}, ""edge"": {""target"": [], ""time"": []}}, ""click"": {""state"": {""target"": [""9"", ""11"", ""10"", ""7"", ""6"", ""5"", ""16"", ""18"", ""17"", ""20"", ""21"", ""22"", ""31"", ""32"", ""33"", ""29"", ""27"", ""28"", ""19"", ""15"", ""30"", ""26"", ""8"", ""4""], ""time"": [2088, 2724, 3369, 4930, 5431, 6265, 7165, 7672, 8223, 9261, 9757, 10439, 11156, 11655, 12230, 13217, 13806, 14772, 20842, 21660, 26120, 27407, 28731, 29368]}, ""edge"": {""target"": [], ""time"": []}}, ""mouseout"": {""state"": {""target"": [], ""time"": []}, ""edge"": {""target"": [], ""time"": []}}}, ""path"": [""0"", ""12"", ""13"", ""14"", ""19"", ""21""], ""internal_node_id"": ""0.0-8.0-5.0"", ""block"": ""test""}"
A12GJUCS7AJ4K:3MH9DQ757WCNL8GCNFLEJGD7A9NUGQ,23,1520273083387,"{""rt"": [14730, 173, 141, 286, 1487], ""trial_type"": ""mouselab-mdp"", ""trialTime"": 21071, ""rewards"": [-1, -3, 2, 7, 74], ""stateRewards"": ["""", 1, 1, -1, 6, -26, 7, 57, 12, -10, 31, -12, -1, -3, 2, 2, 32, 26, -10, 7, 60, 74, 25, 0, 1, 0, -5, 50, 24, 5, 12, 27, -40, 40], ""actionTimes"": [14737, 15420, 16061, 16858, 18851], ""trial_id"": 4930208343766356000, ""time_elapsed"": 662455, ""actions"": [""right"", ""right"", ""right"", ""down"", ""down""], ""trialIndex"": 17, ""score"": 61, ""trial_index"": 23, ""simulationMode"": [null, null, null, null, null], ""queries"": {""mouseover"": {""state"": {""target"": [], ""time"": []}, ""edge"": {""target"": [], ""time"": []}}, ""click"": {""state"": {""target"": [""28"", ""27"", ""29"", ""33"", ""32"", ""31"", ""10"", ""11"", ""9"", ""5"", ""6"", ""7"", ""18"", ""16"", ""17"", ""20"", ""21"", ""22""], ""time"": [1532, 2051, 2986, 3773, 4301, 4914, 6166, 6624, 7122, 7639, 8146, 8790, 9868, 10317, 10829, 11639, 12481, 13091]}, ""edge"": {""target"": [], ""time"": []}}, ""mouseout"": {""state"": {""target"": [], ""time"": []}, ""edge"": {""target"": [], ""time"": []}}}, ""path"": [""0"", ""12"", ""13"", ""14"", ""19"", ""21""], ""internal_node_id"": ""0.0-8.0-6.0"", ""block"": ""test""}"
