action_times,actions,button_pressed,correct,delays,path,queries,questions,responses,rt,score,stimulus,time_elapsed,trial_index,trial_i,trial_type,view_history,pid
"[11362, 49771, 51642]","[u'down', u'down', u'left']",,,"[29, 0, 0]","[1, 5, 9, 16]","{u'mouseover': {u'state': {u'target': [], u'time': []}, u'edge': {u'target': [], u'time': []}}, u'click': {u'state': {u'target': [u'3', u'7', u'13', u'12'], u'time': [2021, 3714, 4731, 7105]}, u'edge': {u'target': [], u'time': []}}, u'mouseout': {u'state': {u'target': [], u'time': []}, u'edge': {u'target': [], u'time': []}}}",,,"[11361, 6303, 997]",-9.2,,273717,1.0,9.0,mouselab-mdp,,0
"[1688, 9251, 16395]","[u'up', u'up', u'right']",,,"[4, 0, 0]","[1, 3, 7, 13]","{u'mouseover': {u'state': {u'target': [], u'time': []}, u'edge': {u'target': [], u'time': []}}, u'click': {u'state': {u'target': [u'3'], u'time': [1186]}, u'edge': {u'target': [], u'time': []}}, u'mouseout': {u'state': {u'target': [], u'time': []}, u'edge': {u'target': [], u'time': []}}}",,,"[1688, 801, 6154]",22.2,,328004,2.0,11.0,mouselab-mdp,,0
"[976, 4304, 5896]","[u'down', u'down', u'right']",,,"[0, 0, 0]","[1, 5, 9, 17]","{u'mouseover': {u'state': {u'target': [], u'time': []}, u'edge': {u'target': [], u'time': []}}, u'click': {u'state': {u'target': [], u'time': []}, u'edge': {u'target': [], u'time': []}}, u'mouseout': {u'state': {u'target': [], u'time': []}, u'edge': {u'target': [], u'time': []}}}",,,"[976, 1066, 635]",42.0,,376903,3.0,4.0,mouselab-mdp,,0
"[1462, 4165, 5735]","[u'left', u'left', u'up']",,,"[0, 0, 0]","[1, 4, 8, 14]","{u'mouseover': {u'state': {u'target': [], u'time': []}, u'edge': {u'target': [], u'time': []}}, u'click': {u'state': {u'target': [], u'time': []}, u'edge': {u'target': [], u'time': []}}, u'mouseout': {u'state': {u'target': [], u'time': []}, u'edge': {u'target': [], u'time': []}}}",,,"[1462, 439, 600]",18.0,,425592,4.0,10.0,mouselab-mdp,,0
"[2955, 5733, 7427]","[u'up', u'up', u'left']",,,"[0, 0, 0]","[1, 3, 7, 12]","{u'mouseover': {u'state': {u'target': [], u'time': []}, u'edge': {u'target': [], u'time': []}}, u'click': {u'state': {u'target': [], u'time': []}, u'edge': {u'target': [], u'time': []}}, u'mouseout': {u'state': {u'target': [], u'time': []}, u'edge': {u'target': [], u'time': []}}}",,,"[2955, 494, 672]",5.0,,500754,5.0,6.0,mouselab-mdp,,0
"[1329, 3950, 13102]","[u'right', u'right', u'down']",,,"[0, 0, 0]","[1, 2, 6, 11]","{u'mouseover': {u'state': {u'target': [], u'time': []}, u'edge': {u'target': [], u'time': []}}, u'click': {u'state': {u'target': [], u'time': []}, u'edge': {u'target': [], u'time': []}}, u'mouseout': {u'state': {u'target': [], u'time': []}, u'edge': {u'target': [], u'time': []}}}",,,"[1329, 376, 8188]",6.0,,556142,6.0,5.0,mouselab-mdp,,0
"[969, 4225, 8288]","[u'down', u'down', u'left']",,,"[0, 0, 0]","[1, 5, 9, 16]","{u'mouseover': {u'state': {u'target': [], u'time': []}, u'edge': {u'target': [], u'time': []}}, u'click': {u'state': {u'target': [u'17', u'16'], u'time': [6724, 7562]}, u'edge': {u'target': [], u'time': []}}, u'mouseout': {u'state': {u'target': [], u'time': []}, u'edge': {u'target': [], u'time': []}}}",,,"[969, 1061, 3067]",-1.6,,605470,7.0,2.0,mouselab-mdp,,0
"[563, 3302, 4729]","[u'up', u'up', u'right']",,,"[0, 0, 0]","[1, 3, 7, 13]","{u'mouseover': {u'state': {u'target': [], u'time': []}, u'edge': {u'target': [], u'time': []}}, u'click': {u'state': {u'target': [u'12'], u'time': [9971]}, u'edge': {u'target': [], u'time': []}}, u'mouseout': {u'state': {u'target': [], u'time': []}, u'edge': {u'target': [], u'time': []}}}",,,"[563, 470, 461]",18.2,,664557,8.0,1.0,mouselab-mdp,,0
"[881, 10000, 12284]","[u'left', u'left', u'down']",,,"[6, 0, 0]","[1, 4, 8, 15]","{u'mouseover': {u'state': {u'target': [], u'time': []}, u'edge': {u'target': [], u'time': []}}, u'click': {u'state': {u'target': [], u'time': []}, u'edge': {u'target': [], u'time': []}}, u'mouseout': {u'state': {u'target': [], u'time': []}, u'edge': {u'target': [], u'time': []}}}",,,"[881, 604, 1316]",40.0,,722477,9.0,0.0,mouselab-mdp,,0
"[1073, 3339, 53366]","[u'down', u'down', u'right']",,,"[0, 0, 4]","[1, 5, 9, 17]","{u'mouseover': {u'state': {u'target': [], u'time': []}, u'edge': {u'target': [], u'time': []}}, u'click': {u'state': {u'target': [u'17', u'16'], u'time': [6008, 7323]}, u'edge': {u'target': [], u'time': []}}, u'mouseout': {u'state': {u'target': [], u'time': []}, u'edge': {u'target': [], u'time': []}}}",,,"[1072, 2, 49038]",-5.6,,784185,10.0,3.0,mouselab-mdp,,0
"[1860, 11882, 17910]","[u'up', u'up', u'left']",,,"[6, 3, 3]","[1, 3, 7, 12]","{u'mouseover': {u'state': {u'target': [], u'time': []}, u'edge': {u'target': [], u'time': []}}, u'click': {u'state': {u'target': [u'12', u'7', u'13'], u'time': [1176, 11441, 16644]}, u'edge': {u'target': [], u'time': []}}, u'mouseout': {u'state': {u'target': [], u'time': []}, u'edge': {u'target': [], u'time': []}}}",,,"[1860, 1318, 1638]",32.6,,849189,11.0,8.0,mouselab-mdp,,0
"[775, 16242, 28118]","[u'right', u'right', u'up']",,,"[0, 9, 0]","[1, 2, 6, 10]","{u'mouseover': {u'state': {u'target': [], u'time': []}, u'edge': {u'target': [], u'time': []}}, u'click': {u'state': {u'target': [u'10', u'6', u'11'], u'time': [5582, 6589, 7246]}, u'edge': {u'target': [], u'time': []}}, u'mouseout': {u'state': {u'target': [], u'time': []}, u'edge': {u'target': [], u'time': []}}}",,,"[775, 13174, 1192]",-0.4,,907265,12.0,7.0,mouselab-mdp,,0
"[25608, 58261, 59541]","[u'right', u'right', u'down']",,,"[23, 0, 0]","[1, 2, 6, 11]","{u'mouseover': {u'state': {u'target': [], u'time': []}, u'edge': {u'target': [], u'time': []}}, u'click': {u'state': {u'target': [u'2', u'6', u'11', u'17', u'5', u'9', u'16'], u'time': [2612, 5552, 7664, 11734, 16248, 20766, 21927]}, u'edge': {u'target': [], u'time': []}}, u'mouseout': {u'state': {u'target': [], u'time': []}, u'edge': {u'target': [], u'time': []}}}",,,"[25605, 2881, 137]",18.4,,699088,1.0,11.0,mouselab-mdp,,1
"[12906, 40802, 42866]","[u'left', u'left', u'up']",,,"[20, 0, 0]","[1, 4, 8, 14]","{u'mouseover': {u'state': {u'target': [], u'time': []}, u'edge': {u'target': [], u'time': []}}, u'click': {u'state': {u'target': [u'3', u'5', u'9', u'4', u'8'], u'time': [5316, 6606, 8104, 9971, 10976]}, u'edge': {u'target': [], u'time': []}}, u'mouseout': {u'state': {u'target': [], u'time': []}, u'edge': {u'target': [], u'time': []}}}",,,"[12906, 1678, 663]",-4.0,,773564,2.0,2.0,mouselab-mdp,,1
"[6884, 22046, 25000]","[u'right', u'right', u'up']",,,"[9, 0, 0]","[1, 2, 6, 10]","{u'mouseover': {u'state': {u'target': [], u'time': []}, u'edge': {u'target': [], u'time': []}}, u'click': {u'state': {u'target': [u'4', u'6'], u'time': [2783, 4143]}, u'edge': {u'target': [], u'time': []}}, u'mouseout': {u'state': {u'target': [], u'time': []}, u'edge': {u'target': [], u'time': []}}}",,,"[6883, 1522, 1569]",2.4,,835363,3.0,7.0,mouselab-mdp,,1
"[4309, 21053, 29413]","[u'up', u'up', u'left']",,,"[9, 3, 3]","[1, 3, 7, 12]","{u'mouseover': {u'state': {u'target': [], u'time': []}, u'edge': {u'target': [], u'time': []}}, u'click': {u'state': {u'target': [u'5', u'3', u'7', u'12'], u'time': [1089, 2318, 19721, 28114]}, u'edge': {u'target': [], u'time': []}}, u'mouseout': {u'state': {u'target': [], u'time': []}, u'edge': {u'target': [], u'time': []}}}",,,"[4309, 2863, 3177]",25.8,,910770,4.0,9.0,mouselab-mdp,,1
"[6449, 16442, 29776]","[u'left', u'left', u'up']",,,"[4, 0, 4]","[1, 4, 8, 14]","{u'mouseover': {u'state': {u'target': [], u'time': []}, u'edge': {u'target': [], u'time': []}}, u'click': {u'state': {u'target': [u'4', u'14'], u'time': [3597, 28306]}, u'edge': {u'target': [], u'time': []}}, u'mouseout': {u'state': {u'target': [], u'time': []}, u'edge': {u'target': [], u'time': []}}}",,,"[6447, 1695, 11959]",4.4,,973082,5.0,6.0,mouselab-mdp,,1
"[1360, 5064, 11463]","[u'up', u'up', u'right']",,,"[0, 0, 4]","[1, 3, 7, 13]","{u'mouseover': {u'state': {u'target': [], u'time': []}, u'edge': {u'target': [], u'time': []}}, u'click': {u'state': {u'target': [u'13'], u'time': [10428]}, u'edge': {u'target': [], u'time': []}}, u'mouseout': {u'state': {u'target': [], u'time': []}, u'edge': {u'target': [], u'time': []}}}",,,"[1360, 20, 5008]",32.2,,1030818,6.0,8.0,mouselab-mdp,,1
"[6266, 23954, 25347]","[u'down', u'down', u'right']",,,"[12, 0, 0]","[1, 5, 9, 17]","{u'mouseover': {u'state': {u'target': [], u'time': []}, u'edge': {u'target': [], u'time': []}}, u'click': {u'state': {u'target': [u'14', u'17'], u'time': [2890, 4450]}, u'edge': {u'target': [], u'time': []}}, u'mouseout': {u'state': {u'target': [], u'time': []}, u'edge': {u'target': [], u'time': []}}}",,,"[6265, 528, 29]",36.4,,1114330,7.0,4.0,mouselab-mdp,,1
"[7635, 18739, 20131]","[u'left', u'left', u'down']",,,"[6, 0, 0]","[1, 4, 8, 15]","{u'mouseover': {u'state': {u'target': [], u'time': []}, u'edge': {u'target': [], u'time': []}}, u'click': {u'state': {u'target': [u'14'], u'time': [3403]}, u'edge': {u'target': [], u'time': []}}, u'mouseout': {u'state': {u'target': [], u'time': []}, u'edge': {u'target': [], u'time': []}}}",,,"[7633, 453, 8]",11.2,,1195712,8.0,1.0,mouselab-mdp,,1
"[4745, 8558, 10033]","[u'down', u'down', u'left']",,,"[0, 0, 0]","[1, 5, 9, 16]","{u'mouseover': {u'state': {u'target': [], u'time': []}, u'edge': {u'target': [], u'time': []}}, u'click': {u'state': {u'target': [], u'time': []}, u'edge': {u'target': [], u'time': []}}, u'mouseout': {u'state': {u'target': [], u'time': []}, u'edge': {u'target': [], u'time': []}}}",,,"[4743, 7, 43]",-2.0,,1248307,9.0,10.0,mouselab-mdp,,1
"[1401, 5084, 9617]","[u'right', u'right', u'down']",,,"[0, 0, 0]","[1, 2, 6, 11]","{u'mouseover': {u'state': {u'target': [], u'time': []}, u'edge': {u'target': [], u'time': []}}, u'click': {u'state': {u'target': [], u'time': []}, u'edge': {u'target': [], u'time': []}}, u'mouseout': {u'state': {u'target': [], u'time': []}, u'edge': {u'target': [], u'time': []}}}",,,"[1401, 5, 3147]",0.0,,1298547,10.0,3.0,mouselab-mdp,,1
"[608, 4409, 7832]","[u'up', u'up', u'right']",,,"[0, 0, 0]","[1, 3, 7, 13]","{u'mouseover': {u'state': {u'target': [], u'time': []}, u'edge': {u'target': [], u'time': []}}, u'click': {u'state': {u'target': [], u'time': []}, u'edge': {u'target': [], u'time': []}}, u'mouseout': {u'state': {u'target': [], u'time': []}, u'edge': {u'target': [], u'time': []}}}",,,"[608, 109, 1803]",1.0,,1355572,11.0,5.0,mouselab-mdp,,1
"[3770, 13151, 71362]","[u'down', u'down', u'right']",,,"[0, 0, 0]","[1, 5, 9, 17]","{u'mouseover': {u'state': {u'target': [], u'time': []}, u'edge': {u'target': [], u'time': []}}, u'click': {u'state': {u'target': [u'17', u'16'], u'time': [23976, 29045]}, u'edge': {u'target': [], u'time': []}}, u'mouseout': {u'state': {u'target': [], u'time': []}, u'edge': {u'target': [], u'time': []}}}",,,"[3770, 5496, 56772]",4.4,,1432515,12.0,0.0,mouselab-mdp,,1
"[31400, 34074, 35399]","[u'up', u'up', u'left']",,,"[0, 0, 0]","[1, 3, 7, 12]","{u'mouseover': {u'state': {u'target': [], u'time': []}, u'edge': {u'target': [], u'time': []}}, u'click': {u'state': {u'target': [u'3', u'2', u'5', u'4', u'7', u'9', u'8', u'14', u'15', u'12', u'13'], u'time': [8811, 9710, 10609, 11397, 13725, 14816, 18159, 20858, 21476, 22501, 23310]}, u'edge': {u'target': [], u'time': []}}, u'mouseout': {u'state': {u'target': [], u'time': []}, u'edge': {u'target': [], u'time': []}}}",,,"[31400, 3, 714]",36.89,,429507,1.0,9.0,mouselab-mdp,,2
"[8645, 23581, 24781]","[u'up', u'up', u'left']",,,"[2, 0, 0]","[1, 3, 7, 12]","{u'mouseover': {u'state': {u'target': [], u'time': []}, u'edge': {u'target': [], u'time': []}}, u'click': {u'state': {u'target': [u'3', u'7', u'12', u'13', u'5', u'9'], u'time': [1626, 2773, 4484, 18636, 20234, 20797]}, u'edge': {u'target': [], u'time': []}}, u'mouseout': {u'state': {u'target': [], u'time': []}, u'edge': {u'target': [], u'time': []}}}",,,"[8645, 11092, 193]",40.94,,489024,2.0,8.0,mouselab-mdp,,2
"[17521, 20056, 22113]","[u'down', u'down', u'right']",,,"[0, 0, 0]","[1, 5, 9, 17]","{u'mouseover': {u'state': {u'target': [], u'time': []}, u'edge': {u'target': [], u'time': []}}, u'click': {u'state': {u'target': [u'3', u'2', u'5', u'4', u'6', u'10', u'11', u'7', u'13', u'12', u'9', u'17', u'16'], u'time': [1328, 2430, 3127, 3926, 5647, 6649, 7695, 9416, 10047, 10768, 12476, 13173, 13826]}, u'edge': {u'target': [], u'time': []}}, u'mouseout': {u'state': {u'target': [], u'time': []}, u'edge': {u'target': [], u'time': []}}}",,,"[17521, 3, 1504]",33.87,,539174,3.0,7.0,mouselab-mdp,,2
"[16438, 19128, 20902]","[u'down', u'down', u'left']",,,"[0, 0, 0]","[1, 5, 9, 16]","{u'mouseover': {u'state': {u'target': [], u'time': []}, u'edge': {u'target': [], u'time': []}}, u'click': {u'state': {u'target': [u'3', u'5', u'4', u'2', u'9', u'17', u'16', u'7', u'12', u'13'], u'time': [1192, 2069, 5917, 6625, 8211, 8820, 9629, 11272, 12183, 12836]}, u'edge': {u'target': [], u'time': []}}, u'mouseout': {u'state': {u'target': [], u'time': []}, u'edge': {u'target': [], u'time': []}}}",,,"[16438, 3, 1158]",45.9,,610892,4.0,1.0,mouselab-mdp,,2
"[18995, 21899, 23643]","[u'right', u'right', u'up']",,,"[0, 0, 0]","[1, 2, 6, 10]","{u'mouseover': {u'state': {u'target': [], u'time': []}, u'edge': {u'target': [], u'time': []}}, u'click': {u'state': {u'target': [u'5', u'3', u'4', u'2', u'9', u'6', u'7', u'17', u'16', u'10', u'11', u'8', u'14', u'15'], u'time': [1183, 1957, 2665, 3982, 5546, 6491, 7448, 9202, 9877, 10664, 11306, 14557, 14973, 15480]}, u'edge': {u'target': [], u'time': []}}, u'mouseout': {u'state': {u'target': [], u'time': []}, u'edge': {u'target': [], u'time': []}}}",,,"[18995, 4, 1183]",33.86,,669522,5.0,3.0,mouselab-mdp,,2
"[16489, 27345, 28585]","[u'right', u'right', u'up']",,,"[4, 0, 0]","[1, 2, 6, 10]","{u'mouseover': {u'state': {u'target': [], u'time': []}, u'edge': {u'target': [], u'time': []}}, u'click': {u'state': {u'target': [u'3', u'2', u'5', u'4', u'6', u'10', u'11', u'7', u'13', u'12', u'8', u'14', u'15'], u'time': [1376, 1960, 2657, 3153, 3974, 4649, 5324, 6077, 6516, 7372, 8890, 9284, 14438]}, u'edge': {u'target': [], u'time': []}}, u'mouseout': {u'state': {u'target': [], u'time': []}, u'edge': {u'target': [], u'time': []}}}",,,"[16489, 4182, 671]",21.87,,725672,6.0,10.0,mouselab-mdp,,2
"[21089, 23714, 24833]","[u'right', u'right', u'down']",,,"[0, 0, 0]","[1, 2, 6, 11]","{u'mouseover': {u'state': {u'target': [], u'time': []}, u'edge': {u'target': [], u'time': []}}, u'click': {u'state': {u'target': [u'3', u'5', u'2', u'4', u'9', u'17', u'16', u'7', u'13', u'12', u'8', u'14', u'15', u'6', u'10', u'11'], u'time': [1209, 2029, 2693, 3785, 4730, 5461, 8116, 10006, 11018, 11694, 12560, 12998, 13494, 14686, 15642, 16407]}, u'edge': {u'target': [], u'time': []}}, u'mouseout': {u'state': {u'target': [], u'time': []}, u'edge': {u'target': [], u'time': []}}}",,,"[21089, 3, 619]",37.84,,777550,7.0,6.0,mouselab-mdp,,2
"[11530, 14713, 16449]","[u'down', u'down', u'right']",,,"[0, 0, 2]","[1, 5, 9, 17]","{u'mouseover': {u'state': {u'target': [], u'time': []}, u'edge': {u'target': [], u'time': []}}, u'click': {u'state': {u'target': [u'3', u'2', u'5', u'4', u'8', u'14', u'15', u'9', u'17', u'16', u'6'], u'time': [1017, 1984, 2491, 3041, 3975, 4856, 5426, 6495, 6979, 24316, 26554]}, u'edge': {u'target': [], u'time': []}}, u'mouseout': {u'state': {u'target': [], u'time': []}, u'edge': {u'target': [], u'time': []}}}",,,"[11530, 532, 1052]",41.89,,836387,8.0,4.0,mouselab-mdp,,2
"[18638, 54645, 56184]","[u'down', u'down', u'right']",,,"[15, 0, 0]","[1, 5, 9, 17]","{u'mouseover': {u'state': {u'target': [], u'time': []}, u'edge': {u'target': [], u'time': []}}, u'click': {u'state': {u'target': [u'3', u'2', u'4', u'9', u'16', u'17'], u'time': [41030, 41952, 43673, 48803, 49467, 50153]}, u'edge': {u'target': [], u'time': []}}, u'mouseout': {u'state': {u'target': [], u'time': []}, u'edge': {u'target': [], u'time': []}}}",,,"[18638, 19261, 3]",9.94,,904473,9.0,0.0,mouselab-mdp,,2
"[16433, 19373, 22985]","[u'left', u'left', u'up']",,,"[0, 0, 0]","[1, 4, 8, 14]","{u'mouseover': {u'state': {u'target': [], u'time': []}, u'edge': {u'target': [], u'time': []}}, u'click': {u'state': {u'target': [u'3', u'4', u'5', u'2', u'6', u'8', u'9', u'7', u'10', u'11', u'15', u'14'], u'time': [1879, 2778, 3453, 4015, 5231, 6130, 6840, 7863, 10147, 10687, 11789, 12419]}, u'edge': {u'target': [], u'time': []}}, u'mouseout': {u'state': {u'target': [], u'time': []}, u'edge': {u'target': [], u'time': []}}}",,,"[16433, 3, 2982]",33.88,,955543,10.0,5.0,mouselab-mdp,,2
"[13257, 16441, 18272]","[u'right', u'right', u'up']",,,"[0, 0, 0]","[1, 2, 6, 10]","{u'mouseover': {u'state': {u'target': [], u'time': []}, u'edge': {u'target': [], u'time': []}}, u'click': {u'state': {u'target': [u'3', u'2', u'5', u'4', u'6', u'8', u'9', u'10', u'11', u'14', u'15'], u'time': [1553, 2047, 2564, 3172, 4353, 5265, 6075, 7233, 8043, 9101, 9978]}, u'edge': {u'target': [], u'time': []}}, u'mouseout': {u'state': {u'target': [], u'time': []}, u'edge': {u'target': [], u'time': []}}}",,,"[13257, 152, 1209]",33.89,,1006973,11.0,2.0,mouselab-mdp,,2
"[13565, 19189, 23949]","[u'right', u'right', u'down']",,,"[1, 0, 0]","[1, 2, 6, 11]","{u'mouseover': {u'state': {u'target': [], u'time': []}, u'edge': {u'target': [], u'time': []}}, u'click': {u'state': {u'target': [u'3', u'2', u'5', u'4', u'6', u'10', u'11', u'9', u'17', u'16', u'7', u'13', u'12'], u'time': [1413, 2043, 2683, 3268, 4562, 4978, 5686, 8680, 9107, 9602, 10626, 11053, 11570]}, u'edge': {u'target': [], u'time': []}}, u'mouseout': {u'state': {u'target': [], u'time': []}, u'edge': {u'target': [], u'time': []}}}",,,"[13565, 1895, 4209]",37.87,,1069435,12.0,11.0,mouselab-mdp,,2
"[36636, 116292, 132468]","[u'right', u'right', u'up']",,,"[53, 9, 0]","[1, 2, 6, 10]","{u'mouseover': {u'state': {u'target': [], u'time': []}, u'edge': {u'target': [], u'time': []}}, u'click': {u'state': {u'target': [u'2', u'6', u'10', u'11', u'4', u'3', u'5', u'9', u'17', u'1'], u'time': [4096, 9990, 11677, 15893, 20679, 22469, 24533, 25461, 26612, 102709]}, u'edge': {u'target': [], u'time': []}}, u'mouseout': {u'state': {u'target': [], u'time': []}, u'edge': {u'target': [], u'time': []}}}",,,"[36635, 21169, 5796]",-20.0,,255713,1.0,7.0,mouselab-mdp,,3
"[10951, 27511, 30910]","[u'right', u'right', u'down']",,,"[9, 0, 0]","[1, 2, 6, 11]","{u'mouseover': {u'state': {u'target': [], u'time': []}, u'edge': {u'target': [], u'time': []}}, u'click': {u'state': {u'target': [u'4', u'2'], u'time': [5432, 8168]}, u'edge': {u'target': [], u'time': []}}, u'mouseout': {u'state': {u'target': [], u'time': []}, u'edge': {u'target': [], u'time': []}}}",,,"[10951, 3816, 2222]",32.4,,316826,2.0,11.0,mouselab-mdp,,3
"[7234, 16083, 19027]","[u'up', u'up', u'right']",,,"[4, 0, 0]","[1, 3, 7, 13]","{u'mouseover': {u'state': {u'target': [], u'time': []}, u'edge': {u'target': [], u'time': []}}, u'click': {u'state': {u'target': [u'3'], u'time': [3276]}, u'edge': {u'target': [], u'time': []}}, u'mouseout': {u'state': {u'target': [], u'time': []}, u'edge': {u'target': [], u'time': []}}}",,,"[7234, 1472, 1778]",-1.8,,371098,3.0,5.0,mouselab-mdp,,3
"[4362, 13675, 16739]","[u'left', u'left', u'up']",,,"[4, 0, 0]","[1, 4, 8, 14]","{u'mouseover': {u'state': {u'target': [], u'time': []}, u'edge': {u'target': [], u'time': []}}, u'click': {u'state': {u'target': [u'4'], u'time': [2067]}, u'edge': {u'target': [], u'time': []}}, u'mouseout': {u'state': {u'target': [], u'time': []}, u'edge': {u'target': [], u'time': []}}}",,,"[4361, 1971, 1900]",7.2,,425409,4.0,8.0,mouselab-mdp,,3
"[9979, 27987, 30483]","[u'up', u'up', u'left']",,,"[13, 0, 0]","[1, 3, 7, 12]","{u'mouseover': {u'state': {u'target': [], u'time': []}, u'edge': {u'target': [], u'time': []}}, u'click': {u'state': {u'target': [u'2', u'4', u'3'], u'time': [3466, 5434, 7490]}, u'edge': {u'target': [], u'time': []}}, u'mouseout': {u'state': {u'target': [], u'time': []}, u'edge': {u'target': [], u'time': []}}}",,,"[9979, 909, 1285]",-11.4,,489585,5.0,0.0,mouselab-mdp,,3
"[6983, 20631, 26102]","[u'left', u'left', u'down']",,,"[9, 0, 0]","[1, 4, 8, 15]","{u'mouseover': {u'state': {u'target': [], u'time': []}, u'edge': {u'target': [], u'time': []}}, u'click': {u'state': {u'target': [u'5', u'4', u'8'], u'time': [3224, 4943, 66805]}, u'edge': {u'target': [], u'time': []}}, u'mouseout': {u'state': {u'target': [], u'time': []}, u'edge': {u'target': [], u'time': []}}}",,,"[6983, 911, 4303]",19.6,,558633,6.0,9.0,mouselab-mdp,,3
"[5991, 18535, 23591]","[u'up', u'up', u'right']",,,"[8, 0, 0]","[1, 3, 7, 13]","{u'mouseover': {u'state': {u'target': [], u'time': []}, u'edge': {u'target': [], u'time': []}}, u'click': {u'state': {u'target': [u'3'], u'time': [4064]}, u'edge': {u'target': [], u'time': []}}, u'mouseout': {u'state': {u'target': [], u'time': []}, u'edge': {u'target': [], u'time': []}}}",,,"[5991, 794, 3881]",6.2,,616730,7.0,6.0,mouselab-mdp,,3
"[6715, 20892, 23660]","[u'down', u'down', u'left']",,,"[9, 0, 0]","[1, 5, 9, 16]","{u'mouseover': {u'state': {u'target': [], u'time': []}, u'edge': {u'target': [], u'time': []}}, u'click': {u'state': {u'target': [u'2', u'5'], u'time': [3677, 5124]}, u'edge': {u'target': [], u'time': []}}, u'mouseout': {u'state': {u'target': [], u'time': []}, u'edge': {u'target': [], u'time': []}}}",,,"[6715, 1450, 1589]",8.4,,675722,8.0,4.0,mouselab-mdp,,3
"[6335, 19975, 21806]","[u'down', u'down', u'right']",,,"[9, 0, 0]","[1, 5, 9, 17]","{u'mouseover': {u'state': {u'target': [], u'time': []}, u'edge': {u'target': [], u'time': []}}, u'click': {u'state': {u'target': [u'3', u'5'], u'time': [2959, 4447]}, u'edge': {u'target': [], u'time': []}}, u'mouseout': {u'state': {u'target': [], u'time': []}, u'edge': {u'target': [], u'time': []}}}",,,"[6335, 817, 652]",-1.6,,736970,9.0,2.0,mouselab-mdp,,3
"[5167, 13216, 15656]","[u'right', u'right', u'down']",,,"[4, 0, 0]","[1, 2, 6, 11]","{u'mouseover': {u'state': {u'target': [], u'time': []}, u'edge': {u'target': [], u'time': []}}, u'click': {u'state': {u'target': [u'2'], u'time': [3169]}, u'edge': {u'target': [], u'time': []}}, u'mouseout': {u'state': {u'target': [], u'time': []}, u'edge': {u'target': [], u'time': []}}}",,,"[5167, 615, 1281]",7.2,,791378,10.0,10.0,mouselab-mdp,,3
"[2750, 11390, 15214]","[u'down', u'down', u'right']",,,"[4, 0, 0]","[1, 5, 9, 17]","{u'mouseover': {u'state': {u'target': [], u'time': []}, u'edge': {u'target': [], u'time': []}}, u'click': {u'state': {u'target': [u'5'], u'time': [1135]}, u'edge': {u'target': [], u'time': []}}, u'mouseout': {u'state': {u'target': [], u'time': []}, u'edge': {u'target': [], u'time': []}}}",,,"[2750, 1225, 2667]",-2.8,,845754,11.0,3.0,mouselab-mdp,,3
"[5418, 15019, 22114]","[u'up', u'up', u'left']",,,"[4, 0, 0]","[1, 3, 7, 12]","{u'mouseover': {u'state': {u'target': [], u'time': []}, u'edge': {u'target': [], u'time': []}}, u'click': {u'state': {u'target': [u'3'], u'time': [3892]}, u'edge': {u'target': [], u'time': []}}, u'mouseout': {u'state': {u'target': [], u'time': []}, u'edge': {u'target': [], u'time': []}}}",,,"[5418, 2071, 5912]",18.2,,901938,12.0,1.0,mouselab-mdp,,3
"[9259, 19542, 22683]","[u'left', u'left', u'down']",,,"[4, 0, 0]","[1, 4, 8, 15]","{u'mouseover': {u'state': {u'target': [], u'time': []}, u'edge': {u'target': [], u'time': []}}, u'click': {u'state': {u'target': [u'2', u'5'], u'time': [2618, 6835]}, u'edge': {u'target': [], u'time': []}}, u'mouseout': {u'state': {u'target': [], u'time': []}, u'edge': {u'target': [], u'time': []}}}",,,"[9258, 2858, 2020]",10.8,,708672,1.0,1.0,mouselab-mdp,,4
"[1565, 10352, 11571]","[u'up', u'up', u'left']",,,"[5, 0, 0]","[1, 3, 7, 12]","{u'mouseover': {u'state': {u'target': [], u'time': []}, u'edge': {u'target': [], u'time': []}}, u'click': {u'state': {u'target': [], u'time': []}, u'edge': {u'target': [], u'time': []}}, u'mouseout': {u'state': {u'target': [], u'time': []}, u'edge': {u'target': [], u'time': []}}}",,,"[1565, 1149, 5]",41.0,,763839,2.0,8.0,mouselab-mdp,,4
"[950, 10234, 11633]","[u'right', u'right', u'up']",,,"[5, 0, 0]","[1, 2, 6, 10]","{u'mouseover': {u'state': {u'target': [], u'time': []}, u'edge': {u'target': [], u'time': []}}, u'click': {u'state': {u'target': [], u'time': []}, u'edge': {u'target': [], u'time': []}}, u'mouseout': {u'state': {u'target': [], u'time': []}, u'edge': {u'target': [], u'time': []}}}",,,"[950, 1246, 5]",22.0,,818269,3.0,10.0,mouselab-mdp,,4
"[1543, 9733, 10884]","[u'down', u'down', u'left']",,,"[5, 0, 0]","[1, 5, 9, 16]","{u'mouseover': {u'state': {u'target': [], u'time': []}, u'edge': {u'target': [], u'time': []}}, u'click': {u'state': {u'target': [], u'time': []}, u'edge': {u'target': [], u'time': []}}, u'mouseout': {u'state': {u'target': [], u'time': []}, u'edge': {u'target': [], u'time': []}}}",,,"[1543, 410, 2]",2.0,,877944,4.0,9.0,mouselab-mdp,,4
"[863, 8736, 10092]","[u'up', u'up', u'left']",,,"[5, 0, 0]","[1, 3, 7, 12]","{u'mouseover': {u'state': {u'target': [], u'time': []}, u'edge': {u'target': [], u'time': []}}, u'click': {u'state': {u'target': [], u'time': []}, u'edge': {u'target': [], u'time': []}}, u'mouseout': {u'state': {u'target': [], u'time': []}, u'edge': {u'target': [], u'time': []}}}",,,"[863, 78, 3]",15.0,,932828,5.0,2.0,mouselab-mdp,,4
"[1574, 9835, 11027]","[u'up', u'up', u'right']",,,"[5, 0, 0]","[1, 3, 7, 13]","{u'mouseover': {u'state': {u'target': [], u'time': []}, u'edge': {u'target': [], u'time': []}}, u'click': {u'state': {u'target': [], u'time': []}, u'edge': {u'target': [], u'time': []}}, u'mouseout': {u'state': {u'target': [], u'time': []}, u'edge': {u'target': [], u'time': []}}}",,,"[1574, 411, 2]",9.0,,987846,6.0,6.0,mouselab-mdp,,4
"[1044, 9239, 10317]","[u'up', u'up', u'left']",,,"[5, 0, 0]","[1, 3, 7, 12]","{u'mouseover': {u'state': {u'target': [], u'time': []}, u'edge': {u'target': [], u'time': []}}, u'click': {u'state': {u'target': [], u'time': []}, u'edge': {u'target': [], u'time': []}}, u'mouseout': {u'state': {u'target': [], u'time': []}, u'edge': {u'target': [], u'time': []}}}",,,"[1044, 488, 2]",19.0,,1046035,7.0,7.0,mouselab-mdp,,4
"[833, 9093, 10241]","[u'down', u'down', u'left']",,,"[5, 0, 0]","[1, 5, 9, 16]","{u'mouseover': {u'state': {u'target': [], u'time': []}, u'edge': {u'target': [], u'time': []}}, u'click': {u'state': {u'target': [], u'time': []}, u'edge': {u'target': [], u'time': []}}, u'mouseout': {u'state': {u'target': [], u'time': []}, u'edge': {u'target': [], u'time': []}}}",,,"[831, 451, 3]",18.0,,1101818,8.0,11.0,mouselab-mdp,,4
"[727, 9230, 10381]","[u'up', u'up', u'right']",,,"[5, 0, 0]","[1, 3, 7, 13]","{u'mouseover': {u'state': {u'target': [], u'time': []}, u'edge': {u'target': [], u'time': []}}, u'click': {u'state': {u'target': [], u'time': []}, u'edge': {u'target': [], u'time': []}}, u'mouseout': {u'state': {u'target': [], u'time': []}, u'edge': {u'target': [], u'time': []}}}",,,"[727, 681, 2]",13.0,,1157918,9.0,4.0,mouselab-mdp,,4
"[921, 9101, 10316]","[u'right', u'right', u'down']",,,"[5, 0, 0]","[1, 2, 6, 11]","{u'mouseover': {u'state': {u'target': [], u'time': []}, u'edge': {u'target': [], u'time': []}}, u'click': {u'state': {u'target': [], u'time': []}, u'edge': {u'target': [], u'time': []}}, u'mouseout': {u'state': {u'target': [], u'time': []}, u'edge': {u'target': [], u'time': []}}}",,,"[921, 381, 5]",-2.0,,1212956,10.0,0.0,mouselab-mdp,,4
"[489, 9669, 11063]","[u'left', u'left', u'down']",,,"[5, 0, 0]","[1, 4, 8, 15]","{u'mouseover': {u'state': {u'target': [], u'time': []}, u'edge': {u'target': [], u'time': []}}, u'click': {u'state': {u'target': [], u'time': []}, u'edge': {u'target': [], u'time': []}}, u'mouseout': {u'state': {u'target': [], u'time': []}, u'edge': {u'target': [], u'time': []}}}",,,"[489, 625, 3]",4.0,,1272789,11.0,5.0,mouselab-mdp,,4
"[788, 9212, 10385]","[u'down', u'down', u'left']",,,"[5, 0, 0]","[1, 5, 9, 16]","{u'mouseover': {u'state': {u'target': [], u'time': []}, u'edge': {u'target': [], u'time': []}}, u'click': {u'state': {u'target': [], u'time': []}, u'edge': {u'target': [], u'time': []}}, u'mouseout': {u'state': {u'target': [], u'time': []}, u'edge': {u'target': [], u'time': []}}}",,,"[788, 398, 3]",6.0,,1327963,12.0,3.0,mouselab-mdp,,4
"[8658, 44756, 48169]","[u'right', u'right', u'up']",,,"[29, 0, 19]","[1, 2, 6, 10]","{u'mouseover': {u'state': {u'target': [], u'time': []}, u'edge': {u'target': [], u'time': []}}, u'click': {u'state': {u'target': [], u'time': []}, u'edge': {u'target': [], u'time': []}}, u'mouseout': {u'state': {u'target': [], u'time': []}, u'edge': {u'target': [], u'time': []}}}",,,"[8654, 3658, 2394]",12.0,,176153,1.0,6.0,mouselab-mdp,,5
"[4026, 39489, 46730]","[u'down', u'down', u'right']",,,"[29, 0, 19]","[1, 5, 9, 17]","{u'mouseover': {u'state': {u'target': [], u'time': []}, u'edge': {u'target': [], u'time': []}}, u'click': {u'state': {u'target': [], u'time': []}, u'edge': {u'target': [], u'time': []}}, u'mouseout': {u'state': {u'target': [], u'time': []}, u'edge': {u'target': [], u'time': []}}}",,,"[4024, 3638, 5848]",4.0,,283591,2.0,2.0,mouselab-mdp,,5
"[4076, 38320, 43931]","[u'up', u'up', u'left']",,,"[29, 0, 19]","[1, 3, 7, 12]","{u'mouseover': {u'state': {u'target': [], u'time': []}, u'edge': {u'target': [], u'time': []}}, u'click': {u'state': {u'target': [], u'time': []}, u'edge': {u'target': [], u'time': []}}, u'mouseout': {u'state': {u'target': [], u'time': []}, u'edge': {u'target': [], u'time': []}}}",,,"[4075, 2428, 4095]",23.0,,412221,3.0,4.0,mouselab-mdp,,5
"[3694, 47447, 59333]","[u'right', u'right', u'up']",,,"[29, 0, 19]","[1, 2, 6, 10]","{u'mouseover': {u'state': {u'target': [], u'time': []}, u'edge': {u'target': [], u'time': []}}, u'click': {u'state': {u'target': [], u'time': []}, u'edge': {u'target': [], u'time': []}}, u'mouseout': {u'state': {u'target': [], u'time': []}, u'edge': {u'target': [], u'time': []}}}",,,"[3694, 12652, 10681]",24.0,,513902,4.0,11.0,mouselab-mdp,,5
"[6737, 40110, 47271]","[u'right', u'right', u'up']",,,"[29, 0, 19]","[1, 2, 6, 10]","{u'mouseover': {u'state': {u'target': [], u'time': []}, u'edge': {u'target': [], u'time': []}}, u'click': {u'state': {u'target': [], u'time': []}, u'edge': {u'target': [], u'time': []}}, u'mouseout': {u'state': {u'target': [], u'time': []}, u'edge': {u'target': [], u'time': []}}}",,,"[6737, 1544, 5814]",22.0,,613791,5.0,10.0,mouselab-mdp,,5
"[2280, 36155, 66708]","[u'right', u'right', u'up']",,,"[29, 0, 19]","[1, 2, 6, 10]","{u'mouseover': {u'state': {u'target': [], u'time': []}, u'edge': {u'target': [], u'time': []}}, u'click': {u'state': {u'target': [], u'time': []}, u'edge': {u'target': [], u'time': []}}, u'mouseout': {u'state': {u'target': [], u'time': []}, u'edge': {u'target': [], u'time': []}}}",,,"[2280, 2031, 29316]",8.0,,713074,6.0,7.0,mouselab-mdp,,5
"[1245, 72284, 74772]","[u'right', u'right', u'up']",,,"[29, 0, 19]","[1, 2, 6, 10]","{u'mouseover': {u'state': {u'target': [], u'time': []}, u'edge': {u'target': [], u'time': []}}, u'click': {u'state': {u'target': [], u'time': []}, u'edge': {u'target': [], u'time': []}}, u'mouseout': {u'state': {u'target': [], u'time': []}, u'edge': {u'target': [], u'time': []}}}",,,"[1245, 39676, 1374]",8.0,,821605,7.0,0.0,mouselab-mdp,,5
"[2752, 40162, 58801]","[u'up', u'up', u'right']",,,"[29, 0, 19]","[1, 3, 7, 13]","{u'mouseover': {u'state': {u'target': [], u'time': []}, u'edge': {u'target': [], u'time': []}}, u'click': {u'state': {u'target': [], u'time': []}, u'edge': {u'target': [], u'time': []}}, u'mouseout': {u'state': {u'target': [], u'time': []}, u'edge': {u'target': [], u'time': []}}}",,,"[2752, 6136, 17495]",21.0,,922660,8.0,1.0,mouselab-mdp,,5
"[3311, 45108, 49578]","[u'up', u'up', u'left']",,,"[29, 0, 19]","[1, 3, 7, 12]","{u'mouseover': {u'state': {u'target': [], u'time': []}, u'edge': {u'target': [], u'time': []}}, u'click': {u'state': {u'target': [u'5'], u'time': [131733]}, u'edge': {u'target': [], u'time': []}}, u'mouseout': {u'state': {u'target': [], u'time': []}, u'edge': {u'target': [], u'time': []}}}",,,"[3311, 10198, 3398]",-1.01,,1057152,9.0,3.0,mouselab-mdp,,5
"[6648, 43794, 47640]","[u'up', u'up', u'right']",,,"[23, 0, 19]","[1, 3, 7, 13]","{u'mouseover': {u'state': {u'target': [], u'time': []}, u'edge': {u'target': [], u'time': []}}, u'click': {u'state': {u'target': [u'2'], u'time': [43588]}, u'edge': {u'target': [], u'time': []}}, u'mouseout': {u'state': {u'target': [], u'time': []}, u'edge': {u'target': [], u'time': []}}}",,,"[6647, 10307, 2252]",30.99,,1150240,10.0,9.0,mouselab-mdp,,5
"[4292, 37745, 94378]","[u'left', u'left', u'down']",,,"[29, 0, 19]","[1, 4, 8, 15]","{u'mouseover': {u'state': {u'target': [], u'time': []}, u'edge': {u'target': [], u'time': []}}, u'click': {u'state': {u'target': [], u'time': []}, u'edge': {u'target': [], u'time': []}}, u'mouseout': {u'state': {u'target': [], u'time': []}, u'edge': {u'target': [], u'time': []}}}",,,"[4291, 1514, 55572]",32.0,,1269886,11.0,8.0,mouselab-mdp,,5
"[1572, 53432, 57017]","[u'down', u'down', u'left']",,,"[29, 0, 19]","[1, 5, 9, 16]","{u'mouseover': {u'state': {u'target': [], u'time': []}, u'edge': {u'target': [], u'time': []}}, u'click': {u'state': {u'target': [], u'time': []}, u'edge': {u'target': [], u'time': []}}, u'mouseout': {u'state': {u'target': [], u'time': []}, u'edge': {u'target': [], u'time': []}}}",,,"[1572, 20393, 2027]",16.0,,1373180,12.0,5.0,mouselab-mdp,,5
"[16796, 30433, 33192]","[u'up', u'up', u'left']",,,"[2, 0, 0]","[1, 3, 7, 12]","{u'mouseover': {u'state': {u'target': [], u'time': []}, u'edge': {u'target': [], u'time': []}}, u'click': {u'state': {u'target': [u'12', u'13', u'3', u'10', u'11', u'2', u'14', u'15', u'16'], u'time': [1714, 2543, 4390, 5920, 6804, 7846, 9815, 12396, 12421]}, u'edge': {u'target': [], u'time': []}}, u'mouseout': {u'state': {u'target': [], u'time': []}, u'edge': {u'target': [], u'time': []}}}",,,"[16796, 2774, 1570]",36.91,,234245,1.0,9.0,mouselab-mdp,,6
"[28204, 42269, 45057]","[u'right', u'right', u'up']",,,"[2, 0, 0]","[1, 2, 6, 10]","{u'mouseover': {u'state': {u'target': [], u'time': []}, u'edge': {u'target': [], u'time': []}}, u'click': {u'state': {u'target': [u'12', u'13', u'11', u'10', u'16', u'17', u'14', u'2', u'6'], u'time': [6312, 9366, 12363, 14388, 18292, 19790, 21411, 24815, 26617]}, u'edge': {u'target': [], u'time': []}}, u'mouseout': {u'state': {u'target': [], u'time': []}, u'edge': {u'target': [], u'time': []}}}",,,"[28204, 2271, 575]",33.91,,315739,2.0,3.0,mouselab-mdp,,6
"[31777, 44510, 45486]","[u'right', u'right', u'up']",,,"[3, 0, 0]","[1, 2, 6, 10]","{u'mouseover': {u'state': {u'target': [], u'time': []}, u'edge': {u'target': [], u'time': []}}, u'click': {u'state': {u'target': [u'12', u'13', u'10', u'11', u'17', u'16', u'15', u'14', u'8', u'4', u'2', u'6'], u'time': [1026, 1954, 3078, 3829, 6519, 6532, 9612, 10977, 14248, 17432, 18209, 18909]}, u'edge': {u'target': [], u'time': []}}, u'mouseout': {u'state': {u'target': [], u'time': []}, u'edge': {u'target': [], u'time': []}}}",,,"[31776, 1177, 184]",21.88,,390094,3.0,10.0,mouselab-mdp,,6
"[27838, 36645, 40852]","[u'right', u'right', u'up']",,,"[0, 0, 0]","[1, 2, 6, 10]","{u'mouseover': {u'state': {u'target': [], u'time': []}, u'edge': {u'target': [], u'time': []}}, u'click': {u'state': {u'target': [u'12', u'13', u'10', u'11', u'17', u'16', u'14', u'15', u'2', u'6', u'9', u'5', u'3', u'7', u'4'], u'time': [1800, 2523, 5262, 5278, 5350, 6917, 8074, 9227, 10143, 13656, 14289, 15023, 17098, 20541, 25475]}, u'edge': {u'target': [], u'time': []}}, u'mouseout': {u'state': {u'target': [], u'time': []}, u'edge': {u'target': [], u'time': []}}}",,,"[27838, 6, 1262]",33.85,,468744,4.0,2.0,mouselab-mdp,,6
"[29862, 39761, 48448]","[u'down', u'down', u'right']",,,"[0, 0, 0]","[1, 5, 9, 17]","{u'mouseover': {u'state': {u'target': [], u'time': []}, u'edge': {u'target': [], u'time': []}}, u'click': {u'state': {u'target': [u'10', u'11', u'12', u'13', u'3', u'7', u'14', u'15', u'4', u'8', u'16', u'17', u'5', u'9'], u'time': [2661, 5270, 7214, 8022, 8955, 9650, 10913, 11939, 13630, 15582, 17549, 18155, 19714, 22931]}, u'edge': {u'target': [], u'time': []}}, u'mouseout': {u'state': {u'target': [], u'time': []}, u'edge': {u'target': [], u'time': []}}}",,,"[29862, 7, 6396]",33.86,,541188,5.0,7.0,mouselab-mdp,,6
"[24266, 32234, 33171]","[u'left', u'left', u'up']",,,"[0, 0, 0]","[1, 4, 8, 14]","{u'mouseover': {u'state': {u'target': [], u'time': []}, u'edge': {u'target': [], u'time': []}}, u'click': {u'state': {u'target': [u'12', u'15', u'16', u'5', u'9', u'17', u'11', u'10', u'13', u'6', u'2', u'3', u'7', u'4', u'8', u'14'], u'time': [1356, 2379, 4026, 6145, 6873, 7877, 9178, 11946, 13373, 15388, 16932, 18495, 19367, 21370, 22182, 22755]}, u'edge': {u'target': [], u'time': []}}, u'mouseout': {u'state': {u'target': [], u'time': []}, u'edge': {u'target': [], u'time': []}}}",,,"[24266, 7, 423]",33.84,,627451,6.0,5.0,mouselab-mdp,,6
"[19284, 29402, 30786]","[u'right', u'right', u'down']",,,"[0, 0, 0]","[1, 2, 6, 11]","{u'mouseover': {u'state': {u'target': [], u'time': []}, u'edge': {u'target': [], u'time': []}}, u'click': {u'state': {u'target': [u'3', u'2', u'6', u'10', u'11', u'7', u'12', u'13', u'5', u'4', u'16', u'9', u'17', u'14', u'8', u'15'], u'time': [None, 710, 1975, 2589, 3306, 4921, 5819, 7800, 7811, 8510, 10326, 10879, 11545, 12509, 12942, 13733]}, u'edge': {u'target': [], u'time': []}}, u'mouseout': {u'state': {u'target': [], u'time': []}, u'edge': {u'target': [], u'time': []}}}",,,"[19284, 15, 655]",37.84,,705309,7.0,11.0,mouselab-mdp,,6
"[25219, 33861, 34857]","[u'right', u'right', u'down']",,,"[0, 0, 0]","[1, 2, 6, 11]","{u'mouseover': {u'state': {u'target': [], u'time': []}, u'edge': {u'target': [], u'time': []}}, u'click': {u'state': {u'target': [u'12', u'7', u'11', u'2', u'6', u'10', u'8', u'5', u'4', u'3', u'16', u'9', u'17'], u'time': [2663, 3530, 6097, 6119, 6880, 7875, 9153, 11091, 13982, 14664, 15637, 16866, 18551]}, u'edge': {u'target': [], u'time': []}}, u'mouseout': {u'state': {u'target': [], u'time': []}, u'edge': {u'target': [], u'time': []}}}",,,"[25219, 58, 4]",37.87,,779557,8.0,6.0,mouselab-mdp,,6
"[20018, 28028, 31823]","[u'left', u'left', u'up']",,,"[0, 0, 0]","[1, 4, 8, 14]","{u'mouseover': {u'state': {u'target': [], u'time': []}, u'edge': {u'target': [], u'time': []}}, u'click': {u'state': {u'target': [u'12', u'7', u'3', u'2', u'13', u'6', u'5', u'4', u'9', u'16', u'17', u'8', u'14', u'15'], u'time': [2315, 2787, 4595, 4658, 5558, 6336, 8213, 8794, 9652, 10398, 11163, 12356, 13228, 14137]}, u'edge': {u'target': [], u'time': []}}, u'mouseout': {u'state': {u'target': [], u'time': []}, u'edge': {u'target': [], u'time': []}}}",,,"[20018, 54, 1349]",39.86,,845757,9.0,0.0,mouselab-mdp,,6
"[30384, 38442, 43049]","[u'down', u'down', u'right']",,,"[0, 0, 0]","[1, 5, 9, 17]","{u'mouseover': {u'state': {u'target': [], u'time': []}, u'edge': {u'target': [], u'time': []}}, u'click': {u'state': {u'target': [u'4', u'3', u'5', u'2', u'8', u'14', u'15', u'9', u'16', u'17', u'6', u'10', u'11', u'7', u'13', u'12'], u'time': [1437, 4346, 8208, 10838, 11996, 12846, 13591, 15742, 16360, 17143, 20421, 23199, 23210, 25456, 26251, 28062]}, u'edge': {u'target': [], u'time': []}}, u'mouseout': {u'state': {u'target': [], u'time': []}, u'edge': {u'target': [], u'time': []}}}",,,"[30384, 53, 2124]",41.84,,928336,10.0,4.0,mouselab-mdp,,6
"[19301, 27596, 29814]","[u'down', u'down', u'left']",,,"[0, 0, 0]","[1, 5, 9, 16]","{u'mouseover': {u'state': {u'target': [], u'time': []}, u'edge': {u'target': [], u'time': []}}, u'click': {u'state': {u'target': [u'3', u'2', u'4', u'5', u'12', u'7', u'13', u'9', u'16', u'17', u'8', u'14', u'15'], u'time': [1447, 1912, 4207, 4223, 5942, 6538, 8419, 9702, 11354, 12600, 16144, 16726, 17448]}, u'edge': {u'target': [], u'time': []}}, u'mouseout': {u'state': {u'target': [], u'time': []}, u'edge': {u'target': [], u'time': []}}}",,,"[19301, 109, 941]",45.87,,995698,11.0,1.0,mouselab-mdp,,6
"[22737, 30653, 34288]","[u'up', u'up', u'left']",,,"[0, 0, 0]","[1, 3, 7, 12]","{u'mouseover': {u'state': {u'target': [], u'time': []}, u'edge': {u'target': [], u'time': []}}, u'click': {u'state': {u'target': [u'4', u'3', u'2', u'5', u'16', u'9', u'17', u'6', u'10', u'11', u'7', u'13', u'12', u'8', u'14', u'15', u'1'], u'time': [1411, 2855, 3282, 4356, 6577, 8066, 8585, 10186, 10731, 11504, 12675, 13209, 13938, 15870, 17755, 18463, 32666]}, u'edge': {u'target': [], u'time': []}}, u'mouseout': {u'state': {u'target': [], u'time': []}, u'edge': {u'target': [], u'time': []}}}",,,"[22737, 10, 498]",40.83,,1069078,12.0,8.0,mouselab-mdp,,6
"[2894, 8859, 11658]","[u'up', u'up', u'left']",,,"[0, 0, 3]","[1, 3, 7, 12]","{u'mouseover': {u'state': {u'target': [], u'time': []}, u'edge': {u'target': [], u'time': []}}, u'click': {u'state': {u'target': [u'2'], u'time': [11189]}, u'edge': {u'target': [], u'time': []}}, u'mouseout': {u'state': {u'target': [], u'time': []}, u'edge': {u'target': [], u'time': []}}}",,,"[2894, 3172, 1806]",0.2,,243920,1.0,10.0,mouselab-mdp,,7
"[1246, 8064, 16558]","[u'up', u'up', u'right']",,,"[0, 0, 3]","[1, 3, 7, 13]","{u'mouseover': {u'state': {u'target': [], u'time': []}, u'edge': {u'target': [], u'time': []}}, u'click': {u'state': {u'target': [u'5'], u'time': [16439]}, u'edge': {u'target': [], u'time': []}}, u'mouseout': {u'state': {u'target': [], u'time': []}, u'edge': {u'target': [], u'time': []}}}",,,"[1246, 4377, 7071]",2.2,,317961,2.0,3.0,mouselab-mdp,,7
"[5026, 11701, 24437]","[u'up', u'up', u'left']",,,"[0, 0, 0]","[1, 3, 7, 12]","{u'mouseover': {u'state': {u'target': [], u'time': []}, u'edge': {u'target': [], u'time': []}}, u'click': {u'state': {u'target': [], u'time': []}, u'edge': {u'target': [], u'time': []}}, u'mouseout': {u'state': {u'target': [], u'time': []}, u'edge': {u'target': [], u'time': []}}}",,,"[5026, 3590, 11850]",21.0,,370587,3.0,1.0,mouselab-mdp,,7
"[881, 7327, 9505]","[u'up', u'up', u'right']",,,"[0, 0, 0]","[1, 3, 7, 13]","{u'mouseover': {u'state': {u'target': [], u'time': []}, u'edge': {u'target': [], u'time': []}}, u'click': {u'state': {u'target': [], u'time': []}, u'edge': {u'target': [], u'time': []}}, u'mouseout': {u'state': {u'target': [], u'time': []}, u'edge': {u'target': [], u'time': []}}}",,,"[881, 3646, 969]",13.0,,422304,4.0,4.0,mouselab-mdp,,7
"[1391, 7504, 18572]","[u'down', u'down', u'right']",,,"[0, 0, 0]","[1, 5, 9, 17]","{u'mouseover': {u'state': {u'target': [], u'time': []}, u'edge': {u'target': [], u'time': []}}, u'click': {u'state': {u'target': [], u'time': []}, u'edge': {u'target': [], u'time': []}}, u'mouseout': {u'state': {u'target': [], u'time': []}, u'edge': {u'target': [], u'time': []}}}",,,"[1391, 3068, 9701]",8.0,,480557,5.0,6.0,mouselab-mdp,,7
"[2762, 15018, 25616]","[u'down', u'down', u'right']",,,"[0, 0, 0]","[1, 5, 9, 17]","{u'mouseover': {u'state': {u'target': [], u'time': []}, u'edge': {u'target': [], u'time': []}}, u'click': {u'state': {u'target': [], u'time': []}, u'edge': {u'target': [], u'time': []}}, u'mouseout': {u'state': {u'target': [], u'time': []}, u'edge': {u'target': [], u'time': []}}}",,,"[2762, 9304, 9077]",4.0,,530432,6.0,2.0,mouselab-mdp,,7
"[1843, 10541, 13596]","[u'down', u'down', u'right']",,,"[0, 0, 0]","[1, 5, 9, 17]","{u'mouseover': {u'state': {u'target': [], u'time': []}, u'edge': {u'target': [], u'time': []}}, u'click': {u'state': {u'target': [], u'time': []}, u'edge': {u'target': [], u'time': []}}, u'mouseout': {u'state': {u'target': [], u'time': []}, u'edge': {u'target': [], u'time': []}}}",,,"[1843, 5562, 1815]",18.0,,583978,7.0,11.0,mouselab-mdp,,7
"[16311, 21551, 26215]","[u'down', u'down', u'right']",,,"[0, 0, 0]","[1, 5, 9, 17]","{u'mouseover': {u'state': {u'target': [], u'time': []}, u'edge': {u'target': [], u'time': []}}, u'click': {u'state': {u'target': [], u'time': []}, u'edge': {u'target': [], u'time': []}}, u'mouseout': {u'state': {u'target': [], u'time': []}, u'edge': {u'target': [], u'time': []}}}",,,"[16311, 2086, 3740]",6.0,,650209,8.0,9.0,mouselab-mdp,,7
"[8191, 37243, 39081]","[u'down', u'down', u'right']",,,"[0, 0, 0]","[1, 5, 9, 17]","{u'mouseover': {u'state': {u'target': [], u'time': []}, u'edge': {u'target': [], u'time': []}}, u'click': {u'state': {u'target': [u'6'], u'time': [49073]}, u'edge': {u'target': [], u'time': []}}, u'mouseout': {u'state': {u'target': [], u'time': []}, u'edge': {u'target': [], u'time': []}}}",,,"[8191, 24967, 440]",31.2,,704349,9.0,7.0,mouselab-mdp,,7
"[2367, 26768, 29248]","[u'down', u'down', u'right']",,,"[12, 0, 0]","[1, 5, 9, 17]","{u'mouseover': {u'state': {u'target': [], u'time': []}, u'edge': {u'target': [], u'time': []}}, u'click': {u'state': {u'target': [], u'time': []}, u'edge': {u'target': [], u'time': []}}, u'mouseout': {u'state': {u'target': [], u'time': []}, u'edge': {u'target': [], u'time': []}}}",,,"[2367, 7847, 930]",10.0,,840485,10.0,0.0,mouselab-mdp,,7
"[1137, 10218, 14002]","[u'up', u'up', u'right']",,,"[0, 0, 3]","[1, 3, 7, 13]","{u'mouseover': {u'state': {u'target': [], u'time': []}, u'edge': {u'target': [], u'time': []}}, u'click': {u'state': {u'target': [u'11', u'4'], u'time': [13738, 89756]}, u'edge': {u'target': [], u'time': []}}, u'mouseout': {u'state': {u'target': [], u'time': []}, u'edge': {u'target': [], u'time': []}}}",,,"[1137, 6299, 2536]",29.4,,932642,11.0,8.0,mouselab-mdp,,7
"[1156, 17318, 26156]","[u'up', u'up', u'right']",,,"[10, 0, 0]","[1, 3, 7, 13]","{u'mouseover': {u'state': {u'target': [], u'time': []}, u'edge': {u'target': [], u'time': []}}, u'click': {u'state': {u'target': [], u'time': []}, u'edge': {u'target': [], u'time': []}}, u'mouseout': {u'state': {u'target': [], u'time': []}, u'edge': {u'target': [], u'time': []}}}",,,"[1156, 2439, 7094]",1.0,,1003697,12.0,5.0,mouselab-mdp,,7
"[6058, 9436, 11032]","[u'right', u'right', u'up']",,,"[0, 0, 0]","[1, 2, 6, 10]","{u'mouseover': {u'state': {u'target': [], u'time': []}, u'edge': {u'target': [], u'time': []}}, u'click': {u'state': {u'target': [u'6'], u'time': [4286]}, u'edge': {u'target': [], u'time': []}}, u'mouseout': {u'state': {u'target': [], u'time': []}, u'edge': {u'target': [], u'time': []}}}",,,"[6056, 6, 473]",10.4,,328787,1.0,6.0,mouselab-mdp,,8
"[9889, 14270, 16458]","[u'right', u'right', u'down']",,,"[0, 0, 0]","[1, 2, 6, 11]","{u'mouseover': {u'state': {u'target': [], u'time': []}, u'edge': {u'target': [], u'time': []}}, u'click': {u'state': {u'target': [u'7', u'9', u'6', u'8'], u'time': [4841, 6016, 6758, 7735]}, u'edge': {u'target': [], u'time': []}}, u'mouseout': {u'state': {u'target': [], u'time': []}, u'edge': {u'target': [], u'time': []}}}",,,"[9889, 5, 1068]",9.6,,611057,2.0,9.0,mouselab-mdp,,8
"[9242, 14335, 15526]","[u'right', u'right', u'up']",,,"[0, 0, 0]","[1, 2, 6, 10]","{u'mouseover': {u'state': {u'target': [], u'time': []}, u'edge': {u'target': [], u'time': []}}, u'click': {u'state': {u'target': [u'8', u'6', u'11', u'7', u'9'], u'time': [1006, 2108, 4418, 6121, 7626]}, u'edge': {u'target': [], u'time': []}}, u'mouseout': {u'state': {u'target': [], u'time': []}, u'edge': {u'target': [], u'time': []}}}",,,"[9242, 6, 5]",-2.0,,697650,3.0,5.0,mouselab-mdp,,8
"[8197, 16652, 17806]","[u'right', u'right', u'up']",,,"[2, 0, 0]","[1, 2, 6, 10]","{u'mouseover': {u'state': {u'target': [], u'time': []}, u'edge': {u'target': [], u'time': []}}, u'click': {u'state': {u'target': [u'9', u'8', u'7', u'6', u'11'], u'time': [2445, 3719, 4626, 5479, 6610]}, u'edge': {u'target': [], u'time': []}}, u'mouseout': {u'state': {u'target': [], u'time': []}, u'edge': {u'target': [], u'time': []}}}",,,"[8196, 1668, 3]",0.0,,753082,4.0,0.0,mouselab-mdp,,8
"[6509, 12622, 13989]","[u'up', u'up', u'left']",,,"[1, 0, 0]","[1, 3, 7, 12]","{u'mouseover': {u'state': {u'target': [], u'time': []}, u'edge': {u'target': [], u'time': []}}, u'click': {u'state': {u'target': [u'8', u'9', u'6', u'7', u'13'], u'time': [958, 1797, 2588, 3414, 4683]}, u'edge': {u'target': [], u'time': []}}, u'mouseout': {u'state': {u'target': [], u'time': []}, u'edge': {u'target': [], u'time': []}}}",,,"[6509, 383, 268]",-5.0,,836027,5.0,10.0,mouselab-mdp,,8
"[21858, 43511, 44984]","[u'up', u'up', u'left']",,,"[14, 0, 0]","[1, 3, 7, 12]","{u'mouseover': {u'state': {u'target': [], u'time': []}, u'edge': {u'target': [], u'time': []}}, u'click': {u'state': {u'target': [u'6', u'10', u'11', u'2', u'8', u'14', u'15', u'4', u'12', u'13', u'7', u'3', u'5', u'9', u'17', u'16'], u'time': [1890, 3208, 4055, 7492, 9050, 10002, 10482, 12120, 12774, 13420, 13716, 14060, 15157, 15503, 15767, 16346]}, u'edge': {u'target': [], u'time': []}}, u'mouseout': {u'state': {u'target': [], u'time': []}, u'edge': {u'target': [], u'time': []}}}",,,"[21858, 2202, 975]",15.4,,914435,6.0,8.0,mouselab-mdp,,8
"[9093, 15300, 16740]","[u'down', u'down', u'right']",,,"[1, 0, 0]","[1, 5, 9, 17]","{u'mouseover': {u'state': {u'target': [], u'time': []}, u'edge': {u'target': [], u'time': []}}, u'click': {u'state': {u'target': [u'7', u'8', u'6', u'9', u'16', u'17', u'5'], u'time': [937, 2366, 3268, 4686, 5323, 5715, 6495]}, u'edge': {u'target': [], u'time': []}}, u'mouseout': {u'state': {u'target': [], u'time': []}, u'edge': {u'target': [], u'time': []}}}",,,"[9093, 48, 460]",22.8,,1046156,7.0,7.0,mouselab-mdp,,8
"[7605, 38734, 39777]","[u'down', u'down', u'right']",,,"[3, 0, 0]","[1, 5, 9, 17]","{u'mouseover': {u'state': {u'target': [], u'time': []}, u'edge': {u'target': [], u'time': []}}, u'click': {u'state': {u'target': [u'7', u'6', u'8', u'9', u'17', u'16', u'5'], u'time': [925, 1683, 2320, 2935, 3605, 4083, 4671]}, u'edge': {u'target': [], u'time': []}}, u'mouseout': {u'state': {u'target': [], u'time': []}, u'edge': {u'target': [], u'time': []}}}",,,"[7605, 23052, 3]",30.8,,1118538,8.0,4.0,mouselab-mdp,,8
"[14068, 29656, 30654]","[u'up', u'up', u'right']",,,"[4, 0, 0]","[1, 3, 7, 13]","{u'mouseover': {u'state': {u'target': [], u'time': []}, u'edge': {u'target': [], u'time': []}}, u'click': {u'state': {u'target': [u'7', u'13', u'12', u'3'], u'time': [8072, 9555, 10323, 11054]}, u'edge': {u'target': [], u'time': []}}, u'mouseout': {u'state': {u'target': [], u'time': []}, u'edge': {u'target': [], u'time': []}}}",,,"[14068, 7388, 3]",18.6,,1176331,9.0,11.0,mouselab-mdp,,8
"[13130, 44337, 44913]","[u'down', u'down', u'left']",,,"[19, 0, 0]","[1, 5, 9, 16]","{u'mouseover': {u'state': {u'target': [], u'time': []}, u'edge': {u'target': [], u'time': []}}, u'click': {u'state': {u'target': [u'7', u'13', u'12', u'3', u'6', u'10', u'11', u'2', u'8', u'4', u'14', u'15', u'9', u'5', u'17', u'16'], u'time': [858, 1990, 2558, 3123, 3704, 4155, 4824, 5633, 6705, 7268, 7737, 8483, 9163, 9616, 10048, 10771]}, u'edge': {u'target': [], u'time': []}}, u'mouseout': {u'state': {u'target': [], u'time': []}, u'edge': {u'target': [], u'time': []}}}",,,"[13130, 6715, 72]",20.4,,1275099,10.0,1.0,mouselab-mdp,,8
"[18088, 27665, 28492]","[u'right', u'right', u'up']",,,"[3, 0, 0]","[1, 2, 6, 10]","{u'mouseover': {u'state': {u'target': [], u'time': []}, u'edge': {u'target': [], u'time': []}}, u'click': {u'state': {u'target': [u'7', u'6', u'9', u'8', u'14', u'15', u'4', u'2', u'10', u'11'], u'time': [7985, 8663, 9667, 10268, 11021, 11517, 11926, 13685, 14752, 15247]}, u'edge': {u'target': [], u'time': []}}, u'mouseout': {u'state': {u'target': [], u'time': []}, u'edge': {u'target': [], u'time': []}}}",,,"[18088, 402, 3]",18.0,,1392075,11.0,3.0,mouselab-mdp,,8
"[12712, 42558, 43119]","[u'right', u'right', u'up']",,,"[24, 0, 0]","[1, 2, 6, 10]","{u'mouseover': {u'state': {u'target': [], u'time': []}, u'edge': {u'target': [], u'time': []}}, u'click': {u'state': {u'target': [u'7', u'8', u'12', u'13', u'3', u'4', u'14', u'15', u'2', u'10', u'6', u'11', u'17', u'9', u'16', u'5'], u'time': [516, 1233, 2073, 2600, 3175, 4190, 4811, 5302, 6053, 6800, 7092, 7486, 10530, 10808, 11101, 11421]}, u'edge': {u'target': [], u'time': []}}, u'mouseout': {u'state': {u'target': [], u'time': []}, u'edge': {u'target': [], u'time': []}}}",,,"[12711, 259, 57]",8.4,,1476867,12.0,2.0,mouselab-mdp,,8
"[14863, 44976, 49237]","[u'up', u'up', u'left']",,,"[24, 0, 0]","[1, 3, 7, 12]","{u'mouseover': {u'state': {u'target': [], u'time': []}, u'edge': {u'target': [], u'time': []}}, u'click': {u'state': {u'target': [u'3', u'7', u'13', u'12', u'10', u'11', u'14', u'15', u'16', u'17'], u'time': [2636, 4333, 4918, 5944, 7505, 8293, 9330, 10644, 11252, 11882]}, u'edge': {u'target': [], u'time': []}}, u'mouseout': {u'state': {u'target': [], u'time': []}, u'edge': {u'target': [], u'time': []}}}",,,"[14863, 2528, 3576]",25.0,,211750,1.0,8.0,mouselab-mdp,,9
"[11454, 16171, 21720]","[u'down', u'down', u'right']",,,"[0, 3, 0]","[1, 5, 9, 17]","{u'mouseover': {u'state': {u'target': [], u'time': []}, u'edge': {u'target': [], u'time': []}}, u'click': {u'state': {u'target': [u'3', u'12', u'13', u'5', u'17', u'16', u'1'], u'time': [2056, 3383, 4688, 8086, 9233, 14455, 54265]}, u'edge': {u'target': [], u'time': []}}, u'mouseout': {u'state': {u'target': [], u'time': []}, u'edge': {u'target': [], u'time': []}}}",,,"[11454, 1721, 1449]",30.8,,268147,2.0,4.0,mouselab-mdp,,9
"[8083, 20320, 37198]","[u'right', u'right', u'up']",,,"[3, 13, 0]","[1, 2, 6, 10]","{u'mouseover': {u'state': {u'target': [], u'time': []}, u'edge': {u'target': [], u'time': []}}, u'click': {u'state': {u'target': [u'15', u'14', u'11', u'2', u'6', u'13', u'12', u'3', u'10'], u'time': [1808, 2910, 4283, 5306, 5858, 16185, 17141, 17771, 18795]}, u'edge': {u'target': [], u'time': []}}, u'mouseout': {u'state': {u'target': [], u'time': []}, u'edge': {u'target': [], u'time': []}}}",,,"[8083, 6058, 2187]",19.6,,355161,3.0,2.0,mouselab-mdp,,9
"[7790, 14988, 28587]","[u'down', u'down', u'right']",,,"[0, 6, 0]","[1, 5, 9, 17]","{u'mouseover': {u'state': {u'target': [], u'time': []}, u'edge': {u'target': [], u'time': []}}, u'click': {u'state': {u'target': [u'13', u'12', u'5', u'17', u'16', u'9'], u'time': [2250, 3228, 5253, 5850, 12060, 13027]}, u'edge': {u'target': [], u'time': []}}, u'mouseout': {u'state': {u'target': [], u'time': []}, u'edge': {u'target': [], u'time': []}}}",,,"[7790, 4098, 6380]",8.4,,420636,4.0,11.0,mouselab-mdp,,9
"[10938, 21214, 27189]","[u'down', u'down', u'left']",,,"[4, 0, 0]","[1, 5, 9, 16]","{u'mouseover': {u'state': {u'target': [], u'time': []}, u'edge': {u'target': [], u'time': []}}, u'click': {u'state': {u'target': [u'4', u'14', u'15', u'2', u'11', u'13', u'12', u'17', u'16', u'9', u'5'], u'time': [935, 2543, 3275, 4220, 5029, 6065, 6773, 7516, 8103, 8820, 9262]}, u'edge': {u'target': [], u'time': []}}, u'mouseout': {u'state': {u'target': [], u'time': []}, u'edge': {u'target': [], u'time': []}}}",,,"[10937, 1520, 5233]",28.4,,484459,5.0,1.0,mouselab-mdp,,9
"[11635, 19335, 20789]","[u'up', u'up', u'left']",,,"[0, 0, 0]","[1, 3, 7, 12]","{u'mouseover': {u'state': {u'target': [], u'time': []}, u'edge': {u'target': [], u'time': []}}, u'click': {u'state': {u'target': [u'17', u'16', u'10', u'11', u'13', u'12', u'15', u'14', u'3'], u'time': [2246, 2898, 3707, 4529, 5183, 5799, 7082, 7791, 9502]}, u'edge': {u'target': [], u'time': []}}, u'mouseout': {u'state': {u'target': [], u'time': []}, u'edge': {u'target': [], u'time': []}}}",,,"[11635, 3949, 764]",22.6,,536253,6.0,9.0,mouselab-mdp,,9
"[16048, 22764, 24066]","[u'left', u'left', u'up']",,,"[0, 0, 0]","[1, 4, 8, 14]","{u'mouseover': {u'state': {u'target': [], u'time': []}, u'edge': {u'target': [], u'time': []}}, u'click': {u'state': {u'target': [u'11', u'10', u'13', u'12', u'17', u'16', u'15', u'14', u'8', u'4'], u'time': [7547, 8233, 9101, 9696, 10427, 11158, 11744, 12339, 13421, 13869]}, u'edge': {u'target': [], u'time': []}}, u'mouseout': {u'state': {u'target': [], u'time': []}, u'edge': {u'target': [], u'time': []}}}",,,"[16048, 2222, 593]",18.0,,606396,7.0,5.0,mouselab-mdp,,9
"[20864, 58838, 60748]","[u'down', u'down', u'left']",,,"[27, 0, 0]","[1, 5, 9, 16]","{u'mouseover': {u'state': {u'target': [], u'time': []}, u'edge': {u'target': [], u'time': []}}, u'click': {u'state': {u'target': [u'17', u'5', u'9', u'14', u'15', u'16', u'4', u'12', u'13', u'11', u'10', u'7', u'3', u'8'], u'time': [3001, 3788, 4195, 5722, 6563, 7219, 9671, 10864, 11584, 12439, 13023, 14396, 14847, 17479]}, u'edge': {u'target': [], u'time': []}}, u'mouseout': {u'state': {u'target': [], u'time': []}, u'edge': {u'target': [], u'time': []}}}",,,"[20864, 6574, 1340]",11.6,,696395,8.0,7.0,mouselab-mdp,,9
"[9210, 17142, 26731]","[u'right', u'right', u'down']",,,"[0, 0, 0]","[1, 2, 6, 11]","{u'mouseover': {u'state': {u'target': [], u'time': []}, u'edge': {u'target': [], u'time': []}}, u'click': {u'state': {u'target': [u'17', u'16', u'14', u'15', u'12', u'13', u'10', u'11', u'2', u'6'], u'time': [1244, 2450, 3223, 4146, 4877, 5338, 5934, 6643, 8343, 8713]}, u'edge': {u'target': [], u'time': []}}, u'mouseout': {u'state': {u'target': [], u'time': []}, u'edge': {u'target': [], u'time': []}}}",,,"[9209, 3703, 8890]",22.0,,750471,9.0,6.0,mouselab-mdp,,9
"[19649, 29164, 31859]","[u'right', u'right', u'up']",,,"[0, 0, 0]","[1, 2, 6, 10]","{u'mouseover': {u'state': {u'target': [], u'time': []}, u'edge': {u'target': [], u'time': []}}, u'click': {u'state': {u'target': [u'10', u'11', u'12', u'17', u'14', u'13', u'15', u'8', u'4', u'6', u'2', u'16'], u'time': [2247, 3541, 4249, 5319, 6105, 6837, 7658, 8344, 8918, 11291, 11753, 16624]}, u'edge': {u'target': [], u'time': []}}, u'mouseout': {u'state': {u'target': [], u'time': []}, u'edge': {u'target': [], u'time': []}}}",,,"[19649, 5153, 2070]",2.8,,806369,10.0,10.0,mouselab-mdp,,9
"[15668, 44313, 50742]","[u'right', u'right', u'up']",,,"[0, 0, 0]","[1, 2, 6, 10]","{u'mouseover': {u'state': {u'target': [], u'time': []}, u'edge': {u'target': [], u'time': []}}, u'click': {u'state': {u'target': [u'16', u'17', u'12', u'13', u'11', u'10', u'14', u'15', u'8', u'4', u'2', u'6'], u'time': [6244, 6796, 7709, 8788, 9486, 10103, 10980, 11577, 12781, 13253, 14403, 14941]}, u'edge': {u'target': [], u'time': []}}, u'mouseout': {u'state': {u'target': [], u'time': []}, u'edge': {u'target': [], u'time': []}}}",,,"[15667, 23855, 5785]",14.8,,883544,11.0,3.0,mouselab-mdp,,9
"[19227, 27462, 29020]","[u'left', u'left', u'up']",,,"[0, 0, 0]","[1, 4, 8, 14]","{u'mouseover': {u'state': {u'target': [], u'time': []}, u'edge': {u'target': [], u'time': []}}, u'click': {u'state': {u'target': [u'2', u'5', u'4', u'3', u'16', u'17', u'13', u'12', u'14'], u'time': [9151, 9994, 10950, 11547, 12728, 13291, 15079, 15788, 17848]}, u'edge': {u'target': [], u'time': []}}, u'mouseout': {u'state': {u'target': [], u'time': []}, u'edge': {u'target': [], u'time': []}}}",,,"[19227, 3536, 701]",25.6,,943076,12.0,0.0,mouselab-mdp,,9
"[2133, 49997, 54677]","[u'right', u'right', u'up']",,,"[29, 0, 19]","[1, 2, 6, 10]","{u'mouseover': {u'state': {u'target': [], u'time': []}, u'edge': {u'target': [], u'time': []}}, u'click': {u'state': {u'target': [u'6', u'10'], u'time': [51615, 79131]}, u'edge': {u'target': [], u'time': []}}, u'mouseout': {u'state': {u'target': [], u'time': []}, u'edge': {u'target': [], u'time': []}}}",,,"[2133, 17447, 3946]",7.98,,964490,1.0,7.0,mouselab-mdp,,11
"[4673, 27902, 31302]","[u'up', u'up', u'left']",,,"[19, 0, 19]","[1, 3, 7, 12]","{u'mouseover': {u'state': {u'target': [], u'time': []}, u'edge': {u'target': [], u'time': []}}, u'click': {u'state': {u'target': [u'12', u'7', u'3'], u'time': [61645, 67541, 71774]}, u'edge': {u'target': [], u'time': []}}, u'mouseout': {u'state': {u'target': [], u'time': []}, u'edge': {u'target': [], u'time': []}}}",,,"[4673, 2421, 2620]",-1.03,,1065458,2.0,3.0,mouselab-mdp,,11
"[7430, 18391, 24501]","[u'up', u'up', u'right']",,,"[7, 0, 0]","[1, 3, 7, 13]","{u'mouseover': {u'state': {u'target': [], u'time': []}, u'edge': {u'target': [], u'time': []}}, u'click': {u'state': {u'target': [u'3', u'7', u'13', u'12'], u'time': [2720, 6154, 21276, 22610]}, u'edge': {u'target': [], u'time': []}}, u'mouseout': {u'state': {u'target': [], u'time': []}, u'edge': {u'target': [], u'time': []}}}",,,"[7429, 1080, 5336]",24.96,,1135564,3.0,11.0,mouselab-mdp,,11
"[8183, 16800, 18006]","[u'right', u'right', u'up']",,,"[4, 0, 0]","[1, 2, 6, 10]","{u'mouseover': {u'state': {u'target': [], u'time': []}, u'edge': {u'target': [], u'time': []}}, u'click': {u'state': {u'target': [u'2', u'6', u'10', u'11'], u'time': [2168, 3307, 5542, 6810]}, u'edge': {u'target': [], u'time': []}}, u'mouseout': {u'state': {u'target': [], u'time': []}, u'edge': {u'target': [], u'time': []}}}",,,"[8183, 2488, 498]",33.96,,1205718,4.0,2.0,mouselab-mdp,,11
"[19208, 31016, 63192]","[u'left', u'left', u'up']",,,"[6, 0, 0]","[1, 4, 8, 14]","{u'mouseover': {u'state': {u'target': [], u'time': []}, u'edge': {u'target': [], u'time': []}}, u'click': {u'state': {u'target': [u'4', u'8', u'15', u'14'], u'time': [17766, 28012, 28782, 29631]}, u'edge': {u'target': [], u'time': []}}, u'mouseout': {u'state': {u'target': [], u'time': []}, u'edge': {u'target': [], u'time': []}}}",,,"[19206, 4146, 31065]",15.96,,1273186,5.0,4.0,mouselab-mdp,,11
"[16287, 18877, 19608]","[u'right', u'right', u'down']",,,"[0, 0, 0]","[1, 2, 6, 11]","{u'mouseover': {u'state': {u'target': [], u'time': []}, u'edge': {u'target': [], u'time': []}}, u'click': {u'state': {u'target': [u'3', u'7', u'12', u'13', u'5', u'9', u'16', u'17', u'4', u'8', u'14', u'15', u'2', u'6', u'11', u'10'], u'time': [1331, 2077, 2807, 4403, 5658, 6325, 6878, 8058, 9353, 10245, 10750, 11471, 13056, 13617, 14203, 15151]}, u'edge': {u'target': [], u'time': []}}, u'mouseout': {u'state': {u'target': [], u'time': []}, u'edge': {u'target': [], u'time': []}}}",,,"[16287, 8, 216]",37.84,,1324445,6.0,6.0,mouselab-mdp,,11
"[21750, 24250, 25286]","[u'up', u'up', u'left']",,,"[0, 0, 0]","[1, 3, 7, 12]","{u'mouseover': {u'state': {u'target': [], u'time': []}, u'edge': {u'target': [], u'time': []}}, u'click': {u'state': {u'target': [u'3', u'7', u'12', u'13', u'4', u'8', u'14', u'15', u'2', u'6', u'10', u'11', u'5', u'9', u'16', u'17'], u'time': [1285, 1951, 2789, 3962, 7383, 8153, 8716, 9469, 12183, 12730, 13259, 16505, 17436, 17981, 18534, 19272]}, u'edge': {u'target': [], u'time': []}}, u'mouseout': {u'state': {u'target': [], u'time': []}, u'edge': {u'target': [], u'time': []}}}",,,"[21749, 4, 530]",40.84,,1388848,7.0,8.0,mouselab-mdp,,11
"[9552, 13423, 14495]","[u'down', u'down', u'left']",,,"[1, 0, 2]","[1, 5, 9, 16]","{u'mouseover': {u'state': {u'target': [], u'time': []}, u'edge': {u'target': [], u'time': []}}, u'click': {u'state': {u'target': [u'3', u'7', u'12', u'13', u'5', u'9', u'16'], u'time': [2537, 3131, 3596, 4188, 5651, 6465, 7306]}, u'edge': {u'target': [], u'time': []}}, u'mouseout': {u'state': {u'target': [], u'time': []}, u'edge': {u'target': [], u'time': []}}}",,,"[9552, 541, 379]",45.93,,1453650,8.0,1.0,mouselab-mdp,,11
"[22799, 25830, 26926]","[u'left', u'left', u'down']",,,"[0, 0, 0]","[1, 4, 8, 15]","{u'mouseover': {u'state': {u'target': [], u'time': []}, u'edge': {u'target': [], u'time': []}}, u'click': {u'state': {u'target': [u'3', u'7', u'13', u'2', u'5', u'9', u'16', u'17', u'4', u'8', u'14', u'15', u'12'], u'time': [2126, 3005, 3821, 6911, 7845, 11516, 12471, 13562, 15037, 15981, 16623, 17337, 20254]}, u'edge': {u'target': [], u'time': []}}, u'mouseout': {u'state': {u'target': [], u'time': []}, u'edge': {u'target': [], u'time': []}}}",,,"[22799, 5, 511]",39.87,,1502483,9.0,0.0,mouselab-mdp,,11
"[29773, 36762, 37658]","[u'left', u'left', u'up']",,,"[3, 0, 0]","[1, 4, 8, 14]","{u'mouseover': {u'state': {u'target': [], u'time': []}, u'edge': {u'target': [], u'time': []}}, u'click': {u'state': {u'target': [u'3', u'5', u'2', u'4', u'6', u'10', u'11', u'13', u'12', u'14', u'15', u'16', u'8', u'9', u'17', u'7'], u'time': [1719, 3068, 4257, 5311, 7085, 7886, 8608, 10490, 11691, 13238, 14731, 17016, 19260, 22252, 23027, 25478]}, u'edge': {u'target': [], u'time': []}}, u'mouseout': {u'state': {u'target': [], u'time': []}, u'edge': {u'target': [], u'time': []}}}",,,"[29773, 1041, 402]",17.84,,1557419,10.0,10.0,mouselab-mdp,,11
"[21195, 24131, 24922]","[u'left', u'left', u'up']",,,"[0, 0, 0]","[1, 4, 8, 14]","{u'mouseover': {u'state': {u'target': [], u'time': []}, u'edge': {u'target': [], u'time': []}}, u'click': {u'state': {u'target': [u'3', u'7', u'12', u'2', u'6', u'10', u'11', u'17', u'16', u'5', u'9', u'4', u'8', u'14', u'15'], u'time': [1470, 2321, 3129, 7927, 9480, 10161, 10916, 12803, 13639, 14239, 14866, 16445, 17116, 18056, 18801]}, u'edge': {u'target': [], u'time': []}}, u'mouseout': {u'state': {u'target': [], u'time': []}, u'edge': {u'target': [], u'time': []}}}",,,"[21194, 4, 216]",33.85,,1609549,11.0,5.0,mouselab-mdp,,11
"[22537, 25433, 26145]","[u'up', u'up', u'left']",,,"[0, 0, 0]","[1, 3, 7, 12]","{u'mouseover': {u'state': {u'target': [], u'time': []}, u'edge': {u'target': [], u'time': []}}, u'click': {u'state': {u'target': [u'3', u'5', u'7', u'12', u'13', u'4', u'2', u'8', u'14', u'15', u'16', u'9', u'11', u'6', u'10', u'17'], u'time': [2184, 3493, 4837, 5524, 7451, 9177, 10023, 11323, 12105, 12970, 16704, 17338, 19200, 19856, 21121, 37831]}, u'edge': {u'target': [], u'time': []}}, u'mouseout': {u'state': {u'target': [], u'time': []}, u'edge': {u'target': [], u'time': []}}}",,,"[22537, 5, 146]",36.84,,1662958,12.0,9.0,mouselab-mdp,,11
"[1733, 3618, 6923]","[u'right', u'right', u'up']",,,"[0, 0, 0]","[1, 2, 6, 10]","{u'mouseover': {u'state': {u'target': [], u'time': []}, u'edge': {u'target': [], u'time': []}}, u'click': {u'state': {u'target': [], u'time': []}, u'edge': {u'target': [], u'time': []}}, u'mouseout': {u'state': {u'target': [], u'time': []}, u'edge': {u'target': [], u'time': []}}}",,,"[1733, 2, 2457]",12.0,,267309,1.0,6.0,mouselab-mdp,,12
"[1981, 4145, 6077]","[u'up', u'up', u'right']",,,"[0, 0, 0]","[1, 3, 7, 13]","{u'mouseover': {u'state': {u'target': [], u'time': []}, u'edge': {u'target': [], u'time': []}}, u'click': {u'state': {u'target': [], u'time': []}, u'edge': {u'target': [], u'time': []}}, u'mouseout': {u'state': {u'target': [], u'time': []}, u'edge': {u'target': [], u'time': []}}}",,,"[1981, 4, 1008]",5.0,,320755,2.0,7.0,mouselab-mdp,,12
"[3747, 5729, 11098]","[u'up', u'up', u'right']",,,"[0, 0, 0]","[1, 3, 7, 13]","{u'mouseover': {u'state': {u'target': [], u'time': []}, u'edge': {u'target': [], u'time': []}}, u'click': {u'state': {u'target': [], u'time': []}, u'edge': {u'target': [], u'time': []}}, u'mouseout': {u'state': {u'target': [], u'time': []}, u'edge': {u'target': [], u'time': []}}}",,,"[3747, 2, 4428]",25.0,,383739,3.0,11.0,mouselab-mdp,,12
"[2081, 5729, 8001]","[u'right', u'right', u'down']",,,"[0, 0, 0]","[1, 2, 6, 11]","{u'mouseover': {u'state': {u'target': [], u'time': []}, u'edge': {u'target': [], u'time': []}}, u'click': {u'state': {u'target': [], u'time': []}, u'edge': {u'target': [], u'time': []}}, u'mouseout': {u'state': {u'target': [], u'time': []}, u'edge': {u'target': [], u'time': []}}}",,,"[2081, 1789, 1463]",16.0,,438245,4.0,9.0,mouselab-mdp,,12
"[2072, 5359, 11717]","[u'right', u'right', u'up']",,,"[0, 0, 0]","[1, 2, 6, 10]","{u'mouseover': {u'state': {u'target': [], u'time': []}, u'edge': {u'target': [], u'time': []}}, u'click': {u'state': {u'target': [u'10', u'11'], u'time': [8796, 10516]}, u'edge': {u'target': [], u'time': []}}, u'mouseout': {u'state': {u'target': [], u'time': []}, u'edge': {u'target': [], u'time': []}}}",,,"[2072, 1512, 5542]",16.4,,496414,5.0,4.0,mouselab-mdp,,12
"[1946, 9098, 13099]","[u'down', u'down', u'left']",,,"[0, 0, 0]","[1, 5, 9, 16]","{u'mouseover': {u'state': {u'target': [], u'time': []}, u'edge': {u'target': [], u'time': []}}, u'click': {u'state': {u'target': [u'17', u'16'], u'time': [11291, 12162]}, u'edge': {u'target': [], u'time': []}}, u'mouseout': {u'state': {u'target': [], u'time': []}, u'edge': {u'target': [], u'time': []}}}",,,"[1946, 5125, 3156]",40.4,,546762,6.0,1.0,mouselab-mdp,,12
"[1755, 5243, 8898]","[u'right', u'right', u'up']",,,"[0, 0, 0]","[1, 2, 6, 10]","{u'mouseover': {u'state': {u'target': [], u'time': []}, u'edge': {u'target': [], u'time': []}}, u'click': {u'state': {u'target': [u'10', u'11'], u'time': [7339, 7892]}, u'edge': {u'target': [], u'time': []}}, u'mouseout': {u'state': {u'target': [], u'time': []}, u'edge': {u'target': [], u'time': []}}}",,,"[1755, 1616, 2783]",16.4,,599053,7.0,10.0,mouselab-mdp,,12
"[3807, 7401, 21268]","[u'down', u'down', u'right']",,,"[0, 0, 0]","[1, 5, 9, 17]","{u'mouseover': {u'state': {u'target': [], u'time': []}, u'edge': {u'target': [], u'time': []}}, u'click': {u'state': {u'target': [u'17', u'16'], u'time': [10231, 10969]}, u'edge': {u'target': [], u'time': []}}, u'mouseout': {u'state': {u'target': [], u'time': []}, u'edge': {u'target': [], u'time': []}}}",,,"[3807, 1510, 13022]",10.4,,647244,8.0,8.0,mouselab-mdp,,12
"[1738, 4265, 12471]","[u'left', u'left', u'up']",,,"[0, 0, 0]","[1, 4, 8, 14]","{u'mouseover': {u'state': {u'target': [], u'time': []}, u'edge': {u'target': [], u'time': []}}, u'click': {u'state': {u'target': [u'14', u'15'], u'time': [7169, 7678]}, u'edge': {u'target': [], u'time': []}}, u'mouseout': {u'state': {u'target': [], u'time': []}, u'edge': {u'target': [], u'time': []}}}",,,"[1738, 689, 7404]",4.4,,696603,9.0,2.0,mouselab-mdp,,12
"[1394, 3994, 7946]","[u'up', u'up', u'right']",,,"[0, 0, 0]","[1, 3, 7, 13]","{u'mouseover': {u'state': {u'target': [], u'time': []}, u'edge': {u'target': [], u'time': []}}, u'click': {u'state': {u'target': [u'13', u'12'], u'time': [5585, 6073]}, u'edge': {u'target': [], u'time': []}}, u'mouseout': {u'state': {u'target': [], u'time': []}, u'edge': {u'target': [], u'time': []}}}",,,"[1394, 748, 3100]",-0.6,,764889,10.0,3.0,mouselab-mdp,,12
"[4157, 10575, 15054]","[u'right', u'right', u'up']",,,"[0, 0, 0]","[1, 2, 6, 10]","{u'mouseover': {u'state': {u'target': [], u'time': []}, u'edge': {u'target': [], u'time': []}}, u'click': {u'state': {u'target': [u'10', u'11'], u'time': [12580, 13560]}, u'edge': {u'target': [], u'time': []}}, u'mouseout': {u'state': {u'target': [], u'time': []}, u'edge': {u'target': [], u'time': []}}}",,,"[4157, 4533, 3565]",2.4,,829187,11.0,0.0,mouselab-mdp,,12
"[12992, 15112, 18502]","[u'down', u'down', u'right']",,,"[0, 0, 4]","[1, 5, 9, 17]","{u'mouseover': {u'state': {u'target': [], u'time': []}, u'edge': {u'target': [], u'time': []}}, u'click': {u'state': {u'target': [u'17'], u'time': [17346]}, u'edge': {u'target': [], u'time': []}}, u'mouseout': {u'state': {u'target': [], u'time': []}, u'edge': {u'target': [], u'time': []}}}",,,"[12992, 265, 2567]",11.2,,885417,12.0,5.0,mouselab-mdp,,12
"[6472, 26119, 30071]","[u'up', u'up', u'right']",,,"[8, 0, 0]","[1, 3, 7, 13]","{u'mouseover': {u'state': {u'target': [], u'time': []}, u'edge': {u'target': [], u'time': []}}, u'click': {u'state': {u'target': [u'3', u'12'], u'time': [1881, 4148]}, u'edge': {u'target': [], u'time': []}}, u'mouseout': {u'state': {u'target': [], u'time': []}, u'edge': {u'target': [], u'time': []}}}",,,"[6470, 3761, 2117]",-4.6,,342295,1.0,5.0,mouselab-mdp,,13
"[6534, 27758, 29654]","[u'up', u'up', u'left']",,,"[11, 0, 0]","[1, 3, 7, 12]","{u'mouseover': {u'state': {u'target': [], u'time': []}, u'edge': {u'target': [], u'time': []}}, u'click': {u'state': {u'target': [u'3', u'7', u'12'], u'time': [1645, 3450, 5173]}, u'edge': {u'target': [], u'time': []}}, u'mouseout': {u'state': {u'target': [], u'time': []}, u'edge': {u'target': [], u'time': []}}}",,,"[6533, 1255, 17]",32.6,,410827,2.0,8.0,mouselab-mdp,,13
"[9174, 39733, 42835]","[u'left', u'left', u'down']",,,"[20, 0, 4]","[1, 4, 8, 15]","{u'mouseover': {u'state': {u'target': [], u'time': []}, u'edge': {u'target': [], u'time': []}}, u'click': {u'state': {u'target': [u'3', u'5', u'9', u'4', u'8', u'14'], u'time': [953, 2615, 3979, 5489, 7285, 41770]}, u'edge': {u'target': [], u'time': []}}, u'mouseout': {u'state': {u'target': [], u'time': []}, u'edge': {u'target': [], u'time': []}}}",,,"[9173, 1354, 1111]",-8.8,,503984,3.0,2.0,mouselab-mdp,,13
"[12693, 43415, 85243]","[u'down', u'down', u'left']",,,"[20, 0, 0]","[1, 5, 9, 16]","{u'mouseover': {u'state': {u'target': [], u'time': []}, u'edge': {u'target': [], u'time': []}}, u'click': {u'state': {u'target': [u'8', u'6', u'2', u'5', u'9'], u'time': [2722, 4222, 6522, 8380, 11710]}, u'edge': {u'target': [], u'time': []}}, u'mouseout': {u'state': {u'target': [], u'time': []}, u'edge': {u'target': [], u'time': []}}}",,,"[12692, 2022, 40113]",32.0,,596814,4.0,1.0,mouselab-mdp,,13
"[15617, 35786, 37517]","[u'left', u'left', u'down']",,,"[11, 0, 4]","[1, 4, 8, 15]","{u'mouseover': {u'state': {u'target': [], u'time': []}, u'edge': {u'target': [], u'time': []}}, u'click': {u'state': {u'target': [u'4', u'8', u'15'], u'time': [8745, 11288, 12356]}, u'edge': {u'target': [], u'time': []}}, u'mouseout': {u'state': {u'target': [], u'time': []}, u'edge': {u'target': [], u'time': []}}}",,,"[15616, 1106, 10]",19.6,,668647,5.0,9.0,mouselab-mdp,,13
"[13997, 64368, 66031]","[u'down', u'down', u'left']",,,"[36, 0, 0]","[1, 5, 9, 16]","{u'mouseover': {u'state': {u'target': [], u'time': []}, u'edge': {u'target': [], u'time': []}}, u'click': {u'state': {u'target': [u'7', u'3', u'12', u'13', u'5', u'4', u'6', u'9'], u'time': [2074, 4361, 5528, 6533, 8814, 10054, 11322, 12784]}, u'edge': {u'target': [], u'time': []}}, u'mouseout': {u'state': {u'target': [], u'time': []}, u'edge': {u'target': [], u'time': []}}}",,,"[13997, 4933, 13]",-24.4,,770583,6.0,10.0,mouselab-mdp,,13
"[5442, 27215, 28927]","[u'down', u'down', u'right']",,,"[11, 0, 0]","[1, 5, 9, 17]","{u'mouseover': {u'state': {u'target': [], u'time': []}, u'edge': {u'target': [], u'time': []}}, u'click': {u'state': {u'target': [u'5', u'9', u'17'], u'time': [2329, 3261, 4290]}, u'edge': {u'target': [], u'time': []}}, u'mouseout': {u'state': {u'target': [], u'time': []}, u'edge': {u'target': [], u'time': []}}}",,,"[5441, 2833, 12]",9.6,,839529,7.0,11.0,mouselab-mdp,,13
"[2322, 26259, 34870]","[u'down', u'down', u'right']",,,"[0, 3, 3]","[1, 5, 9, 17]","{u'mouseover': {u'state': {u'target': [], u'time': []}, u'edge': {u'target': [], u'time': []}}, u'click': {u'state': {u'target': [u'9', u'16'], u'time': [25210, 33426]}, u'edge': {u'target': [], u'time': []}}, u'mouseout': {u'state': {u'target': [], u'time': []}, u'edge': {u'target': [], u'time': []}}}",,,"[2321, 18017, 3093]",36.4,,922248,8.0,4.0,mouselab-mdp,,13
"[8545, 22825, 30249]","[u'up', u'up', u'left']",,,"[0, 3, 0]","[1, 3, 7, 12]","{u'mouseover': {u'state': {u'target': [], u'time': []}, u'edge': {u'target': [], u'time': []}}, u'click': {u'state': {u'target': [u'12'], u'time': [21066]}, u'edge': {u'target': [], u'time': []}}, u'mouseout': {u'state': {u'target': [], u'time': []}, u'edge': {u'target': [], u'time': []}}}",,,"[8544, 8544, 1497]",16.2,,985635,9.0,7.0,mouselab-mdp,,13
"[5207, 29629, 33012]","[u'up', u'up', u'right']",,,"[13, 0, 0]","[1, 3, 7, 13]","{u'mouseover': {u'state': {u'target': [], u'time': []}, u'edge': {u'target': [], u'time': []}}, u'click': {u'state': {u'target': [u'7', u'12'], u'time': [2102, 3791]}, u'edge': {u'target': [], u'time': []}}, u'mouseout': {u'state': {u'target': [], u'time': []}, u'edge': {u'target': [], u'time': []}}}",,,"[5207, 4746, 1547]",3.4,,1053656,10.0,6.0,mouselab-mdp,,13
"[5949, 23938, 29399]","[u'down', u'down', u'right']",,,"[9, 0, 3]","[1, 5, 9, 17]","{u'mouseover': {u'state': {u'target': [], u'time': []}, u'edge': {u'target': [], u'time': []}}, u'click': {u'state': {u'target': [u'7', u'9', u'16'], u'time': [2637, 3860, 28031]}, u'edge': {u'target': [], u'time': []}}, u'mouseout': {u'state': {u'target': [], u'time': []}, u'edge': {u'target': [], u'time': []}}}",,,"[5948, 1265, 3580]",-8.4,,1141583,11.0,3.0,mouselab-mdp,,13
"[6148, 23150, 28183]","[u'left', u'left', u'down']",,,"[9, 0, 0]","[1, 4, 8, 15]","{u'mouseover': {u'state': {u'target': [], u'time': []}, u'edge': {u'target': [], u'time': []}}, u'click': {u'state': {u'target': [u'4', u'15'], u'time': [1770, 4853]}, u'edge': {u'target': [], u'time': []}}, u'mouseout': {u'state': {u'target': [], u'time': []}, u'edge': {u'target': [], u'time': []}}}",,,"[6148, 621, 3237]",34.4,,1207896,12.0,0.0,mouselab-mdp,,13
"[10499, 28089, 34987]","[u'right', u'right', u'up']",,,"[5, 0, 0]","[1, 2, 6, 10]","{u'mouseover': {u'state': {u'target': [], u'time': []}, u'edge': {u'target': [], u'time': []}}, u'click': {u'state': {u'target': [], u'time': []}, u'edge': {u'target': [], u'time': []}}, u'mouseout': {u'state': {u'target': [], u'time': []}, u'edge': {u'target': [], u'time': []}}}",,,"[10498, 6704, 5063]",22.0,,1381309,1.0,4.0,mouselab-mdp,,14
"[3940, 15477, 19371]","[u'up', u'up', u'left']",,,"[5, 0, 0]","[1, 3, 7, 12]","{u'mouseover': {u'state': {u'target': [], u'time': []}, u'edge': {u'target': [], u'time': []}}, u'click': {u'state': {u'target': [], u'time': []}, u'edge': {u'target': [], u'time': []}}, u'mouseout': {u'state': {u'target': [], u'time': []}, u'edge': {u'target': [], u'time': []}}}",,,"[3940, 745, 1839]",15.0,,1448406,2.0,2.0,mouselab-mdp,,14
"[1552, 13719, 21604]","[u'left', u'left', u'down']",,,"[5, 0, 0]","[1, 4, 8, 15]","{u'mouseover': {u'state': {u'target': [], u'time': []}, u'edge': {u'target': [], u'time': []}}, u'click': {u'state': {u'target': [u'14', u'15'], u'time': [18733, 19911]}, u'edge': {u'target': [], u'time': []}}, u'mouseout': {u'state': {u'target': [], u'time': []}, u'edge': {u'target': [], u'time': []}}}",,,"[1551, 1678, 6060]",10.8,,1517940,3.0,1.0,mouselab-mdp,,14
"[8539, 19996, 70406]","[u'down', u'down', u'left']",,,"[1, 0, 6]","[1, 5, 9, 16]","{u'mouseover': {u'state': {u'target': [], u'time': []}, u'edge': {u'target': [], u'time': []}}, u'click': {u'state': {u'target': [u'3', u'2', u'5', u'4', u'16', u'17'], u'time': [1035, 2114, 2955, 4038, 25544, 26499]}, u'edge': {u'target': [], u'time': []}}, u'mouseout': {u'state': {u'target': [], u'time': []}, u'edge': {u'target': [], u'time': []}}}",,,"[8539, 1458, 48543]",2.4,,1605207,4.0,6.0,mouselab-mdp,,14
"[7922, 16967, 19762]","[u'up', u'up', u'left']",,,"[1, 0, 0]","[1, 3, 7, 12]","{u'mouseover': {u'state': {u'target': [], u'time': []}, u'edge': {u'target': [], u'time': []}}, u'click': {u'state': {u'target': [u'3', u'12'], u'time': [3214, 5737]}, u'edge': {u'target': [], u'time': []}}, u'mouseout': {u'state': {u'target': [], u'time': []}, u'edge': {u'target': [], u'time': []}}}",,,"[7922, 769, 1068]",15.8,,1664105,5.0,7.0,mouselab-mdp,,14
"[4544, 22247, 72186]","[u'right', u'right', u'up']",,,"[5, 9, 0]","[1, 2, 6, 10]","{u'mouseover': {u'state': {u'target': [], u'time': []}, u'edge': {u'target': [], u'time': []}}, u'click': {u'state': {u'target': [u'10', u'11', u'6'], u'time': [17545, 18700, 20196]}, u'edge': {u'target': [], u'time': []}}, u'mouseout': {u'state': {u'target': [], u'time': []}, u'edge': {u'target': [], u'time': []}}}",,,"[4544, 6400, 37054]",1.2,,1741727,6.0,5.0,mouselab-mdp,,14
"[9927, 23247, 26295]","[u'up', u'up', u'left']",,,"[0, 0, 0]","[1, 3, 7, 12]","{u'mouseover': {u'state': {u'target': [], u'time': []}, u'edge': {u'target': [], u'time': []}}, u'click': {u'state': {u'target': [u'14', u'15', u'16', u'17', u'11', u'10', u'13', u'12'], u'time': [1377, 2445, 3414, 4295, 5087, 5980, 6846, 7765]}, u'edge': {u'target': [], u'time': []}}, u'mouseout': {u'state': {u'target': [], u'time': []}, u'edge': {u'target': [], u'time': []}}}",,,"[9927, 924, 1824]",24.2,,1826976,7.0,9.0,mouselab-mdp,,14
"[10226, 21983, 24063]","[u'left', u'left', u'up']",,,"[0, 0, 0]","[1, 4, 8, 14]","{u'mouseover': {u'state': {u'target': [], u'time': []}, u'edge': {u'target': [], u'time': []}}, u'click': {u'state': {u'target': [u'12', u'13', u'10', u'11', u'17', u'16', u'15', u'14'], u'time': [1570, 2539, 3279, 4121, 5051, 5932, 6927, 7920]}, u'edge': {u'target': [], u'time': []}}, u'mouseout': {u'state': {u'target': [], u'time': []}, u'edge': {u'target': [], u'time': []}}}",,,"[10226, 910, 927]",5.2,,1900256,8.0,10.0,mouselab-mdp,,14
"[5345, 15821, 22494]","[u'left', u'left', u'up']",,,"[1, 3, 0]","[1, 4, 8, 14]","{u'mouseover': {u'state': {u'target': [], u'time': []}, u'edge': {u'target': [], u'time': []}}, u'click': {u'state': {u'target': [u'4', u'14'], u'time': [3788, 14259]}, u'edge': {u'target': [], u'time': []}}, u'mouseout': {u'state': {u'target': [], u'time': []}, u'edge': {u'target': [], u'time': []}}}",,,"[5345, 2460, 472]",36.8,,1965692,9.0,0.0,mouselab-mdp,,14
"[3468, 10247, 14241]","[u'left', u'left', u'down']",,,"[0, 0, 0]","[1, 4, 8, 15]","{u'mouseover': {u'state': {u'target': [], u'time': []}, u'edge': {u'target': [], u'time': []}}, u'click': {u'state': {u'target': [u'4', u'14', u'15'], u'time': [2400, 12393, 13248]}, u'edge': {u'target': [], u'time': []}}, u'mouseout': {u'state': {u'target': [], u'time': []}, u'edge': {u'target': [], u'time': []}}}",,,"[3468, 6, 1989]",27.2,,2022058,10.0,8.0,mouselab-mdp,,14
"[13221, 43228, 44107]","[u'left', u'left', u'up']",,,"[26, 0, 0]","[1, 4, 8, 14]","{u'mouseover': {u'state': {u'target': [], u'time': []}, u'edge': {u'target': [], u'time': []}}, u'click': {u'state': {u'target': [u'2', u'6', u'10', u'11', u'4', u'8', u'14'], u'time': [3008, 4390, 5235, 5905, 9524, 10386, 11242]}, u'edge': {u'target': [], u'time': []}}, u'mouseout': {u'state': {u'target': [], u'time': []}, u'edge': {u'target': [], u'time': []}}}",,,"[13220, 1590, 170]",14.4,,154751,1.0,5.0,mouselab-mdp,,15
"[14237, 56109, 57044]","[u'right', u'right', u'up']",,,"[37, 0, 0]","[1, 2, 6, 10]","{u'mouseover': {u'state': {u'target': [], u'time': []}, u'edge': {u'target': [], u'time': []}}, u'click': {u'state': {u'target': [u'4', u'14', u'10', u'2', u'12', u'17', u'6'], u'time': [1454, 2700, 4228, 5075, 8788, 9824, 13370]}, u'edge': {u'target': [], u'time': []}}, u'mouseout': {u'state': {u'target': [], u'time': []}, u'edge': {u'target': [], u'time': []}}}",,,"[14235, 2112, 164]",-11.6,,249954,2.0,1.0,mouselab-mdp,,15
"[10521, 46312, 47192]","[u'left', u'left', u'down']",,,"[20, 0, 0]","[1, 4, 8, 15]","{u'mouseover': {u'state': {u'target': [], u'time': []}, u'edge': {u'target': [], u'time': []}}, u'click': {u'state': {u'target': [u'10', u'12', u'15', u'8'], u'time': [2692, 3739, 4892, 7473]}, u'edge': {u'target': [], u'time': []}}, u'mouseout': {u'state': {u'target': [], u'time': []}, u'edge': {u'target': [], u'time': []}}}",,,"[10520, 13476, 93]",14.8,,347891,3.0,3.0,mouselab-mdp,,15
"[6739, 31372, 32659]","[u'left', u'left', u'up']",,,"[15, 0, 0]","[1, 4, 8, 14]","{u'mouseover': {u'state': {u'target': [], u'time': []}, u'edge': {u'target': [], u'time': []}}, u'click': {u'state': {u'target': [u'14', u'15', u'4'], u'time': [986, 1906, 5150]}, u'edge': {u'target': [], u'time': []}}, u'mouseout': {u'state': {u'target': [], u'time': []}, u'edge': {u'target': [], u'time': []}}}",,,"[6737, 7580, 466]",1.6,,416842,4.0,6.0,mouselab-mdp,,15
"[3867, 17147, 18283]","[u'right', u'right', u'up']",,,"[10, 0, 0]","[1, 2, 6, 10]","{u'mouseover': {u'state': {u'target': [], u'time': []}, u'edge': {u'target': [], u'time': []}}, u'click': {u'state': {u'target': [u'10', u'6'], u'time': [1102, 2782]}, u'edge': {u'target': [], u'time': []}}, u'mouseout': {u'state': {u'target': [], u'time': []}, u'edge': {u'target': [], u'time': []}}}",,,"[3866, 1405, 327]",28.4,,498338,5.0,2.0,mouselab-mdp,,15
"[4875, 26155, 28099]","[u'right', u'right', u'up']",,,"[16, 0, 0]","[1, 2, 6, 10]","{u'mouseover': {u'state': {u'target': [], u'time': []}, u'edge': {u'target': [], u'time': []}}, u'click': {u'state': {u'target': [u'13', u'10', u'2'], u'time': [1552, 2650, 3901]}, u'edge': {u'target': [], u'time': []}}, u'mouseout': {u'state': {u'target': [], u'time': []}, u'edge': {u'target': [], u'time': []}}}",,,"[4874, 3273, 1152]",13.6,,567007,6.0,10.0,mouselab-mdp,,15
"[6930, 19394, 20625]","[u'right', u'right', u'up']",,,"[10, 0, 0]","[1, 2, 6, 10]","{u'mouseover': {u'state': {u'target': [], u'time': []}, u'edge': {u'target': [], u'time': []}}, u'click': {u'state': {u'target': [u'10', u'2'], u'time': [1069, 6002]}, u'edge': {u'target': [], u'time': []}}, u'mouseout': {u'state': {u'target': [], u'time': []}, u'edge': {u'target': [], u'time': []}}}",,,"[6930, 649, 462]",16.4,,626250,7.0,4.0,mouselab-mdp,,15
"[4947, 21195, 22026]","[u'right', u'right', u'down']",,,"[11, 0, 0]","[1, 2, 6, 11]","{u'mouseover': {u'state': {u'target': [], u'time': []}, u'edge': {u'target': [], u'time': []}}, u'click': {u'state': {u'target': [u'2', u'11', u'6'], u'time': [1276, 2547, 4026]}, u'edge': {u'target': [], u'time': []}}, u'mouseout': {u'state': {u'target': [], u'time': []}, u'edge': {u'target': [], u'time': []}}}",,,"[4947, 3297, 68]",7.6,,693208,8.0,9.0,mouselab-mdp,,15
"[3754, 15963, 16736]","[u'right', u'right', u'up']",,,"[10, 0, 0]","[1, 2, 6, 10]","{u'mouseover': {u'state': {u'target': [], u'time': []}, u'edge': {u'target': [], u'time': []}}, u'click': {u'state': {u'target': [u'10', u'6'], u'time': [1419, 2842]}, u'edge': {u'target': [], u'time': []}}, u'mouseout': {u'state': {u'target': [], u'time': []}, u'edge': {u'target': [], u'time': []}}}",,,"[3754, 331, 2]",22.4,,763888,9.0,8.0,mouselab-mdp,,15
"[5743, 41288, 42439]","[u'down', u'down', u'right']",,,"[14, 0, 0]","[1, 5, 9, 17]","{u'mouseover': {u'state': {u'target': [], u'time': []}, u'edge': {u'target': [], u'time': []}}, u'click': {u'state': {u'target': [u'10', u'11', u'17'], u'time': [1756, 2855, 4095]}, u'edge': {u'target': [], u'time': []}}, u'mouseout': {u'state': {u'target': [], u'time': []}, u'edge': {u'target': [], u'time': []}}}",,,"[5743, 19473, 371]",25.6,,840331,10.0,7.0,mouselab-mdp,,15
"[4295, 19120, 20375]","[u'right', u'right', u'up']",,,"[10, 0, 0]","[1, 2, 6, 10]","{u'mouseover': {u'state': {u'target': [], u'time': []}, u'edge': {u'target': [], u'time': []}}, u'click': {u'state': {u'target': [u'10', u'6'], u'time': [1847, 3121]}, u'edge': {u'target': [], u'time': []}}, u'mouseout': {u'state': {u'target': [], u'time': []}, u'edge': {u'target': [], u'time': []}}}",,,"[4295, 2984, 403]",2.4,,901987,11.0,0.0,mouselab-mdp,,15
"[6209, 37656, 38720]","[u'down', u'down', u'right']",,,"[16, 0, 0]","[1, 5, 9, 17]","{u'mouseover': {u'state': {u'target': [], u'time': []}, u'edge': {u'target': [], u'time': []}}, u'click': {u'state': {u'target': [u'10', u'6', u'17'], u'time': [852, 2156, 3580]}, u'edge': {u'target': [], u'time': []}}, u'mouseout': {u'state': {u'target': [], u'time': []}, u'edge': {u'target': [], u'time': []}}}",,,"[6208, 13469, 317]",9.6,,974218,12.0,11.0,mouselab-mdp,,15
"[26061, 43834, 47219]","[u'right', u'right', u'up']",,,"[0, 0, 0]","[1, 2, 6, 10]","{u'mouseover': {u'state': {u'target': [], u'time': []}, u'edge': {u'target': [], u'time': []}}, u'click': {u'state': {u'target': [u'3', u'7', u'12', u'13', u'14', u'8', u'4', u'15', u'16', u'9', u'5', u'17', u'2', u'6', u'10', u'11'], u'time': [1861, 2800, 3359, 4098, 6364, 7118, 7890, 9118, 11133, 11904, 12934, 13761, 15565, 16117, 16653, 17711]}, u'edge': {u'target': [], u'time': []}}, u'mouseout': {u'state': {u'target': [], u'time': []}, u'edge': {u'target': [], u'time': []}}}",,,"[26060, 15093, 2884]",33.84,,282764,1.0,3.0,mouselab-mdp,,16
"[39587, 43713, 46490]","[u'right', u'right', u'up']",,,"[0, 0, 0]","[1, 2, 6, 10]","{u'mouseover': {u'state': {u'target': [], u'time': []}, u'edge': {u'target': [], u'time': []}}, u'click': {u'state': {u'target': [u'7', u'12', u'13', u'3', u'14', u'8', u'4', u'15', u'2', u'6', u'10', u'11', u'5', u'9', u'16', u'17'], u'time': [2090, 2741, 3784, 4610, 5806, 6790, 7375, 8023, 10697, 11729, 12297, 13248, 14024, 17805, 18532, 19493]}, u'edge': {u'target': [], u'time': []}}, u'mouseout': {u'state': {u'target': [], u'time': []}, u'edge': {u'target': [], u'time': []}}}",,,"[39586, 1508, 2271]",21.84,,332850,2.0,10.0,mouselab-mdp,,16
"[30304, 37992, 46537]","[u'down', u'down', u'left']",,,"[0, 0, 0]","[1, 5, 9, 16]","{u'mouseover': {u'state': {u'target': [], u'time': []}, u'edge': {u'target': [], u'time': []}}, u'click': {u'state': {u'target': [u'12', u'13', u'7', u'3', u'14', u'8', u'4', u'15', u'2', u'6', u'10', u'11', u'5', u'9', u'17', u'16'], u'time': [1588, 2389, 3092, 3627, 6754, 7483, 8071, 8815, 11223, 13552, 14353, 15544, 16606, 17828, 18419, 19108]}, u'edge': {u'target': [], u'time': []}}, u'mouseout': {u'state': {u'target': [], u'time': []}, u'edge': {u'target': [], u'time': []}}}",,,"[30304, 5080, 8038]",45.84,,388641,3.0,1.0,mouselab-mdp,,16
"[32973, 39707, 43811]","[u'down', u'down', u'left']",,,"[0, 0, 0]","[1, 5, 9, 16]","{u'mouseover': {u'state': {u'target': [], u'time': []}, u'edge': {u'target': [], u'time': []}}, u'click': {u'state': {u'target': [u'12', u'7', u'13', u'3', u'14', u'8', u'4', u'15', u'2', u'6', u'10', u'11', u'5', u'9', u'17', u'16'], u'time': [2512, 3644, 4460, 5145, 6094, 6693, 7252, 7979, 11039, 11651, 12317, 13003, 14375, 15141, 15726, 16391]}, u'edge': {u'target': [], u'time': []}}, u'mouseout': {u'state': {u'target': [], u'time': []}, u'edge': {u'target': [], u'time': []}}}",,,"[32973, 4164, 3594]",33.84,,436946,4.0,7.0,mouselab-mdp,,16
"[24507, 27211, 28548]","[u'down', u'down', u'right']",,,"[0, 0, 0]","[1, 5, 9, 17]","{u'mouseover': {u'state': {u'target': [], u'time': []}, u'edge': {u'target': [], u'time': []}}, u'click': {u'state': {u'target': [u'14', u'8', u'4', u'15', u'12', u'7', u'3', u'13', u'10', u'6', u'2', u'11', u'5', u'9', u'17', u'16'], u'time': [2024, 3038, 4106, 4894, 5865, 7087, 7808, 8622, 10961, 11790, 12364, 16212, 17321, 17954, 18620, 19364]}, u'edge': {u'target': [], u'time': []}}, u'mouseout': {u'state': {u'target': [], u'time': []}, u'edge': {u'target': [], u'time': []}}}",,,"[24507, 7, 818]",41.84,,484938,5.0,4.0,mouselab-mdp,,16
"[19938, 23346, 25018]","[u'right', u'right', u'down']",,,"[0, 0, 0]","[1, 2, 6, 11]","{u'mouseover': {u'state': {u'target': [], u'time': []}, u'edge': {u'target': [], u'time': []}}, u'click': {u'state': {u'target': [u'12', u'7', u'13', u'3', u'4', u'8', u'14', u'15', u'10', u'6', u'2', u'11', u'5', u'9', u'17', u'16'], u'time': [1826, 2357, 3077, 4149, 4822, 5334, 5891, 6564, 7555, 8165, 8856, 9486, 10474, 11045, 11537, 12144]}, u'edge': {u'target': [], u'time': []}}, u'mouseout': {u'state': {u'target': [], u'time': []}, u'edge': {u'target': [], u'time': []}}}",,,"[19938, 681, 1172]",37.84,,532992,6.0,6.0,mouselab-mdp,,16
"[18924, 21671, 24394]","[u'right', u'right', u'up']",,,"[0, 0, 0]","[1, 2, 6, 10]","{u'mouseover': {u'state': {u'target': [], u'time': []}, u'edge': {u'target': [], u'time': []}}, u'click': {u'state': {u'target': [u'12', u'7', u'3', u'13', u'10', u'6', u'2', u'11', u'14', u'8', u'4', u'15', u'16', u'9', u'5', u'17'], u'time': [1507, 2133, 2600, 3412, 4153, 4590, 5745, 6502, 8223, 8765, 9291, 9848, 10692, 11156, 11954, 12483]}, u'edge': {u'target': [], u'time': []}}, u'mouseout': {u'state': {u'target': [], u'time': []}, u'edge': {u'target': [], u'time': []}}}",,,"[18923, 5, 2197]",33.84,,580562,7.0,2.0,mouselab-mdp,,16
"[20449, 23881, 25137]","[u'up', u'up', u'left']",,,"[0, 0, 0]","[1, 3, 7, 12]","{u'mouseover': {u'state': {u'target': [], u'time': []}, u'edge': {u'target': [], u'time': []}}, u'click': {u'state': {u'target': [u'12', u'7', u'3', u'13', u'10', u'6', u'2', u'11', u'5', u'9', u'17', u'16', u'14', u'8', u'4', u'15'], u'time': [1369, 2019, 2528, 3283, 4691, 5295, 5843, 6937, 8922, 9684, 10105, 10679, 11618, 12073, 12623, 13211]}, u'edge': {u'target': [], u'time': []}}, u'mouseout': {u'state': {u'target': [], u'time': []}, u'edge': {u'target': [], u'time': []}}}",,,"[20449, 658, 751]",36.84,,629570,8.0,9.0,mouselab-mdp,,16
"[18074, 22698, 25018]","[u'right', u'right', u'down']",,,"[0, 0, 0]","[1, 2, 6, 11]","{u'mouseover': {u'state': {u'target': [], u'time': []}, u'edge': {u'target': [], u'time': []}}, u'click': {u'state': {u'target': [u'12', u'7', u'3', u'13', u'10', u'6', u'2', u'11', u'14', u'8', u'4', u'15', u'5', u'9', u'16', u'17'], u'time': [1460, 2242, 2774, 3367, 4248, 4783, 5378, 5986, 8244, 8802, 9360, 9978, 11787, 12547, 13202, 13981]}, u'edge': {u'target': [], u'time': []}}, u'mouseout': {u'state': {u'target': [], u'time': []}, u'edge': {u'target': [], u'time': []}}}",,,"[18074, 1927, 1812]",37.84,,677827,9.0,11.0,mouselab-mdp,,16
"[23862, 29516, 32436]","[u'up', u'up', u'left']",,,"[0, 0, 0]","[1, 3, 7, 12]","{u'mouseover': {u'state': {u'target': [], u'time': []}, u'edge': {u'target': [], u'time': []}}, u'click': {u'state': {u'target': [u'12', u'7', u'3', u'13', u'14', u'8', u'4', u'15', u'2', u'6', u'10', u'11', u'16', u'9', u'5', u'17'], u'time': [1857, 2590, 3127, 3971, 6481, 7214, 8290, 8983, 12483, 13497, 13960, 14592, 17804, 18710, 19694, 20411]}, u'edge': {u'target': [], u'time': []}}, u'mouseout': {u'state': {u'target': [], u'time': []}, u'edge': {u'target': [], u'time': []}}}",,,"[23862, 2785, 2424]",40.84,,725512,10.0,8.0,mouselab-mdp,,16
"[21626, 24502, 25818]","[u'left', u'left', u'down']",,,"[0, 0, 0]","[1, 4, 8, 15]","{u'mouseover': {u'state': {u'target': [], u'time': []}, u'edge': {u'target': [], u'time': []}}, u'click': {u'state': {u'target': [u'12', u'7', u'13', u'3', u'14', u'8', u'4', u'15', u'2', u'6', u'10', u'11', u'5', u'9', u'16', u'17'], u'time': [1975, 2683, 3116, 3867, 5657, 6594, 7181, 8020, 9847, 10558, 11147, 11850, 16328, 16893, 17384, 18064]}, u'edge': {u'target': [], u'time': []}}, u'mouseout': {u'state': {u'target': [], u'time': []}, u'edge': {u'target': [], u'time': []}}}",,,"[21626, 11, 797]",39.84,,773561,11.0,0.0,mouselab-mdp,,16
"[17527, 21032, 21934]","[u'left', u'left', u'up']",,,"[0, 0, 0]","[1, 4, 8, 14]","{u'mouseover': {u'state': {u'target': [], u'time': []}, u'edge': {u'target': [], u'time': []}}, u'click': {u'state': {u'target': [u'12', u'7', u'13', u'3', u'14', u'8', u'4', u'15', u'2', u'6', u'10', u'11', u'5', u'9', u'17', u'16'], u'time': [1957, 2626, 3157, 3821, 4589, 5188, 5713, 6527, 7417, 7975, 8564, 9301, 10459, 11173, 11793, 12435]}, u'edge': {u'target': [], u'time': []}}, u'mouseout': {u'state': {u'target': [], u'time': []}, u'edge': {u'target': [], u'time': []}}}",,,"[17527, 604, 391]",33.84,,822857,12.0,5.0,mouselab-mdp,,16
"[16887, 25926, 27030]","[u'right', u'right', u'up']",,,"[2, 0, 0]","[1, 2, 6, 10]","{u'mouseover': {u'state': {u'target': [], u'time': []}, u'edge': {u'target': [], u'time': []}}, u'click': {u'state': {u'target': [u'2', u'6', u'10'], u'time': [7703, 11317, 13028]}, u'edge': {u'target': [], u'time': []}}, u'mouseout': {u'state': {u'target': [], u'time': []}, u'edge': {u'target': [], u'time': []}}}",,,"[16887, 2932, 3]",17.2,,357139,1.0,10.0,mouselab-mdp,,17
"[20637, 45901, 46933]","[u'down', u'down', u'left']",,,"[17, 0, 0]","[1, 5, 9, 16]","{u'mouseover': {u'state': {u'target': [], u'time': []}, u'edge': {u'target': [], u'time': []}}, u'click': {u'state': {u'target': [u'3', u'7', u'12', u'13', u'2', u'5', u'16', u'9', u'8', u'14', u'4'], u'time': [2539, 3474, 4433, 5361, 6129, 9037, 10482, 11306, 14634, 15161, 15643]}, u'edge': {u'target': [], u'time': []}}, u'mouseout': {u'state': {u'target': [], u'time': []}, u'edge': {u'target': [], u'time': []}}}",,,"[20637, 1467, 23]",28.4,,491996,2.0,1.0,mouselab-mdp,,17
"[11993, 26689, 27772]","[u'down', u'down', u'right']",,,"[8, 0, 0]","[1, 5, 9, 17]","{u'mouseover': {u'state': {u'target': [], u'time': []}, u'edge': {u'target': [], u'time': []}}, u'click': {u'state': {u'target': [u'5', u'9', u'17', u'3', u'7', u'12'], u'time': [1504, 3022, 3966, 5487, 6311, 6959]}, u'edge': {u'target': [], u'time': []}}, u'mouseout': {u'state': {u'target': [], u'time': []}, u'edge': {u'target': [], u'time': []}}}",,,"[11993, 1339, 2]",24.4,,607059,3.0,7.0,mouselab-mdp,,17
"[16824, 28257, 29192]","[u'left', u'left', u'up']",,,"[5, 0, 0]","[1, 4, 8, 14]","{u'mouseover': {u'state': {u'target': [], u'time': []}, u'edge': {u'target': [], u'time': []}}, u'click': {u'state': {u'target': [u'4', u'5', u'16', u'17', u'14', u'15', u'8'], u'time': [4758, 5774, 7134, 8678, 10021, 13446, 14749]}, u'edge': {u'target': [], u'time': []}}, u'mouseout': {u'state': {u'target': [], u'time': []}, u'edge': {u'target': [], u'time': []}}}",,,"[16824, 1162, 29]",-1.2,,717253,4.0,6.0,mouselab-mdp,,17
"[16207, 20971, 22040]","[u'down', u'down', u'right']",,,"[0, 0, 0]","[1, 5, 9, 17]","{u'mouseover': {u'state': {u'target': [], u'time': []}, u'edge': {u'target': [], u'time': []}}, u'click': {u'state': {u'target': [u'14', u'13', u'17', u'5'], u'time': [4668, 7732, 11027, 13891]}, u'edge': {u'target': [], u'time': []}}, u'mouseout': {u'state': {u'target': [], u'time': []}, u'edge': {u'target': [], u'time': []}}}",,,"[16207, 6, 4]",11.6,,788661,5.0,11.0,mouselab-mdp,,17
"[8852, 14203, 15596]","[u'right', u'right', u'up']",,,"[0, 0, 0]","[1, 2, 6, 10]","{u'mouseover': {u'state': {u'target': [], u'time': []}, u'edge': {u'target': [], u'time': []}}, u'click': {u'state': {u'target': [u'17', u'14', u'13', u'10', u'2'], u'time': [1257, 2697, 3744, 5201, 6664]}, u'edge': {u'target': [], u'time': []}}, u'mouseout': {u'state': {u'target': [], u'time': []}, u'edge': {u'target': [], u'time': []}}}",,,"[8852, 4, 305]",26.0,,841413,6.0,3.0,mouselab-mdp,,17
"[7454, 12860, 13977]","[u'left', u'left', u'up']",,,"[0, 0, 0]","[1, 4, 8, 14]","{u'mouseover': {u'state': {u'target': [], u'time': []}, u'edge': {u'target': [], u'time': []}}, u'click': {u'state': {u'target': [u'13', u'11', u'16', u'14', u'4'], u'time': [1076, 2891, 3940, 4939, 6268]}, u'edge': {u'target': [], u'time': []}}, u'mouseout': {u'state': {u'target': [], u'time': []}, u'edge': {u'target': [], u'time': []}}}",,,"[7454, 3, 2]",32.0,,911517,7.0,0.0,mouselab-mdp,,17
"[7250, 11880, 14067]","[u'up', u'up', u'left']",,,"[0, 0, 0]","[1, 3, 7, 12]","{u'mouseover': {u'state': {u'target': [], u'time': []}, u'edge': {u'target': [], u'time': []}}, u'click': {u'state': {u'target': [u'12', u'17', u'3'], u'time': [1817, 3160, 5192]}, u'edge': {u'target': [], u'time': []}}, u'mouseout': {u'state': {u'target': [], u'time': []}, u'edge': {u'target': [], u'time': []}}}",,,"[7250, 3, 1008]",32.2,,962181,8.0,9.0,mouselab-mdp,,17
"[5912, 16113, 17321]","[u'up', u'up', u'left']",,,"[3, 0, 0]","[1, 3, 7, 12]","{u'mouseover': {u'state': {u'target': [], u'time': []}, u'edge': {u'target': [], u'time': []}}, u'click': {u'state': {u'target': [u'12', u'3', u'17'], u'time': [861, 2437, 3751]}, u'edge': {u'target': [], u'time': []}}, u'mouseout': {u'state': {u'target': [], u'time': []}, u'edge': {u'target': [], u'time': []}}}",,,"[5912, 2387, 4]",36.2,,1019436,9.0,8.0,mouselab-mdp,,17
"[4771, 9227, 10381]","[u'down', u'down', u'right']",,,"[0, 0, 0]","[1, 5, 9, 17]","{u'mouseover': {u'state': {u'target': [], u'time': []}, u'edge': {u'target': [], u'time': []}}, u'click': {u'state': {u'target': [u'12', u'17', u'5'], u'time': [935, 2135, 3383]}, u'edge': {u'target': [], u'time': []}}, u'mouseout': {u'state': {u'target': [], u'time': []}, u'edge': {u'target': [], u'time': []}}}",,,"[4771, 6, 3]",9.2,,1110843,10.0,5.0,mouselab-mdp,,17
"[30806, 41430, 42645]","[u'right', u'right', u'up']",,,"[4, 0, 0]","[1, 2, 6, 10]","{u'mouseover': {u'state': {u'target': [], u'time': []}, u'edge': {u'target': [], u'time': []}}, u'click': {u'state': {u'target': [u'10', u'2', u'17', u'9'], u'time': [20627, 22065, 24194, 27690]}, u'edge': {u'target': [], u'time': []}}, u'mouseout': {u'state': {u'target': [], u'time': []}, u'edge': {u'target': [], u'time': []}}}",,,"[30806, 1545, 15]",27.6,,1175630,11.0,2.0,mouselab-mdp,,17
"[6619, 14483, 15623]","[u'up', u'up', u'left']",,,"[2, 0, 0]","[1, 3, 7, 12]","{u'mouseover': {u'state': {u'target': [], u'time': []}, u'edge': {u'target': [], u'time': []}}, u'click': {u'state': {u'target': [u'12', u'3', u'16'], u'time': [1616, 3351, 4879]}, u'edge': {u'target': [], u'time': []}}, u'mouseout': {u'state': {u'target': [], u'time': []}, u'edge': {u'target': [], u'time': []}}}",,,"[6619, 1321, 6]",18.2,,1230580,12.0,4.0,mouselab-mdp,,17
