A2YJZYTC8WOIZT:3IXQG4FA2TYTAZKY9IY9M9ZWO7NB90,0,1527704644884,"{""rt"": 59615, ""trial_type"": ""text"", ""internal_node_id"": ""0.0-0.0"", ""time_elapsed"": 59628, ""key_press"": 32, ""trial_index"": 0}"
A2YJZYTC8WOIZT:3IXQG4FA2TYTAZKY9IY9M9ZWO7NB90,1,1527704660593,"{""rt"": 14682, ""trial_type"": ""text"", ""internal_node_id"": ""0.0-1.0"", ""time_elapsed"": 75338, ""key_press"": 32, ""trial_index"": 1}"
A2YJZYTC8WOIZT:3IXQG4FA2TYTAZKY9IY9M9ZWO7NB90,2,1527704686905,"{""rt"": [9925, 2234, 9048], ""trial_type"": ""mouselab-mdp"", ""trialTime"": 25137, ""rewards"": [4, -4, 48], ""stateRewards"": ["""", 2, -4, 24, -24, -2, 8, 24, 48, 4, -4, 48, 48], ""actionTimes"": [9935, 12697, 22263], ""trial_id"": 5246743485396079000, ""time_elapsed"": 101650, ""actions"": [""left"", ""left"", ""down""], ""trialIndex"": 0, ""score"": 46, ""trial_index"": 2, ""simulationMode"": [null, null, null], ""queries"": {""mouseover"": {""state"": {""target"": [], ""time"": []}, ""edge"": {""target"": [], ""time"": []}}, ""click"": {""state"": {""target"": [""5"", ""9""], ""time"": [5747, 7087]}, ""edge"": {""target"": [], ""time"": []}}, ""mouseout"": {""state"": {""target"": [], ""time"": []}, ""edge"": {""target"": [], ""time"": []}}}, ""path"": [""0"", ""9"", ""10"", ""12""], ""internal_node_id"": ""0.0-2.0-0.0"", ""block"": ""pre_test""}"
A2YJZYTC8WOIZT:3IXQG4FA2TYTAZKY9IY9M9ZWO7NB90,3,1527704707818,"{""rt"": [10366, 1406, 4450], ""trial_type"": ""mouselab-mdp"", ""trialTime"": 19750, ""rewards"": [-2, -4, 48], ""stateRewards"": ["""", -4, 4, 24, 24, -2, -4, 48, -24, -4, 8, -48, 48], ""actionTimes"": [10377, 12296, 17271], ""trial_id"": -4874666135804490000, ""time_elapsed"": 122563, ""actions"": [""right"", ""right"", ""up""], ""trialIndex"": 1, ""score"": 39, ""trial_index"": 3, ""simulationMode"": [null, null, null], ""queries"": {""mouseover"": {""state"": {""target"": [], ""time"": []}, ""edge"": {""target"": [], ""time"": []}}, ""click"": {""state"": {""target"": [""9"", ""1"", ""5""], ""time"": [3278, 5601, 6742]}, ""edge"": {""target"": [], ""time"": []}}, ""mouseout"": {""state"": {""target"": [], ""time"": []}, ""edge"": {""target"": [], ""time"": []}}}, ""path"": [""0"", ""5"", ""6"", ""7""], ""internal_node_id"": ""0.0-2.0-1.0"", ""block"": ""pre_test""}"
A2YJZYTC8WOIZT:3IXQG4FA2TYTAZKY9IY9M9ZWO7NB90,4,1527704720564,"{""rt"": [3643, 950, 1716], ""trial_type"": ""mouselab-mdp"", ""trialTime"": 11619, ""rewards"": [-4, -4, 24], ""stateRewards"": ["""", -4, -4, -24, 24, 2, -4, 24, -48, -2, 8, -48, -48], ""actionTimes"": [3648, 5119, 7343], ""trial_id"": -1389625695571519700, ""time_elapsed"": 135309, ""actions"": [""up"", ""up"", ""left""], ""trialIndex"": 2, ""score"": 16, ""trial_index"": 4, ""simulationMode"": [null, null, null], ""queries"": {""mouseover"": {""state"": {""target"": [], ""time"": []}, ""edge"": {""target"": [], ""time"": []}}, ""click"": {""state"": {""target"": [], ""time"": []}, ""edge"": {""target"": [], ""time"": []}}, ""mouseout"": {""state"": {""target"": [], ""time"": []}, ""edge"": {""target"": [], ""time"": []}}}, ""path"": [""0"", ""1"", ""2"", ""4""], ""internal_node_id"": ""0.0-2.0-2.0"", ""block"": ""pre_test""}"
A2YJZYTC8WOIZT:3IXQG4FA2TYTAZKY9IY9M9ZWO7NB90,5,1527704735582,"{""rt"": [5598, 460, 3357], ""trial_type"": ""mouselab-mdp"", ""trialTime"": 13860, ""rewards"": [4, 8, 24], ""stateRewards"": ["""", 2, 4, 24, -24, 4, 8, -48, 24, 4, -8, -24, 24], ""actionTimes"": [5610, 6578, 10436], ""trial_id"": 8950946188299295000, ""time_elapsed"": 150327, ""actions"": [""right"", ""right"", ""down""], ""trialIndex"": 3, ""score"": 35, ""trial_index"": 5, ""simulationMode"": [null, null, null], ""queries"": {""mouseover"": {""state"": {""target"": [], ""time"": []}, ""edge"": {""target"": [], ""time"": []}}, ""click"": {""state"": {""target"": [""5""], ""time"": [3828]}, ""edge"": {""target"": [], ""time"": []}}, ""mouseout"": {""state"": {""target"": [], ""time"": []}, ""edge"": {""target"": [], ""time"": []}}}, ""path"": [""0"", ""5"", ""6"", ""8""], ""internal_node_id"": ""0.0-2.0-3.0"", ""block"": ""pre_test""}"
A2YJZYTC8WOIZT:3IXQG4FA2TYTAZKY9IY9M9ZWO7NB90,6,1527704748197,"{""rt"": [4588, 1186, 1888], ""trial_type"": ""mouselab-mdp"", ""trialTime"": 11514, ""rewards"": [4, 8, -24], ""stateRewards"": ["""", 4, 8, -24, 48, 2, 8, -48, -48, 2, -4, 24, -48], ""actionTimes"": [4596, 6287, 8684], ""trial_id"": -6668518537832265000, ""time_elapsed"": 162942, ""actions"": [""up"", ""up"", ""right""], ""trialIndex"": 4, ""score"": -13, ""trial_index"": 6, ""simulationMode"": [null, null, null], ""queries"": {""mouseover"": {""state"": {""target"": [], ""time"": []}, ""edge"": {""target"": [], ""time"": []}}, ""click"": {""state"": {""target"": [""1""], ""time"": [3067]}, ""edge"": {""target"": [], ""time"": []}}, ""mouseout"": {""state"": {""target"": [], ""time"": []}, ""edge"": {""target"": [], ""time"": []}}}, ""path"": [""0"", ""1"", ""2"", ""3""], ""internal_node_id"": ""0.0-2.0-4.0"", ""block"": ""pre_test""}"
A2YJZYTC8WOIZT:3IXQG4FA2TYTAZKY9IY9M9ZWO7NB90,7,1527704755114,"{""rt"": 5911, ""trial_type"": ""text"", ""internal_node_id"": ""0.0-3.0"", ""time_elapsed"": 169858, ""key_press"": 32, ""trial_index"": 7}"
A2YJZYTC8WOIZT:3IXQG4FA2TYTAZKY9IY9M9ZWO7NB90,8,1527704869930,"{""rt"": [68678, 1382, 857], ""trial_type"": ""mouselab-mdp"", ""trialTime"": 113677, ""rewards"": [4, -8, -24], ""stateRewards"": ["""", 2, 4, 24, -24, 4, -8, 48, -24, -4, 8, -48, 48], ""actionTimes"": [68687, 109617, 110981], ""trial_id"": 5010381167344479000, ""time_elapsed"": 284675, ""actions"": [""right"", ""right"", ""down""], ""trialIndex"": 5, ""score"": -36, ""trial_index"": 8, ""simulationMode"": [null, null, null], ""queries"": {""mouseover"": {""state"": {""target"": [], ""time"": []}, ""edge"": {""target"": [], ""time"": []}}, ""click"": {""state"": {""target"": [""9"", ""5"", ""1"", ""6"", ""10"", ""4"", ""11"", ""12""], ""time"": [60373, 66070, 69915, 84393, 96586, 99156, 99927, 101299]}, ""edge"": {""target"": [], ""time"": []}}, ""mouseout"": {""state"": {""target"": [], ""time"": []}, ""edge"": {""target"": [], ""time"": []}}}, ""path"": [""0"", ""5"", ""6"", ""8""], ""internal_node_id"": ""0.0-4.0-0.0"", ""block"": ""training""}"
A2YJZYTC8WOIZT:3IXQG4FA2TYTAZKY9IY9M9ZWO7NB90,9,1527704924399,"{""rt"": [1946, 5336, 876], ""trial_type"": ""mouselab-mdp"", ""trialTime"": 53372, ""rewards"": [-4, 4, 24], ""stateRewards"": ["""", -4, 4, 24, -24, -2, 4, 48, -24, -4, -8, -48, 48], ""actionTimes"": [1952, 49833, 51224], ""trial_id"": 858865579533637100, ""time_elapsed"": 339144, ""actions"": [""up"", ""up"", ""right""], ""trialIndex"": 6, ""score"": 24, ""trial_index"": 9, ""simulationMode"": [null, null, null], ""queries"": {""mouseover"": {""state"": {""target"": [], ""time"": []}, ""edge"": {""target"": [], ""time"": []}}, ""click"": {""state"": {""target"": [], ""time"": []}, ""edge"": {""target"": [], ""time"": []}}, ""mouseout"": {""state"": {""target"": [], ""time"": []}, ""edge"": {""target"": [], ""time"": []}}}, ""path"": [""0"", ""1"", ""2"", ""3""], ""internal_node_id"": ""0.0-4.0-1.0"", ""block"": ""training""}"
A2YJZYTC8WOIZT:3IXQG4FA2TYTAZKY9IY9M9ZWO7NB90,10,1527705007671,"{""rt"": [33695, 2258, 462], ""trial_type"": ""mouselab-mdp"", ""trialTime"": 82113, ""rewards"": [-4, 4, 24], ""stateRewards"": ["""", 4, -8, -48, -48, -4, 4, 24, 24, -2, -8, -24, 48], ""actionTimes"": [33707, 78509, 79487], ""trial_id"": -4569496646062697500, ""time_elapsed"": 422416, ""actions"": [""right"", ""right"", ""down""], ""trialIndex"": 7, ""score"": 16, ""trial_index"": 10, ""simulationMode"": [null, null, null], ""queries"": {""mouseover"": {""state"": {""target"": [], ""time"": []}, ""edge"": {""target"": [], ""time"": []}}, ""click"": {""state"": {""target"": [""9"", ""5"", ""1"", ""2"", ""4"", ""3"", ""12"", ""11""], ""time"": [29947, 34648, 40933, 57232, 60024, 65212, 67189, 77772]}, ""edge"": {""target"": [], ""time"": []}}, ""mouseout"": {""state"": {""target"": [], ""time"": []}, ""edge"": {""target"": [], ""time"": []}}}, ""path"": [""0"", ""5"", ""6"", ""8""], ""internal_node_id"": ""0.0-4.0-2.0"", ""block"": ""training""}"
A2YJZYTC8WOIZT:3IXQG4FA2TYTAZKY9IY9M9ZWO7NB90,11,1527705079611,"{""rt"": [39741, 8074, 1737], ""trial_type"": ""mouselab-mdp"", ""trialTime"": 70830, ""rewards"": [2, -4, 24], ""stateRewards"": ["""", 2, -4, 24, 24, -4, 4, -24, -24, -2, 4, -24, -48], ""actionTimes"": [39748, 66396, 68643], ""trial_id"": 7862543089384343000, ""time_elapsed"": 494356, ""actions"": [""up"", ""up"", ""right""], ""trialIndex"": 8, ""score"": 21, ""trial_index"": 11, ""simulationMode"": [null, null, null], ""queries"": {""mouseover"": {""state"": {""target"": [], ""time"": []}, ""edge"": {""target"": [], ""time"": []}}, ""click"": {""state"": {""target"": [""3""], ""time"": [37553]}, ""edge"": {""target"": [], ""time"": []}}, ""mouseout"": {""state"": {""target"": [], ""time"": []}, ""edge"": {""target"": [], ""time"": []}}}, ""path"": [""0"", ""1"", ""2"", ""3""], ""internal_node_id"": ""0.0-4.0-3.0"", ""block"": ""training""}"
A2YJZYTC8WOIZT:3IXQG4FA2TYTAZKY9IY9M9ZWO7NB90,12,1527705132449,"{""rt"": [3093, 1739, 780], ""trial_type"": ""mouselab-mdp"", ""trialTime"": 51762, ""rewards"": [-2, -8, -48], ""stateRewards"": ["""", -2, -8, -48, -48, -4, -8, 24, 24, 4, -4, 48, -24], ""actionTimes"": [3099, 47383, 48679], ""trial_id"": -3027317260685893600, ""time_elapsed"": 547194, ""actions"": [""up"", ""up"", ""right""], ""trialIndex"": 9, ""score"": -58, ""trial_index"": 12, ""simulationMode"": [null, null, null], ""queries"": {""mouseover"": {""state"": {""target"": [], ""time"": []}, ""edge"": {""target"": [], ""time"": []}}, ""click"": {""state"": {""target"": [], ""time"": []}, ""edge"": {""target"": [], ""time"": []}}, ""mouseout"": {""state"": {""target"": [], ""time"": []}, ""edge"": {""target"": [], ""time"": []}}}, ""path"": [""0"", ""1"", ""2"", ""3""], ""internal_node_id"": ""0.0-4.0-4.0"", ""block"": ""training""}"
A2YJZYTC8WOIZT:3IXQG4FA2TYTAZKY9IY9M9ZWO7NB90,13,1527705163699,"{""rt"": [6909, 615, 1308], ""trial_type"": ""mouselab-mdp"", ""trialTime"": 30172, ""rewards"": [-2, -8, 24], ""stateRewards"": ["""", 4, -8, 24, 48, 4, -8, -24, 48, -2, -8, 24, -24], ""actionTimes"": [6916, 26074, 27891], ""trial_id"": 6608608155125090000, ""time_elapsed"": 578444, ""actions"": [""left"", ""left"", ""up""], ""trialIndex"": 10, ""score"": 13, ""trial_index"": 13, ""simulationMode"": [null, null, null], ""queries"": {""mouseover"": {""state"": {""target"": [], ""time"": []}, ""edge"": {""target"": [], ""time"": []}}, ""click"": {""state"": {""target"": [""11""], ""time"": [4623]}, ""edge"": {""target"": [], ""time"": []}}, ""mouseout"": {""state"": {""target"": [], ""time"": []}, ""edge"": {""target"": [], ""time"": []}}}, ""path"": [""0"", ""9"", ""10"", ""11""], ""internal_node_id"": ""0.0-4.0-5.0"", ""block"": ""training""}"
A2YJZYTC8WOIZT:3IXQG4FA2TYTAZKY9IY9M9ZWO7NB90,14,1527705212339,"{""rt"": [41776, 691, 707], ""trial_type"": ""mouselab-mdp"", ""trialTime"": 47527, ""rewards"": [2, -8, -24], ""stateRewards"": ["""", 2, -8, -24, 48, -2, -4, -24, -24, 4, 8, 24, 48], ""actionTimes"": [41781, 43156, 44368], ""trial_id"": 6516760737789360000, ""time_elapsed"": 627084, ""actions"": [""up"", ""up"", ""right""], ""trialIndex"": 11, ""score"": -31, ""trial_index"": 14, ""simulationMode"": [null, null, null], ""queries"": {""mouseover"": {""state"": {""target"": [], ""time"": []}, ""edge"": {""target"": [], ""time"": []}}, ""click"": {""state"": {""target"": [""12""], ""time"": [41767]}, ""edge"": {""target"": [], ""time"": []}}, ""mouseout"": {""state"": {""target"": [], ""time"": []}, ""edge"": {""target"": [], ""time"": []}}}, ""path"": [""0"", ""1"", ""2"", ""3""], ""internal_node_id"": ""0.0-4.0-6.0"", ""block"": ""training""}"
A2YJZYTC8WOIZT:3IXQG4FA2TYTAZKY9IY9M9ZWO7NB90,15,1527705372508,"{""rt"": [2474, 94480, 689], ""trial_type"": ""mouselab-mdp"", ""trialTime"": 159064, ""rewards"": [2, 8, -48], ""stateRewards"": ["""", 2, 8, -24, -48, -2, 8, 48, 24, 4, 8, -24, -48], ""actionTimes"": [2480, 139482, 140683], ""trial_id"": 7708577571422581000, ""time_elapsed"": 787252, ""actions"": [""up"", ""up"", ""left""], ""trialIndex"": 12, ""score"": -38, ""trial_index"": 15, ""simulationMode"": [null, null, null], ""queries"": {""mouseover"": {""state"": {""target"": [], ""time"": []}, ""edge"": {""target"": [], ""time"": []}}, ""click"": {""state"": {""target"": [], ""time"": []}, ""edge"": {""target"": [], ""time"": []}}, ""mouseout"": {""state"": {""target"": [], ""time"": []}, ""edge"": {""target"": [], ""time"": []}}}, ""path"": [""0"", ""1"", ""2"", ""4""], ""internal_node_id"": ""0.0-4.0-7.0"", ""block"": ""training""}"
A2YJZYTC8WOIZT:3IXQG4FA2TYTAZKY9IY9M9ZWO7NB90,16,1527705425839,"{""rt"": [2199, 2140, 2328], ""trial_type"": ""mouselab-mdp"", ""trialTime"": 52204, ""rewards"": [4, 8, 24], ""stateRewards"": ["""", 4, -4, -48, -48, 4, 8, 24, -24, -2, 8, 48, -48], ""actionTimes"": [2208, 46891, 49733], ""trial_id"": -6978553059181346000, ""time_elapsed"": 840584, ""actions"": [""right"", ""right"", ""up""], ""trialIndex"": 13, ""score"": 36, ""trial_index"": 16, ""simulationMode"": [null, null, null], ""queries"": {""mouseover"": {""state"": {""target"": [], ""time"": []}, ""edge"": {""target"": [], ""time"": []}}, ""click"": {""state"": {""target"": [], ""time"": []}, ""edge"": {""target"": [], ""time"": []}}, ""mouseout"": {""state"": {""target"": [], ""time"": []}, ""edge"": {""target"": [], ""time"": []}}}, ""path"": [""0"", ""5"", ""6"", ""7""], ""internal_node_id"": ""0.0-4.0-8.0"", ""block"": ""training""}"
A2YJZYTC8WOIZT:3IXQG4FA2TYTAZKY9IY9M9ZWO7NB90,17,1527705491471,"{""rt"": [4184, 14159, 740], ""trial_type"": ""mouselab-mdp"", ""trialTime"": 64493, ""rewards"": [-2, -4, 24], ""stateRewards"": ["""", -2, -8, 24, 48, -2, 8, -24, -24, -2, -4, 24, -24], ""actionTimes"": [4190, 60900, 62162], ""trial_id"": -3603402282008602000, ""time_elapsed"": 906216, ""actions"": [""left"", ""left"", ""up""], ""trialIndex"": 14, ""score"": 18, ""trial_index"": 17, ""simulationMode"": [null, null, null], ""queries"": {""mouseover"": {""state"": {""target"": [], ""time"": []}, ""edge"": {""target"": [], ""time"": []}}, ""click"": {""state"": {""target"": [], ""time"": []}, ""edge"": {""target"": [], ""time"": []}}, ""mouseout"": {""state"": {""target"": [], ""time"": []}, ""edge"": {""target"": [], ""time"": []}}}, ""path"": [""0"", ""9"", ""10"", ""11""], ""internal_node_id"": ""0.0-4.0-9.0"", ""block"": ""training""}"
A2YJZYTC8WOIZT:3IXQG4FA2TYTAZKY9IY9M9ZWO7NB90,18,1527705495704,"{""rt"": 3227, ""trial_type"": ""text"", ""internal_node_id"": ""0.0-5.0"", ""time_elapsed"": 910449, ""key_press"": 32, ""trial_index"": 18}"
A2YJZYTC8WOIZT:3IXQG4FA2TYTAZKY9IY9M9ZWO7NB90,19,1527705507051,"{""rt"": 10329, ""trial_type"": ""text"", ""internal_node_id"": ""0.0-6.0"", ""time_elapsed"": 921795, ""key_press"": 32, ""trial_index"": 19}"
A2YJZYTC8WOIZT:3IXQG4FA2TYTAZKY9IY9M9ZWO7NB90,20,1527705613814,"{""rt"": [101491, 545, 175], ""trial_type"": ""mouselab-mdp"", ""trialTime"": 105674, ""rewards"": [4, -4, 24], ""stateRewards"": ["""", 4, -4, -24, 24, 2, 4, -24, -48, 4, -8, 48, -48], ""actionTimes"": [101499, 102458, 103131], ""trial_id"": 4251687641687985000, ""time_elapsed"": 1028559, ""actions"": [""up"", ""up"", ""left""], ""trialIndex"": 15, ""score"": 22, ""trial_index"": 20, ""simulationMode"": [null, null, null], ""queries"": {""mouseover"": {""state"": {""target"": [], ""time"": []}, ""edge"": {""target"": [], ""time"": []}}, ""click"": {""state"": {""target"": [""4"", ""1""], ""time"": [101237, 101267]}, ""edge"": {""target"": [], ""time"": []}}, ""mouseout"": {""state"": {""target"": [], ""time"": []}, ""edge"": {""target"": [], ""time"": []}}}, ""path"": [""0"", ""1"", ""2"", ""4""], ""internal_node_id"": ""0.0-7.0-0.0"", ""block"": ""test""}"
A2YJZYTC8WOIZT:3IXQG4FA2TYTAZKY9IY9M9ZWO7NB90,21,1527705624252,"{""rt"": [3019, 459, 382], ""trial_type"": ""mouselab-mdp"", ""trialTime"": 9322, ""rewards"": [2, 4, 24], ""stateRewards"": ["""", -2, -4, 48, -48, 2, 4, -48, 24, 4, 8, -48, 48], ""actionTimes"": [3024, 4011, 4925], ""trial_id"": -2817098998670331000, ""time_elapsed"": 1038997, ""actions"": [""right"", ""right"", ""down""], ""trialIndex"": 16, ""score"": 30, ""trial_index"": 21, ""simulationMode"": [null, null, null], ""queries"": {""mouseover"": {""state"": {""target"": [], ""time"": []}, ""edge"": {""target"": [], ""time"": []}}, ""click"": {""state"": {""target"": [], ""time"": []}, ""edge"": {""target"": [], ""time"": []}}, ""mouseout"": {""state"": {""target"": [], ""time"": []}, ""edge"": {""target"": [], ""time"": []}}}, ""path"": [""0"", ""5"", ""6"", ""8""], ""internal_node_id"": ""0.0-7.0-1.0"", ""block"": ""test""}"
A2YJZYTC8WOIZT:3IXQG4FA2TYTAZKY9IY9M9ZWO7NB90,22,1527705635882,"{""rt"": [2885, 528, 1596], ""trial_type"": ""mouselab-mdp"", ""trialTime"": 10502, ""rewards"": [-4, 4, -24], ""stateRewards"": ["""", -4, 4, 24, 24, 2, 8, -24, 24, -4, 4, -24, 48], ""actionTimes"": [2894, 3940, 6041], ""trial_id"": 5347440239323845000, ""time_elapsed"": 1050626, ""actions"": [""left"", ""left"", ""up""], ""trialIndex"": 17, ""score"": -24, ""trial_index"": 22, ""simulationMode"": [null, null, null], ""queries"": {""mouseover"": {""state"": {""target"": [], ""time"": []}, ""edge"": {""target"": [], ""time"": []}}, ""click"": {""state"": {""target"": [], ""time"": []}, ""edge"": {""target"": [], ""time"": []}}, ""mouseout"": {""state"": {""target"": [], ""time"": []}, ""edge"": {""target"": [], ""time"": []}}}, ""path"": [""0"", ""9"", ""10"", ""11""], ""internal_node_id"": ""0.0-7.0-2.0"", ""block"": ""test""}"
A2YJZYTC8WOIZT:3IXQG4FA2TYTAZKY9IY9M9ZWO7NB90,23,1527705661413,"{""rt"": [12278, 408, 529], ""trial_type"": ""mouselab-mdp"", ""trialTime"": 24393, ""rewards"": [2, 8, 48], ""stateRewards"": ["""", 2, 8, 48, -24, -4, -4, -48, 24, -4, -8, -48, -24], ""actionTimes"": [12283, 13206, 14248], ""trial_id"": 2372710761025483000, ""time_elapsed"": 1076158, ""actions"": [""up"", ""up"", ""right""], ""trialIndex"": 18, ""score"": 58, ""trial_index"": 23, ""simulationMode"": [null, null, null], ""queries"": {""mouseover"": {""state"": {""target"": [], ""time"": []}, ""edge"": {""target"": [], ""time"": []}}, ""click"": {""state"": {""target"": [], ""time"": []}, ""edge"": {""target"": [], ""time"": []}}, ""mouseout"": {""state"": {""target"": [], ""time"": []}, ""edge"": {""target"": [], ""time"": []}}}, ""path"": [""0"", ""1"", ""2"", ""3""], ""internal_node_id"": ""0.0-7.0-3.0"", ""block"": ""test""}"
A2YJZYTC8WOIZT:3IXQG4FA2TYTAZKY9IY9M9ZWO7NB90,24,1527705673470,"{""rt"": [1836, 391, 476], ""trial_type"": ""mouselab-mdp"", ""trialTime"": 10911, ""rewards"": [-4, -4, -24], ""stateRewards"": ["""", -4, 8, 48, 24, 2, -8, -48, -24, -4, -4, 48, -24], ""actionTimes"": [1843, 2753, 3732], ""trial_id"": 3419769505624262700, ""time_elapsed"": 1088215, ""actions"": [""left"", ""left"", ""down""], ""trialIndex"": 19, ""score"": -32, ""trial_index"": 24, ""simulationMode"": [null, null, null], ""queries"": {""mouseover"": {""state"": {""target"": [], ""time"": []}, ""edge"": {""target"": [], ""time"": []}}, ""click"": {""state"": {""target"": [], ""time"": []}, ""edge"": {""target"": [], ""time"": []}}, ""mouseout"": {""state"": {""target"": [], ""time"": []}, ""edge"": {""target"": [], ""time"": []}}}, ""path"": [""0"", ""9"", ""10"", ""12""], ""internal_node_id"": ""0.0-7.0-4.0"", ""block"": ""test""}"
A2YJZYTC8WOIZT:3IXQG4FA2TYTAZKY9IY9M9ZWO7NB90,25,1527705684671,"{""rt"": [1447, 441, 317], ""trial_type"": ""mouselab-mdp"", ""trialTime"": 10106, ""rewards"": [2, -4, 48], ""stateRewards"": ["""", 2, -4, 48, 24, -2, -4, 24, 24, 2, -8, -24, 24], ""actionTimes"": [1457, 2407, 3242], ""trial_id"": 556601214791588500, ""time_elapsed"": 1099416, ""actions"": [""up"", ""up"", ""right""], ""trialIndex"": 20, ""score"": 46, ""trial_index"": 25, ""simulationMode"": [null, null, null], ""queries"": {""mouseover"": {""state"": {""target"": [], ""time"": []}, ""edge"": {""target"": [], ""time"": []}}, ""click"": {""state"": {""target"": [], ""time"": []}, ""edge"": {""target"": [], ""time"": []}}, ""mouseout"": {""state"": {""target"": [], ""time"": []}, ""edge"": {""target"": [], ""time"": []}}}, ""path"": [""0"", ""1"", ""2"", ""3""], ""internal_node_id"": ""0.0-7.0-5.0"", ""block"": ""test""}"
A2YJZYTC8WOIZT:3IXQG4FA2TYTAZKY9IY9M9ZWO7NB90,26,1527705693829,"{""rt"": [2118, 414, 589], ""trial_type"": ""mouselab-mdp"", ""trialTime"": 8003, ""rewards"": [2, -4, 24], ""stateRewards"": ["""", 2, -4, 24, -48, -4, -8, -48, -48, -4, 4, -48, 48], ""actionTimes"": [2123, 3042, 4143], ""trial_id"": 2118335984300500500, ""time_elapsed"": 1108574, ""actions"": [""up"", ""up"", ""right""], ""trialIndex"": 21, ""score"": 22, ""trial_index"": 26, ""simulationMode"": [null, null, null], ""queries"": {""mouseover"": {""state"": {""target"": [], ""time"": []}, ""edge"": {""target"": [], ""time"": []}}, ""click"": {""state"": {""target"": [], ""time"": []}, ""edge"": {""target"": [], ""time"": []}}, ""mouseout"": {""state"": {""target"": [], ""time"": []}, ""edge"": {""target"": [], ""time"": []}}}, ""path"": [""0"", ""1"", ""2"", ""3""], ""internal_node_id"": ""0.0-7.0-6.0"", ""block"": ""test""}"
A2YJZYTC8WOIZT:3IXQG4FA2TYTAZKY9IY9M9ZWO7NB90,27,1527705704795,"{""rt"": [1069, 397, 275], ""trial_type"": ""mouselab-mdp"", ""trialTime"": 9837, ""rewards"": [4, 8, -48], ""stateRewards"": ["""", 2, 4, -24, 24, 4, 8, -48, -48, -4, -4, -48, -24], ""actionTimes"": [1079, 1985, 2764], ""trial_id"": -7784032825751816000, ""time_elapsed"": 1119539, ""actions"": [""right"", ""right"", ""up""], ""trialIndex"": 22, ""score"": -36, ""trial_index"": 27, ""simulationMode"": [null, null, null], ""queries"": {""mouseover"": {""state"": {""target"": [], ""time"": []}, ""edge"": {""target"": [], ""time"": []}}, ""click"": {""state"": {""target"": [], ""time"": []}, ""edge"": {""target"": [], ""time"": []}}, ""mouseout"": {""state"": {""target"": [], ""time"": []}, ""edge"": {""target"": [], ""time"": []}}}, ""path"": [""0"", ""5"", ""6"", ""7""], ""internal_node_id"": ""0.0-7.0-7.0"", ""block"": ""test""}"
A2YJZYTC8WOIZT:3IXQG4FA2TYTAZKY9IY9M9ZWO7NB90,28,1527705780143,"{""rt"": [2902, 392, 482], ""trial_type"": ""mouselab-mdp"", ""trialTime"": 74249, ""rewards"": [4, -8, 24], ""stateRewards"": ["""", 4, -8, 24, 24, 2, 4, 24, 48, -2, 4, 24, -48], ""actionTimes"": [2910, 3811, 4799], ""trial_id"": 6722698278557235000, ""time_elapsed"": 1194887, ""actions"": [""up"", ""up"", ""left""], ""trialIndex"": 23, ""score"": 20, ""trial_index"": 28, ""simulationMode"": [null, null, null], ""queries"": {""mouseover"": {""state"": {""target"": [], ""time"": []}, ""edge"": {""target"": [], ""time"": []}}, ""click"": {""state"": {""target"": [], ""time"": []}, ""edge"": {""target"": [], ""time"": []}}, ""mouseout"": {""state"": {""target"": [], ""time"": []}, ""edge"": {""target"": [], ""time"": []}}}, ""path"": [""0"", ""1"", ""2"", ""4""], ""internal_node_id"": ""0.0-7.0-8.0"", ""block"": ""test""}"
A2YJZYTC8WOIZT:3IXQG4FA2TYTAZKY9IY9M9ZWO7NB90,29,1527705791173,"{""rt"": [4594, 1089, 4], ""trial_type"": ""mouselab-mdp"", ""trialTime"": 9918, ""rewards"": [2, -4, -24], ""stateRewards"": ["""", 2, 4, -24, 48, -4, 8, -48, 48, 2, -4, 24, -24], ""actionTimes"": [4601, 6186, 6714], ""trial_id"": -8327671364504025000, ""time_elapsed"": 1205918, ""actions"": [""left"", ""left"", ""down""], ""trialIndex"": 24, ""score"": -26, ""trial_index"": 29, ""simulationMode"": [null, null, null], ""queries"": {""mouseover"": {""state"": {""target"": [], ""time"": []}, ""edge"": {""target"": [], ""time"": []}}, ""click"": {""state"": {""target"": [], ""time"": []}, ""edge"": {""target"": [], ""time"": []}}, ""mouseout"": {""state"": {""target"": [], ""time"": []}, ""edge"": {""target"": [], ""time"": []}}}, ""path"": [""0"", ""9"", ""10"", ""12""], ""internal_node_id"": ""0.0-7.0-9.0"", ""block"": ""test""}"
A2YJZYTC8WOIZT:3IXQG4FA2TYTAZKY9IY9M9ZWO7NB90,30,1527705803375,"{""rt"": [810, 336, 492], ""trial_type"": ""mouselab-mdp"", ""trialTime"": 11072, ""rewards"": [-2, -4, 48], ""stateRewards"": ["""", -2, -4, 48, -24, 2, -4, 48, 24, -2, -8, -24, -24], ""actionTimes"": [820, 1672, 2684], ""trial_id"": 2593864447454748000, ""time_elapsed"": 1218120, ""actions"": [""up"", ""up"", ""right""], ""trialIndex"": 25, ""score"": 42, ""trial_index"": 30, ""simulationMode"": [null, null, null], ""queries"": {""mouseover"": {""state"": {""target"": [], ""time"": []}, ""edge"": {""target"": [], ""time"": []}}, ""click"": {""state"": {""target"": [], ""time"": []}, ""edge"": {""target"": [], ""time"": []}}, ""mouseout"": {""state"": {""target"": [], ""time"": []}, ""edge"": {""target"": [], ""time"": []}}}, ""path"": [""0"", ""1"", ""2"", ""3""], ""internal_node_id"": ""0.0-7.0-10.0"", ""block"": ""test""}"
A2YJZYTC8WOIZT:3IXQG4FA2TYTAZKY9IY9M9ZWO7NB90,31,1527705929069,"{""rt"": [2043, 194, 162], ""trial_type"": ""mouselab-mdp"", ""trialTime"": 124595, ""rewards"": [4, 4, -48], ""stateRewards"": ["""", 4, 4, -48, 48, 4, 4, -24, -24, 2, -8, 48, -24], ""actionTimes"": [2050, 2760, 3433], ""trial_id"": 3802673927624508000, ""time_elapsed"": 1343814, ""actions"": [""up"", ""up"", ""right""], ""trialIndex"": 26, ""score"": -40, ""trial_index"": 31, ""simulationMode"": [null, null, null], ""queries"": {""mouseover"": {""state"": {""target"": [], ""time"": []}, ""edge"": {""target"": [], ""time"": []}}, ""click"": {""state"": {""target"": [], ""time"": []}, ""edge"": {""target"": [], ""time"": []}}, ""mouseout"": {""state"": {""target"": [], ""time"": []}, ""edge"": {""target"": [], ""time"": []}}}, ""path"": [""0"", ""1"", ""2"", ""3""], ""internal_node_id"": ""0.0-7.0-11.0"", ""block"": ""test""}"
A2YJZYTC8WOIZT:3IXQG4FA2TYTAZKY9IY9M9ZWO7NB90,32,1527705946463,"{""rt"": [11502, 427, 1785], ""trial_type"": ""mouselab-mdp"", ""trialTime"": 16316, ""rewards"": [2, 4, -24], ""stateRewards"": ["""", -2, 8, 24, -48, 2, 4, -24, 24, -2, -8, 48, -24], ""actionTimes"": [11510, 12446, 14754], ""trial_id"": 6282558609452272000, ""time_elapsed"": 1361207, ""actions"": [""right"", ""right"", ""up""], ""trialIndex"": 27, ""score"": -20, ""trial_index"": 32, ""simulationMode"": [null, null, null], ""queries"": {""mouseover"": {""state"": {""target"": [], ""time"": []}, ""edge"": {""target"": [], ""time"": []}}, ""click"": {""state"": {""target"": [""1"", ""2""], ""time"": [6066, 7449]}, ""edge"": {""target"": [], ""time"": []}}, ""mouseout"": {""state"": {""target"": [], ""time"": []}, ""edge"": {""target"": [], ""time"": []}}}, ""path"": [""0"", ""5"", ""6"", ""7""], ""internal_node_id"": ""0.0-7.0-12.0"", ""block"": ""test""}"
A2YJZYTC8WOIZT:3IXQG4FA2TYTAZKY9IY9M9ZWO7NB90,33,1527705958095,"{""rt"": [1944, 450, 342], ""trial_type"": ""mouselab-mdp"", ""trialTime"": 10507, ""rewards"": [4, 4, -48], ""stateRewards"": ["""", 2, -4, 24, -48, -4, 4, 48, 48, 4, 4, -48, -24], ""actionTimes"": [1950, 2924, 3773], ""trial_id"": 1708036831889561600, ""time_elapsed"": 1372840, ""actions"": [""left"", ""left"", ""up""], ""trialIndex"": 28, ""score"": -40, ""trial_index"": 33, ""simulationMode"": [null, null, null], ""queries"": {""mouseover"": {""state"": {""target"": [], ""time"": []}, ""edge"": {""target"": [], ""time"": []}}, ""click"": {""state"": {""target"": [], ""time"": []}, ""edge"": {""target"": [], ""time"": []}}, ""mouseout"": {""state"": {""target"": [], ""time"": []}, ""edge"": {""target"": [], ""time"": []}}}, ""path"": [""0"", ""9"", ""10"", ""11""], ""internal_node_id"": ""0.0-7.0-13.0"", ""block"": ""test""}"
A2YJZYTC8WOIZT:3IXQG4FA2TYTAZKY9IY9M9ZWO7NB90,34,1527705970426,"{""rt"": [1932, 392, 233], ""trial_type"": ""mouselab-mdp"", ""trialTime"": 11193, ""rewards"": [4, 4, -48], ""stateRewards"": ["""", 4, 4, 48, -48, -2, -8, 48, -24, -4, -8, 24, -48], ""actionTimes"": [1938, 2834, 3572], ""trial_id"": -4670080337334774000, ""time_elapsed"": 1385171, ""actions"": [""up"", ""up"", ""left""], ""trialIndex"": 29, ""score"": -40, ""trial_index"": 34, ""simulationMode"": [null, null, null], ""queries"": {""mouseover"": {""state"": {""target"": [], ""time"": []}, ""edge"": {""target"": [], ""time"": []}}, ""click"": {""state"": {""target"": [], ""time"": []}, ""edge"": {""target"": [], ""time"": []}}, ""mouseout"": {""state"": {""target"": [], ""time"": []}, ""edge"": {""target"": [], ""time"": []}}}, ""path"": [""0"", ""1"", ""2"", ""4""], ""internal_node_id"": ""0.0-7.0-14.0"", ""block"": ""test""}"
A2YJZYTC8WOIZT:3IXQG4FA2TYTAZKY9IY9M9ZWO7NB90,35,1527706036251,"{""rt"": 64781, ""trial_type"": ""survey-multi-choice"", ""responses"": ""[\""$-4 to $4\"",\""$-48 to $48\"",\""$1\"",\""1 cent for every $1 you make in the game\""]"", ""internal_node_id"": ""0.0-8.0"", ""time_elapsed"": 1450996, ""questions"": ""[\""What is the range of node values in the first step?\"",\""What is the range of node values in the last step?\"",\""What is the cost of clicking?\"",\""How much REAL money do you earn?\""]"", ""correct"": null, ""trial_index"": 35}"
A2YJZYTC8WOIZT:3IXQG4FA2TYTAZKY9IY9M9ZWO7NB90,36,1527706107314,"{""rt"": 70048, ""trial_type"": ""survey-text"", ""responses"": ""{\""Q0\"":\""I just tried different directions\"",\""Q1\"":\""I could not tell where not to click\"",\""Q2\"":\""after I decided which direction I was going\"",\""Q3\"":\""up\"",\""Q4\"":\""no\""}"", ""internal_node_id"": ""0.0-9.0"", ""time_elapsed"": 1522059, ""trial_index"": 36}"
A2YJZYTC8WOIZT:3IXQG4FA2TYTAZKY9IY9M9ZWO7NB90,37,1527706140758,"{""rt"": 32439, ""trial_type"": ""survey-text"", ""responses"": ""{\""Q0\"":\""I do not like spiders!\"",\""Q1\"":\""yes\"",\""Q2\"":\""44\"",\""Q3\"":\""none\""}"", ""internal_node_id"": ""0.0-10.0"", ""time_elapsed"": 1555503, ""trial_index"": 37}"
A2ZL5GAZK6S0H1:3UWN2HHPUY5DGN5ULE39UZ4GXKVSNM,0,1527705489549,"{""rt"": 12701, ""trial_type"": ""text"", ""internal_node_id"": ""0.0-0.0"", ""time_elapsed"": 12740, ""key_press"": 32, ""trial_index"": 0}"
A2ZL5GAZK6S0H1:3UWN2HHPUY5DGN5ULE39UZ4GXKVSNM,1,1527705501843,"{""rt"": 11258, ""trial_type"": ""text"", ""internal_node_id"": ""0.0-1.0"", ""time_elapsed"": 25035, ""key_press"": 32, ""trial_index"": 1}"
A2ZL5GAZK6S0H1:3UWN2HHPUY5DGN5ULE39UZ4GXKVSNM,2,1527705514341,"{""rt"": [7549, 272, 36], ""trial_type"": ""mouselab-mdp"", ""trialTime"": 10907, ""rewards"": [-2, 4, 48], ""stateRewards"": ["""", 4, 8, -24, 24, -2, 4, -24, 48, 2, -8, 24, 48], ""actionTimes"": [7590, 8397, 8949], ""trial_id"": 8866052500453722000, ""time_elapsed"": 37534, ""actions"": [""right"", ""right"", ""down""], ""trialIndex"": 0, ""score"": 50, ""trial_index"": 2, ""simulationMode"": [null, null, null], ""queries"": {""mouseover"": {""state"": {""target"": [], ""time"": []}, ""edge"": {""target"": [], ""time"": []}}, ""click"": {""state"": {""target"": [], ""time"": []}, ""edge"": {""target"": [], ""time"": []}}, ""mouseout"": {""state"": {""target"": [], ""time"": []}, ""edge"": {""target"": [], ""time"": []}}}, ""path"": [""0"", ""5"", ""6"", ""8""], ""internal_node_id"": ""0.0-2.0-0.0"", ""block"": ""pre_test""}"
A2ZL5GAZK6S0H1:3UWN2HHPUY5DGN5ULE39UZ4GXKVSNM,3,1527705524365,"{""rt"": [1242, 420, 351], ""trial_type"": ""mouselab-mdp"", ""trialTime"": 8543, ""rewards"": [2, -4, 24], ""stateRewards"": ["""", 2, 4, -24, 48, -4, 8, -48, 48, 2, -4, 24, -24], ""actionTimes"": [1271, 2239, 3180], ""trial_id"": -8327671364504025000, ""time_elapsed"": 47559, ""actions"": [""left"", ""left"", ""up""], ""trialIndex"": 1, ""score"": 22, ""trial_index"": 3, ""simulationMode"": [null, null, null], ""queries"": {""mouseover"": {""state"": {""target"": [], ""time"": []}, ""edge"": {""target"": [], ""time"": []}}, ""click"": {""state"": {""target"": [], ""time"": []}, ""edge"": {""target"": [], ""time"": []}}, ""mouseout"": {""state"": {""target"": [], ""time"": []}, ""edge"": {""target"": [], ""time"": []}}}, ""path"": [""0"", ""9"", ""10"", ""11""], ""internal_node_id"": ""0.0-2.0-1.0"", ""block"": ""pre_test""}"
A2ZL5GAZK6S0H1:3UWN2HHPUY5DGN5ULE39UZ4GXKVSNM,4,1527705535366,"{""rt"": [441, 38, 534], ""trial_type"": ""mouselab-mdp"", ""trialTime"": 9612, ""rewards"": [-2, -4, -24], ""stateRewards"": ["""", 2, -8, -24, 48, -2, -4, -24, -24, 4, 8, 24, 48], ""actionTimes"": [470, 1034, 2189], ""trial_id"": 6516760737789360000, ""time_elapsed"": 58561, ""actions"": [""right"", ""right"", ""down""], ""trialIndex"": 2, ""score"": -30, ""trial_index"": 4, ""simulationMode"": [null, null, null], ""queries"": {""mouseover"": {""state"": {""target"": [], ""time"": []}, ""edge"": {""target"": [], ""time"": []}}, ""click"": {""state"": {""target"": [], ""time"": []}, ""edge"": {""target"": [], ""time"": []}}, ""mouseout"": {""state"": {""target"": [], ""time"": []}, ""edge"": {""target"": [], ""time"": []}}}, ""path"": [""0"", ""5"", ""6"", ""8""], ""internal_node_id"": ""0.0-2.0-2.0"", ""block"": ""pre_test""}"
A2ZL5GAZK6S0H1:3UWN2HHPUY5DGN5ULE39UZ4GXKVSNM,5,1527705545928,"{""rt"": [1230, 424, 35], ""trial_type"": ""mouselab-mdp"", ""trialTime"": 9276, ""rewards"": [2, 8, -48], ""stateRewards"": ["""", 2, 8, -48, -24, 2, 8, -24, -48, 4, -4, 24, -48], ""actionTimes"": [1250, 2190, 2756], ""trial_id"": 495354184512700500, ""time_elapsed"": 69123, ""actions"": [""up"", ""up"", ""right""], ""trialIndex"": 3, ""score"": -38, ""trial_index"": 5, ""simulationMode"": [null, null, null], ""queries"": {""mouseover"": {""state"": {""target"": [], ""time"": []}, ""edge"": {""target"": [], ""time"": []}}, ""click"": {""state"": {""target"": [], ""time"": []}, ""edge"": {""target"": [], ""time"": []}}, ""mouseout"": {""state"": {""target"": [], ""time"": []}, ""edge"": {""target"": [], ""time"": []}}}, ""path"": [""0"", ""1"", ""2"", ""3""], ""internal_node_id"": ""0.0-2.0-3.0"", ""block"": ""pre_test""}"
A2ZL5GAZK6S0H1:3UWN2HHPUY5DGN5ULE39UZ4GXKVSNM,6,1527705556765,"{""rt"": [690, 480, 6], ""trial_type"": ""mouselab-mdp"", ""trialTime"": 9522, ""rewards"": [-2, 8, -24], ""stateRewards"": ["""", 2, 4, -24, -48, -2, -4, -24, -24, -2, 8, 24, -24], ""actionTimes"": [708, 1695, 2219], ""trial_id"": 11823864361136648, ""time_elapsed"": 79960, ""actions"": [""left"", ""left"", ""down""], ""trialIndex"": 4, ""score"": -18, ""trial_index"": 6, ""simulationMode"": [null, null, null], ""queries"": {""mouseover"": {""state"": {""target"": [], ""time"": []}, ""edge"": {""target"": [], ""time"": []}}, ""click"": {""state"": {""target"": [], ""time"": []}, ""edge"": {""target"": [], ""time"": []}}, ""mouseout"": {""state"": {""target"": [], ""time"": []}, ""edge"": {""target"": [], ""time"": []}}}, ""path"": [""0"", ""9"", ""10"", ""12""], ""internal_node_id"": ""0.0-2.0-4.0"", ""block"": ""pre_test""}"
A2ZL5GAZK6S0H1:3UWN2HHPUY5DGN5ULE39UZ4GXKVSNM,7,1527705561918,"{""rt"": 4142, ""trial_type"": ""text"", ""internal_node_id"": ""0.0-3.0"", ""time_elapsed"": 85113, ""key_press"": 32, ""trial_index"": 7}"
A2ZL5GAZK6S0H1:3UWN2HHPUY5DGN5ULE39UZ4GXKVSNM,8,1527705615083,"{""rt"": [2326, 2772, 146], ""trial_type"": ""mouselab-mdp"", ""trialTime"": 51612, ""rewards"": [-2, -4, 24], ""stateRewards"": ["""", -2, -4, 24, -48, -4, 8, -24, -24, 4, -4, -48, 24], ""actionTimes"": [2340, 47643, 48300], ""trial_id"": 1399303655934214400, ""time_elapsed"": 138278, ""actions"": [""up"", ""up"", ""right""], ""trialIndex"": 5, ""score"": 18, ""trial_index"": 8, ""simulationMode"": [null, null, null], ""queries"": {""mouseover"": {""state"": {""target"": [], ""time"": []}, ""edge"": {""target"": [], ""time"": []}}, ""click"": {""state"": {""target"": [], ""time"": []}, ""edge"": {""target"": [], ""time"": []}}, ""mouseout"": {""state"": {""target"": [], ""time"": []}, ""edge"": {""target"": [], ""time"": []}}}, ""path"": [""0"", ""1"", ""2"", ""3""], ""internal_node_id"": ""0.0-4.0-0.0"", ""block"": ""training""}"
A2ZL5GAZK6S0H1:3UWN2HHPUY5DGN5ULE39UZ4GXKVSNM,9,1527705667042,"{""rt"": [2919, 1986, 129], ""trial_type"": ""mouselab-mdp"", ""trialTime"": 50612, ""rewards"": [-4, 4, 48], ""stateRewards"": ["""", 2, -4, 24, -48, -4, 4, 48, 48, 4, 4, -48, -24], ""actionTimes"": [2944, 47445, 48113], ""trial_id"": 1708036831889561600, ""time_elapsed"": 190237, ""actions"": [""right"", ""right"", ""down""], ""trialIndex"": 6, ""score"": 48, ""trial_index"": 9, ""simulationMode"": [null, null, null], ""queries"": {""mouseover"": {""state"": {""target"": [], ""time"": []}, ""edge"": {""target"": [], ""time"": []}}, ""click"": {""state"": {""target"": [], ""time"": []}, ""edge"": {""target"": [], ""time"": []}}, ""mouseout"": {""state"": {""target"": [], ""time"": []}, ""edge"": {""target"": [], ""time"": []}}}, ""path"": [""0"", ""5"", ""6"", ""8""], ""internal_node_id"": ""0.0-4.0-1.0"", ""block"": ""training""}"
A2ZL5GAZK6S0H1:3UWN2HHPUY5DGN5ULE39UZ4GXKVSNM,10,1527705727989,"{""rt"": [8083, 7846, 102], ""trial_type"": ""mouselab-mdp"", ""trialTime"": 59665, ""rewards"": [-4, -8, -24], ""stateRewards"": ["""", -2, 4, 24, -24, -4, 4, -24, 24, -4, -8, -24, 24], ""actionTimes"": [8099, 57483, 58101], ""trial_id"": -3142242075455045000, ""time_elapsed"": 251183, ""actions"": [""left"", ""left"", ""up""], ""trialIndex"": 7, ""score"": -37, ""trial_index"": 10, ""simulationMode"": [null, null, null], ""queries"": {""mouseover"": {""state"": {""target"": [], ""time"": []}, ""edge"": {""target"": [], ""time"": []}}, ""click"": {""state"": {""target"": [""5""], ""time"": [5797]}, ""edge"": {""target"": [], ""time"": []}}, ""mouseout"": {""state"": {""target"": [], ""time"": []}, ""edge"": {""target"": [], ""time"": []}}}, ""path"": [""0"", ""9"", ""10"", ""11""], ""internal_node_id"": ""0.0-4.0-2.0"", ""block"": ""training""}"
A2ZL5GAZK6S0H1:3UWN2HHPUY5DGN5ULE39UZ4GXKVSNM,11,1527705787333,"{""rt"": [10189, 2325, 73], ""trial_type"": ""mouselab-mdp"", ""trialTime"": 58091, ""rewards"": [-2, 8, -24], ""stateRewards"": ["""", -2, -8, 24, 48, -2, 8, -24, -24, -2, -4, 24, -24], ""actionTimes"": [10229, 55106, 55710], ""trial_id"": -3603402282008602000, ""time_elapsed"": 310528, ""actions"": [""right"", ""right"", ""down""], ""trialIndex"": 8, ""score"": -18, ""trial_index"": 11, ""simulationMode"": [null, null, null], ""queries"": {""mouseover"": {""state"": {""target"": [], ""time"": []}, ""edge"": {""target"": [], ""time"": []}}, ""click"": {""state"": {""target"": [], ""time"": []}, ""edge"": {""target"": [], ""time"": []}}, ""mouseout"": {""state"": {""target"": [], ""time"": []}, ""edge"": {""target"": [], ""time"": []}}}, ""path"": [""0"", ""5"", ""6"", ""8""], ""internal_node_id"": ""0.0-4.0-3.0"", ""block"": ""training""}"
A2ZL5GAZK6S0H1:3UWN2HHPUY5DGN5ULE39UZ4GXKVSNM,12,1527705929810,"{""rt"": [18170, 78891, 148], ""trial_type"": ""mouselab-mdp"", ""trialTime"": 140974, ""rewards"": [2, -4, 48], ""stateRewards"": ["""", 2, 4, -48, 48, -4, 4, -48, -48, 2, -4, 24, 48], ""actionTimes"": [18210, 138641, 139316], ""trial_id"": -5849434166602758000, ""time_elapsed"": 453004, ""actions"": [""left"", ""left"", ""down""], ""trialIndex"": 9, ""score"": 43, ""trial_index"": 12, ""simulationMode"": [null, null, null], ""queries"": {""mouseover"": {""state"": {""target"": [], ""time"": []}, ""edge"": {""target"": [], ""time"": []}}, ""click"": {""state"": {""target"": [""9"", ""5"", ""1""], ""time"": [5943, 12168, 16537]}, ""edge"": {""target"": [], ""time"": []}}, ""mouseout"": {""state"": {""target"": [], ""time"": []}, ""edge"": {""target"": [], ""time"": []}}}, ""path"": [""0"", ""9"", ""10"", ""12""], ""internal_node_id"": ""0.0-4.0-4.0"", ""block"": ""training""}"
A2ZL5GAZK6S0H1:3UWN2HHPUY5DGN5ULE39UZ4GXKVSNM,13,1527706081324,"{""rt"": [104399, 462, 516], ""trial_type"": ""mouselab-mdp"", ""trialTime"": 150208, ""rewards"": [-4, 4, -24], ""stateRewards"": ["""", -4, 4, 48, -48, -4, 4, -24, 24, -4, -8, 24, 24], ""actionTimes"": [104415, 147410, 148440], ""trial_id"": -5995301136843023000, ""time_elapsed"": 604518, ""actions"": [""right"", ""right"", ""up""], ""trialIndex"": 10, ""score"": -24, ""trial_index"": 13, ""simulationMode"": [null, null, null], ""queries"": {""mouseover"": {""state"": {""target"": [], ""time"": []}, ""edge"": {""target"": [], ""time"": []}}, ""click"": {""state"": {""target"": [], ""time"": []}, ""edge"": {""target"": [], ""time"": []}}, ""mouseout"": {""state"": {""target"": [], ""time"": []}, ""edge"": {""target"": [], ""time"": []}}}, ""path"": [""0"", ""5"", ""6"", ""7""], ""internal_node_id"": ""0.0-4.0-5.0"", ""block"": ""training""}"
A2ZL5GAZK6S0H1:3UWN2HHPUY5DGN5ULE39UZ4GXKVSNM,14,1527706146621,"{""rt"": [2004, 17581, 58], ""trial_type"": ""mouselab-mdp"", ""trialTime"": 63970, ""rewards"": [4, -4, -48], ""stateRewards"": ["""", 4, -4, -48, 24, -2, -4, 24, 48, 4, -4, 48, -48], ""actionTimes"": [2023, 62134, 62721], ""trial_id"": 320588371626771840, ""time_elapsed"": 669815, ""actions"": [""left"", ""left"", ""down""], ""trialIndex"": 11, ""score"": -48, ""trial_index"": 14, ""simulationMode"": [null, null, null], ""queries"": {""mouseover"": {""state"": {""target"": [], ""time"": []}, ""edge"": {""target"": [], ""time"": []}}, ""click"": {""state"": {""target"": [], ""time"": []}, ""edge"": {""target"": [], ""time"": []}}, ""mouseout"": {""state"": {""target"": [], ""time"": []}, ""edge"": {""target"": [], ""time"": []}}}, ""path"": [""0"", ""9"", ""10"", ""12""], ""internal_node_id"": ""0.0-4.0-6.0"", ""block"": ""training""}"
A2ZL5GAZK6S0H1:3UWN2HHPUY5DGN5ULE39UZ4GXKVSNM,15,1527706214352,"{""rt"": [2265, 19362, 130], ""trial_type"": ""mouselab-mdp"", ""trialTime"": 66427, ""rewards"": [-4, -8, -24], ""stateRewards"": ["""", -4, -8, 24, -24, -2, 8, 24, 48, 4, -4, 24, -48], ""actionTimes"": [2283, 64177, 64822], ""trial_id"": -1100449030722574200, ""time_elapsed"": 737546, ""actions"": [""up"", ""up"", ""left""], ""trialIndex"": 12, ""score"": -36, ""trial_index"": 15, ""simulationMode"": [null, null, null], ""queries"": {""mouseover"": {""state"": {""target"": [], ""time"": []}, ""edge"": {""target"": [], ""time"": []}}, ""click"": {""state"": {""target"": [], ""time"": []}, ""edge"": {""target"": [], ""time"": []}}, ""mouseout"": {""state"": {""target"": [], ""time"": []}, ""edge"": {""target"": [], ""time"": []}}}, ""path"": [""0"", ""1"", ""2"", ""4""], ""internal_node_id"": ""0.0-4.0-7.0"", ""block"": ""training""}"
A2ZL5GAZK6S0H1:3UWN2HHPUY5DGN5ULE39UZ4GXKVSNM,16,1527706289522,"{""rt"": [1631, 171, 121], ""trial_type"": ""mouselab-mdp"", ""trialTime"": 73736, ""rewards"": [-2, 4, -48], ""stateRewards"": ["""", 4, -8, 24, 24, 2, 4, 24, 48, -2, 4, 24, -48], ""actionTimes"": [1650, 44346, 44983], ""trial_id"": 6722698278557235000, ""time_elapsed"": 812716, ""actions"": [""left"", ""left"", ""down""], ""trialIndex"": 13, ""score"": -46, ""trial_index"": 16, ""simulationMode"": [null, null, null], ""queries"": {""mouseover"": {""state"": {""target"": [], ""time"": []}, ""edge"": {""target"": [], ""time"": []}}, ""click"": {""state"": {""target"": [], ""time"": []}, ""edge"": {""target"": [], ""time"": []}}, ""mouseout"": {""state"": {""target"": [], ""time"": []}, ""edge"": {""target"": [], ""time"": []}}}, ""path"": [""0"", ""9"", ""10"", ""12""], ""internal_node_id"": ""0.0-4.0-8.0"", ""block"": ""training""}"
A2ZL5GAZK6S0H1:3UWN2HHPUY5DGN5ULE39UZ4GXKVSNM,17,1527706343843,"{""rt"": [592, 710, 477], ""trial_type"": ""mouselab-mdp"", ""trialTime"": 53037, ""rewards"": [2, -8, -24], ""stateRewards"": ["""", -4, 8, 48, 24, 2, -8, -48, -24, -4, -4, 48, -24], ""actionTimes"": [657, 43884, 44871], ""trial_id"": 3419769505624262700, ""time_elapsed"": 867036, ""actions"": [""right"", ""right"", ""down""], ""trialIndex"": 14, ""score"": -30, ""trial_index"": 17, ""simulationMode"": [null, null, null], ""queries"": {""mouseover"": {""state"": {""target"": [], ""time"": []}, ""edge"": {""target"": [], ""time"": []}}, ""click"": {""state"": {""target"": [], ""time"": []}, ""edge"": {""target"": [], ""time"": []}}, ""mouseout"": {""state"": {""target"": [], ""time"": []}, ""edge"": {""target"": [], ""time"": []}}}, ""path"": [""0"", ""5"", ""6"", ""8""], ""internal_node_id"": ""0.0-4.0-9.0"", ""block"": ""training""}"
A2ZL5GAZK6S0H1:3UWN2HHPUY5DGN5ULE39UZ4GXKVSNM,18,1527706347762,"{""rt"": 2911, ""trial_type"": ""text"", ""internal_node_id"": ""0.0-5.0"", ""time_elapsed"": 870957, ""key_press"": 32, ""trial_index"": 18}"
A2ZL5GAZK6S0H1:3UWN2HHPUY5DGN5ULE39UZ4GXKVSNM,19,1527706354850,"{""rt"": 6063, ""trial_type"": ""text"", ""internal_node_id"": ""0.0-6.0"", ""time_elapsed"": 878045, ""key_press"": 32, ""trial_index"": 19}"
A2ZL5GAZK6S0H1:3UWN2HHPUY5DGN5ULE39UZ4GXKVSNM,20,1527706364585,"{""rt"": [4351, 1259, 371], ""trial_type"": ""mouselab-mdp"", ""trialTime"": 8386, ""rewards"": [-4, -8, -24], ""stateRewards"": ["""", -4, 4, -24, -24, -4, -8, 24, -24, 4, -8, 48, -48], ""actionTimes"": [4436, 6209, 7101], ""trial_id"": 460924718031657700, ""time_elapsed"": 887779, ""actions"": [""right"", ""right"", ""down""], ""trialIndex"": 15, ""score"": -36, ""trial_index"": 20, ""simulationMode"": [null, null, null], ""queries"": {""mouseover"": {""state"": {""target"": [], ""time"": []}, ""edge"": {""target"": [], ""time"": []}}, ""click"": {""state"": {""target"": [], ""time"": []}, ""edge"": {""target"": [], ""time"": []}}, ""mouseout"": {""state"": {""target"": [], ""time"": []}, ""edge"": {""target"": [], ""time"": []}}}, ""path"": [""0"", ""5"", ""6"", ""8""], ""internal_node_id"": ""0.0-7.0-0.0"", ""block"": ""test""}"
A2ZL5GAZK6S0H1:3UWN2HHPUY5DGN5ULE39UZ4GXKVSNM,21,1527706376583,"{""rt"": [564, 574, 369], ""trial_type"": ""mouselab-mdp"", ""trialTime"": 10717, ""rewards"": [2, 4, -24], ""stateRewards"": ["""", 2, 4, 24, -24, 4, 8, 24, -24, 4, 4, 24, 48], ""actionTimes"": [593, 1705, 2583], ""trial_id"": 5959115827255457000, ""time_elapsed"": 899777, ""actions"": [""up"", ""up"", ""left""], ""trialIndex"": 16, ""score"": -18, ""trial_index"": 21, ""simulationMode"": [null, null, null], ""queries"": {""mouseover"": {""state"": {""target"": [], ""time"": []}, ""edge"": {""target"": [], ""time"": []}}, ""click"": {""state"": {""target"": [], ""time"": []}, ""edge"": {""target"": [], ""time"": []}}, ""mouseout"": {""state"": {""target"": [], ""time"": []}, ""edge"": {""target"": [], ""time"": []}}}, ""path"": [""0"", ""1"", ""2"", ""4""], ""internal_node_id"": ""0.0-7.0-1.0"", ""block"": ""test""}"
A2ZL5GAZK6S0H1:3UWN2HHPUY5DGN5ULE39UZ4GXKVSNM,22,1527706387700,"{""rt"": [388, 275, 172], ""trial_type"": ""mouselab-mdp"", ""trialTime"": 9802, ""rewards"": [2, -4, 24], ""stateRewards"": ["""", 2, -4, 24, -48, -4, -8, -48, -48, -4, 4, -48, 48], ""actionTimes"": [419, 1247, 1951], ""trial_id"": 2118335984300500500, ""time_elapsed"": 910895, ""actions"": [""up"", ""up"", ""right""], ""trialIndex"": 17, ""score"": 22, ""trial_index"": 22, ""simulationMode"": [null, null, null], ""queries"": {""mouseover"": {""state"": {""target"": [], ""time"": []}, ""edge"": {""target"": [], ""time"": []}}, ""click"": {""state"": {""target"": [], ""time"": []}, ""edge"": {""target"": [], ""time"": []}}, ""mouseout"": {""state"": {""target"": [], ""time"": []}, ""edge"": {""target"": [], ""time"": []}}}, ""path"": [""0"", ""1"", ""2"", ""3""], ""internal_node_id"": ""0.0-7.0-2.0"", ""block"": ""test""}"
A2ZL5GAZK6S0H1:3UWN2HHPUY5DGN5ULE39UZ4GXKVSNM,23,1527706396478,"{""rt"": [309, 348, 251], ""trial_type"": ""mouselab-mdp"", ""trialTime"": 7505, ""rewards"": [2, -4, 24], ""stateRewards"": ["""", 2, -4, 24, -24, -2, 8, 24, 48, 4, -4, 48, 48], ""actionTimes"": [328, 1204, 1978], ""trial_id"": 5246743485396079000, ""time_elapsed"": 919672, ""actions"": [""up"", ""up"", ""right""], ""trialIndex"": 18, ""score"": 22, ""trial_index"": 23, ""simulationMode"": [null, null, null], ""queries"": {""mouseover"": {""state"": {""target"": [], ""time"": []}, ""edge"": {""target"": [], ""time"": []}}, ""click"": {""state"": {""target"": [], ""time"": []}, ""edge"": {""target"": [], ""time"": []}}, ""mouseout"": {""state"": {""target"": [], ""time"": []}, ""edge"": {""target"": [], ""time"": []}}}, ""path"": [""0"", ""1"", ""2"", ""3""], ""internal_node_id"": ""0.0-7.0-3.0"", ""block"": ""test""}"
A2ZL5GAZK6S0H1:3UWN2HHPUY5DGN5ULE39UZ4GXKVSNM,24,1527706410028,"{""rt"": [285, 10, 172], ""trial_type"": ""mouselab-mdp"", ""trialTime"": 12257, ""rewards"": [-4, -4, -48], ""stateRewards"": ["""", -4, -4, -48, -48, -2, -8, 24, 48, 2, 4, -24, -48], ""actionTimes"": [337, 926, 1650], ""trial_id"": -1848243683464450000, ""time_elapsed"": 933223, ""actions"": [""up"", ""up"", ""right""], ""trialIndex"": 19, ""score"": -56, ""trial_index"": 24, ""simulationMode"": [null, null, null], ""queries"": {""mouseover"": {""state"": {""target"": [], ""time"": []}, ""edge"": {""target"": [], ""time"": []}}, ""click"": {""state"": {""target"": [], ""time"": []}, ""edge"": {""target"": [], ""time"": []}}, ""mouseout"": {""state"": {""target"": [], ""time"": []}, ""edge"": {""target"": [], ""time"": []}}}, ""path"": [""0"", ""1"", ""2"", ""3""], ""internal_node_id"": ""0.0-7.0-4.0"", ""block"": ""test""}"
A2ZL5GAZK6S0H1:3UWN2HHPUY5DGN5ULE39UZ4GXKVSNM,25,1527706423260,"{""rt"": [686, 536, 446], ""trial_type"": ""mouselab-mdp"", ""trialTime"": 11940, ""rewards"": [4, -8, 48], ""stateRewards"": ["""", 2, 8, 24, -24, 2, -8, -24, -24, 4, -8, 48, 48], ""actionTimes"": [702, 1771, 2742], ""trial_id"": -3200495881349436000, ""time_elapsed"": 946455, ""actions"": [""left"", ""left"", ""up""], ""trialIndex"": 20, ""score"": 44, ""trial_index"": 25, ""simulationMode"": [null, null, null], ""queries"": {""mouseover"": {""state"": {""target"": [], ""time"": []}, ""edge"": {""target"": [], ""time"": []}}, ""click"": {""state"": {""target"": [], ""time"": []}, ""edge"": {""target"": [], ""time"": []}}, ""mouseout"": {""state"": {""target"": [], ""time"": []}, ""edge"": {""target"": [], ""time"": []}}}, ""path"": [""0"", ""9"", ""10"", ""11""], ""internal_node_id"": ""0.0-7.0-5.0"", ""block"": ""test""}"
A2ZL5GAZK6S0H1:3UWN2HHPUY5DGN5ULE39UZ4GXKVSNM,26,1527706434154,"{""rt"": [317, 88, 285], ""trial_type"": ""mouselab-mdp"", ""trialTime"": 9521, ""rewards"": [4, 4, 48], ""stateRewards"": ["""", -4, 8, 48, -24, -2, -4, 24, -48, 4, 4, 48, -48], ""actionTimes"": [343, 991, 1816], ""trial_id"": 7263244810589990000, ""time_elapsed"": 957349, ""actions"": [""left"", ""left"", ""up""], ""trialIndex"": 21, ""score"": 56, ""trial_index"": 26, ""simulationMode"": [null, null, null], ""queries"": {""mouseover"": {""state"": {""target"": [], ""time"": []}, ""edge"": {""target"": [], ""time"": []}}, ""click"": {""state"": {""target"": [], ""time"": []}, ""edge"": {""target"": [], ""time"": []}}, ""mouseout"": {""state"": {""target"": [], ""time"": []}, ""edge"": {""target"": [], ""time"": []}}}, ""path"": [""0"", ""9"", ""10"", ""11""], ""internal_node_id"": ""0.0-7.0-6.0"", ""block"": ""test""}"
A2ZL5GAZK6S0H1:3UWN2HHPUY5DGN5ULE39UZ4GXKVSNM,27,1527706444087,"{""rt"": [1069, 415, 893], ""trial_type"": ""mouselab-mdp"", ""trialTime"": 8647, ""rewards"": [-4, -4, 24], ""stateRewards"": ["""", -4, -8, -48, -48, -4, -4, 48, 24, 4, 4, 48, -48], ""actionTimes"": [1089, 2024, 3434], ""trial_id"": -9063084800167141000, ""time_elapsed"": 967282, ""actions"": [""right"", ""right"", ""down""], ""trialIndex"": 22, ""score"": 16, ""trial_index"": 27, ""simulationMode"": [null, null, null], ""queries"": {""mouseover"": {""state"": {""target"": [], ""time"": []}, ""edge"": {""target"": [], ""time"": []}}, ""click"": {""state"": {""target"": [], ""time"": []}, ""edge"": {""target"": [], ""time"": []}}, ""mouseout"": {""state"": {""target"": [], ""time"": []}, ""edge"": {""target"": [], ""time"": []}}}, ""path"": [""0"", ""5"", ""6"", ""8""], ""internal_node_id"": ""0.0-7.0-7.0"", ""block"": ""test""}"
A2ZL5GAZK6S0H1:3UWN2HHPUY5DGN5ULE39UZ4GXKVSNM,28,1527706454723,"{""rt"": [567, 75, 103], ""trial_type"": ""mouselab-mdp"", ""trialTime"": 9319, ""rewards"": [2, 8, -48], ""stateRewards"": ["""", 4, 8, -24, 48, 2, 8, -48, -48, 2, -4, 24, -48], ""actionTimes"": [595, 1198, 1875], ""trial_id"": -6668518537832265000, ""time_elapsed"": 977916, ""actions"": [""right"", ""right"", ""up""], ""trialIndex"": 23, ""score"": -38, ""trial_index"": 28, ""simulationMode"": [null, null, null], ""queries"": {""mouseover"": {""state"": {""target"": [], ""time"": []}, ""edge"": {""target"": [], ""time"": []}}, ""click"": {""state"": {""target"": [], ""time"": []}, ""edge"": {""target"": [], ""time"": []}}, ""mouseout"": {""state"": {""target"": [], ""time"": []}, ""edge"": {""target"": [], ""time"": []}}}, ""path"": [""0"", ""5"", ""6"", ""7""], ""internal_node_id"": ""0.0-7.0-8.0"", ""block"": ""test""}"
A2ZL5GAZK6S0H1:3UWN2HHPUY5DGN5ULE39UZ4GXKVSNM,29,1527706465954,"{""rt"": [297, 5, 20], ""trial_type"": ""mouselab-mdp"", ""trialTime"": 9863, ""rewards"": [4, 8, 48], ""stateRewards"": ["""", -2, -8, -24, -24, 4, 8, 48, 24, -2, 8, -24, -48], ""actionTimes"": [321, 864, 1435], ""trial_id"": 4079752410143045600, ""time_elapsed"": 989148, ""actions"": [""right"", ""right"", ""up""], ""trialIndex"": 24, ""score"": 60, ""trial_index"": 29, ""simulationMode"": [null, null, null], ""queries"": {""mouseover"": {""state"": {""target"": [], ""time"": []}, ""edge"": {""target"": [], ""time"": []}}, ""click"": {""state"": {""target"": [], ""time"": []}, ""edge"": {""target"": [], ""time"": []}}, ""mouseout"": {""state"": {""target"": [], ""time"": []}, ""edge"": {""target"": [], ""time"": []}}}, ""path"": [""0"", ""5"", ""6"", ""7""], ""internal_node_id"": ""0.0-7.0-9.0"", ""block"": ""test""}"
A2ZL5GAZK6S0H1:3UWN2HHPUY5DGN5ULE39UZ4GXKVSNM,30,1527706476515,"{""rt"": [1049, 107, 732], ""trial_type"": ""mouselab-mdp"", ""trialTime"": 9263, ""rewards"": [4, 4, -24], ""stateRewards"": ["""", 4, 4, -48, 48, 4, 4, -24, -24, 2, -8, 48, -24], ""actionTimes"": [1063, 1705, 2957], ""trial_id"": 3802673927624508000, ""time_elapsed"": 999710, ""actions"": [""right"", ""right"", ""up""], ""trialIndex"": 25, ""score"": -16, ""trial_index"": 30, ""simulationMode"": [null, null, null], ""queries"": {""mouseover"": {""state"": {""target"": [], ""time"": []}, ""edge"": {""target"": [], ""time"": []}}, ""click"": {""state"": {""target"": [], ""time"": []}, ""edge"": {""target"": [], ""time"": []}}, ""mouseout"": {""state"": {""target"": [], ""time"": []}, ""edge"": {""target"": [], ""time"": []}}}, ""path"": [""0"", ""5"", ""6"", ""7""], ""internal_node_id"": ""0.0-7.0-10.0"", ""block"": ""test""}"
A2ZL5GAZK6S0H1:3UWN2HHPUY5DGN5ULE39UZ4GXKVSNM,31,1527706488347,"{""rt"": [559, 448, 204], ""trial_type"": ""mouselab-mdp"", ""trialTime"": 10495, ""rewards"": [-2, -4, 24], ""stateRewards"": ["""", -2, 8, -24, 24, -4, 8, 48, 24, -2, -4, 24, -48], ""actionTimes"": [577, 1570, 2281], ""trial_id"": 2561475919526080000, ""time_elapsed"": 1011540, ""actions"": [""left"", ""left"", ""up""], ""trialIndex"": 26, ""score"": 18, ""trial_index"": 31, ""simulationMode"": [null, null, null], ""queries"": {""mouseover"": {""state"": {""target"": [], ""time"": []}, ""edge"": {""target"": [], ""time"": []}}, ""click"": {""state"": {""target"": [], ""time"": []}, ""edge"": {""target"": [], ""time"": []}}, ""mouseout"": {""state"": {""target"": [], ""time"": []}, ""edge"": {""target"": [], ""time"": []}}}, ""path"": [""0"", ""9"", ""10"", ""11""], ""internal_node_id"": ""0.0-7.0-11.0"", ""block"": ""test""}"
A2ZL5GAZK6S0H1:3UWN2HHPUY5DGN5ULE39UZ4GXKVSNM,32,1527706498433,"{""rt"": [870, 28, 45], ""trial_type"": ""mouselab-mdp"", ""trialTime"": 8683, ""rewards"": [-4, -8, -24], ""stateRewards"": ["""", 2, 8, 48, -24, -4, -4, -48, 24, -4, -8, -48, -24], ""actionTimes"": [884, 1443, 2039], ""trial_id"": 2372710761025483000, ""time_elapsed"": 1021627, ""actions"": [""left"", ""left"", ""down""], ""trialIndex"": 27, ""score"": -36, ""trial_index"": 32, ""simulationMode"": [null, null, null], ""queries"": {""mouseover"": {""state"": {""target"": [], ""time"": []}, ""edge"": {""target"": [], ""time"": []}}, ""click"": {""state"": {""target"": [], ""time"": []}, ""edge"": {""target"": [], ""time"": []}}, ""mouseout"": {""state"": {""target"": [], ""time"": []}, ""edge"": {""target"": [], ""time"": []}}}, ""path"": [""0"", ""9"", ""10"", ""12""], ""internal_node_id"": ""0.0-7.0-12.0"", ""block"": ""test""}"
A2ZL5GAZK6S0H1:3UWN2HHPUY5DGN5ULE39UZ4GXKVSNM,33,1527706508676,"{""rt"": [411, 401, 541], ""trial_type"": ""mouselab-mdp"", ""trialTime"": 8904, ""rewards"": [4, -4, -24], ""stateRewards"": ["""", 4, -4, -24, 24, 2, 4, -24, -48, 4, -8, 48, -48], ""actionTimes"": [433, 1361, 2444], ""trial_id"": 4251687641687985000, ""time_elapsed"": 1031870, ""actions"": [""up"", ""up"", ""right""], ""trialIndex"": 28, ""score"": -24, ""trial_index"": 33, ""simulationMode"": [null, null, null], ""queries"": {""mouseover"": {""state"": {""target"": [], ""time"": []}, ""edge"": {""target"": [], ""time"": []}}, ""click"": {""state"": {""target"": [], ""time"": []}, ""edge"": {""target"": [], ""time"": []}}, ""mouseout"": {""state"": {""target"": [], ""time"": []}, ""edge"": {""target"": [], ""time"": []}}}, ""path"": [""0"", ""1"", ""2"", ""3""], ""internal_node_id"": ""0.0-7.0-13.0"", ""block"": ""test""}"
A2ZL5GAZK6S0H1:3UWN2HHPUY5DGN5ULE39UZ4GXKVSNM,34,1527706518661,"{""rt"": [350, 249, 93], ""trial_type"": ""mouselab-mdp"", ""trialTime"": 8613, ""rewards"": [-2, -4, 24], ""stateRewards"": ["""", 2, -4, 48, 24, -2, -4, 24, 24, 2, -8, -24, 24], ""actionTimes"": [371, 1129, 1804], ""trial_id"": 556601214791588500, ""time_elapsed"": 1041856, ""actions"": [""right"", ""right"", ""up""], ""trialIndex"": 29, ""score"": 18, ""trial_index"": 34, ""simulationMode"": [null, null, null], ""queries"": {""mouseover"": {""state"": {""target"": [], ""time"": []}, ""edge"": {""target"": [], ""time"": []}}, ""click"": {""state"": {""target"": [], ""time"": []}, ""edge"": {""target"": [], ""time"": []}}, ""mouseout"": {""state"": {""target"": [], ""time"": []}, ""edge"": {""target"": [], ""time"": []}}}, ""path"": [""0"", ""5"", ""6"", ""7""], ""internal_node_id"": ""0.0-7.0-14.0"", ""block"": ""test""}"
A2ZL5GAZK6S0H1:3UWN2HHPUY5DGN5ULE39UZ4GXKVSNM,35,1527706572458,"{""rt"": 52681, ""trial_type"": ""survey-multi-choice"", ""responses"": ""[\""$-4 to $4\"",\""$-48 to $48\"",\""$1\"",\""1 cent for every $1 you make in the game\""]"", ""internal_node_id"": ""0.0-8.0"", ""time_elapsed"": 1095652, ""questions"": ""[\""What is the range of node values in the first step?\"",\""What is the range of node values in the last step?\"",\""What is the cost of clicking?\"",\""How much REAL money do you earn?\""]"", ""correct"": null, ""trial_index"": 35}"
A2ZL5GAZK6S0H1:3UWN2HHPUY5DGN5ULE39UZ4GXKVSNM,36,1527706609430,"{""rt"": 35953, ""trial_type"": ""survey-text"", ""responses"": ""{\""Q0\"":\""i don't like clicking because it spends a dollar \"",\""Q1\"":\""tried to avoid the bad spaces\"",\""Q2\"":\""when I was satisfied \"",\""Q3\"":\""at the first step\"",\""Q4\"":\""\""}"", ""internal_node_id"": ""0.0-9.0"", ""time_elapsed"": 1132625, ""trial_index"": 36}"
A2ZL5GAZK6S0H1:3UWN2HHPUY5DGN5ULE39UZ4GXKVSNM,37,1527706626037,"{""rt"": 15591, ""trial_type"": ""survey-text"", ""responses"": ""{\""Q0\"":\""sometimes you win, sometimes you lose \"",\""Q1\"":\""no\"",\""Q2\"":\""29\"",\""Q3\"":\""\""}"", ""internal_node_id"": ""0.0-10.0"", ""time_elapsed"": 1149232, ""trial_index"": 37}"
A3329CH71VMUBQ:3WQQ9FUS6AUTWU1O4QSVMD4L415B8B,0,1527694844584,"{""rt"": 13502, ""trial_type"": ""text"", ""internal_node_id"": ""0.0-0.0"", ""time_elapsed"": 13522, ""key_press"": 32, ""trial_index"": 0}"
A3329CH71VMUBQ:3WQQ9FUS6AUTWU1O4QSVMD4L415B8B,1,1527694865215,"{""rt"": 19629, ""trial_type"": ""text"", ""internal_node_id"": ""0.0-1.0"", ""time_elapsed"": 34155, ""key_press"": 32, ""trial_index"": 1}"
A3329CH71VMUBQ:3WQQ9FUS6AUTWU1O4QSVMD4L415B8B,2,1527695154268,"{""rt"": [280473, 3248, 650], ""trial_type"": ""mouselab-mdp"", ""trialTime"": 287817, ""rewards"": [-2, -4, -24], ""stateRewards"": ["""", 2, -8, -24, 48, -2, -4, -24, -24, 4, 8, 24, 48], ""actionTimes"": [280486, 284256, 285438], ""trial_id"": 6516760737789360000, ""time_elapsed"": 323208, ""actions"": [""right"", ""right"", ""down""], ""trialIndex"": 0, ""score"": -42, ""trial_index"": 2, ""simulationMode"": [null, null, null], ""queries"": {""mouseover"": {""state"": {""target"": [], ""time"": []}, ""edge"": {""target"": [], ""time"": []}}, ""click"": {""state"": {""target"": [""5"", ""9"", ""1"", ""3"", ""2"", ""4"", ""11"", ""10"", ""12"", ""6"", ""8"", ""7""], ""time"": [10056, 12870, 13774, 17201, 17584, 17970, 18480, 18846, 19193, 19857, 20566, 21314]}, ""edge"": {""target"": [], ""time"": []}}, ""mouseout"": {""state"": {""target"": [], ""time"": []}, ""edge"": {""target"": [], ""time"": []}}}, ""path"": [""0"", ""5"", ""6"", ""8""], ""internal_node_id"": ""0.0-2.0-0.0"", ""block"": ""pre_test""}"
A3329CH71VMUBQ:3WQQ9FUS6AUTWU1O4QSVMD4L415B8B,3,1527695167269,"{""rt"": [3872, 2689, 1876], ""trial_type"": ""mouselab-mdp"", ""trialTime"": 11829, ""rewards"": [-4, 4, -48], ""stateRewards"": ["""", 2, -4, 24, -48, -4, -8, -48, -48, -4, 4, -48, 48], ""actionTimes"": [3881, 7103, 9502], ""trial_id"": 2118335984300500500, ""time_elapsed"": 336209, ""actions"": [""left"", ""left"", ""up""], ""trialIndex"": 1, ""score"": -48, ""trial_index"": 3, ""simulationMode"": [null, null, null], ""queries"": {""mouseover"": {""state"": {""target"": [], ""time"": []}, ""edge"": {""target"": [], ""time"": []}}, ""click"": {""state"": {""target"": [], ""time"": []}, ""edge"": {""target"": [], ""time"": []}}, ""mouseout"": {""state"": {""target"": [], ""time"": []}, ""edge"": {""target"": [], ""time"": []}}}, ""path"": [""0"", ""9"", ""10"", ""11""], ""internal_node_id"": ""0.0-2.0-1.0"", ""block"": ""pre_test""}"
A3329CH71VMUBQ:3WQQ9FUS6AUTWU1O4QSVMD4L415B8B,4,1527695179173,"{""rt"": [3114, 2307, 2295], ""trial_type"": ""mouselab-mdp"", ""trialTime"": 10756, ""rewards"": [2, -4, 24], ""stateRewards"": ["""", 2, -4, 24, 24, -4, 4, -24, -24, -2, 4, -24, -48], ""actionTimes"": [3124, 5956, 8776], ""trial_id"": 7862543089384343000, ""time_elapsed"": 348113, ""actions"": [""up"", ""up"", ""left""], ""trialIndex"": 2, ""score"": 21, ""trial_index"": 4, ""simulationMode"": [null, null, null], ""queries"": {""mouseover"": {""state"": {""target"": [], ""time"": []}, ""edge"": {""target"": [], ""time"": []}}, ""click"": {""state"": {""target"": [""1""], ""time"": [1879]}, ""edge"": {""target"": [], ""time"": []}}, ""mouseout"": {""state"": {""target"": [], ""time"": []}, ""edge"": {""target"": [], ""time"": []}}}, ""path"": [""0"", ""1"", ""2"", ""4""], ""internal_node_id"": ""0.0-2.0-2.0"", ""block"": ""pre_test""}"
A3329CH71VMUBQ:3WQQ9FUS6AUTWU1O4QSVMD4L415B8B,5,1527695191711,"{""rt"": [5523, 559, 1910], ""trial_type"": ""mouselab-mdp"", ""trialTime"": 11398, ""rewards"": [2, 4, -24], ""stateRewards"": ["""", 2, 4, 24, -24, 4, 8, -48, 24, 4, -8, -24, 24], ""actionTimes"": [5532, 6612, 9060], ""trial_id"": 8950946188299295000, ""time_elapsed"": 360651, ""actions"": [""up"", ""up"", ""left""], ""trialIndex"": 3, ""score"": -19, ""trial_index"": 5, ""simulationMode"": [null, null, null], ""queries"": {""mouseover"": {""state"": {""target"": [], ""time"": []}, ""edge"": {""target"": [], ""time"": []}}, ""click"": {""state"": {""target"": [""1""], ""time"": [4078]}, ""edge"": {""target"": [], ""time"": []}}, ""mouseout"": {""state"": {""target"": [], ""time"": []}, ""edge"": {""target"": [], ""time"": []}}}, ""path"": [""0"", ""1"", ""2"", ""4""], ""internal_node_id"": ""0.0-2.0-3.0"", ""block"": ""pre_test""}"
A3329CH71VMUBQ:3WQQ9FUS6AUTWU1O4QSVMD4L415B8B,6,1527695202852,"{""rt"": [3684, 2073, 844], ""trial_type"": ""mouselab-mdp"", ""trialTime"": 10024, ""rewards"": [2, 4, -48], ""stateRewards"": ["""", 2, 4, -48, -24, -4, -8, 24, -48, -2, 8, 48, -24], ""actionTimes"": [3693, 6292, 7663], ""trial_id"": -8806789642961306000, ""time_elapsed"": 371792, ""actions"": [""up"", ""up"", ""right""], ""trialIndex"": 4, ""score"": -45, ""trial_index"": 6, ""simulationMode"": [null, null, null], ""queries"": {""mouseover"": {""state"": {""target"": [], ""time"": []}, ""edge"": {""target"": [], ""time"": []}}, ""click"": {""state"": {""target"": [""5"", ""9"", ""1""], ""time"": [1333, 2302, 3042]}, ""edge"": {""target"": [], ""time"": []}}, ""mouseout"": {""state"": {""target"": [], ""time"": []}, ""edge"": {""target"": [], ""time"": []}}}, ""path"": [""0"", ""1"", ""2"", ""3""], ""internal_node_id"": ""0.0-2.0-4.0"", ""block"": ""pre_test""}"
A3329CH71VMUBQ:3WQQ9FUS6AUTWU1O4QSVMD4L415B8B,7,1527695211752,"{""rt"": 7899, ""trial_type"": ""text"", ""internal_node_id"": ""0.0-3.0"", ""time_elapsed"": 380691, ""key_press"": 32, ""trial_index"": 7}"
A3329CH71VMUBQ:3WQQ9FUS6AUTWU1O4QSVMD4L415B8B,8,1527695256193,"{""rt"": [35857, 849, 677], ""trial_type"": ""mouselab-mdp"", ""trialTime"": 43319, ""rewards"": [4, -4, 24], ""stateRewards"": ["""", 2, 8, -48, -24, 2, 8, -24, -48, 4, -4, 24, -48], ""actionTimes"": [35871, 40237, 41432], ""trial_id"": 495354184512700500, ""time_elapsed"": 425133, ""actions"": [""left"", ""left"", ""up""], ""trialIndex"": 5, ""score"": 17, ""trial_index"": 8, ""simulationMode"": [null, null, null], ""queries"": {""mouseover"": {""state"": {""target"": [], ""time"": []}, ""edge"": {""target"": [], ""time"": []}}, ""click"": {""state"": {""target"": [""9"", ""5"", ""10"", ""6"", ""7"", ""8"", ""11""], ""time"": [5919, 10146, 14988, 20197, 24124, 28227, 34071]}, ""edge"": {""target"": [], ""time"": []}}, ""mouseout"": {""state"": {""target"": [], ""time"": []}, ""edge"": {""target"": [], ""time"": []}}}, ""path"": [""0"", ""9"", ""10"", ""11""], ""internal_node_id"": ""0.0-4.0-0.0"", ""block"": ""training""}"
A3329CH71VMUBQ:3WQQ9FUS6AUTWU1O4QSVMD4L415B8B,9,1527695291520,"{""rt"": [26610, 478, 828], ""trial_type"": ""mouselab-mdp"", ""trialTime"": 34160, ""rewards"": [4, -8, 48], ""stateRewards"": ["""", 4, -8, 24, 48, 4, -8, -24, 48, -2, -8, 24, -24], ""actionTimes"": [26621, 30613, 31961], ""trial_id"": 6608608155125090000, ""time_elapsed"": 460460, ""actions"": [""right"", ""right"", ""down""], ""trialIndex"": 6, ""score"": 38, ""trial_index"": 9, ""simulationMode"": [null, null, null], ""queries"": {""mouseover"": {""state"": {""target"": [], ""time"": []}, ""edge"": {""target"": [], ""time"": []}}, ""click"": {""state"": {""target"": [""9"", ""5"", ""1"", ""6"", ""7"", ""8""], ""time"": [5452, 9395, 12775, 16733, 20531, 24315]}, ""edge"": {""target"": [], ""time"": []}}, ""mouseout"": {""state"": {""target"": [], ""time"": []}, ""edge"": {""target"": [], ""time"": []}}}, ""path"": [""0"", ""5"", ""6"", ""8""], ""internal_node_id"": ""0.0-4.0-1.0"", ""block"": ""training""}"
A3329CH71VMUBQ:3WQQ9FUS6AUTWU1O4QSVMD4L415B8B,10,1527695332559,"{""rt"": [30738, 518, 1020], ""trial_type"": ""mouselab-mdp"", ""trialTime"": 39915, ""rewards"": [4, -4, 24], ""stateRewards"": ["""", -4, -8, 24, -24, -2, 8, 24, 48, 4, -4, 24, -48], ""actionTimes"": [30746, 34782, 36318], ""trial_id"": -1100449030722574200, ""time_elapsed"": 501499, ""actions"": [""left"", ""left"", ""up""], ""trialIndex"": 7, ""score"": 19, ""trial_index"": 10, ""simulationMode"": [null, null, null], ""queries"": {""mouseover"": {""state"": {""target"": [], ""time"": []}, ""edge"": {""target"": [], ""time"": []}}, ""click"": {""state"": {""target"": [""9"", ""1"", ""5"", ""10"", ""11""], ""time"": [4375, 7933, 11381, 15576, 19656]}, ""edge"": {""target"": [], ""time"": []}}, ""mouseout"": {""state"": {""target"": [], ""time"": []}, ""edge"": {""target"": [], ""time"": []}}}, ""path"": [""0"", ""9"", ""10"", ""11""], ""internal_node_id"": ""0.0-4.0-2.0"", ""block"": ""training""}"
A3329CH71VMUBQ:3WQQ9FUS6AUTWU1O4QSVMD4L415B8B,11,1527695374053,"{""rt"": [34051, 51, 245], ""trial_type"": ""mouselab-mdp"", ""trialTime"": 40363, ""rewards"": [-4, -4, 48], ""stateRewards"": ["""", 2, -4, -24, -24, 4, -8, -48, -48, -4, -4, 48, 48], ""actionTimes"": [34068, 37637, 38397], ""trial_id"": -7913607226466677000, ""time_elapsed"": 542993, ""actions"": [""left"", ""left"", ""up""], ""trialIndex"": 8, ""score"": 32, ""trial_index"": 11, ""simulationMode"": [null, null, null], ""queries"": {""mouseover"": {""state"": {""target"": [], ""time"": []}, ""edge"": {""target"": [], ""time"": []}}, ""click"": {""state"": {""target"": [""9"", ""5"", ""6"", ""7"", ""8"", ""10"", ""12"", ""11""], ""time"": [4457, 8513, 12784, 16728, 20220, 24148, 27869, 32498]}, ""edge"": {""target"": [], ""time"": []}}, ""mouseout"": {""state"": {""target"": [], ""time"": []}, ""edge"": {""target"": [], ""time"": []}}}, ""path"": [""0"", ""9"", ""10"", ""11""], ""internal_node_id"": ""0.0-4.0-3.0"", ""block"": ""training""}"
A3329CH71VMUBQ:3WQQ9FUS6AUTWU1O4QSVMD4L415B8B,12,1527695432280,"{""rt"": [50570, 82, 231], ""trial_type"": ""mouselab-mdp"", ""trialTime"": 57102, ""rewards"": [2, 4, 24], ""stateRewards"": ["""", 2, 4, -24, 24, 4, 8, -48, -48, -4, -4, -48, -24], ""actionTimes"": [50576, 54180, 54931], ""trial_id"": -7784032825751816000, ""time_elapsed"": 601218, ""actions"": [""up"", ""up"", ""left""], ""trialIndex"": 9, ""score"": 18, ""trial_index"": 12, ""simulationMode"": [null, null, null], ""queries"": {""mouseover"": {""state"": {""target"": [], ""time"": []}, ""edge"": {""target"": [], ""time"": []}}, ""click"": {""state"": {""target"": [""1"", ""9"", ""5"", ""10"", ""6"", ""7"", ""8"", ""2"", ""4"", ""3"", ""11"", ""12""], ""time"": [4146, 7640, 14217, 19546, 23186, 27408, 30905, 35402, 38810, 43006, 46573, 50152]}, ""edge"": {""target"": [], ""time"": []}}, ""mouseout"": {""state"": {""target"": [], ""time"": []}, ""edge"": {""target"": [], ""time"": []}}}, ""path"": [""0"", ""1"", ""2"", ""4""], ""internal_node_id"": ""0.0-4.0-4.0"", ""block"": ""training""}"
A3329CH71VMUBQ:3WQQ9FUS6AUTWU1O4QSVMD4L415B8B,13,1527695466462,"{""rt"": [25701, 757, 322], ""trial_type"": ""mouselab-mdp"", ""trialTime"": 33039, ""rewards"": [2, 4, 48], ""stateRewards"": ["""", 4, -8, 24, 24, 2, 4, 24, 48, -2, 4, 24, -48], ""actionTimes"": [25727, 30004, 30852], ""trial_id"": 6722698278557235000, ""time_elapsed"": 635402, ""actions"": [""right"", ""right"", ""down""], ""trialIndex"": 10, ""score"": 48, ""trial_index"": 13, ""simulationMode"": [null, null, null], ""queries"": {""mouseover"": {""state"": {""target"": [], ""time"": []}, ""edge"": {""target"": [], ""time"": []}}, ""click"": {""state"": {""target"": [""1"", ""2"", ""9"", ""5"", ""6"", ""8""], ""time"": [4377, 7977, 11981, 15408, 19356, 23372]}, ""edge"": {""target"": [], ""time"": []}}, ""mouseout"": {""state"": {""target"": [], ""time"": []}, ""edge"": {""target"": [], ""time"": []}}}, ""path"": [""0"", ""5"", ""6"", ""8""], ""internal_node_id"": ""0.0-4.0-5.0"", ""block"": ""training""}"
A3329CH71VMUBQ:3WQQ9FUS6AUTWU1O4QSVMD4L415B8B,14,1527695496184,"{""rt"": [19692, 275, 278], ""trial_type"": ""mouselab-mdp"", ""trialTime"": 28566, ""rewards"": [-2, 4, 48], ""stateRewards"": ["""", -4, 4, 24, -24, -2, 4, 48, -24, -4, -8, -48, 48], ""actionTimes"": [19700, 23492, 24297], ""trial_id"": 858865579533637100, ""time_elapsed"": 665124, ""actions"": [""right"", ""right"", ""up""], ""trialIndex"": 11, ""score"": 45, ""trial_index"": 14, ""simulationMode"": [null, null, null], ""queries"": {""mouseover"": {""state"": {""target"": [], ""time"": []}, ""edge"": {""target"": [], ""time"": []}}, ""click"": {""state"": {""target"": [""1"", ""9"", ""5"", ""6"", ""7""], ""time"": [4228, 7612, 11052, 14783, 18225]}, ""edge"": {""target"": [], ""time"": []}}, ""mouseout"": {""state"": {""target"": [], ""time"": []}, ""edge"": {""target"": [], ""time"": []}}}, ""path"": [""0"", ""5"", ""6"", ""7""], ""internal_node_id"": ""0.0-4.0-6.0"", ""block"": ""training""}"
A3329CH71VMUBQ:3WQQ9FUS6AUTWU1O4QSVMD4L415B8B,15,1527695551059,"{""rt"": [46678, 586, 588], ""trial_type"": ""mouselab-mdp"", ""trialTime"": 53761, ""rewards"": [-2, -8, 48], ""stateRewards"": ["""", 4, -8, -48, -48, -4, 4, 24, 24, -2, -8, -24, 48], ""actionTimes"": [46686, 50790, 51900], ""trial_id"": -4569496646062697500, ""time_elapsed"": 719999, ""actions"": [""left"", ""left"", ""down""], ""trialIndex"": 12, ""score"": 26, ""trial_index"": 15, ""simulationMode"": [null, null, null], ""queries"": {""mouseover"": {""state"": {""target"": [], ""time"": []}, ""edge"": {""target"": [], ""time"": []}}, ""click"": {""state"": {""target"": [""1"", ""9"", ""5"", ""2"", ""4"", ""3"", ""6"", ""7"", ""8"", ""10"", ""11"", ""12""], ""time"": [3915, 7860, 11298, 14697, 18107, 21549, 24896, 28276, 31722, 35642, 39515, 43464]}, ""edge"": {""target"": [], ""time"": []}}, ""mouseout"": {""state"": {""target"": [], ""time"": []}, ""edge"": {""target"": [], ""time"": []}}}, ""path"": [""0"", ""9"", ""10"", ""12""], ""internal_node_id"": ""0.0-4.0-7.0"", ""block"": ""training""}"
A3329CH71VMUBQ:3WQQ9FUS6AUTWU1O4QSVMD4L415B8B,16,1527695591034,"{""rt"": [32568, 87, 143], ""trial_type"": ""mouselab-mdp"", ""trialTime"": 38851, ""rewards"": [4, -8, 48], ""stateRewards"": ["""", -4, 4, -24, -24, -4, -8, 24, -24, 4, -8, 48, -48], ""actionTimes"": [32575, 36189, 36860], ""trial_id"": 460924718031657700, ""time_elapsed"": 759973, ""actions"": [""left"", ""left"", ""up""], ""trialIndex"": 13, ""score"": 36, ""trial_index"": 16, ""simulationMode"": [null, null, null], ""queries"": {""mouseover"": {""state"": {""target"": [], ""time"": []}, ""edge"": {""target"": [], ""time"": []}}, ""click"": {""state"": {""target"": [""1"", ""9"", ""5"", ""6"", ""7"", ""8"", ""10"", ""11""], ""time"": [4719, 8283, 11615, 15296, 18676, 23341, 26821, 30518]}, ""edge"": {""target"": [], ""time"": []}}, ""mouseout"": {""state"": {""target"": [], ""time"": []}, ""edge"": {""target"": [], ""time"": []}}}, ""path"": [""0"", ""9"", ""10"", ""11""], ""internal_node_id"": ""0.0-4.0-8.0"", ""block"": ""training""}"
A3329CH71VMUBQ:3WQQ9FUS6AUTWU1O4QSVMD4L415B8B,17,1527695648117,"{""rt"": [46163, 205, 114], ""trial_type"": ""mouselab-mdp"", ""trialTime"": 55932, ""rewards"": [2, -4, 24], ""stateRewards"": ["""", -4, -4, -24, 24, 2, -4, 24, -48, -2, 8, -48, -48], ""actionTimes"": [46177, 49902, 50545], ""trial_id"": -1389625695571519700, ""time_elapsed"": 817057, ""actions"": [""right"", ""right"", ""up""], ""trialIndex"": 14, ""score"": 10, ""trial_index"": 17, ""simulationMode"": [null, null, null], ""queries"": {""mouseover"": {""state"": {""target"": [], ""time"": []}, ""edge"": {""target"": [], ""time"": []}}, ""click"": {""state"": {""target"": [""1"", ""9"", ""5"", ""6"", ""7"", ""8"", ""10"", ""11"", ""12"", ""2"", ""4"", ""3""], ""time"": [4363, 8110, 11611, 15263, 18639, 22297, 26801, 30199, 33610, 37116, 40895, 44468]}, ""edge"": {""target"": [], ""time"": []}}, ""mouseout"": {""state"": {""target"": [], ""time"": []}, ""edge"": {""target"": [], ""time"": []}}}, ""path"": [""0"", ""5"", ""6"", ""7""], ""internal_node_id"": ""0.0-4.0-9.0"", ""block"": ""training""}"
A3329CH71VMUBQ:3WQQ9FUS6AUTWU1O4QSVMD4L415B8B,18,1527695651803,"{""rt"": 2683, ""trial_type"": ""text"", ""internal_node_id"": ""0.0-5.0"", ""time_elapsed"": 820743, ""key_press"": 32, ""trial_index"": 18}"
A3329CH71VMUBQ:3WQQ9FUS6AUTWU1O4QSVMD4L415B8B,19,1527695663035,"{""rt"": 10222, ""trial_type"": ""text"", ""internal_node_id"": ""0.0-6.0"", ""time_elapsed"": 831975, ""key_press"": 32, ""trial_index"": 19}"
A3329CH71VMUBQ:3WQQ9FUS6AUTWU1O4QSVMD4L415B8B,20,1527695683657,"{""rt"": [15680, 345, 298], ""trial_type"": ""mouselab-mdp"", ""trialTime"": 19505, ""rewards"": [-2, -8, 48], ""stateRewards"": ["""", -4, -4, -48, -48, -2, -8, 24, 48, 2, 4, -24, -48], ""actionTimes"": [15688, 16557, 17377], ""trial_id"": -1848243683464450000, ""time_elapsed"": 852596, ""actions"": [""right"", ""right"", ""down""], ""trialIndex"": 15, ""score"": 29, ""trial_index"": 20, ""simulationMode"": [null, null, null], ""queries"": {""mouseover"": {""state"": {""target"": [], ""time"": []}, ""edge"": {""target"": [], ""time"": []}}, ""click"": {""state"": {""target"": [""1"", ""9"", ""10"", ""11"", ""12"", ""5"", ""6"", ""7"", ""8""], ""time"": [3482, 4813, 6380, 7000, 7643, 8777, 9362, 9911, 10657]}, ""edge"": {""target"": [], ""time"": []}}, ""mouseout"": {""state"": {""target"": [], ""time"": []}, ""edge"": {""target"": [], ""time"": []}}}, ""path"": [""0"", ""5"", ""6"", ""8""], ""internal_node_id"": ""0.0-7.0-0.0"", ""block"": ""test""}"
A3329CH71VMUBQ:3WQQ9FUS6AUTWU1O4QSVMD4L415B8B,21,1527695719194,"{""rt"": [30896, 118, 134], ""trial_type"": ""mouselab-mdp"", ""trialTime"": 34424, ""rewards"": [-4, 8, 48], ""stateRewards"": ["""", -4, 8, 48, 24, 2, -8, -48, -24, -4, -4, 48, -24], ""actionTimes"": [30909, 31543, 32197], ""trial_id"": 3419769505624262700, ""time_elapsed"": 888134, ""actions"": [""up"", ""up"", ""right""], ""trialIndex"": 16, ""score"": 40, ""trial_index"": 21, ""simulationMode"": [null, null, null], ""queries"": {""mouseover"": {""state"": {""target"": [], ""time"": []}, ""edge"": {""target"": [], ""time"": []}}, ""click"": {""state"": {""target"": [""9"", ""5"", ""6"", ""7"", ""8"", ""10"", ""11"", ""12"", ""1"", ""2"", ""4"", ""3""], ""time"": [5412, 6144, 6889, 7502, 8313, 9231, 9745, 11772, 12641, 14245, 14670, 15937]}, ""edge"": {""target"": [], ""time"": []}}, ""mouseout"": {""state"": {""target"": [], ""time"": []}, ""edge"": {""target"": [], ""time"": []}}}, ""path"": [""0"", ""1"", ""2"", ""3""], ""internal_node_id"": ""0.0-7.0-1.0"", ""block"": ""test""}"
A3329CH71VMUBQ:3WQQ9FUS6AUTWU1O4QSVMD4L415B8B,22,1527695733663,"{""rt"": [9820, 255, 248], ""trial_type"": ""mouselab-mdp"", ""trialTime"": 13322, ""rewards"": [2, 4, 24], ""stateRewards"": ["""", -2, 4, -48, -24, 2, 4, 24, 24, -2, -4, 48, -24], ""actionTimes"": [9828, 10606, 11367], ""trial_id"": 7457324294976434000, ""time_elapsed"": 902603, ""actions"": [""right"", ""right"", ""up""], ""trialIndex"": 17, ""score"": 24, ""trial_index"": 22, ""simulationMode"": [null, null, null], ""queries"": {""mouseover"": {""state"": {""target"": [], ""time"": []}, ""edge"": {""target"": [], ""time"": []}}, ""click"": {""state"": {""target"": [""9"", ""1"", ""5"", ""6"", ""7"", ""8""], ""time"": [3072, 3771, 4176, 4930, 5468, 6174]}, ""edge"": {""target"": [], ""time"": []}}, ""mouseout"": {""state"": {""target"": [], ""time"": []}, ""edge"": {""target"": [], ""time"": []}}}, ""path"": [""0"", ""5"", ""6"", ""7""], ""internal_node_id"": ""0.0-7.0-2.0"", ""block"": ""test""}"
A3329CH71VMUBQ:3WQQ9FUS6AUTWU1O4QSVMD4L415B8B,23,1527695748991,"{""rt"": [11136, 96, 124], ""trial_type"": ""mouselab-mdp"", ""trialTime"": 14203, ""rewards"": [4, 8, 48], ""stateRewards"": ["""", -2, -8, -24, -24, 4, 8, 48, 24, -2, 8, -24, -48], ""actionTimes"": [11143, 11768, 12412], ""trial_id"": 4079752410143045600, ""time_elapsed"": 917931, ""actions"": [""right"", ""right"", ""up""], ""trialIndex"": 18, ""score"": 51, ""trial_index"": 23, ""simulationMode"": [null, null, null], ""queries"": {""mouseover"": {""state"": {""target"": [], ""time"": []}, ""edge"": {""target"": [], ""time"": []}}, ""click"": {""state"": {""target"": [""1"", ""2"", ""9"", ""5"", ""6"", ""7"", ""8"", ""10"", ""11""], ""time"": [2174, 3049, 4490, 5346, 6093, 6620, 7257, 9288, 9672]}, ""edge"": {""target"": [], ""time"": []}}, ""mouseout"": {""state"": {""target"": [], ""time"": []}, ""edge"": {""target"": [], ""time"": []}}}, ""path"": [""0"", ""5"", ""6"", ""7""], ""internal_node_id"": ""0.0-7.0-3.0"", ""block"": ""test""}"
A3329CH71VMUBQ:3WQQ9FUS6AUTWU1O4QSVMD4L415B8B,24,1527695766760,"{""rt"": [13299, 66, 124], ""trial_type"": ""mouselab-mdp"", ""trialTime"": 16649, ""rewards"": [-4, 4, 48], ""stateRewards"": ["""", -4, 4, 24, 24, 2, 8, -24, 24, -4, 4, -24, 48], ""actionTimes"": [13306, 13899, 14539], ""trial_id"": 5347440239323845000, ""time_elapsed"": 935700, ""actions"": [""left"", ""left"", ""down""], ""trialIndex"": 19, ""score"": 36, ""trial_index"": 24, ""simulationMode"": [null, null, null], ""queries"": {""mouseover"": {""state"": {""target"": [], ""time"": []}, ""edge"": {""target"": [], ""time"": []}}, ""click"": {""state"": {""target"": [""1"", ""9"", ""5"", ""6"", ""7"", ""8"", ""10"", ""11"", ""12"", ""2"", ""4"", ""3""], ""time"": [2764, 3376, 3934, 4582, 5059, 5639, 7007, 7840, 8502, 10109, 10424, 11093]}, ""edge"": {""target"": [], ""time"": []}}, ""mouseout"": {""state"": {""target"": [], ""time"": []}, ""edge"": {""target"": [], ""time"": []}}}, ""path"": [""0"", ""9"", ""10"", ""12""], ""internal_node_id"": ""0.0-7.0-4.0"", ""block"": ""test""}"
A3329CH71VMUBQ:3WQQ9FUS6AUTWU1O4QSVMD4L415B8B,25,1527695789530,"{""rt"": [14986, 178, 280], ""trial_type"": ""mouselab-mdp"", ""trialTime"": 21615, ""rewards"": [4, -8, 24], ""stateRewards"": ["""", -2, 4, -24, 24, -2, -4, -48, -48, 4, -8, 24, 24], ""actionTimes"": [14994, 15689, 16489], ""trial_id"": 282020194745400500, ""time_elapsed"": 958470, ""actions"": [""left"", ""left"", ""up""], ""trialIndex"": 20, ""score"": 8, ""trial_index"": 25, ""simulationMode"": [null, null, null], ""queries"": {""mouseover"": {""state"": {""target"": [], ""time"": []}, ""edge"": {""target"": [], ""time"": []}}, ""click"": {""state"": {""target"": [""1"", ""9"", ""5"", ""10"", ""12"", ""11"", ""6"", ""7"", ""8"", ""2"", ""4"", ""3""], ""time"": [3331, 4412, 4869, 5696, 6185, 6725, 8826, 9233, 9894, 10661, 11066, 12074]}, ""edge"": {""target"": [], ""time"": []}}, ""mouseout"": {""state"": {""target"": [], ""time"": []}, ""edge"": {""target"": [], ""time"": []}}}, ""path"": [""0"", ""9"", ""10"", ""11""], ""internal_node_id"": ""0.0-7.0-5.0"", ""block"": ""test""}"
A3329CH71VMUBQ:3WQQ9FUS6AUTWU1O4QSVMD4L415B8B,26,1527695801743,"{""rt"": [8044, 72, 84], ""trial_type"": ""mouselab-mdp"", ""trialTime"": 11084, ""rewards"": [2, 8, 48], ""stateRewards"": ["""", 2, 8, 48, -24, -4, -4, -48, 24, -4, -8, -48, -24], ""actionTimes"": [8051, 8638, 9252], ""trial_id"": 2372710761025483000, ""time_elapsed"": 970683, ""actions"": [""up"", ""up"", ""right""], ""trialIndex"": 21, ""score"": 47, ""trial_index"": 26, ""simulationMode"": [null, null, null], ""queries"": {""mouseover"": {""state"": {""target"": [], ""time"": []}, ""edge"": {""target"": [], ""time"": []}}, ""click"": {""state"": {""target"": [""9"", ""10"", ""11"", ""12"", ""1"", ""2"", ""3"", ""4"", ""5"", ""6"", ""7""], ""time"": [1332, 1832, 2619, 3074, 3871, 4409, 4784, 5311, 6065, 6439, 6776]}, ""edge"": {""target"": [], ""time"": []}}, ""mouseout"": {""state"": {""target"": [], ""time"": []}, ""edge"": {""target"": [], ""time"": []}}}, ""path"": [""0"", ""1"", ""2"", ""3""], ""internal_node_id"": ""0.0-7.0-6.0"", ""block"": ""test""}"
A3329CH71VMUBQ:3WQQ9FUS6AUTWU1O4QSVMD4L415B8B,27,1527695811931,"{""rt"": [5815, 87, 81], ""trial_type"": ""mouselab-mdp"", ""trialTime"": 9062, ""rewards"": [4, 4, 48], ""stateRewards"": ["""", 4, 4, -48, 48, 4, 4, -24, -24, 2, -8, 48, -24], ""actionTimes"": [5825, 6423, 7017], ""trial_id"": 3802673927624508000, ""time_elapsed"": 980871, ""actions"": [""up"", ""up"", ""left""], ""trialIndex"": 22, ""score"": 50, ""trial_index"": 27, ""simulationMode"": [null, null, null], ""queries"": {""mouseover"": {""state"": {""target"": [], ""time"": []}, ""edge"": {""target"": [], ""time"": []}}, ""click"": {""state"": {""target"": [""9"", ""5"", ""1"", ""2"", ""3"", ""4""], ""time"": [1131, 1592, 2242, 2909, 3342, 3807]}, ""edge"": {""target"": [], ""time"": []}}, ""mouseout"": {""state"": {""target"": [], ""time"": []}, ""edge"": {""target"": [], ""time"": []}}}, ""path"": [""0"", ""1"", ""2"", ""4""], ""internal_node_id"": ""0.0-7.0-7.0"", ""block"": ""test""}"
A3329CH71VMUBQ:3WQQ9FUS6AUTWU1O4QSVMD4L415B8B,28,1527695826662,"{""rt"": [10497, 149, 8], ""trial_type"": ""mouselab-mdp"", ""trialTime"": 13621, ""rewards"": [4, -8, 48], ""stateRewards"": ["""", 4, -4, -24, 24, 2, 4, -24, -48, 4, -8, 48, -48], ""actionTimes"": [10504, 11181, 11708], ""trial_id"": 4251687641687985000, ""time_elapsed"": 995602, ""actions"": [""left"", ""left"", ""up""], ""trialIndex"": 23, ""score"": 32, ""trial_index"": 28, ""simulationMode"": [null, null, null], ""queries"": {""mouseover"": {""state"": {""target"": [], ""time"": []}, ""edge"": {""target"": [], ""time"": []}}, ""click"": {""state"": {""target"": [""9"", ""5"", ""6"", ""7"", ""8"", ""10"", ""11"", ""12"", ""1"", ""2"", ""4"", ""3""], ""time"": [3305, 4085, 4482, 4856, 5474, 6218, 6636, 7197, 7953, 8464, 8862, 9301]}, ""edge"": {""target"": [], ""time"": []}}, ""mouseout"": {""state"": {""target"": [], ""time"": []}, ""edge"": {""target"": [], ""time"": []}}}, ""path"": [""0"", ""9"", ""10"", ""11""], ""internal_node_id"": ""0.0-7.0-8.0"", ""block"": ""test""}"
A3329CH71VMUBQ:3WQQ9FUS6AUTWU1O4QSVMD4L415B8B,29,1527695837487,"{""rt"": [6903, 70, 141], ""trial_type"": ""mouselab-mdp"", ""trialTime"": 9714, ""rewards"": [2, -8, 48], ""stateRewards"": ["""", 4, 8, -24, 24, -2, 4, -24, 48, 2, -8, 24, 48], ""actionTimes"": [6910, 7502, 8157], ""trial_id"": 8866052500453722000, ""time_elapsed"": 1006427, ""actions"": [""left"", ""left"", ""down""], ""trialIndex"": 24, ""score"": 34, ""trial_index"": 29, ""simulationMode"": [null, null, null], ""queries"": {""mouseover"": {""state"": {""target"": [], ""time"": []}, ""edge"": {""target"": [], ""time"": []}}, ""click"": {""state"": {""target"": [""1"", ""2"", ""3"", ""4"", ""9"", ""10"", ""11"", ""12""], ""time"": [841, 1490, 1884, 2388, 3301, 3809, 4252, 4966]}, ""edge"": {""target"": [], ""time"": []}}, ""mouseout"": {""state"": {""target"": [], ""time"": []}, ""edge"": {""target"": [], ""time"": []}}}, ""path"": [""0"", ""9"", ""10"", ""12""], ""internal_node_id"": ""0.0-7.0-9.0"", ""block"": ""test""}"
A3329CH71VMUBQ:3WQQ9FUS6AUTWU1O4QSVMD4L415B8B,30,1527695851440,"{""rt"": [10242, 36, 26], ""trial_type"": ""mouselab-mdp"", ""trialTime"": 12838, ""rewards"": [-2, 8, 24], ""stateRewards"": ["""", 2, 4, -24, -48, -2, -4, -24, -24, -2, 8, 24, -24], ""actionTimes"": [10250, 10807, 11362], ""trial_id"": 11823864361136648, ""time_elapsed"": 1020380, ""actions"": [""left"", ""left"", ""up""], ""trialIndex"": 25, ""score"": 18, ""trial_index"": 30, ""simulationMode"": [null, null, null], ""queries"": {""mouseover"": {""state"": {""target"": [], ""time"": []}, ""edge"": {""target"": [], ""time"": []}}, ""click"": {""state"": {""target"": [""9"", ""10"", ""11"", ""12"", ""1"", ""2"", ""3"", ""4"", ""5"", ""6"", ""7"", ""8""], ""time"": [2131, 2639, 3041, 3522, 4387, 5295, 5624, 6023, 6845, 7233, 7626, 8073]}, ""edge"": {""target"": [], ""time"": []}}, ""mouseout"": {""state"": {""target"": [], ""time"": []}, ""edge"": {""target"": [], ""time"": []}}}, ""path"": [""0"", ""9"", ""10"", ""11""], ""internal_node_id"": ""0.0-7.0-10.0"", ""block"": ""test""}"
A3329CH71VMUBQ:3WQQ9FUS6AUTWU1O4QSVMD4L415B8B,31,1527695865329,"{""rt"": [10027, 122, 204], ""trial_type"": ""mouselab-mdp"", ""trialTime"": 12769, ""rewards"": [-2, 8, 48], ""stateRewards"": ["""", 2, 8, -24, -48, -2, 8, 48, 24, 4, 8, -24, -48], ""actionTimes"": [10034, 10684, 11415], ""trial_id"": 7708577571422581000, ""time_elapsed"": 1034269, ""actions"": [""right"", ""right"", ""up""], ""trialIndex"": 26, ""score"": 42, ""trial_index"": 31, ""simulationMode"": [null, null, null], ""queries"": {""mouseover"": {""state"": {""target"": [], ""time"": []}, ""edge"": {""target"": [], ""time"": []}}, ""click"": {""state"": {""target"": [""9"", ""5"", ""1"", ""10"", ""11"", ""12"", ""2"", ""4"", ""3"", ""6"", ""7"", ""8""], ""time"": [1363, 1789, 2757, 3405, 3821, 4345, 5632, 5989, 6489, 7492, 7886, 8640]}, ""edge"": {""target"": [], ""time"": []}}, ""mouseout"": {""state"": {""target"": [], ""time"": []}, ""edge"": {""target"": [], ""time"": []}}}, ""path"": [""0"", ""5"", ""6"", ""7""], ""internal_node_id"": ""0.0-7.0-11.0"", ""block"": ""test""}"
A3329CH71VMUBQ:3WQQ9FUS6AUTWU1O4QSVMD4L415B8B,32,1527695875041,"{""rt"": [4776, 151, 87], ""trial_type"": ""mouselab-mdp"", ""trialTime"": 8595, ""rewards"": [2, 4, 48], ""stateRewards"": ["""", -2, -4, 48, 24, 2, 4, -48, 48, -4, 4, 48, 24], ""actionTimes"": [4783, 5460, 6064], ""trial_id"": 7946552191512982000, ""time_elapsed"": 1043981, ""actions"": [""right"", ""right"", ""down""], ""trialIndex"": 27, ""score"": 48, ""trial_index"": 32, ""simulationMode"": [null, null, null], ""queries"": {""mouseover"": {""state"": {""target"": [], ""time"": []}, ""edge"": {""target"": [], ""time"": []}}, ""click"": {""state"": {""target"": [""1"", ""9"", ""5"", ""6"", ""7"", ""8""], ""time"": [798, 1228, 1627, 2269, 2680, 3233]}, ""edge"": {""target"": [], ""time"": []}}, ""mouseout"": {""state"": {""target"": [], ""time"": []}, ""edge"": {""target"": [], ""time"": []}}}, ""path"": [""0"", ""5"", ""6"", ""8""], ""internal_node_id"": ""0.0-7.0-12.0"", ""block"": ""test""}"
A3329CH71VMUBQ:3WQQ9FUS6AUTWU1O4QSVMD4L415B8B,33,1527695894053,"{""rt"": [8811, 46, 56], ""trial_type"": ""mouselab-mdp"", ""trialTime"": 17888, ""rewards"": [4, -4, 48], ""stateRewards"": ["""", -2, -8, -48, -48, -4, -8, 24, 24, 4, -4, 48, -24], ""actionTimes"": [8818, 9385, 9963], ""trial_id"": -3027317260685893600, ""time_elapsed"": 1062993, ""actions"": [""left"", ""left"", ""up""], ""trialIndex"": 28, ""score"": 36, ""trial_index"": 33, ""simulationMode"": [null, null, null], ""queries"": {""mouseover"": {""state"": {""target"": [], ""time"": []}, ""edge"": {""target"": [], ""time"": []}}, ""click"": {""state"": {""target"": [""9"", ""5"", ""1"", ""10"", ""11"", ""12"", ""2"", ""4"", ""3"", ""6"", ""7"", ""8""], ""time"": [1043, 1562, 1926, 2514, 2897, 3422, 4554, 4909, 5621, 6157, 6541, 7236]}, ""edge"": {""target"": [], ""time"": []}}, ""mouseout"": {""state"": {""target"": [], ""time"": []}, ""edge"": {""target"": [], ""time"": []}}}, ""path"": [""0"", ""9"", ""10"", ""11""], ""internal_node_id"": ""0.0-7.0-13.0"", ""block"": ""test""}"
A3329CH71VMUBQ:3WQQ9FUS6AUTWU1O4QSVMD4L415B8B,34,1527695907446,"{""rt"": [9165, 101, 228], ""trial_type"": ""mouselab-mdp"", ""trialTime"": 12282, ""rewards"": [2, 4, 24], ""stateRewards"": ["""", -2, -4, -48, -48, 2, -8, -24, -24, 2, 4, 24, 24], ""actionTimes"": [9173, 9792, 10534], ""trial_id"": -7656966127788694000, ""time_elapsed"": 1076386, ""actions"": [""left"", ""left"", ""up""], ""trialIndex"": 29, ""score"": 18, ""trial_index"": 34, ""simulationMode"": [null, null, null], ""queries"": {""mouseover"": {""state"": {""target"": [], ""time"": []}, ""edge"": {""target"": [], ""time"": []}}, ""click"": {""state"": {""target"": [""9"", ""1"", ""5"", ""6"", ""7"", ""8"", ""10"", ""11"", ""12"", ""2"", ""4"", ""3""], ""time"": [1309, 1940, 2609, 3177, 3593, 4074, 4811, 5226, 5704, 6663, 7010, 7995]}, ""edge"": {""target"": [], ""time"": []}}, ""mouseout"": {""state"": {""target"": [], ""time"": []}, ""edge"": {""target"": [], ""time"": []}}}, ""path"": [""0"", ""9"", ""10"", ""11""], ""internal_node_id"": ""0.0-7.0-14.0"", ""block"": ""test""}"
A3329CH71VMUBQ:3WQQ9FUS6AUTWU1O4QSVMD4L415B8B,35,1527695931569,"{""rt"": 23096, ""trial_type"": ""survey-multi-choice"", ""responses"": ""[\""$-4 to $4\"",\""$-48 to $48\"",\""$1\"",\""1 cent for every $1 you make in the game\""]"", ""internal_node_id"": ""0.0-8.0"", ""time_elapsed"": 1100509, ""questions"": ""[\""What is the range of node values in the first step?\"",\""What is the range of node values in the last step?\"",\""What is the cost of clicking?\"",\""How much REAL money do you earn?\""]"", ""correct"": null, ""trial_index"": 35}"
A3329CH71VMUBQ:3WQQ9FUS6AUTWU1O4QSVMD4L415B8B,36,1527696032165,"{""rt"": 99589, ""trial_type"": ""survey-text"", ""responses"": ""{\""Q0\"":\""I used the node to help decide\"",\""Q1\"":\""I calculated the path \"",\""Q2\"":\""When I seen the most positive path\"",\""Q3\"":\""the the left\"",\""Q4\"":\""I tried to notice a pattern but did not see on so I used the peek tool to help me\""}"", ""internal_node_id"": ""0.0-9.0"", ""time_elapsed"": 1201105, ""trial_index"": 36}"
A3329CH71VMUBQ:3WQQ9FUS6AUTWU1O4QSVMD4L415B8B,37,1527696082230,"{""rt"": 49052, ""trial_type"": ""survey-text"", ""responses"": ""{\""Q0\"":\""It would be real hard to get a 5 bonus\"",\""Q1\"":\""no\"",\""Q2\"":\""36\"",\""Q3\"":\""Thx for game\""}"", ""internal_node_id"": ""0.0-10.0"", ""time_elapsed"": 1251170, ""trial_index"": 37}"
A3AHY83AP9XLZ9:308Q0PEVB8D3X7Y4FSQQ8W39JX7I9G,0,1527692158968,"{""rt"": 20384, ""trial_type"": ""text"", ""internal_node_id"": ""0.0-0.0"", ""time_elapsed"": 20418, ""key_press"": 32, ""trial_index"": 0}"
A3AHY83AP9XLZ9:308Q0PEVB8D3X7Y4FSQQ8W39JX7I9G,1,1527692176391,"{""rt"": 16405, ""trial_type"": ""text"", ""internal_node_id"": ""0.0-1.0"", ""time_elapsed"": 37842, ""key_press"": 32, ""trial_index"": 1}"
A3AHY83AP9XLZ9:308Q0PEVB8D3X7Y4FSQQ8W39JX7I9G,2,1527692201943,"{""rt"": [18819, 172, 88], ""trial_type"": ""mouselab-mdp"", ""trialTime"": 24068, ""rewards"": [4, 8, 24], ""stateRewards"": ["""", 2, 4, 24, -24, 4, 8, -48, 24, 4, -8, -24, 24], ""actionTimes"": [18861, 19559, 20186], ""trial_id"": 8950946188299295000, ""time_elapsed"": 63394, ""actions"": [""right"", ""right"", ""down""], ""trialIndex"": 0, ""score"": 30, ""trial_index"": 2, ""simulationMode"": [null, null, null], ""queries"": {""mouseover"": {""state"": {""target"": [], ""time"": []}, ""edge"": {""target"": [], ""time"": []}}, ""click"": {""state"": {""target"": [""1"", ""2"", ""5"", ""9"", ""6"", ""8""], ""time"": [9148, 11081, 12441, 13167, 14768, 17127]}, ""edge"": {""target"": [], ""time"": []}}, ""mouseout"": {""state"": {""target"": [], ""time"": []}, ""edge"": {""target"": [], ""time"": []}}}, ""path"": [""0"", ""5"", ""6"", ""8""], ""internal_node_id"": ""0.0-2.0-0.0"", ""block"": ""pre_test""}"
A3AHY83AP9XLZ9:308Q0PEVB8D3X7Y4FSQQ8W39JX7I9G,3,1527692219855,"{""rt"": [12639, 13, 28], ""trial_type"": ""mouselab-mdp"", ""trialTime"": 16601, ""rewards"": [2, 4, 24], ""stateRewards"": ["""", -2, 4, -48, -24, 2, 4, 24, 24, -2, -4, 48, -24], ""actionTimes"": [12692, 13219, 13789], ""trial_id"": 7457324294976434000, ""time_elapsed"": 81306, ""actions"": [""right"", ""right"", ""down""], ""trialIndex"": 1, ""score"": 24, ""trial_index"": 3, ""simulationMode"": [null, null, null], ""queries"": {""mouseover"": {""state"": {""target"": [], ""time"": []}, ""edge"": {""target"": [], ""time"": []}}, ""click"": {""state"": {""target"": [""5"", ""6"", ""8"", ""1"", ""9"", ""7""], ""time"": [5227, 6190, 6900, 8668, 9791, 12154]}, ""edge"": {""target"": [], ""time"": []}}, ""mouseout"": {""state"": {""target"": [], ""time"": []}, ""edge"": {""target"": [], ""time"": []}}}, ""path"": [""0"", ""5"", ""6"", ""8""], ""internal_node_id"": ""0.0-2.0-1.0"", ""block"": ""pre_test""}"
A3AHY83AP9XLZ9:308Q0PEVB8D3X7Y4FSQQ8W39JX7I9G,4,1527692239716,"{""rt"": [15075, 104, 87], ""trial_type"": ""mouselab-mdp"", ""trialTime"": 18634, ""rewards"": [-2, 8, 24], ""stateRewards"": ["""", 2, 4, -24, -48, -2, -4, -24, -24, -2, 8, 24, -24], ""actionTimes"": [15093, 15721, 16349], ""trial_id"": 11823864361136648, ""time_elapsed"": 101167, ""actions"": [""left"", ""left"", ""up""], ""trialIndex"": 2, ""score"": 18, ""trial_index"": 4, ""simulationMode"": [null, null, null], ""queries"": {""mouseover"": {""state"": {""target"": [], ""time"": []}, ""edge"": {""target"": [], ""time"": []}}, ""click"": {""state"": {""target"": [""1"", ""9"", ""5"", ""2"", ""3"", ""4"", ""6"", ""8"", ""7"", ""10"", ""12"", ""11""], ""time"": [4060, 4784, 5625, 6771, 7820, 8831, 10273, 11079, 11971, 12889, 13464, 14320]}, ""edge"": {""target"": [], ""time"": []}}, ""mouseout"": {""state"": {""target"": [], ""time"": []}, ""edge"": {""target"": [], ""time"": []}}}, ""path"": [""0"", ""9"", ""10"", ""11""], ""internal_node_id"": ""0.0-2.0-2.0"", ""block"": ""pre_test""}"
A3AHY83AP9XLZ9:308Q0PEVB8D3X7Y4FSQQ8W39JX7I9G,5,1527692257446,"{""rt"": [13082, 66, 61], ""trial_type"": ""mouselab-mdp"", ""trialTime"": 16476, ""rewards"": [4, 8, 24], ""stateRewards"": ["""", 4, 8, -24, 24, -2, 4, -24, 48, 2, -8, 24, 48], ""actionTimes"": [13093, 13674, 14269], ""trial_id"": 8866052500453722000, ""time_elapsed"": 118898, ""actions"": [""up"", ""up"", ""left""], ""trialIndex"": 3, ""score"": 30, ""trial_index"": 5, ""simulationMode"": [null, null, null], ""queries"": {""mouseover"": {""state"": {""target"": [], ""time"": []}, ""edge"": {""target"": [], ""time"": []}}, ""click"": {""state"": {""target"": [""5"", ""1"", ""9"", ""2"", ""3"", ""4""], ""time"": [3940, 6092, 6883, 8648, 9567, 10334]}, ""edge"": {""target"": [], ""time"": []}}, ""mouseout"": {""state"": {""target"": [], ""time"": []}, ""edge"": {""target"": [], ""time"": []}}}, ""path"": [""0"", ""1"", ""2"", ""4""], ""internal_node_id"": ""0.0-2.0-3.0"", ""block"": ""pre_test""}"
A3AHY83AP9XLZ9:308Q0PEVB8D3X7Y4FSQQ8W39JX7I9G,6,1527692271282,"{""rt"": [9336, 98, 133], ""trial_type"": ""mouselab-mdp"", ""trialTime"": 12609, ""rewards"": [4, -8, 48], ""stateRewards"": ["""", 2, 4, 24, -24, 4, -8, 48, -24, -4, 8, -48, 48], ""actionTimes"": [9356, 9970, 10630], ""trial_id"": 5010381167344479000, ""time_elapsed"": 132733, ""actions"": [""right"", ""right"", ""up""], ""trialIndex"": 4, ""score"": 40, ""trial_index"": 6, ""simulationMode"": [null, null, null], ""queries"": {""mouseover"": {""state"": {""target"": [], ""time"": []}, ""edge"": {""target"": [], ""time"": []}}, ""click"": {""state"": {""target"": [""1"", ""9"", ""5"", ""7""], ""time"": [3580, 4318, 5047, 7563]}, ""edge"": {""target"": [], ""time"": []}}, ""mouseout"": {""state"": {""target"": [], ""time"": []}, ""edge"": {""target"": [], ""time"": []}}}, ""path"": [""0"", ""5"", ""6"", ""7""], ""internal_node_id"": ""0.0-2.0-4.0"", ""block"": ""pre_test""}"
A3AHY83AP9XLZ9:308Q0PEVB8D3X7Y4FSQQ8W39JX7I9G,7,1527692280430,"{""rt"": 8144, ""trial_type"": ""text"", ""internal_node_id"": ""0.0-3.0"", ""time_elapsed"": 141880, ""key_press"": 32, ""trial_index"": 7}"
A3AHY83AP9XLZ9:308Q0PEVB8D3X7Y4FSQQ8W39JX7I9G,8,1527692323643,"{""rt"": [34802, 353, 399], ""trial_type"": ""mouselab-mdp"", ""trialTime"": 41916, ""rewards"": [4, -4, 48], ""stateRewards"": ["""", 4, -4, -48, 24, -2, -4, 24, 48, 4, -4, 48, -48], ""actionTimes"": [34833, 38715, 39650], ""trial_id"": 320588371626771840, ""time_elapsed"": 185095, ""actions"": [""left"", ""left"", ""up""], ""trialIndex"": 5, ""score"": 42, ""trial_index"": 8, ""simulationMode"": [null, null, null], ""queries"": {""mouseover"": {""state"": {""target"": [], ""time"": []}, ""edge"": {""target"": [], ""time"": []}}, ""click"": {""state"": {""target"": [""3"", ""4"", ""2"", ""1"", ""11"", ""10""], ""time"": [7210, 11492, 16353, 21219, 28277, 33455]}, ""edge"": {""target"": [], ""time"": []}}, ""mouseout"": {""state"": {""target"": [], ""time"": []}, ""edge"": {""target"": [], ""time"": []}}}, ""path"": [""0"", ""9"", ""10"", ""11""], ""internal_node_id"": ""0.0-4.0-0.0"", ""block"": ""training""}"
A3AHY83AP9XLZ9:308Q0PEVB8D3X7Y4FSQQ8W39JX7I9G,9,1527692343229,"{""rt"": [11380, 124, 116], ""trial_type"": ""mouselab-mdp"", ""trialTime"": 18367, ""rewards"": [-4, 4, 48], ""stateRewards"": ["""", 2, -4, 24, -48, -4, -8, -48, -48, -4, 4, -48, 48], ""actionTimes"": [11411, 15076, 15710], ""trial_id"": 2118335984300500500, ""time_elapsed"": 204681, ""actions"": [""left"", ""left"", ""down""], ""trialIndex"": 6, ""score"": 46, ""trial_index"": 9, ""simulationMode"": [null, null, null], ""queries"": {""mouseover"": {""state"": {""target"": [], ""time"": []}, ""edge"": {""target"": [], ""time"": []}}, ""click"": {""state"": {""target"": [""11"", ""12""], ""time"": [6246, 10259]}, ""edge"": {""target"": [], ""time"": []}}, ""mouseout"": {""state"": {""target"": [], ""time"": []}, ""edge"": {""target"": [], ""time"": []}}}, ""path"": [""0"", ""9"", ""10"", ""12""], ""internal_node_id"": ""0.0-4.0-1.0"", ""block"": ""training""}"
