action_times,actions,button_pressed,correct,delays,information_used_correctly,key_press,path,planned_too_little,planned_too_much,queries,questions,responses,rt,score,stimulus,time_elapsed,trial_index,trial_i,trial_type,view_history,pid
,,0.0,,,,,,,,,,,3957,,"<h1 id=""youvecompletedthehit"">You've completed the HIT</h1>

<p>Thanks again for participating. We hope you had fun!</p>

<p>Based on your performance, you will be
awarded a bonus of <strong>$2.71</strong>.</p>",995266,,,button-response,,0
,,0.0,,,,,,,,,,,2894,,"<h1 id=""youvecompletedthehit"">You've completed the HIT</h1>

<p>Thanks again for participating. We hope you had fun!</p>

<p>Based on your performance, you will be
awarded a bonus of <strong>$2.88</strong>.</p>",682798,,,button-response,,1
,,0.0,,,,,,,,,,,4329,,"<h1 id=""youvecompletedthehit"">You've completed the HIT</h1>

<p>Thanks again for participating. We hope you had fun!</p>

<p>Based on your performance, you will be
awarded a bonus of <strong>$3.17</strong>.</p>",1037894,,,button-response,,2
,,0.0,,,,,,,,,,,3351,,"<h1 id=""youvecompletedthehit"">You've completed the HIT</h1>

<p>Thanks again for participating. We hope you had fun!</p>

<p>Based on your performance, you will be
awarded a bonus of <strong>$3.04</strong>.</p>",1205119,,,button-response,,3
,,0.0,,,,,,,,,,,3475,,"<h1 id=""youvecompletedthehit"">You've completed the HIT</h1>

<p>Thanks again for participating. We hope you had fun!</p>

<p>Based on your performance, you will be
awarded a bonus of <strong>$3.45</strong>.</p>",567352,,,button-response,,4
,,0.0,,,,,,,,,,,13056,,"<h1 id=""youvecompletedthehit"">You've completed the HIT</h1>

<p>Thanks again for participating. We hope you had fun!</p>

<p>Based on your performance, you will be
awarded a bonus of <strong>$3.18</strong>.</p>",865354,,,button-response,,5
,,0.0,,,,,,,,,,,10250,,"<h1 id=""youvecompletedthehit"">You've completed the HIT</h1>

<p>Thanks again for participating. We hope you had fun!</p>

<p>Based on your performance, you will be
awarded a bonus of <strong>$2.17</strong>.</p>",1096914,,,button-response,,6
,,0.0,,,,,,,,,,,2093,,"<h1 id=""youvecompletedthehit"">You've completed the HIT</h1>

<p>Thanks again for participating. We hope you had fun!</p>

<p>Based on your performance, you will be
awarded a bonus of <strong>$3.43</strong>.</p>",924137,,,button-response,,7
,,0.0,,,,,,,,,,,1288,,"<h1 id=""youvecompletedthehit"">You've completed the HIT</h1>

<p>Thanks again for participating. We hope you had fun!</p>

<p>Based on your performance, you will be
awarded a bonus of <strong>$2.30</strong>.</p>",1223918,,,button-response,,8
,,0.0,,,,,,,,,,,3250,,"<h1 id=""youvecompletedthehit"">You've completed the HIT</h1>

<p>Thanks again for participating. We hope you had fun!</p>

<p>Based on your performance, you will be
awarded a bonus of <strong>$3.47</strong>.</p>",582119,,,button-response,,9
,,0.0,,,,,,,,,,,5207,,"<h1 id=""youvecompletedthehit"">You've completed the HIT</h1>

<p>Thanks again for participating. We hope you had fun!</p>

<p>Based on your performance, you will be
awarded a bonus of <strong>$3.10</strong>.</p>",1024266,,,button-response,,10
,,0.0,,,,,,,,,,,6183,,"<h1 id=""youvecompletedthehit"">You've completed the HIT</h1>

<p>Thanks again for participating. We hope you had fun!</p>

<p>Based on your performance, you will be
awarded a bonus of <strong>$3.05</strong>.</p>",649445,,,button-response,,11
,,0.0,,,,,,,,,,,1181,,"<h1 id=""youvecompletedthehit"">You've completed the HIT</h1>

<p>Thanks again for participating. We hope you had fun!</p>

<p>Based on your performance, you will be
awarded a bonus of <strong>$3.16</strong>.</p>",990856,,,button-response,,12
,,0.0,,,,,,,,,,,4465,,"<h1 id=""youvecompletedthehit"">You've completed the HIT</h1>

<p>Thanks again for participating. We hope you had fun!</p>

<p>Based on your performance, you will be
awarded a bonus of <strong>$2.92</strong>.</p>",870105,,,button-response,,13
,,0.0,,,,,,,,,,,2577,,"<h1 id=""youvecompletedthehit"">You've completed the HIT</h1>

<p>Thanks again for participating. We hope you had fun!</p>

<p>Based on your performance, you will be
awarded a bonus of <strong>$1.06</strong>.</p>",1070230,,,button-response,,14
,,0.0,,,,,,,,,,,9943,,"<h1 id=""youvecompletedthehit"">You've completed the HIT</h1>

<p>Thanks again for participating. We hope you had fun!</p>

<p>Based on your performance, you will be
awarded a bonus of <strong>$3.23</strong>.</p>",709829,,,button-response,,15
,,0.0,,,,,,,,,,,3276,,"<h1 id=""youvecompletedthehit"">You've completed the HIT</h1>

<p>Thanks again for participating. We hope you had fun!</p>

<p>Based on your performance, you will be
awarded a bonus of <strong>$2.89</strong>.</p>",1007220,,,button-response,,16
,,0.0,,,,,,,,,,,4640,,"<h1 id=""youvecompletedthehit"">You've completed the HIT</h1>

<p>Thanks again for participating. We hope you had fun!</p>

<p>Based on your performance, you will be
awarded a bonus of <strong>$3.04</strong>.</p>",1021912,,,button-response,,17
,,0.0,,,,,,,,,,,6646,,"<h1 id=""youvecompletedthehit"">You've completed the HIT</h1>

<p>Thanks again for participating. We hope you had fun!</p>

<p>Based on your performance, you will be
awarded a bonus of <strong>$2.74</strong>.</p>",1518305,,,button-response,,18
,,0.0,,,,,,,,,,,2705,,"<h1 id=""youvecompletedthehit"">You've completed the HIT</h1>

<p>Thanks again for participating. We hope you had fun!</p>

<p>Based on your performance, you will be
awarded a bonus of <strong>$1.89</strong>.</p>",1250703,,,button-response,,19
,,0.0,,,,,,,,,,,2426,,"<h1 id=""youvecompletedthehit"">You've completed the HIT</h1>

<p>Thanks again for participating. We hope you had fun!</p>

<p>Based on your performance, you will be
awarded a bonus of <strong>$3.39</strong>.</p>",572876,,,button-response,,20
,,0.0,,,,,,,,,,,2043,,"<h1 id=""youvecompletedthehit"">You've completed the HIT</h1>

<p>Thanks again for participating. We hope you had fun!</p>

<p>Based on your performance, you will be
awarded a bonus of <strong>$3.06</strong>.</p>",1665198,,,button-response,,21
,,0.0,,,,,,,,,,,9925,,"<h1 id=""youvecompletedthehit"">You've completed the HIT</h1>

<p>Thanks again for participating. We hope you had fun!</p>

<p>Based on your performance, you will be
awarded a bonus of <strong>$2.94</strong>.</p>",1129108,,,button-response,,22
,,0.0,,,,,,,,,,,1296,,"<h1 id=""youvecompletedthehit"">You've completed the HIT</h1>

<p>Thanks again for participating. We hope you had fun!</p>

<p>Based on your performance, you will be
awarded a bonus of <strong>$3.40</strong>.</p>",691400,,,button-response,,24
,,0.0,,,,,,,,,,,5972,,"<h1 id=""youvecompletedthehit"">You've completed the HIT</h1>

<p>Thanks again for participating. We hope you had fun!</p>

<p>Based on your performance, you will be
awarded a bonus of <strong>$2.34</strong>.</p>",1154538,,,button-response,,25
,,0.0,,,,,,,,,,,5819,,"<h1 id=""youvecompletedthehit"">You've completed the HIT</h1>

<p>Thanks again for participating. We hope you had fun!</p>

<p>Based on your performance, you will be
awarded a bonus of <strong>$2.09</strong>.</p>",1221807,,,button-response,,26
,,0.0,,,,,,,,,,,13163,,"<h1 id=""youvecompletedthehit"">You've completed the HIT</h1>

<p>Thanks again for participating. We hope you had fun!</p>

<p>Based on your performance, you will be
awarded a bonus of <strong>$3.43</strong>.</p>",716687,,,button-response,,27
,,0.0,,,,,,,,,,,4094,,"<h1 id=""youvecompletedthehit"">You've completed the HIT</h1>

<p>Thanks again for participating. We hope you had fun!</p>

<p>Based on your performance, you will be
awarded a bonus of <strong>$3.04</strong>.</p>",580854,,,button-response,,28
,,0.0,,,,,,,,,,,3284,,"<h1 id=""youvecompletedthehit"">You've completed the HIT</h1>

<p>Thanks again for participating. We hope you had fun!</p>

<p>Based on your performance, you will be
awarded a bonus of <strong>$2.28</strong>.</p>",1353569,,,button-response,,30
,,0.0,,,,,,,,,,,3300,,"<h1 id=""youvecompletedthehit"">You've completed the HIT</h1>

<p>Thanks again for participating. We hope you had fun!</p>

<p>Based on your performance, you will be
awarded a bonus of <strong>$2.71</strong>.</p>",1117571,,,button-response,,31
,,0.0,,,,,,,,,,,1820,,"<h1 id=""youvecompletedthehit"">You've completed the HIT</h1>

<p>Thanks again for participating. We hope you had fun!</p>

<p>Based on your performance, you will be
awarded a bonus of <strong>$1.39</strong>.</p>",1191557,,,button-response,,32
,,0.0,,,,,,,,,,,3993,,"<h1 id=""youvecompletedthehit"">You've completed the HIT</h1>

<p>Thanks again for participating. We hope you had fun!</p>

<p>Based on your performance, you will be
awarded a bonus of <strong>$3.23</strong>.</p>",1369408,,,button-response,,33
,,0.0,,,,,,,,,,,1610,,"<h1 id=""youvecompletedthehit"">You've completed the HIT</h1>

<p>Thanks again for participating. We hope you had fun!</p>

<p>Based on your performance, you will be
awarded a bonus of <strong>$2.68</strong>.</p>",963395,,,button-response,,35
,,0.0,,,,,,,,,,,2163,,"<h1 id=""youvecompletedthehit"">You've completed the HIT</h1>

<p>Thanks again for participating. We hope you had fun!</p>

<p>Based on your performance, you will be
awarded a bonus of <strong>$2.47</strong>.</p>",1071007,,,button-response,,36
,,0.0,,,,,,,,,,,3481,,"<h1 id=""youvecompletedthehit"">You've completed the HIT</h1>

<p>Thanks again for participating. We hope you had fun!</p>

<p>Based on your performance, you will be
awarded a bonus of <strong>$3.47</strong>.</p>",676794,,,button-response,,37
,,0.0,,,,,,,,,,,4423,,"<h1 id=""youvecompletedthehit"">You've completed the HIT</h1>

<p>Thanks again for participating. We hope you had fun!</p>

<p>Based on your performance, you will be
awarded a bonus of <strong>$3.30</strong>.</p>",525517,,,button-response,,38
,,0.0,,,,,,,,,,,7033,,"<h1 id=""youvecompletedthehit"">You've completed the HIT</h1>

<p>Thanks again for participating. We hope you had fun!</p>

<p>Based on your performance, you will be
awarded a bonus of <strong>$3.30</strong>.</p>",725356,,,button-response,,39
,,0.0,,,,,,,,,,,3934,,"<h1 id=""youvecompletedthehit"">You've completed the HIT</h1>

<p>Thanks again for participating. We hope you had fun!</p>

<p>Based on your performance, you will be
awarded a bonus of <strong>$2.86</strong>.</p>",1176308,,,button-response,,40
,,0.0,,,,,,,,,,,2618,,"<h1 id=""youvecompletedthehit"">You've completed the HIT</h1>

<p>Thanks again for participating. We hope you had fun!</p>

<p>Based on your performance, you will be
awarded a bonus of <strong>$2.39</strong>.</p>",1168483,,,button-response,,41
,,0.0,,,,,,,,,,,5691,,"<h1 id=""youvecompletedthehit"">You've completed the HIT</h1>

<p>Thanks again for participating. We hope you had fun!</p>

<p>Based on your performance, you will be
awarded a bonus of <strong>$1.79</strong>.</p>",1496600,,,button-response,,42
,,0.0,,,,,,,,,,,2149,,"<h1 id=""youvecompletedthehit"">You've completed the HIT</h1>

<p>Thanks again for participating. We hope you had fun!</p>

<p>Based on your performance, you will be
awarded a bonus of <strong>$2.59</strong>.</p>",1033918,,,button-response,,43
,,0.0,,,,,,,,,,,12144,,"<h1 id=""youvecompletedthehit"">You've completed the HIT</h1>

<p>Thanks again for participating. We hope you had fun!</p>

<p>Based on your performance, you will be
awarded a bonus of <strong>$0.82</strong>.</p>",1113014,,,button-response,,44
,,0.0,,,,,,,,,,,4100,,"<h1 id=""youvecompletedthehit"">You've completed the HIT</h1>

<p>Thanks again for participating. We hope you had fun!</p>

<p>Based on your performance, you will be
awarded a bonus of <strong>$2.56</strong>.</p>",1134209,,,button-response,,45
,,0.0,,,,,,,,,,,259072,,"<h1 id=""youvecompletedthehit"">You've completed the HIT</h1>

<p>Thanks again for participating. We hope you had fun!</p>

<p>Based on your performance, you will be
awarded a bonus of <strong>$3.41</strong>.</p>",965933,,,button-response,,46
,,0.0,,,,,,,,,,,12374,,"<h1 id=""youvecompletedthehit"">You've completed the HIT</h1>

<p>Thanks again for participating. We hope you had fun!</p>

<p>Based on your performance, you will be
awarded a bonus of <strong>$3.50</strong>.</p>",659332,,,button-response,,47
,,0.0,,,,,,,,,,,4917,,"<h1 id=""youvecompletedthehit"">You've completed the HIT</h1>

<p>Thanks again for participating. We hope you had fun!</p>

<p>Based on your performance, you will be
awarded a bonus of <strong>$3.14</strong>.</p>",1126702,,,button-response,,48
,,0.0,,,,,,,,,,,5961,,"<h1 id=""youvecompletedthehit"">You've completed the HIT</h1>

<p>Thanks again for participating. We hope you had fun!</p>

<p>Based on your performance, you will be
awarded a bonus of <strong>$2.47</strong>.</p>",635262,,,button-response,,49
,,0.0,,,,,,,,,,,3282,,"<h1 id=""youvecompletedthehit"">You've completed the HIT</h1>

<p>Thanks again for participating. We hope you had fun!</p>

<p>Based on your performance, you will be
awarded a bonus of <strong>$3.49</strong>.</p>",783024,,,button-response,,50
,,0.0,,,,,,,,,,,4813,,"<h1 id=""youvecompletedthehit"">You've completed the HIT</h1>

<p>Thanks again for participating. We hope you had fun!</p>

<p>Based on your performance, you will be
awarded a bonus of <strong>$3.45</strong>.</p>",543162,,,button-response,,51
,,0.0,,,,,,,,,,,3794,,"<h1 id=""youvecompletedthehit"">You've completed the HIT</h1>

<p>Thanks again for participating. We hope you had fun!</p>

<p>Based on your performance, you will be
awarded a bonus of <strong>$0.96</strong>.</p>",1542698,,,button-response,,52
,,0.0,,,,,,,,,,,3642,,"<h1 id=""youvecompletedthehit"">You've completed the HIT</h1>

<p>Thanks again for participating. We hope you had fun!</p>

<p>Based on your performance, you will be
awarded a bonus of <strong>$3.25</strong>.</p>",638804,,,button-response,,53
,,0.0,,,,,,,,,,,3467,,"<h1 id=""youvecompletedthehit"">You've completed the HIT</h1>

<p>Thanks again for participating. We hope you had fun!</p>

<p>Based on your performance, you will be
awarded a bonus of <strong>$1.72</strong>.</p>",1117266,,,button-response,,54
,,0.0,,,,,,,,,,,5262,,"<h1 id=""youvecompletedthehit"">You've completed the HIT</h1>

<p>Thanks again for participating. We hope you had fun!</p>

<p>Based on your performance, you will be
awarded a bonus of <strong>$2.87</strong>.</p>",2296520,,,button-response,,55
,,0.0,,,,,,,,,,,3032,,"<h1 id=""youvecompletedthehit"">You've completed the HIT</h1>

<p>Thanks again for participating. We hope you had fun!</p>

<p>Based on your performance, you will be
awarded a bonus of <strong>$1.55</strong>.</p>",1117595,,,button-response,,56
,,0.0,,,,,,,,,,,14207,,"<h1 id=""youvecompletedthehit"">You've completed the HIT</h1>

<p>Thanks again for participating. We hope you had fun!</p>

<p>Based on your performance, you will be
awarded a bonus of <strong>$2.58</strong>.</p>",1249553,,,button-response,,57
,,0.0,,,,,,,,,,,1406,,"<h1 id=""youvecompletedthehit"">You've completed the HIT</h1>

<p>Thanks again for participating. We hope you had fun!</p>

<p>Based on your performance, you will be
awarded a bonus of <strong>$1.11</strong>.</p>",2379723,,,button-response,,58
,,0.0,,,,,,,,,,,2490,,"<h1 id=""youvecompletedthehit"">You've completed the HIT</h1>

<p>Thanks again for participating. We hope you had fun!</p>

<p>Based on your performance, you will be
awarded a bonus of <strong>$0.96</strong>.</p>",1360617,,,button-response,,60
,,0.0,,,,,,,,,,,5177,,"<h1 id=""youvecompletedthehit"">You've completed the HIT</h1>

<p>Thanks again for participating. We hope you had fun!</p>

<p>Based on your performance, you will be
awarded a bonus of <strong>$3.20</strong>.</p>",681717,,,button-response,,61
,,0.0,,,,,,,,,,,2362,,"<h1 id=""youvecompletedthehit"">You've completed the HIT</h1>

<p>Thanks again for participating. We hope you had fun!</p>

<p>Based on your performance, you will be
awarded a bonus of <strong>$3.35</strong>.</p>",625115,,,button-response,,62
,,0.0,,,,,,,,,,,8113,,"<h1 id=""youvecompletedthehit"">You've completed the HIT</h1>

<p>Thanks again for participating. We hope you had fun!</p>

<p>Based on your performance, you will be
awarded a bonus of <strong>$1.99</strong>.</p>",1096722,,,button-response,,63
,,0.0,,,,,,,,,,,7118,,"<h1 id=""youvecompletedthehit"">You've completed the HIT</h1>

<p>Thanks again for participating. We hope you had fun!</p>

<p>Based on your performance, you will be
awarded a bonus of <strong>$2.79</strong>.</p>",699416,,,button-response,,64
,,0.0,,,,,,,,,,,3367,,"<h1 id=""youvecompletedthehit"">You've completed the HIT</h1>

<p>Thanks again for participating. We hope you had fun!</p>

<p>Based on your performance, you will be
awarded a bonus of <strong>$1.81</strong>.</p>",1476804,,,button-response,,66
,,0.0,,,,,,,,,,,3119,,"<h1 id=""youvecompletedthehit"">You've completed the HIT</h1>

<p>Thanks again for participating. We hope you had fun!</p>

<p>Based on your performance, you will be
awarded a bonus of <strong>$0.94</strong>.</p>",1752452,,,button-response,,67
,,0.0,,,,,,,,,,,2484,,"<h1 id=""youvecompletedthehit"">You've completed the HIT</h1>

<p>Thanks again for participating. We hope you had fun!</p>

<p>Based on your performance, you will be
awarded a bonus of <strong>$3.26</strong>.</p>",2194047,,,button-response,,69
,,0.0,,,,,,,,,,,4484,,"<h1 id=""youvecompletedthehit"">You've completed the HIT</h1>

<p>Thanks again for participating. We hope you had fun!</p>

<p>Based on your performance, you will be
awarded a bonus of <strong>$3.05</strong>.</p>",672052,,,button-response,,70
,,0.0,,,,,,,,,,,5914,,"<h1 id=""youvecompletedthehit"">You've completed the HIT</h1>

<p>Thanks again for participating. We hope you had fun!</p>

<p>Based on your performance, you will be
awarded a bonus of <strong>$3.49</strong>.</p>",1146421,,,button-response,,71
,,0.0,,,,,,,,,,,1237,,"<h1 id=""youvecompletedthehit"">You've completed the HIT</h1>

<p>Thanks again for participating. We hope you had fun!</p>

<p>Based on your performance, you will be
awarded a bonus of <strong>$3.23</strong>.</p>",581256,,,button-response,,73
,,0.0,,,,,,,,,,,4426,,"<h1 id=""youvecompletedthehit"">You've completed the HIT</h1>

<p>Thanks again for participating. We hope you had fun!</p>

<p>Based on your performance, you will be
awarded a bonus of <strong>$1.09</strong>.</p>",1299847,,,button-response,,74
,,0.0,,,,,,,,,,,30881,,"<h1 id=""youvecompletedthehit"">You've completed the HIT</h1>

<p>Thanks again for participating. We hope you had fun!</p>

<p>Based on your performance, you will be
awarded a bonus of <strong>$3.48</strong>.</p>",551632,,,button-response,,75
,,0.0,,,,,,,,,,,2584,,"<h1 id=""youvecompletedthehit"">You've completed the HIT</h1>

<p>Thanks again for participating. We hope you had fun!</p>

<p>Based on your performance, you will be
awarded a bonus of <strong>$3.06</strong>.</p>",1006966,,,button-response,,76
,,0.0,,,,,,,,,,,5371,,"<h1 id=""youvecompletedthehit"">You've completed the HIT</h1>

<p>Thanks again for participating. We hope you had fun!</p>

<p>Based on your performance, you will be
awarded a bonus of <strong>$1.09</strong>.</p>",1064707,,,button-response,,77
,,0.0,,,,,,,,,,,3421,,"<h1 id=""youvecompletedthehit"">You've completed the HIT</h1>

<p>Thanks again for participating. We hope you had fun!</p>

<p>Based on your performance, you will be
awarded a bonus of <strong>$1.80</strong>.</p>",2201235,,,button-response,,78
,,0.0,,,,,,,,,,,5202,,"<h1 id=""youvecompletedthehit"">You've completed the HIT</h1>

<p>Thanks again for participating. We hope you had fun!</p>

<p>Based on your performance, you will be
awarded a bonus of <strong>$3.05</strong>.</p>",1238564,,,button-response,,79
,,0.0,,,,,,,,,,,16821,,"<h1 id=""youvecompletedthehit"">You've completed the HIT</h1>

<p>Thanks again for participating. We hope you had fun!</p>

<p>Based on your performance, you will be
awarded a bonus of <strong>$3.44</strong>.</p>",993552,,,button-response,,80
,,0.0,,,,,,,,,,,3850,,"<h1 id=""youvecompletedthehit"">You've completed the HIT</h1>

<p>Thanks again for participating. We hope you had fun!</p>

<p>Based on your performance, you will be
awarded a bonus of <strong>$2.83</strong>.</p>",1777150,,,button-response,,81
,,0.0,,,,,,,,,,,7323,,"<h1 id=""youvecompletedthehit"">You've completed the HIT</h1>

<p>Thanks again for participating. We hope you had fun!</p>

<p>Based on your performance, you will be
awarded a bonus of <strong>$3.22</strong>.</p>",659443,,,button-response,,82
,,0.0,,,,,,,,,,,6220,,"<h1 id=""youvecompletedthehit"">You've completed the HIT</h1>

<p>Thanks again for participating. We hope you had fun!</p>

<p>Based on your performance, you will be
awarded a bonus of <strong>$3.41</strong>.</p>",717487,,,button-response,,83
,,0.0,,,,,,,,,,,4965,,"<h1 id=""youvecompletedthehit"">You've completed the HIT</h1>

<p>Thanks again for participating. We hope you had fun!</p>

<p>Based on your performance, you will be
awarded a bonus of <strong>$3.23</strong>.</p>",622209,,,button-response,,84
,,0.0,,,,,,,,,,,5499,,"<h1 id=""youvecompletedthehit"">You've completed the HIT</h1>

<p>Thanks again for participating. We hope you had fun!</p>

<p>Based on your performance, you will be
awarded a bonus of <strong>$1.96</strong>.</p>",996450,,,button-response,,85
,,0.0,,,,,,,,,,,3982,,"<h1 id=""youvecompletedthehit"">You've completed the HIT</h1>

<p>Thanks again for participating. We hope you had fun!</p>

<p>Based on your performance, you will be
awarded a bonus of <strong>$0.78</strong>.</p>",1357386,,,button-response,,86
,,0.0,,,,,,,,,,,1601,,"<h1 id=""youvecompletedthehit"">You've completed the HIT</h1>

<p>Thanks again for participating. We hope you had fun!</p>

<p>Based on your performance, you will be
awarded a bonus of <strong>$3.21</strong>.</p>",1015151,,,button-response,,87
,,0.0,,,,,,,,,,,6864,,"<h1 id=""youvecompletedthehit"">You've completed the HIT</h1>

<p>Thanks again for participating. We hope you had fun!</p>

<p>Based on your performance, you will be
awarded a bonus of <strong>$3.37</strong>.</p>",693732,,,button-response,,88
,,0.0,,,,,,,,,,,4287,,"<h1 id=""youvecompletedthehit"">You've completed the HIT</h1>

<p>Thanks again for participating. We hope you had fun!</p>

<p>Based on your performance, you will be
awarded a bonus of <strong>$3.40</strong>.</p>",1253737,,,button-response,,89
,,0.0,,,,,,,,,,,5322,,"<h1 id=""youvecompletedthehit"">You've completed the HIT</h1>

<p>Thanks again for participating. We hope you had fun!</p>

<p>Based on your performance, you will be
awarded a bonus of <strong>$0.74</strong>.</p>",1085588,,,button-response,,90
,,0.0,,,,,,,,,,,1611,,"<h1 id=""youvecompletedthehit"">You've completed the HIT</h1>

<p>Thanks again for participating. We hope you had fun!</p>

<p>Based on your performance, you will be
awarded a bonus of <strong>$2.08</strong>.</p>",1867324,,,button-response,,91
,,0.0,,,,,,,,,,,5265,,"<h1 id=""youvecompletedthehit"">You've completed the HIT</h1>

<p>Thanks again for participating. We hope you had fun!</p>

<p>Based on your performance, you will be
awarded a bonus of <strong>$3.29</strong>.</p>",1178005,,,button-response,,92
,,0.0,,,,,,,,,,,2920,,"<h1 id=""youvecompletedthehit"">You've completed the HIT</h1>

<p>Thanks again for participating. We hope you had fun!</p>

<p>Based on your performance, you will be
awarded a bonus of <strong>$2.97</strong>.</p>",1000642,,,button-response,,93
,,0.0,,,,,,,,,,,4556,,"<h1 id=""youvecompletedthehit"">You've completed the HIT</h1>

<p>Thanks again for participating. We hope you had fun!</p>

<p>Based on your performance, you will be
awarded a bonus of <strong>$3.12</strong>.</p>",1134506,,,button-response,,94
,,0.0,,,,,,,,,,,3488,,"<h1 id=""youvecompletedthehit"">You've completed the HIT</h1>

<p>Thanks again for participating. We hope you had fun!</p>

<p>Based on your performance, you will be
awarded a bonus of <strong>$2.93</strong>.</p>",1216499,,,button-response,,96
,,0.0,,,,,,,,,,,2896,,"<h1 id=""youvecompletedthehit"">You've completed the HIT</h1>

<p>Thanks again for participating. We hope you had fun!</p>

<p>Based on your performance, you will be
awarded a bonus of <strong>$3.28</strong>.</p>",1212853,,,button-response,,97
,,0.0,,,,,,,,,,,3386,,"<h1 id=""youvecompletedthehit"">You've completed the HIT</h1>

<p>Thanks again for participating. We hope you had fun!</p>

<p>Based on your performance, you will be
awarded a bonus of <strong>$3.42</strong>.</p>",552281,,,button-response,,98
,,0.0,,,,,,,,,,,3524,,"<h1 id=""youvecompletedthehit"">You've completed the HIT</h1>

<p>Thanks again for participating. We hope you had fun!</p>

<p>Based on your performance, you will be
awarded a bonus of <strong>$1.01</strong>.</p>",1078473,,,button-response,,99
,,0.0,,,,,,,,,,,5542,,"<h1 id=""youvecompletedthehit"">You've completed the HIT</h1>

<p>Thanks again for participating. We hope you had fun!</p>

<p>Based on your performance, you will be
awarded a bonus of <strong>$3.16</strong>.</p>",1335787,,,button-response,,100
,,0.0,,,,,,,,,,,2018,,"<h1 id=""youvecompletedthehit"">You've completed the HIT</h1>

<p>Thanks again for participating. We hope you had fun!</p>

<p>Based on your performance, you will be
awarded a bonus of <strong>$3.33</strong>.</p>",1162655,,,button-response,,101
,,0.0,,,,,,,,,,,12164,,"<h1 id=""youvecompletedthehit"">You've completed the HIT</h1>

<p>Thanks again for participating. We hope you had fun!</p>

<p>Based on your performance, you will be
awarded a bonus of <strong>$1.02</strong>.</p>",1040947,,,button-response,,102
,,0.0,,,,,,,,,,,4311,,"<h1 id=""youvecompletedthehit"">You've completed the HIT</h1>

<p>Thanks again for participating. We hope you had fun!</p>

<p>Based on your performance, you will be
awarded a bonus of <strong>$2.33</strong>.</p>",1167255,,,button-response,,103
,,0.0,,,,,,,,,,,7737,,"<h1 id=""youvecompletedthehit"">You've completed the HIT</h1>

<p>Thanks again for participating. We hope you had fun!</p>

<p>Based on your performance, you will be
awarded a bonus of <strong>$3.39</strong>.</p>",611697,,,button-response,,104
,,0.0,,,,,,,,,,,1403,,"<h1 id=""youvecompletedthehit"">You've completed the HIT</h1>

<p>Thanks again for participating. We hope you had fun!</p>

<p>Based on your performance, you will be
awarded a bonus of <strong>$3.01</strong>.</p>",743715,,,button-response,,105
,,0.0,,,,,,,,,,,9515,,"<h1 id=""youvecompletedthehit"">You've completed the HIT</h1>

<p>Thanks again for participating. We hope you had fun!</p>

<p>Based on your performance, you will be
awarded a bonus of <strong>$1.69</strong>.</p>",1099392,,,button-response,,106
,,0.0,,,,,,,,,,,2435,,"<h1 id=""youvecompletedthehit"">You've completed the HIT</h1>

<p>Thanks again for participating. We hope you had fun!</p>

<p>Based on your performance, you will be
awarded a bonus of <strong>$2.82</strong>.</p>",1069137,,,button-response,,107
,,0.0,,,,,,,,,,,3868,,"<h1 id=""youvecompletedthehit"">You've completed the HIT</h1>

<p>Thanks again for participating. We hope you had fun!</p>

<p>Based on your performance, you will be
awarded a bonus of <strong>$2.93</strong>.</p>",988081,,,button-response,,108
,,0.0,,,,,,,,,,,2667,,"<h1 id=""youvecompletedthehit"">You've completed the HIT</h1>

<p>Thanks again for participating. We hope you had fun!</p>

<p>Based on your performance, you will be
awarded a bonus of <strong>$2.87</strong>.</p>",1123504,,,button-response,,109
,,0.0,,,,,,,,,,,2423,,"<h1 id=""youvecompletedthehit"">You've completed the HIT</h1>

<p>Thanks again for participating. We hope you had fun!</p>

<p>Based on your performance, you will be
awarded a bonus of <strong>$3.03</strong>.</p>",1287804,,,button-response,,110
,,0.0,,,,,,,,,,,2425,,"<h1 id=""youvecompletedthehit"">You've completed the HIT</h1>

<p>Thanks again for participating. We hope you had fun!</p>

<p>Based on your performance, you will be
awarded a bonus of <strong>$1.34</strong>.</p>",1270145,,,button-response,,112
,,0.0,,,,,,,,,,,1524,,"<h1 id=""youvecompletedthehit"">You've completed the HIT</h1>

<p>Thanks again for participating. We hope you had fun!</p>

<p>Based on your performance, you will be
awarded a bonus of <strong>$3.05</strong>.</p>",1444226,,,button-response,,113
,,0.0,,,,,,,,,,,2050,,"<h1 id=""youvecompletedthehit"">You've completed the HIT</h1>

<p>Thanks again for participating. We hope you had fun!</p>

<p>Based on your performance, you will be
awarded a bonus of <strong>$2.37</strong>.</p>",1388390,,,button-response,,115
,,0.0,,,,,,,,,,,2897,,"<h1 id=""youvecompletedthehit"">You've completed the HIT</h1>

<p>Thanks again for participating. We hope you had fun!</p>

<p>Based on your performance, you will be
awarded a bonus of <strong>$2.81</strong>.</p>",1191771,,,button-response,,117
,,0.0,,,,,,,,,,,3990,,"<h1 id=""youvecompletedthehit"">You've completed the HIT</h1>

<p>Thanks again for participating. We hope you had fun!</p>

<p>Based on your performance, you will be
awarded a bonus of <strong>$3.05</strong>.</p>",812233,,,button-response,,118
,,0.0,,,,,,,,,,,3889,,"<h1 id=""youvecompletedthehit"">You've completed the HIT</h1>

<p>Thanks again for participating. We hope you had fun!</p>

<p>Based on your performance, you will be
awarded a bonus of <strong>$3.49</strong>.</p>",638866,,,button-response,,119
,,0.0,,,,,,,,,,,1994,,"<h1 id=""youvecompletedthehit"">You've completed the HIT</h1>

<p>Thanks again for participating. We hope you had fun!</p>

<p>Based on your performance, you will be
awarded a bonus of <strong>$2.12</strong>.</p>",1305253,,,button-response,,120
,,0.0,,,,,,,,,,,5016,,"<h1 id=""youvecompletedthehit"">You've completed the HIT</h1>

<p>Thanks again for participating. We hope you had fun!</p>

<p>Based on your performance, you will be
awarded a bonus of <strong>$3.07</strong>.</p>",542830,,,button-response,,121
,,0.0,,,,,,,,,,,3810,,"<h1 id=""youvecompletedthehit"">You've completed the HIT</h1>

<p>Thanks again for participating. We hope you had fun!</p>

<p>Based on your performance, you will be
awarded a bonus of <strong>$3.47</strong>.</p>",691325,,,button-response,,122
,,0.0,,,,,,,,,,,2663,,"<h1 id=""youvecompletedthehit"">You've completed the HIT</h1>

<p>Thanks again for participating. We hope you had fun!</p>

<p>Based on your performance, you will be
awarded a bonus of <strong>$1.37</strong>.</p>",1291400,,,button-response,,123
,,0.0,,,,,,,,,,,134044,,"<h1 id=""youvecompletedthehit"">You've completed the HIT</h1>

<p>Thanks again for participating. We hope you had fun!</p>

<p>Based on your performance, you will be
awarded a bonus of <strong>$3.45</strong>.</p>",884121,,,button-response,,124
,,0.0,,,,,,,,,,,3932,,"<h1 id=""youvecompletedthehit"">You've completed the HIT</h1>

<p>Thanks again for participating. We hope you had fun!</p>

<p>Based on your performance, you will be
awarded a bonus of <strong>$1.97</strong>.</p>",1128256,,,button-response,,125
,,0.0,,,,,,,,,,,3309,,"<h1 id=""youvecompletedthehit"">You've completed the HIT</h1>

<p>Thanks again for participating. We hope you had fun!</p>

<p>Based on your performance, you will be
awarded a bonus of <strong>$2.40</strong>.</p>",1150172,,,button-response,,126
,,0.0,,,,,,,,,,,3248,,"<h1 id=""youvecompletedthehit"">You've completed the HIT</h1>

<p>Thanks again for participating. We hope you had fun!</p>

<p>Based on your performance, you will be
awarded a bonus of <strong>$1.68</strong>.</p>",1373360,,,button-response,,127
,,0.0,,,,,,,,,,,7304,,"<h1 id=""youvecompletedthehit"">You've completed the HIT</h1>

<p>Thanks again for participating. We hope you had fun!</p>

<p>Based on your performance, you will be
awarded a bonus of <strong>$3.35</strong>.</p>",1011278,,,button-response,,128
,,0.0,,,,,,,,,,,5037,,"<h1 id=""youvecompletedthehit"">You've completed the HIT</h1>

<p>Thanks again for participating. We hope you had fun!</p>

<p>Based on your performance, you will be
awarded a bonus of <strong>$2.62</strong>.</p>",1446100,,,button-response,,130
,,0.0,,,,,,,,,,,3955,,"<h1 id=""youvecompletedthehit"">You've completed the HIT</h1>

<p>Thanks again for participating. We hope you had fun!</p>

<p>Based on your performance, you will be
awarded a bonus of <strong>$3.16</strong>.</p>",1065608,,,button-response,,131
,,0.0,,,,,,,,,,,4807,,"<h1 id=""youvecompletedthehit"">You've completed the HIT</h1>

<p>Thanks again for participating. We hope you had fun!</p>

<p>Based on your performance, you will be
awarded a bonus of <strong>$3.35</strong>.</p>",698512,,,button-response,,132
,,0.0,,,,,,,,,,,6448,,"<h1 id=""youvecompletedthehit"">You've completed the HIT</h1>

<p>Thanks again for participating. We hope you had fun!</p>

<p>Based on your performance, you will be
awarded a bonus of <strong>$2.79</strong>.</p>",1702480,,,button-response,,133
,,0.0,,,,,,,,,,,5189,,"<h1 id=""youvecompletedthehit"">You've completed the HIT</h1>

<p>Thanks again for participating. We hope you had fun!</p>

<p>Based on your performance, you will be
awarded a bonus of <strong>$2.76</strong>.</p>",1104404,,,button-response,,134
,,0.0,,,,,,,,,,,3238,,"<h1 id=""youvecompletedthehit"">You've completed the HIT</h1>

<p>Thanks again for participating. We hope you had fun!</p>

<p>Based on your performance, you will be
awarded a bonus of <strong>$3.44</strong>.</p>",619936,,,button-response,,135
,,0.0,,,,,,,,,,,4537,,"<h1 id=""youvecompletedthehit"">You've completed the HIT</h1>

<p>Thanks again for participating. We hope you had fun!</p>

<p>Based on your performance, you will be
awarded a bonus of <strong>$0.89</strong>.</p>",1263548,,,button-response,,138
,,0.0,,,,,,,,,,,99595,,"<h1 id=""youvecompletedthehit"">You've completed the HIT</h1>

<p>Thanks again for participating. We hope you had fun!</p>

<p>Based on your performance, you will be
awarded a bonus of <strong>$2.81</strong>.</p>",1654303,,,button-response,,139
,,0.0,,,,,,,,,,,8255,,"<h1 id=""youvecompletedthehit"">You've completed the HIT</h1>

<p>Thanks again for participating. We hope you had fun!</p>

<p>Based on your performance, you will be
awarded a bonus of <strong>$3.32</strong>.</p>",605770,,,button-response,,140
,,0.0,,,,,,,,,,,2416,,"<h1 id=""youvecompletedthehit"">You've completed the HIT</h1>

<p>Thanks again for participating. We hope you had fun!</p>

<p>Based on your performance, you will be
awarded a bonus of <strong>$1.68</strong>.</p>",1012684,,,button-response,,141
,,0.0,,,,,,,,,,,2572,,"<h1 id=""youvecompletedthehit"">You've completed the HIT</h1>

<p>Thanks again for participating. We hope you had fun!</p>

<p>Based on your performance, you will be
awarded a bonus of <strong>$2.30</strong>.</p>",1212058,,,button-response,,142
,,0.0,,,,,,,,,,,1963,,"<h1 id=""youvecompletedthehit"">You've completed the HIT</h1>

<p>Thanks again for participating. We hope you had fun!</p>

<p>Based on your performance, you will be
awarded a bonus of <strong>$3.08</strong>.</p>",1040058,,,button-response,,143
,,0.0,,,,,,,,,,,17394,,"<h1 id=""youvecompletedthehit"">You've completed the HIT</h1>

<p>Thanks again for participating. We hope you had fun!</p>

<p>Based on your performance, you will be
awarded a bonus of <strong>$2.56</strong>.</p>",1195905,,,button-response,,144
,,0.0,,,,,,,,,,,4410,,"<h1 id=""youvecompletedthehit"">You've completed the HIT</h1>

<p>Thanks again for participating. We hope you had fun!</p>

<p>Based on your performance, you will be
awarded a bonus of <strong>$2.52</strong>.</p>",1169016,,,button-response,,145
,,0.0,,,,,,,,,,,9448,,"<h1 id=""youvecompletedthehit"">You've completed the HIT</h1>

<p>Thanks again for participating. We hope you had fun!</p>

<p>Based on your performance, you will be
awarded a bonus of <strong>$3.26</strong>.</p>",698290,,,button-response,,146
,,0.0,,,,,,,,,,,23980,,"<h1 id=""youvecompletedthehit"">You've completed the HIT</h1>

<p>Thanks again for participating. We hope you had fun!</p>

<p>Based on your performance, you will be
awarded a bonus of <strong>$3.04</strong>.</p>",1068232,,,button-response,,147
,,0.0,,,,,,,,,,,3512,,"<h1 id=""youvecompletedthehit"">You've completed the HIT</h1>

<p>Thanks again for participating. We hope you had fun!</p>

<p>Based on your performance, you will be
awarded a bonus of <strong>$1.17</strong>.</p>",2109570,,,button-response,,148
,,0.0,,,,,,,,,,,4217,,"<h1 id=""youvecompletedthehit"">You've completed the HIT</h1>

<p>Thanks again for participating. We hope you had fun!</p>

<p>Based on your performance, you will be
awarded a bonus of <strong>$3.46</strong>.</p>",765469,,,button-response,,149
,,0.0,,,,,,,,,,,5332,,"<h1 id=""youvecompletedthehit"">You've completed the HIT</h1>

<p>Thanks again for participating. We hope you had fun!</p>

<p>Based on your performance, you will be
awarded a bonus of <strong>$3.02</strong>.</p>",619379,,,button-response,,150
,,0.0,,,,,,,,,,,7061,,"<h1 id=""youvecompletedthehit"">You've completed the HIT</h1>

<p>Thanks again for participating. We hope you had fun!</p>

<p>Based on your performance, you will be
awarded a bonus of <strong>$2.59</strong>.</p>",1258170,,,button-response,,151
,,0.0,,,,,,,,,,,1967,,"<h1 id=""youvecompletedthehit"">You've completed the HIT</h1>

<p>Thanks again for participating. We hope you had fun!</p>

<p>Based on your performance, you will be
awarded a bonus of <strong>$0.74</strong>.</p>",1890687,,,button-response,,152
,,0.0,,,,,,,,,,,2290,,"<h1 id=""youvecompletedthehit"">You've completed the HIT</h1>

<p>Thanks again for participating. We hope you had fun!</p>

<p>Based on your performance, you will be
awarded a bonus of <strong>$2.84</strong>.</p>",513212,,,button-response,,153
,,0.0,,,,,,,,,,,4379,,"<h1 id=""youvecompletedthehit"">You've completed the HIT</h1>

<p>Thanks again for participating. We hope you had fun!</p>

<p>Based on your performance, you will be
awarded a bonus of <strong>$3.07</strong>.</p>",57278363,,,button-response,,154
,,0.0,,,,,,,,,,,3863,,"<h1 id=""youvecompletedthehit"">You've completed the HIT</h1>

<p>Thanks again for participating. We hope you had fun!</p>

<p>Based on your performance, you will be
awarded a bonus of <strong>$3.41</strong>.</p>",597424,,,button-response,,155
,,0.0,,,,,,,,,,,2454,,"<h1 id=""youvecompletedthehit"">You've completed the HIT</h1>

<p>Thanks again for participating. We hope you had fun!</p>

<p>Based on your performance, you will be
awarded a bonus of <strong>$3.04</strong>.</p>",1170390,,,button-response,,158
,,0.0,,,,,,,,,,,5795,,"<h1 id=""youvecompletedthehit"">You've completed the HIT</h1>

<p>Thanks again for participating. We hope you had fun!</p>

<p>Based on your performance, you will be
awarded a bonus of <strong>$3.26</strong>.</p>",736370,,,button-response,,159
,,0.0,,,,,,,,,,,2758,,"<h1 id=""youvecompletedthehit"">You've completed the HIT</h1>

<p>Thanks again for participating. We hope you had fun!</p>

<p>Based on your performance, you will be
awarded a bonus of <strong>$0.83</strong>.</p>",1151935,,,button-response,,160
,,0.0,,,,,,,,,,,3327,,"<h1 id=""youvecompletedthehit"">You've completed the HIT</h1>

<p>Thanks again for participating. We hope you had fun!</p>

<p>Based on your performance, you will be
awarded a bonus of <strong>$3.13</strong>.</p>",733554,,,button-response,,161
,,0.0,,,,,,,,,,,3299,,"<h1 id=""youvecompletedthehit"">You've completed the HIT</h1>

<p>Thanks again for participating. We hope you had fun!</p>

<p>Based on your performance, you will be
awarded a bonus of <strong>$1.01</strong>.</p>",1724227,,,button-response,,162
,,0.0,,,,,,,,,,,3463,,"<h1 id=""youvecompletedthehit"">You've completed the HIT</h1>

<p>Thanks again for participating. We hope you had fun!</p>

<p>Based on your performance, you will be
awarded a bonus of <strong>$2.96</strong>.</p>",1083958,,,button-response,,163
,,0.0,,,,,,,,,,,6990,,"<h1 id=""youvecompletedthehit"">You've completed the HIT</h1>

<p>Thanks again for participating. We hope you had fun!</p>

<p>Based on your performance, you will be
awarded a bonus of <strong>$2.07</strong>.</p>",1115087,,,button-response,,164
,,0.0,,,,,,,,,,,6852,,"<h1 id=""youvecompletedthehit"">You've completed the HIT</h1>

<p>Thanks again for participating. We hope you had fun!</p>

<p>Based on your performance, you will be
awarded a bonus of <strong>$3.41</strong>.</p>",731057,,,button-response,,165
,,0.0,,,,,,,,,,,1588,,"<h1 id=""youvecompletedthehit"">You've completed the HIT</h1>

<p>Thanks again for participating. We hope you had fun!</p>

<p>Based on your performance, you will be
awarded a bonus of <strong>$1.97</strong>.</p>",1175482,,,button-response,,166
,,0.0,,,,,,,,,,,3746,,"<h1 id=""youvecompletedthehit"">You've completed the HIT</h1>

<p>Thanks again for participating. We hope you had fun!</p>

<p>Based on your performance, you will be
awarded a bonus of <strong>$2.57</strong>.</p>",1697229,,,button-response,,167
,,0.0,,,,,,,,,,,2844,,"<h1 id=""youvecompletedthehit"">You've completed the HIT</h1>

<p>Thanks again for participating. We hope you had fun!</p>

<p>Based on your performance, you will be
awarded a bonus of <strong>$2.61</strong>.</p>",1317708,,,button-response,,168
,,0.0,,,,,,,,,,,2140,,"<h1 id=""youvecompletedthehit"">You've completed the HIT</h1>

<p>Thanks again for participating. We hope you had fun!</p>

<p>Based on your performance, you will be
awarded a bonus of <strong>$2.62</strong>.</p>",1598065,,,button-response,,169
,,0.0,,,,,,,,,,,4986,,"<h1 id=""youvecompletedthehit"">You've completed the HIT</h1>

<p>Thanks again for participating. We hope you had fun!</p>

<p>Based on your performance, you will be
awarded a bonus of <strong>$2.50</strong>.</p>",1162915,,,button-response,,170
