action_times,actions,button_pressed,correct,delays,information_used_correctly,key_press,path,planned_too_little,planned_too_much,queries,questions,responses,rt,score,stimulus,time_elapsed,trial_index,trial_i,trial_type,view_history,pid
,,,,,,,,,,,,,76631,,,76631,,,instructions,"[{""page_index"":0,""viewing_time"":33213},{""page_index"":1,""viewing_time"":23125},{""page_index"":2,""viewing_time"":20292}]",0
,,,,,,,,,,,,,45387,,,45390,,,instructions,"[{""page_index"":0,""viewing_time"":30544},{""page_index"":1,""viewing_time"":4132},{""page_index"":2,""viewing_time"":3750},{""page_index"":3,""viewing_time"":6959}]",1
,,,,,,,,,,,,,100708,,,173788,,,instructions,"[{""page_index"":0,""viewing_time"":31652},{""page_index"":1,""viewing_time"":22560},{""page_index"":0,""viewing_time"":5640},{""page_index"":1,""viewing_time"":1990},{""page_index"":0,""viewing_time"":7025},{""page_index"":1,""viewing_time"":12016},{""page_index"":2,""viewing_time"":3848},{""page_index"":3,""viewing_time"":9617},{""page_index"":2,""viewing_time"":1310},{""page_index"":3,""viewing_time"":5049}]",1
,,,,,,,,,,,,,52011,,,52013,,,instructions,"[{""page_index"":0,""viewing_time"":9306},{""page_index"":1,""viewing_time"":14200},{""page_index"":2,""viewing_time"":17516},{""page_index"":3,""viewing_time"":10989}]",2
,,,,,,,,,,,,,15949,,,97111,,,instructions,"[{""page_index"":0,""viewing_time"":10655},{""page_index"":1,""viewing_time"":3117},{""page_index"":2,""viewing_time"":1564},{""page_index"":3,""viewing_time"":612}]",2
,,,,,,,,,,,,,148163,,,148165,,,instructions,"[{""page_index"":0,""viewing_time"":49362},{""page_index"":1,""viewing_time"":29268},{""page_index"":2,""viewing_time"":39204},{""page_index"":3,""viewing_time"":30328}]",3
,,,,,,,,,,,,,96264,,,281234,,,instructions,"[{""page_index"":0,""viewing_time"":30160},{""page_index"":1,""viewing_time"":23864},{""page_index"":2,""viewing_time"":39139},{""page_index"":3,""viewing_time"":3100}]",3
,,,,,,,,,,,,,91249,,,91252,,,instructions,"[{""page_index"":0,""viewing_time"":35618},{""page_index"":1,""viewing_time"":32052},{""page_index"":2,""viewing_time"":5201},{""page_index"":3,""viewing_time"":18371}]",4
,,,,,,,,,,,,,186964,,,186966,,,instructions,"[{""page_index"":0,""viewing_time"":71573},{""page_index"":1,""viewing_time"":43142},{""page_index"":0,""viewing_time"":22633},{""page_index"":1,""viewing_time"":13477},{""page_index"":0,""viewing_time"":2383},{""page_index"":1,""viewing_time"":1056},{""page_index"":0,""viewing_time"":1965},{""page_index"":1,""viewing_time"":3788},{""page_index"":2,""viewing_time"":5912},{""page_index"":3,""viewing_time"":21033}]",5
,,,,,,,,,,,,,64662,,,293452,,,instructions,"[{""page_index"":0,""viewing_time"":30184},{""page_index"":1,""viewing_time"":16721},{""page_index"":2,""viewing_time"":5692},{""page_index"":3,""viewing_time"":12064}]",5
,,,,,,,,,,,,,68916,,,68919,,,instructions,"[{""page_index"":0,""viewing_time"":5225},{""page_index"":1,""viewing_time"":20723},{""page_index"":2,""viewing_time"":25391},{""page_index"":3,""viewing_time"":17575}]",6
,,,,,,,,,,,,,57900,,,57902,,,instructions,"[{""page_index"":0,""viewing_time"":29563},{""page_index"":1,""viewing_time"":11366},{""page_index"":2,""viewing_time"":4414},{""page_index"":3,""viewing_time"":12556}]",7
,,,,,,,,,,,,,144277,,,220296,,,instructions,"[{""page_index"":0,""viewing_time"":60623},{""page_index"":1,""viewing_time"":23410},{""page_index"":2,""viewing_time"":50685},{""page_index"":3,""viewing_time"":9559}]",7
,,,,,,,,,,,,,98997,,,99000,,,instructions,"[{""page_index"":0,""viewing_time"":37475},{""page_index"":1,""viewing_time"":19239},{""page_index"":2,""viewing_time"":33934},{""page_index"":3,""viewing_time"":8346}]",8
,,,,,,,,,,,,,101852,,,101855,,,instructions,"[{""page_index"":0,""viewing_time"":46267},{""page_index"":1,""viewing_time"":28011},{""page_index"":2,""viewing_time"":4363},{""page_index"":3,""viewing_time"":23205}]",9
,,,,,,,,,,,,,97451,,,97452,,,instructions,"[{""page_index"":0,""viewing_time"":33538},{""page_index"":1,""viewing_time"":44004},{""page_index"":2,""viewing_time"":19899}]",10
,,,,,,,,,,,,,164722,,,164724,,,instructions,"[{""page_index"":0,""viewing_time"":50162},{""page_index"":1,""viewing_time"":59341},{""page_index"":2,""viewing_time"":6560},{""page_index"":3,""viewing_time"":48657}]",11
,,,,,,,,,,,,,5744,,,5746,,,instructions,"[{""page_index"":0,""viewing_time"":2079},{""page_index"":1,""viewing_time"":544},{""page_index"":2,""viewing_time"":2392},{""page_index"":3,""viewing_time"":729}]",12
,,,,,,,,,,,,,88557,,,88558,,,instructions,"[{""page_index"":0,""viewing_time"":14253},{""page_index"":1,""viewing_time"":30466},{""page_index"":2,""viewing_time"":22042},{""page_index"":3,""viewing_time"":21795}]",13
,,,,,,,,,,,,,30396,,,30397,,,instructions,"[{""page_index"":0,""viewing_time"":9227},{""page_index"":1,""viewing_time"":9233},{""page_index"":2,""viewing_time"":11935}]",14
,,,,,,,,,,,,,21990,,,78230,,,instructions,"[{""page_index"":0,""viewing_time"":10556},{""page_index"":1,""viewing_time"":7602},{""page_index"":2,""viewing_time"":3831}]",14
,,,,,,,,,,,,,157074,,,157076,,,instructions,"[{""page_index"":0,""viewing_time"":75683},{""page_index"":1,""viewing_time"":45227},{""page_index"":2,""viewing_time"":5294},{""page_index"":3,""viewing_time"":30868}]",15
,,,,,,,,,,,,,87279,,,87280,,,instructions,"[{""page_index"":0,""viewing_time"":31066},{""page_index"":1,""viewing_time"":42557},{""page_index"":2,""viewing_time"":13655}]",16
,,,,,,,,,,,,,104226,,,104228,,,instructions,"[{""page_index"":0,""viewing_time"":38935},{""page_index"":1,""viewing_time"":45666},{""page_index"":2,""viewing_time"":19624}]",17
,,,,,,,,,,,,,140455,,,140456,,,instructions,"[{""page_index"":0,""viewing_time"":45314},{""page_index"":1,""viewing_time"":32125},{""page_index"":2,""viewing_time"":29323},{""page_index"":3,""viewing_time"":33692}]",18
,,,,,,,,,,,,,129435,,,318864,,,instructions,"[{""page_index"":0,""viewing_time"":6097},{""page_index"":1,""viewing_time"":25505},{""page_index"":2,""viewing_time"":39842},{""page_index"":3,""viewing_time"":9772},{""page_index"":2,""viewing_time"":3577},{""page_index"":1,""viewing_time"":36034},{""page_index"":2,""viewing_time"":8024},{""page_index"":3,""viewing_time"":584}]",18
,,,,,,,,,,,,,32657,,,398141,,,instructions,"[{""page_index"":0,""viewing_time"":29128},{""page_index"":1,""viewing_time"":938},{""page_index"":2,""viewing_time"":1931},{""page_index"":3,""viewing_time"":660}]",18
,,,,,,,,,,,,,26209,,,459101,,,instructions,"[{""page_index"":0,""viewing_time"":22197},{""page_index"":1,""viewing_time"":1017},{""page_index"":2,""viewing_time"":1519},{""page_index"":3,""viewing_time"":1475}]",18
,,,,,,,,,,,,,52119,,,542540,,,instructions,"[{""page_index"":0,""viewing_time"":1979},{""page_index"":1,""viewing_time"":986},{""page_index"":2,""viewing_time"":45186},{""page_index"":3,""viewing_time"":3968}]",18
,,,,,,,,,,,,,7341,,,570953,,,instructions,"[{""page_index"":0,""viewing_time"":1883},{""page_index"":1,""viewing_time"":1366},{""page_index"":2,""viewing_time"":2574},{""page_index"":3,""viewing_time"":1517}]",18
,,,,,,,,,,,,,78619,,,78620,,,instructions,"[{""page_index"":0,""viewing_time"":27267},{""page_index"":1,""viewing_time"":20975},{""page_index"":2,""viewing_time"":15412},{""page_index"":3,""viewing_time"":14964}]",19
,,,,,,,,,,,,,93495,,,93498,,,instructions,"[{""page_index"":0,""viewing_time"":43113},{""page_index"":1,""viewing_time"":27506},{""page_index"":2,""viewing_time"":4062},{""page_index"":3,""viewing_time"":18811}]",20
,,,,,,,,,,,,,81004,,,81005,,,instructions,"[{""page_index"":0,""viewing_time"":22689},{""page_index"":1,""viewing_time"":29757},{""page_index"":2,""viewing_time"":15748},{""page_index"":3,""viewing_time"":12810}]",21
,,,,,,,,,,,,,30212,,,184406,,,instructions,"[{""page_index"":0,""viewing_time"":2518},{""page_index"":1,""viewing_time"":7210},{""page_index"":2,""viewing_time"":5810},{""page_index"":3,""viewing_time"":14674}]",21
,,,,,,,,,,,,,4975,,,327688,,,instructions,"[{""page_index"":0,""viewing_time"":1312},{""page_index"":1,""viewing_time"":743},{""page_index"":2,""viewing_time"":1729},{""page_index"":3,""viewing_time"":1191}]",21
,,,,,,,,,,,,,4368,,,414600,,,instructions,"[{""page_index"":0,""viewing_time"":991},{""page_index"":1,""viewing_time"":936},{""page_index"":2,""viewing_time"":1696},{""page_index"":3,""viewing_time"":745}]",21
,,,,,,,,,,,,,136245,,,136246,,,instructions,"[{""page_index"":0,""viewing_time"":50011},{""page_index"":1,""viewing_time"":27945},{""page_index"":2,""viewing_time"":36123},{""page_index"":3,""viewing_time"":22165}]",22
,,,,,,,,,,,,,101337,,,101338,,,instructions,"[{""page_index"":0,""viewing_time"":66000},{""page_index"":1,""viewing_time"":17738},{""page_index"":2,""viewing_time"":13173},{""page_index"":3,""viewing_time"":4424}]",23
,,,,,,,,,,,,,181210,,,181210,,,instructions,"[{""page_index"":0,""viewing_time"":47619},{""page_index"":1,""viewing_time"":25334},{""page_index"":2,""viewing_time"":4130},{""page_index"":3,""viewing_time"":104126}]",24
,,,,,,,,,,,,,197461,,,197463,,,instructions,"[{""page_index"":0,""viewing_time"":87430},{""page_index"":1,""viewing_time"":41876},{""page_index"":2,""viewing_time"":39711},{""page_index"":3,""viewing_time"":28443}]",25
,,,,,,,,,,,,,171992,,,171993,,,instructions,"[{""page_index"":0,""viewing_time"":94884},{""page_index"":1,""viewing_time"":51857},{""page_index"":2,""viewing_time"":25249}]",26
,,,,,,,,,,,,,165747,,,165749,,,instructions,"[{""page_index"":0,""viewing_time"":59283},{""page_index"":1,""viewing_time"":57655},{""page_index"":2,""viewing_time"":14623},{""page_index"":3,""viewing_time"":34182}]",27
,,,,,,,,,,,,,104009,,,104012,,,instructions,"[{""page_index"":0,""viewing_time"":41680},{""page_index"":1,""viewing_time"":33234},{""page_index"":2,""viewing_time"":5473},{""page_index"":3,""viewing_time"":23620}]",28
,,,,,,,,,,,,,195566,,,195566,,,instructions,"[{""page_index"":0,""viewing_time"":87612},{""page_index"":1,""viewing_time"":68881},{""page_index"":2,""viewing_time"":39072}]",29
,,,,,,,,,,,,,40115,,,312257,,,instructions,"[{""page_index"":0,""viewing_time"":23356},{""page_index"":1,""viewing_time"":10029},{""page_index"":2,""viewing_time"":6729}]",29
,,,,,,,,,,,,,111082,,,111083,,,instructions,"[{""page_index"":0,""viewing_time"":38045},{""page_index"":1,""viewing_time"":56167},{""page_index"":2,""viewing_time"":16869}]",30
,,,,,,,,,,,,,96178,,,96179,,,instructions,"[{""page_index"":0,""viewing_time"":23812},{""page_index"":1,""viewing_time"":26626},{""page_index"":2,""viewing_time"":23056},{""page_index"":3,""viewing_time"":22684}]",31
,,,,,,,,,,,,,46099,,,188468,,,instructions,"[{""page_index"":0,""viewing_time"":16927},{""page_index"":1,""viewing_time"":7054},{""page_index"":2,""viewing_time"":21250},{""page_index"":3,""viewing_time"":868}]",31
,,,,,,,,,,,,,57051,,,57051,,,instructions,"[{""page_index"":0,""viewing_time"":23031},{""page_index"":1,""viewing_time"":23621},{""page_index"":2,""viewing_time"":10398}]",32
,,,,,,,,,,,,,213484,,,213486,,,instructions,"[{""page_index"":0,""viewing_time"":35035},{""page_index"":1,""viewing_time"":35968},{""page_index"":2,""viewing_time"":28824},{""page_index"":3,""viewing_time"":113656}]",33
,,,,,,,,,,,,,79024,,,79025,,,instructions,"[{""page_index"":0,""viewing_time"":24057},{""page_index"":1,""viewing_time"":21521},{""page_index"":2,""viewing_time"":24363},{""page_index"":3,""viewing_time"":9082}]",34
,,,,,,,,,,,,,65503,,,65504,,,instructions,"[{""page_index"":0,""viewing_time"":34142},{""page_index"":1,""viewing_time"":21775},{""page_index"":2,""viewing_time"":9585}]",35
,,,,,,,,,,,,,41098,,,41099,,,instructions,"[{""page_index"":0,""viewing_time"":7963},{""page_index"":1,""viewing_time"":21655},{""page_index"":2,""viewing_time"":11480}]",36
,,,,,,,,,,,,,106960,,,106961,,,instructions,"[{""page_index"":0,""viewing_time"":44753},{""page_index"":1,""viewing_time"":35756},{""page_index"":2,""viewing_time"":7436},{""page_index"":3,""viewing_time"":19013}]",37
,,,,,,,,,,,,,70200,,,70201,,,instructions,"[{""page_index"":0,""viewing_time"":28488},{""page_index"":1,""viewing_time"":20730},{""page_index"":2,""viewing_time"":4692},{""page_index"":3,""viewing_time"":16290}]",38
,,,,,,,,,,,,,197248,,,197252,,,instructions,"[{""page_index"":0,""viewing_time"":57218},{""page_index"":1,""viewing_time"":84134},{""page_index"":2,""viewing_time"":8007},{""page_index"":3,""viewing_time"":47885}]",39
,,,,,,,,,,,,,183712,,,183714,,,instructions,"[{""page_index"":0,""viewing_time"":43223},{""page_index"":1,""viewing_time"":40864},{""page_index"":2,""viewing_time"":70828},{""page_index"":3,""viewing_time"":28795}]",40
,,,,,,,,,,,,,113007,,,113009,,,instructions,"[{""page_index"":0,""viewing_time"":45124},{""page_index"":1,""viewing_time"":52011},{""page_index"":2,""viewing_time"":15869}]",41
,,,,,,,,,,,,,50186,,,50196,,,instructions,"[{""page_index"":0,""viewing_time"":22929},{""page_index"":1,""viewing_time"":14184},{""page_index"":2,""viewing_time"":13073}]",42
,,,,,,,,,,,,,16412,,,89365,,,instructions,"[{""page_index"":0,""viewing_time"":6359},{""page_index"":1,""viewing_time"":5617},{""page_index"":2,""viewing_time"":4436}]",42
,,,,,,,,,,,,,15343,,,15346,,,instructions,"[{""page_index"":0,""viewing_time"":3984},{""page_index"":1,""viewing_time"":5189},{""page_index"":2,""viewing_time"":6169}]",43
,,,,,,,,,,,,,19370,,,75202,,,instructions,"[{""page_index"":0,""viewing_time"":10148},{""page_index"":1,""viewing_time"":5194},{""page_index"":2,""viewing_time"":4027}]",43
,,,,,,,,,,,,,42929,,,138340,,,instructions,"[{""page_index"":0,""viewing_time"":14501},{""page_index"":1,""viewing_time"":23334},{""page_index"":2,""viewing_time"":5093}]",43
,,,,,,,,,,,,,4408,,,157329,,,instructions,"[{""page_index"":0,""viewing_time"":3040},{""page_index"":1,""viewing_time"":701},{""page_index"":2,""viewing_time"":667}]",43
,,,,,,,,,,,,,158912,,,158915,,,instructions,"[{""page_index"":0,""viewing_time"":51795},{""page_index"":1,""viewing_time"":53875},{""page_index"":2,""viewing_time"":53237}]",44
,,,,,,,,,,,,,102615,,,102627,,,instructions,"[{""page_index"":0,""viewing_time"":37585},{""page_index"":1,""viewing_time"":41581},{""page_index"":2,""viewing_time"":23449}]",45
,,,,,,,,,,,,,168289,,,168292,,,instructions,"[{""page_index"":0,""viewing_time"":48254},{""page_index"":1,""viewing_time"":52576},{""page_index"":2,""viewing_time"":7384},{""page_index"":3,""viewing_time"":37758},{""page_index"":2,""viewing_time"":2418},{""page_index"":1,""viewing_time"":13457},{""page_index"":2,""viewing_time"":3123},{""page_index"":3,""viewing_time"":3314}]",46
,,,,,,,,,,,,,178791,,,178792,,,instructions,"[{""page_index"":0,""viewing_time"":102686},{""page_index"":1,""viewing_time"":25464},{""page_index"":2,""viewing_time"":9388},{""page_index"":3,""viewing_time"":41252}]",47
,,,,,,,,,,,,,159079,,,159081,,,instructions,"[{""page_index"":0,""viewing_time"":46023},{""page_index"":1,""viewing_time"":42150},{""page_index"":2,""viewing_time"":46682},{""page_index"":3,""viewing_time"":24223}]",48
,,,,,,,,,,,,,8195,,,204437,,,instructions,"[{""page_index"":0,""viewing_time"":2799},{""page_index"":1,""viewing_time"":1838},{""page_index"":2,""viewing_time"":1575},{""page_index"":3,""viewing_time"":1982}]",48
,,,,,,,,,,,,,117191,,,117193,,,instructions,"[{""page_index"":0,""viewing_time"":49527},{""page_index"":1,""viewing_time"":36314},{""page_index"":2,""viewing_time"":6075},{""page_index"":3,""viewing_time"":25273}]",49
,,,,,,,,,,,,,164852,,,164853,,,instructions,"[{""page_index"":0,""viewing_time"":113847},{""page_index"":1,""viewing_time"":22586},{""page_index"":2,""viewing_time"":13683},{""page_index"":3,""viewing_time"":14736}]",50
,,,,,,,,,,,,,85124,,,85126,,,instructions,"[{""page_index"":0,""viewing_time"":30621},{""page_index"":1,""viewing_time"":26964},{""page_index"":2,""viewing_time"":5155},{""page_index"":3,""viewing_time"":22382}]",51
,,,,,,,,,,,,,168867,,,168869,,,instructions,"[{""page_index"":0,""viewing_time"":67666},{""page_index"":1,""viewing_time"":45024},{""page_index"":2,""viewing_time"":26679},{""page_index"":3,""viewing_time"":29497}]",52
,,,,,,,,,,,,,152372,,,152373,,,instructions,"[{""page_index"":0,""viewing_time"":65925},{""page_index"":1,""viewing_time"":41971},{""page_index"":2,""viewing_time"":7812},{""page_index"":3,""viewing_time"":36662}]",53
,,,,,,,,,,,,,106371,,,106373,,,instructions,"[{""page_index"":0,""viewing_time"":34561},{""page_index"":1,""viewing_time"":37986},{""page_index"":2,""viewing_time"":33823}]",54
,,,,,,,,,,,,,1265943,,,1265945,,,instructions,"[{""page_index"":0,""viewing_time"":1089572},{""page_index"":1,""viewing_time"":64514},{""page_index"":2,""viewing_time"":75324},{""page_index"":3,""viewing_time"":36530}]",55
,,,,,,,,,,,,,135291,,,135291,,,instructions,"[{""page_index"":0,""viewing_time"":35155},{""page_index"":1,""viewing_time"":30965},{""page_index"":2,""viewing_time"":46201},{""page_index"":3,""viewing_time"":22969}]",56
,,,,,,,,,,,,,21270,,,185381,,,instructions,"[{""page_index"":0,""viewing_time"":6725},{""page_index"":1,""viewing_time"":4311},{""page_index"":2,""viewing_time"":5104},{""page_index"":3,""viewing_time"":5130}]",56
,,,,,,,,,,,,,232284,,,232286,,,instructions,"[{""page_index"":0,""viewing_time"":64251},{""page_index"":1,""viewing_time"":53575},{""page_index"":2,""viewing_time"":68096},{""page_index"":3,""viewing_time"":46360}]",57
,,,,,,,,,,,,,476336,,,476337,,,instructions,"[{""page_index"":0,""viewing_time"":344912},{""page_index"":1,""viewing_time"":82768},{""page_index"":2,""viewing_time"":24935},{""page_index"":3,""viewing_time"":23720}]",58
,,,,,,,,,,,,,147283,,,147286,,,instructions,"[{""page_index"":0,""viewing_time"":61953},{""page_index"":1,""viewing_time"":45411},{""page_index"":2,""viewing_time"":39917}]",59
,,,,,,,,,,,,,45865,,,45866,,,instructions,"[{""page_index"":0,""viewing_time"":23803},{""page_index"":1,""viewing_time"":11370},{""page_index"":2,""viewing_time"":10691}]",60
,,,,,,,,,,,,,33286,,,33287,,,instructions,"[{""page_index"":0,""viewing_time"":12326},{""page_index"":1,""viewing_time"":7023},{""page_index"":2,""viewing_time"":4088},{""page_index"":3,""viewing_time"":9848}]",61
,,,,,,,,,,,,,58574,,,111133,,,instructions,"[{""page_index"":0,""viewing_time"":24214},{""page_index"":1,""viewing_time"":24784},{""page_index"":2,""viewing_time"":2408},{""page_index"":3,""viewing_time"":7168}]",61
,,,,,,,,,,,,,22766,,,152693,,,instructions,"[{""page_index"":0,""viewing_time"":15917},{""page_index"":1,""viewing_time"":4584},{""page_index"":2,""viewing_time"":1104},{""page_index"":3,""viewing_time"":1161}]",61
,,,,,,,,,,,,,72743,,,72744,,,instructions,"[{""page_index"":0,""viewing_time"":20081},{""page_index"":1,""viewing_time"":17046},{""page_index"":2,""viewing_time"":7440},{""page_index"":3,""viewing_time"":28175}]",62
,,,,,,,,,,,,,113393,,,113395,,,instructions,"[{""page_index"":0,""viewing_time"":30707},{""page_index"":1,""viewing_time"":55391},{""page_index"":2,""viewing_time"":27292}]",63
,,,,,,,,,,,,,195521,,,195521,,,instructions,"[{""page_index"":0,""viewing_time"":54312},{""page_index"":1,""viewing_time"":55159},{""page_index"":2,""viewing_time"":8975},{""page_index"":3,""viewing_time"":34036},{""page_index"":2,""viewing_time"":1501},{""page_index"":1,""viewing_time"":4873},{""page_index"":2,""viewing_time"":4508},{""page_index"":3,""viewing_time"":32157}]",64
,,,,,,,,,,,,,148109,,,148111,,,instructions,"[{""page_index"":0,""viewing_time"":34723},{""page_index"":1,""viewing_time"":41251},{""page_index"":2,""viewing_time"":38386},{""page_index"":3,""viewing_time"":33747}]",65
,,,,,,,,,,,,,171047,,,171048,,,instructions,"[{""page_index"":0,""viewing_time"":66858},{""page_index"":1,""viewing_time"":30757},{""page_index"":2,""viewing_time"":47650},{""page_index"":3,""viewing_time"":25781}]",66
,,,,,,,,,,,,,472925,,,472928,,,instructions,"[{""page_index"":0,""viewing_time"":106154},{""page_index"":1,""viewing_time"":33526},{""page_index"":2,""viewing_time"":333244}]",67
,,,,,,,,,,,,,121930,,,121931,,,instructions,"[{""page_index"":0,""viewing_time"":75425},{""page_index"":1,""viewing_time"":12473},{""page_index"":2,""viewing_time"":22301},{""page_index"":3,""viewing_time"":11730}]",68
,,,,,,,,,,,,,1335381,,,1335383,,,instructions,"[{""page_index"":0,""viewing_time"":1248385},{""page_index"":1,""viewing_time"":34229},{""page_index"":2,""viewing_time"":38787},{""page_index"":3,""viewing_time"":13980}]",69
,,,,,,,,,,,,,5173,,,1360390,,,instructions,"[{""page_index"":0,""viewing_time"":1943},{""page_index"":1,""viewing_time"":832},{""page_index"":2,""viewing_time"":1371},{""page_index"":3,""viewing_time"":1026}]",69
,,,,,,,,,,,,,174799,,,174800,,,instructions,"[{""page_index"":0,""viewing_time"":32929},{""page_index"":1,""viewing_time"":31769},{""page_index"":2,""viewing_time"":6883},{""page_index"":3,""viewing_time"":103216}]",70
,,,,,,,,,,,,,47819,,,47819,,,instructions,"[{""page_index"":0,""viewing_time"":25402},{""page_index"":1,""viewing_time"":18850},{""page_index"":2,""viewing_time"":3566}]",71
,,,,,,,,,,,,,124324,,,204090,,,instructions,"[{""page_index"":0,""viewing_time"":16341},{""page_index"":1,""viewing_time"":44830},{""page_index"":2,""viewing_time"":6562},{""page_index"":1,""viewing_time"":25661},{""page_index"":2,""viewing_time"":30930}]",71
,,,,,,,,,,,,,21738,,,254050,,,instructions,"[{""page_index"":0,""viewing_time"":2483},{""page_index"":1,""viewing_time"":16445},{""page_index"":2,""viewing_time"":2810}]",71
,,,,,,,,,,,,,116037,,,116038,,,instructions,"[{""page_index"":0,""viewing_time"":39042},{""page_index"":1,""viewing_time"":29717},{""page_index"":2,""viewing_time"":47275}]",72
,,,,,,,,,,,,,57467,,,57469,,,instructions,"[{""page_index"":0,""viewing_time"":15211},{""page_index"":1,""viewing_time"":21543},{""page_index"":2,""viewing_time"":4363},{""page_index"":3,""viewing_time"":16348}]",73
,,,,,,,,,,,,,95804,,,95805,,,instructions,"[{""page_index"":0,""viewing_time"":22691},{""page_index"":1,""viewing_time"":17521},{""page_index"":2,""viewing_time"":36064},{""page_index"":3,""viewing_time"":19528}]",74
,,,,,,,,,,,,,68616,,,68618,,,instructions,"[{""page_index"":0,""viewing_time"":19232},{""page_index"":1,""viewing_time"":23283},{""page_index"":2,""viewing_time"":13231},{""page_index"":3,""viewing_time"":12870}]",75
,,,,,,,,,,,,,83681,,,83681,,,instructions,"[{""page_index"":0,""viewing_time"":20592},{""page_index"":1,""viewing_time"":22975},{""page_index"":2,""viewing_time"":26421},{""page_index"":3,""viewing_time"":13693}]",76
,,,,,,,,,,,,,118134,,,118135,,,instructions,"[{""page_index"":0,""viewing_time"":48460},{""page_index"":1,""viewing_time"":45791},{""page_index"":2,""viewing_time"":23881}]",77
,,,,,,,,,,,,,93578,,,93589,,,instructions,"[{""page_index"":0,""viewing_time"":26750},{""page_index"":1,""viewing_time"":20996},{""page_index"":2,""viewing_time"":37050},{""page_index"":3,""viewing_time"":8765}]",78
,,,,,,,,,,,,,14148,,,396238,,,instructions,"[{""page_index"":0,""viewing_time"":3517},{""page_index"":1,""viewing_time"":1184},{""page_index"":2,""viewing_time"":8055},{""page_index"":3,""viewing_time"":1385}]",78
,,,,,,,,,,,,,113205,,,113205,,,instructions,"[{""page_index"":0,""viewing_time"":44210},{""page_index"":1,""viewing_time"":7879},{""page_index"":0,""viewing_time"":5180},{""page_index"":1,""viewing_time"":9875},{""page_index"":2,""viewing_time"":26758},{""page_index"":3,""viewing_time"":19302}]",79
,,,,,,,,,,,,,17108,,,165731,,,instructions,"[{""page_index"":0,""viewing_time"":7705},{""page_index"":1,""viewing_time"":5957},{""page_index"":2,""viewing_time"":1613},{""page_index"":3,""viewing_time"":1833}]",79
,,,,,,,,,,,,,39688,,,218722,,,instructions,"[{""page_index"":0,""viewing_time"":6445},{""page_index"":1,""viewing_time"":13444},{""page_index"":2,""viewing_time"":9942},{""page_index"":3,""viewing_time"":9857}]",79
,,,,,,,,,,,,,368658,,,368660,,,instructions,"[{""page_index"":0,""viewing_time"":138461},{""page_index"":1,""viewing_time"":56552},{""page_index"":2,""viewing_time"":8984},{""page_index"":3,""viewing_time"":57202},{""page_index"":2,""viewing_time"":4828},{""page_index"":1,""viewing_time"":22287},{""page_index"":0,""viewing_time"":44968},{""page_index"":1,""viewing_time"":18953},{""page_index"":2,""viewing_time"":4938},{""page_index"":3,""viewing_time"":11484}]",80
,,,,,,,,,,,,,114050,,,114050,,,instructions,"[{""page_index"":0,""viewing_time"":45771},{""page_index"":1,""viewing_time"":42419},{""page_index"":2,""viewing_time"":25859}]",81
,,,,,,,,,,,,,149862,,,149866,,,instructions,"[{""page_index"":0,""viewing_time"":46801},{""page_index"":1,""viewing_time"":75076},{""page_index"":2,""viewing_time"":6298},{""page_index"":3,""viewing_time"":21682}]",82
,,,,,,,,,,,,,128717,,,128720,,,instructions,"[{""page_index"":0,""viewing_time"":40096},{""page_index"":1,""viewing_time"":48510},{""page_index"":2,""viewing_time"":12514},{""page_index"":3,""viewing_time"":27592}]",83
,,,,,,,,,,,,,117493,,,117494,,,instructions,"[{""page_index"":0,""viewing_time"":39838},{""page_index"":1,""viewing_time"":41347},{""page_index"":2,""viewing_time"":6070},{""page_index"":3,""viewing_time"":30237}]",84
,,,,,,,,,,,,,118604,,,118604,,,instructions,"[{""page_index"":0,""viewing_time"":40193},{""page_index"":1,""viewing_time"":41783},{""page_index"":2,""viewing_time"":36627}]",85
,,,,,,,,,,,,,75513,,,75515,,,instructions,"[{""page_index"":0,""viewing_time"":9154},{""page_index"":1,""viewing_time"":18150},{""page_index"":2,""viewing_time"":19977},{""page_index"":1,""viewing_time"":2111},{""page_index"":2,""viewing_time"":1448},{""page_index"":1,""viewing_time"":18544},{""page_index"":2,""viewing_time"":6129}]",86
,,,,,,,,,,,,,44926,,,158434,,,instructions,"[{""page_index"":0,""viewing_time"":5141},{""page_index"":1,""viewing_time"":6633},{""page_index"":2,""viewing_time"":21799},{""page_index"":1,""viewing_time"":10112},{""page_index"":2,""viewing_time"":1241}]",86
,,,,,,,,,,,,,78150,,,78150,,,instructions,"[{""page_index"":0,""viewing_time"":25488},{""page_index"":1,""viewing_time"":19721},{""page_index"":2,""viewing_time"":17120},{""page_index"":3,""viewing_time"":15820}]",87
,,,,,,,,,,,,,74043,,,74046,,,instructions,"[{""page_index"":0,""viewing_time"":12457},{""page_index"":1,""viewing_time"":23744},{""page_index"":0,""viewing_time"":6552},{""page_index"":1,""viewing_time"":2539},{""page_index"":2,""viewing_time"":5529},{""page_index"":3,""viewing_time"":23220}]",88
,,,,,,,,,,,,,64798,,,168164,,,instructions,"[{""page_index"":0,""viewing_time"":4450},{""page_index"":1,""viewing_time"":6577},{""page_index"":2,""viewing_time"":4339},{""page_index"":3,""viewing_time"":14503},{""page_index"":2,""viewing_time"":3278},{""page_index"":1,""viewing_time"":7063},{""page_index"":0,""viewing_time"":17565},{""page_index"":1,""viewing_time"":564},{""page_index"":0,""viewing_time"":1820},{""page_index"":1,""viewing_time"":1115},{""page_index"":2,""viewing_time"":1537},{""page_index"":3,""viewing_time"":1985}]",88
,,,,,,,,,,,,,277052,,,277052,,,instructions,"[{""page_index"":0,""viewing_time"":82585},{""page_index"":1,""viewing_time"":65481},{""page_index"":2,""viewing_time"":82888},{""page_index"":3,""viewing_time"":46097}]",89
,,,,,,,,,,,,,73397,,,73399,,,instructions,"[{""page_index"":0,""viewing_time"":45023},{""page_index"":1,""viewing_time"":21508},{""page_index"":2,""viewing_time"":6862}]",90
,,,,,,,,,,,,,49150,,,169860,,,instructions,"[{""page_index"":0,""viewing_time"":8559},{""page_index"":1,""viewing_time"":18386},{""page_index"":2,""viewing_time"":22204}]",90
,,,,,,,,,,,,,24724,,,24725,,,instructions,"[{""page_index"":0,""viewing_time"":11227},{""page_index"":1,""viewing_time"":7185},{""page_index"":2,""viewing_time"":6311}]",91
,,,,,,,,,,,,,131767,,,131769,,,instructions,"[{""page_index"":0,""viewing_time"":32609},{""page_index"":1,""viewing_time"":32062},{""page_index"":2,""viewing_time"":41389},{""page_index"":3,""viewing_time"":25707}]",92
,,,,,,,,,,,,,61897,,,257263,,,instructions,"[{""page_index"":0,""viewing_time"":27786},{""page_index"":1,""viewing_time"":1102},{""page_index"":0,""viewing_time"":2948},{""page_index"":1,""viewing_time"":5828},{""page_index"":2,""viewing_time"":21138},{""page_index"":3,""viewing_time"":3094}]",92
,,,,,,,,,,,,,124381,,,124382,,,instructions,"[{""page_index"":0,""viewing_time"":30959},{""page_index"":1,""viewing_time"":22848},{""page_index"":2,""viewing_time"":41853},{""page_index"":3,""viewing_time"":28720}]",93
,,,,,,,,,,,,,95835,,,95837,,,instructions,"[{""page_index"":0,""viewing_time"":60948},{""page_index"":1,""viewing_time"":34802},{""page_index"":2,""viewing_time"":84}]",94
,,,,,,,,,,,,,66592,,,194877,,,instructions,"[{""page_index"":0,""viewing_time"":19583},{""page_index"":1,""viewing_time"":16888},{""page_index"":2,""viewing_time"":30120}]",94
,,,,,,,,,,,,,231813,,,231814,,,instructions,"[{""page_index"":0,""viewing_time"":70745},{""page_index"":1,""viewing_time"":44200},{""page_index"":2,""viewing_time"":44080},{""page_index"":3,""viewing_time"":28024},{""page_index"":2,""viewing_time"":42441},{""page_index"":3,""viewing_time"":2322}]",95
,,,,,,,,,,,,,172432,,,172432,,,instructions,"[{""page_index"":0,""viewing_time"":40841},{""page_index"":1,""viewing_time"":113191},{""page_index"":2,""viewing_time"":18399}]",96
,,,,,,,,,,,,,76974,,,271871,,,instructions,"[{""page_index"":0,""viewing_time"":19087},{""page_index"":1,""viewing_time"":56174},{""page_index"":2,""viewing_time"":1712}]",96
,,,,,,,,,,,,,215482,,,215484,,,instructions,"[{""page_index"":0,""viewing_time"":25046},{""page_index"":1,""viewing_time"":54668},{""page_index"":0,""viewing_time"":25760},{""page_index"":1,""viewing_time"":15128},{""page_index"":2,""viewing_time"":58758},{""page_index"":3,""viewing_time"":36120}]",97
,,,,,,,,,,,,,66156,,,66161,,,instructions,"[{""page_index"":0,""viewing_time"":40433},{""page_index"":1,""viewing_time"":13461},{""page_index"":2,""viewing_time"":3405},{""page_index"":3,""viewing_time"":8850}]",98
,,,,,,,,,,,,,102750,,,102751,,,instructions,"[{""page_index"":0,""viewing_time"":54279},{""page_index"":1,""viewing_time"":24410},{""page_index"":2,""viewing_time"":24060}]",99
,,,,,,,,,,,,,114111,,,114113,,,instructions,"[{""page_index"":0,""viewing_time"":35623},{""page_index"":1,""viewing_time"":43787},{""page_index"":2,""viewing_time"":34700}]",100
,,,,,,,,,,,,,22856,,,22865,,,instructions,"[{""page_index"":0,""viewing_time"":6702},{""page_index"":1,""viewing_time"":5609},{""page_index"":2,""viewing_time"":6423},{""page_index"":3,""viewing_time"":4120}]",101
,,,,,,,,,,,,,31374,,,76631,,,instructions,"[{""page_index"":0,""viewing_time"":9271},{""page_index"":1,""viewing_time"":7186},{""page_index"":2,""viewing_time"":10717},{""page_index"":3,""viewing_time"":4199}]",101
,,,,,,,,,,,,,177617,,,177618,,,instructions,"[{""page_index"":0,""viewing_time"":74436},{""page_index"":1,""viewing_time"":57625},{""page_index"":2,""viewing_time"":45555}]",102
,,,,,,,,,,,,,123759,,,123761,,,instructions,"[{""page_index"":0,""viewing_time"":36023},{""page_index"":1,""viewing_time"":21809},{""page_index"":2,""viewing_time"":32559},{""page_index"":3,""viewing_time"":33367}]",103
,,,,,,,,,,,,,43192,,,203167,,,instructions,"[{""page_index"":0,""viewing_time"":20129},{""page_index"":1,""viewing_time"":5080},{""page_index"":2,""viewing_time"":11383},{""page_index"":3,""viewing_time"":6600}]",103
,,,,,,,,,,,,,148270,,,148272,,,instructions,"[{""page_index"":0,""viewing_time"":56045},{""page_index"":1,""viewing_time"":52931},{""page_index"":2,""viewing_time"":6985},{""page_index"":3,""viewing_time"":32309}]",104
,,,,,,,,,,,,,79321,,,79322,,,instructions,"[{""page_index"":0,""viewing_time"":20953},{""page_index"":1,""viewing_time"":3808},{""page_index"":0,""viewing_time"":4992},{""page_index"":1,""viewing_time"":32240},{""page_index"":2,""viewing_time"":4079},{""page_index"":3,""viewing_time"":13248}]",105
,,,,,,,,,,,,,190402,,,190404,,,instructions,"[{""page_index"":0,""viewing_time"":45077},{""page_index"":1,""viewing_time"":88998},{""page_index"":2,""viewing_time"":56327}]",106
,,,,,,,,,,,,,90782,,,90783,,,instructions,"[{""page_index"":0,""viewing_time"":17180},{""page_index"":1,""viewing_time"":24474},{""page_index"":2,""viewing_time"":38408},{""page_index"":3,""viewing_time"":10720}]",107
,,,,,,,,,,,,,100558,,,100559,,,instructions,"[{""page_index"":0,""viewing_time"":33622},{""page_index"":1,""viewing_time"":42121},{""page_index"":2,""viewing_time"":24813}]",108
,,,,,,,,,,,,,132647,,,132647,,,instructions,"[{""page_index"":0,""viewing_time"":40223},{""page_index"":1,""viewing_time"":46087},{""page_index"":2,""viewing_time"":30641},{""page_index"":3,""viewing_time"":15695}]",109
,,,,,,,,,,,,,129382,,,129383,,,instructions,"[{""page_index"":0,""viewing_time"":26690},{""page_index"":1,""viewing_time"":5099},{""page_index"":2,""viewing_time"":8368},{""page_index"":1,""viewing_time"":1016},{""page_index"":0,""viewing_time"":9562},{""page_index"":1,""viewing_time"":21694},{""page_index"":2,""viewing_time"":34636},{""page_index"":3,""viewing_time"":22316}]",110
,,,,,,,,,,,,,23605,,,195302,,,instructions,"[{""page_index"":0,""viewing_time"":6116},{""page_index"":1,""viewing_time"":14652},{""page_index"":2,""viewing_time"":2196},{""page_index"":3,""viewing_time"":640}]",110
,,,,,,,,,,,,,305623,,,305627,,,instructions,"[{""page_index"":0,""viewing_time"":90398},{""page_index"":1,""viewing_time"":106343},{""page_index"":2,""viewing_time"":78898},{""page_index"":3,""viewing_time"":29982}]",111
,,,,,,,,,,,,,79258,,,79259,,,instructions,"[{""page_index"":0,""viewing_time"":15002},{""page_index"":1,""viewing_time"":27526},{""page_index"":2,""viewing_time"":20620},{""page_index"":3,""viewing_time"":16109}]",112
,,,,,,,,,,,,,235853,,,235854,,,instructions,"[{""page_index"":0,""viewing_time"":87134},{""page_index"":1,""viewing_time"":75306},{""page_index"":2,""viewing_time"":35990},{""page_index"":1,""viewing_time"":576},{""page_index"":0,""viewing_time"":11201},{""page_index"":1,""viewing_time"":989},{""page_index"":2,""viewing_time"":3714},{""page_index"":3,""viewing_time"":20942}]",113
,,,,,,,,,,,,,104258,,,104261,,,instructions,"[{""page_index"":0,""viewing_time"":17666},{""page_index"":1,""viewing_time"":56928},{""page_index"":2,""viewing_time"":29663}]",114
,,,,,,,,,,,,,175560,,,175564,,,instructions,"[{""page_index"":0,""viewing_time"":91973},{""page_index"":1,""viewing_time"":34708},{""page_index"":2,""viewing_time"":20299},{""page_index"":3,""viewing_time"":28577}]",115
,,,,,,,,,,,,,16581,,,250670,,,instructions,"[{""page_index"":0,""viewing_time"":8321},{""page_index"":1,""viewing_time"":4707},{""page_index"":2,""viewing_time"":2782},{""page_index"":3,""viewing_time"":769}]",115
,,,,,,,,,,,,,152549,,,152550,,,instructions,"[{""page_index"":0,""viewing_time"":38626},{""page_index"":1,""viewing_time"":57303},{""page_index"":2,""viewing_time"":37956},{""page_index"":3,""viewing_time"":18663}]",116
,,,,,,,,,,,,,131822,,,131826,,,instructions,"[{""page_index"":0,""viewing_time"":51589},{""page_index"":1,""viewing_time"":22750},{""page_index"":2,""viewing_time"":32681},{""page_index"":3,""viewing_time"":24800}]",117
,,,,,,,,,,,,,244955,,,244956,,,instructions,"[{""page_index"":0,""viewing_time"":112602},{""page_index"":1,""viewing_time"":58912},{""page_index"":2,""viewing_time"":8416},{""page_index"":3,""viewing_time"":65025}]",118
,,,,,,,,,,,,,109779,,,109781,,,instructions,"[{""page_index"":0,""viewing_time"":37218},{""page_index"":1,""viewing_time"":38648},{""page_index"":2,""viewing_time"":8951},{""page_index"":3,""viewing_time"":24960}]",119
,,,,,,,,,,,,,130756,,,130766,,,instructions,"[{""page_index"":0,""viewing_time"":54550},{""page_index"":1,""viewing_time"":36590},{""page_index"":2,""viewing_time"":22382},{""page_index"":3,""viewing_time"":17234}]",120
,,,,,,,,,,,,,71846,,,236088,,,instructions,"[{""page_index"":0,""viewing_time"":13918},{""page_index"":1,""viewing_time"":15820},{""page_index"":2,""viewing_time"":33388},{""page_index"":3,""viewing_time"":8720}]",120
,,,,,,,,,,,,,81408,,,81410,,,instructions,"[{""page_index"":0,""viewing_time"":29003},{""page_index"":1,""viewing_time"":25976},{""page_index"":2,""viewing_time"":4073},{""page_index"":3,""viewing_time"":22354}]",121
,,,,,,,,,,,,,88783,,,88785,,,instructions,"[{""page_index"":0,""viewing_time"":43038},{""page_index"":1,""viewing_time"":20568},{""page_index"":2,""viewing_time"":5463},{""page_index"":3,""viewing_time"":19713}]",122
,,,,,,,,,,,,,93604,,,93607,,,instructions,"[{""page_index"":0,""viewing_time"":47340},{""page_index"":1,""viewing_time"":23421},{""page_index"":2,""viewing_time"":22839}]",123
,,,,,,,,,,,,,199696,,,199698,,,instructions,"[{""page_index"":0,""viewing_time"":55679},{""page_index"":1,""viewing_time"":98215},{""page_index"":2,""viewing_time"":9328},{""page_index"":3,""viewing_time"":36472}]",124
,,,,,,,,,,,,,144213,,,144215,,,instructions,"[{""page_index"":0,""viewing_time"":66643},{""page_index"":1,""viewing_time"":46877},{""page_index"":2,""viewing_time"":30690}]",125
,,,,,,,,,,,,,102792,,,102794,,,instructions,"[{""page_index"":0,""viewing_time"":40511},{""page_index"":1,""viewing_time"":41426},{""page_index"":2,""viewing_time"":20854}]",126
,,,,,,,,,,,,,103985,,,238311,,,instructions,"[{""page_index"":0,""viewing_time"":56689},{""page_index"":1,""viewing_time"":18832},{""page_index"":2,""viewing_time"":28463}]",126
,,,,,,,,,,,,,160473,,,160474,,,instructions,"[{""page_index"":0,""viewing_time"":34710},{""page_index"":1,""viewing_time"":31433},{""page_index"":2,""viewing_time"":71158},{""page_index"":3,""viewing_time"":23172}]",127
,,,,,,,,,,,,,155400,,,155402,,,instructions,"[{""page_index"":0,""viewing_time"":43961},{""page_index"":1,""viewing_time"":47008},{""page_index"":2,""viewing_time"":44927},{""page_index"":3,""viewing_time"":19504}]",128
,,,,,,,,,,,,,234443,,,234447,,,instructions,"[{""page_index"":0,""viewing_time"":111236},{""page_index"":1,""viewing_time"":85730},{""page_index"":2,""viewing_time"":18553},{""page_index"":3,""viewing_time"":18921}]",129
,,,,,,,,,,,,,56670,,,334069,,,instructions,"[{""page_index"":0,""viewing_time"":11248},{""page_index"":1,""viewing_time"":20935},{""page_index"":2,""viewing_time"":12255},{""page_index"":3,""viewing_time"":12229}]",129
,,,,,,,,,,,,,94345,,,94349,,,instructions,"[{""page_index"":0,""viewing_time"":26376},{""page_index"":1,""viewing_time"":43298},{""page_index"":2,""viewing_time"":24671}]",130
,,,,,,,,,,,,,65662,,,200632,,,instructions,"[{""page_index"":0,""viewing_time"":8199},{""page_index"":1,""viewing_time"":17656},{""page_index"":2,""viewing_time"":21424},{""page_index"":1,""viewing_time"":16920},{""page_index"":2,""viewing_time"":1463}]",130
,,,,,,,,,,,,,140096,,,140099,,,instructions,"[{""page_index"":0,""viewing_time"":28636},{""page_index"":1,""viewing_time"":7487},{""page_index"":0,""viewing_time"":7942},{""page_index"":1,""viewing_time"":49689},{""page_index"":2,""viewing_time"":46339}]",131
,,,,,,,,,,,,,211175,,,211178,,,instructions,"[{""page_index"":0,""viewing_time"":73451},{""page_index"":1,""viewing_time"":70187},{""page_index"":0,""viewing_time"":32550},{""page_index"":1,""viewing_time"":784},{""page_index"":0,""viewing_time"":904},{""page_index"":1,""viewing_time"":1040},{""page_index"":2,""viewing_time"":5128},{""page_index"":1,""viewing_time"":1650},{""page_index"":2,""viewing_time"":1726},{""page_index"":3,""viewing_time"":23754}]",132
,,,,,,,,,,,,,91755,,,91762,,,instructions,"[{""page_index"":0,""viewing_time"":30907},{""page_index"":1,""viewing_time"":33744},{""page_index"":2,""viewing_time"":27096}]",133
,,,,,,,,,,,,,96525,,,219404,,,instructions,"[{""page_index"":0,""viewing_time"":40334},{""page_index"":1,""viewing_time"":31610},{""page_index"":2,""viewing_time"":24575}]",133
,,,,,,,,,,,,,117548,,,374884,,,instructions,"[{""page_index"":0,""viewing_time"":23020},{""page_index"":1,""viewing_time"":86685},{""page_index"":2,""viewing_time"":7840}]",133
,,,,,,,,,,,,,30238,,,432649,,,instructions,"[{""page_index"":0,""viewing_time"":10624},{""page_index"":1,""viewing_time"":17669},{""page_index"":2,""viewing_time"":1943}]",133
,,,,,,,,,,,,,4008,,,463105,,,instructions,"[{""page_index"":0,""viewing_time"":2544},{""page_index"":1,""viewing_time"":720},{""page_index"":2,""viewing_time"":743}]",133
,,,,,,,,,,,,,57782,,,536122,,,instructions,"[{""page_index"":0,""viewing_time"":20301},{""page_index"":1,""viewing_time"":24588},{""page_index"":2,""viewing_time"":12889}]",133
,,,,,,,,,,,,,2931,,,565263,,,instructions,"[{""page_index"":0,""viewing_time"":1653},{""page_index"":1,""viewing_time"":566},{""page_index"":2,""viewing_time"":710}]",133
,,,,,,,,,,,,,3494,,,583702,,,instructions,"[{""page_index"":0,""viewing_time"":1932},{""page_index"":1,""viewing_time"":990},{""page_index"":2,""viewing_time"":569}]",133
,,,,,,,,,,,,,45945,,,651320,,,instructions,"[{""page_index"":0,""viewing_time"":20611},{""page_index"":1,""viewing_time"":23033},{""page_index"":2,""viewing_time"":2298}]",133
,,,,,,,,,,,,,5582,,,668593,,,instructions,"[{""page_index"":0,""viewing_time"":3842},{""page_index"":1,""viewing_time"":784},{""page_index"":2,""viewing_time"":952}]",133
,,,,,,,,,,,,,2359,,,685226,,,instructions,"[{""page_index"":0,""viewing_time"":1292},{""page_index"":1,""viewing_time"":547},{""page_index"":2,""viewing_time"":517}]",133
,,,,,,,,,,,,,30507,,,30510,,,instructions,"[{""page_index"":0,""viewing_time"":17050},{""page_index"":1,""viewing_time"":10262},{""page_index"":2,""viewing_time"":1784},{""page_index"":3,""viewing_time"":1409}]",134
,,,,,,,,,,,,,75009,,,75011,,,instructions,"[{""page_index"":0,""viewing_time"":23625},{""page_index"":1,""viewing_time"":29756},{""page_index"":2,""viewing_time"":6358},{""page_index"":3,""viewing_time"":15268}]",135
,,,,,,,,,,,,,82711,,,82712,,,instructions,"[{""page_index"":0,""viewing_time"":29818},{""page_index"":1,""viewing_time"":30965},{""page_index"":2,""viewing_time"":21926}]",136
,,,,,,,,,,,,,12247,,,12248,,,instructions,"[{""page_index"":0,""viewing_time"":3594},{""page_index"":1,""viewing_time"":1103},{""page_index"":2,""viewing_time"":3230},{""page_index"":3,""viewing_time"":4320}]",137
,,,,,,,,,,,,,104669,,,104674,,,instructions,"[{""page_index"":0,""viewing_time"":40403},{""page_index"":1,""viewing_time"":36781},{""page_index"":0,""viewing_time"":1600},{""page_index"":1,""viewing_time"":912},{""page_index"":2,""viewing_time"":24971}]",138
,,,,,,,,,,,,,77548,,,77548,,,instructions,"[{""page_index"":0,""viewing_time"":35605},{""page_index"":1,""viewing_time"":24645},{""page_index"":2,""viewing_time"":17297}]",139
,,,,,,,,,,,,,106844,,,106846,,,instructions,"[{""page_index"":0,""viewing_time"":27214},{""page_index"":1,""viewing_time"":21824},{""page_index"":0,""viewing_time"":11558},{""page_index"":1,""viewing_time"":14888},{""page_index"":2,""viewing_time"":7480},{""page_index"":3,""viewing_time"":23880}]",140
,,,,,,,,,,,,,53799,,,53799,,,instructions,"[{""page_index"":0,""viewing_time"":32724},{""page_index"":1,""viewing_time"":11379},{""page_index"":2,""viewing_time"":9696}]",141
,,,,,,,,,,,,,128540,,,128542,,,instructions,"[{""page_index"":0,""viewing_time"":33062},{""page_index"":1,""viewing_time"":45405},{""page_index"":2,""viewing_time"":33063},{""page_index"":3,""viewing_time"":17008}]",142
,,,,,,,,,,,,,62520,,,62521,,,instructions,"[{""page_index"":0,""viewing_time"":27166},{""page_index"":1,""viewing_time"":21472},{""page_index"":2,""viewing_time"":13881}]",143
,,,,,,,,,,,,,132936,,,132937,,,instructions,"[{""page_index"":0,""viewing_time"":43254},{""page_index"":1,""viewing_time"":29577},{""page_index"":2,""viewing_time"":39408},{""page_index"":3,""viewing_time"":20696}]",144
,,,,,,,,,,,,,66686,,,66688,,,instructions,"[{""page_index"":0,""viewing_time"":16430},{""page_index"":1,""viewing_time"":12216},{""page_index"":2,""viewing_time"":16632},{""page_index"":3,""viewing_time"":21408}]",145
,,,,,,,,,,,,,73212,,,172351,,,instructions,"[{""page_index"":0,""viewing_time"":27900},{""page_index"":1,""viewing_time"":16808},{""page_index"":2,""viewing_time"":21896},{""page_index"":3,""viewing_time"":6607}]",145
,,,,,,,,,,,,,21991,,,232583,,,instructions,"[{""page_index"":0,""viewing_time"":8647},{""page_index"":1,""viewing_time"":7872},{""page_index"":2,""viewing_time"":4167},{""page_index"":3,""viewing_time"":1305}]",145
,,,,,,,,,,,,,144053,,,144055,,,instructions,"[{""page_index"":0,""viewing_time"":46768},{""page_index"":1,""viewing_time"":39105},{""page_index"":2,""viewing_time"":6193},{""page_index"":3,""viewing_time"":51987}]",146
,,,,,,,,,,,,,163580,,,163581,,,instructions,"[{""page_index"":0,""viewing_time"":50086},{""page_index"":1,""viewing_time"":10718},{""page_index"":0,""viewing_time"":2935},{""page_index"":1,""viewing_time"":29808},{""page_index"":2,""viewing_time"":37554},{""page_index"":3,""viewing_time"":32478}]",147
,,,,,,,,,,,,,133871,,,133874,,,instructions,"[{""page_index"":0,""viewing_time"":75599},{""page_index"":1,""viewing_time"":33884},{""page_index"":0,""viewing_time"":9395},{""page_index"":1,""viewing_time"":1760},{""page_index"":2,""viewing_time"":13232}]",148
,,,,,,,,,,,,,52141,,,210432,,,instructions,"[{""page_index"":0,""viewing_time"":7092},{""page_index"":1,""viewing_time"":19800},{""page_index"":2,""viewing_time"":25248}]",148
,,,,,,,,,,,,,203363,,,203365,,,instructions,"[{""page_index"":0,""viewing_time"":112842},{""page_index"":1,""viewing_time"":1932},{""page_index"":0,""viewing_time"":3661},{""page_index"":1,""viewing_time"":33672},{""page_index"":2,""viewing_time"":12622},{""page_index"":3,""viewing_time"":38634}]",149
,,,,,,,,,,,,,28062,,,28063,,,instructions,"[{""page_index"":0,""viewing_time"":15285},{""page_index"":1,""viewing_time"":5656},{""page_index"":2,""viewing_time"":1856},{""page_index"":3,""viewing_time"":5264}]",150
,,,,,,,,,,,,,40479,,,91615,,,instructions,"[{""page_index"":0,""viewing_time"":12094},{""page_index"":1,""viewing_time"":11297},{""page_index"":2,""viewing_time"":6023},{""page_index"":3,""viewing_time"":11064}]",150
,,,,,,,,,,,,,198277,,,198280,,,instructions,"[{""page_index"":0,""viewing_time"":99755},{""page_index"":1,""viewing_time"":54316},{""page_index"":2,""viewing_time"":44203}]",151
,,,,,,,,,,,,,294183,,,294187,,,instructions,"[{""page_index"":0,""viewing_time"":130774},{""page_index"":1,""viewing_time"":35937},{""page_index"":2,""viewing_time"":28025},{""page_index"":3,""viewing_time"":99443}]",152
,,,,,,,,,,,,,41190,,,41192,,,instructions,"[{""page_index"":0,""viewing_time"":9446},{""page_index"":1,""viewing_time"":16559},{""page_index"":2,""viewing_time"":3248},{""page_index"":3,""viewing_time"":11936}]",153
,,,,,,,,,,,,,47653,,,47654,,,instructions,"[{""page_index"":0,""viewing_time"":6754},{""page_index"":1,""viewing_time"":28196},{""page_index"":2,""viewing_time"":8500},{""page_index"":3,""viewing_time"":4203}]",154
,,,,,,,,,,,,,54891,,,145748,,,instructions,"[{""page_index"":0,""viewing_time"":11113},{""page_index"":1,""viewing_time"":23713},{""page_index"":2,""viewing_time"":17664},{""page_index"":3,""viewing_time"":2401}]",154
,,,,,,,,,,,,,111961,,,111962,,,instructions,"[{""page_index"":0,""viewing_time"":35460},{""page_index"":1,""viewing_time"":38399},{""page_index"":2,""viewing_time"":7240},{""page_index"":3,""viewing_time"":30862}]",155
,,,,,,,,,,,,,53142,,,53143,,,instructions,"[{""page_index"":0,""viewing_time"":5410},{""page_index"":1,""viewing_time"":33993},{""page_index"":2,""viewing_time"":13737}]",156
,,,,,,,,,,,,,44034,,,119891,,,instructions,"[{""page_index"":0,""viewing_time"":18380},{""page_index"":1,""viewing_time"":11690},{""page_index"":2,""viewing_time"":13962}]",156
,,,,,,,,,,,,,36837,,,186454,,,instructions,"[{""page_index"":0,""viewing_time"":11974},{""page_index"":1,""viewing_time"":15616},{""page_index"":2,""viewing_time"":9247}]",156
,,,,,,,,,,,,,93958,,,93958,,,instructions,"[{""page_index"":0,""viewing_time"":29369},{""page_index"":1,""viewing_time"":15323},{""page_index"":2,""viewing_time"":31336},{""page_index"":3,""viewing_time"":17929}]",157
,,,,,,,,,,,,,103717,,,103718,,,instructions,"[{""page_index"":0,""viewing_time"":55514},{""page_index"":1,""viewing_time"":35057},{""page_index"":2,""viewing_time"":13145}]",158
,,,,,,,,,,,,,150286,,,150288,,,instructions,"[{""page_index"":0,""viewing_time"":53213},{""page_index"":1,""viewing_time"":69364},{""page_index"":2,""viewing_time"":6411},{""page_index"":3,""viewing_time"":21295}]",159
,,,,,,,,,,,,,29564,,,202645,,,instructions,"[{""page_index"":0,""viewing_time"":14467},{""page_index"":1,""viewing_time"":8097},{""page_index"":2,""viewing_time"":2209},{""page_index"":3,""viewing_time"":4790}]",159
,,,,,,,,,,,,,29632,,,29634,,,instructions,"[{""page_index"":0,""viewing_time"":15102},{""page_index"":1,""viewing_time"":6844},{""page_index"":0,""viewing_time"":1856},{""page_index"":1,""viewing_time"":3252},{""page_index"":2,""viewing_time"":2576}]",160
,,,,,,,,,,,,,24542,,,102399,,,instructions,"[{""page_index"":0,""viewing_time"":5605},{""page_index"":1,""viewing_time"":8065},{""page_index"":2,""viewing_time"":10872}]",160
,,,,,,,,,,,,,124932,,,124932,,,instructions,"[{""page_index"":0,""viewing_time"":73027},{""page_index"":1,""viewing_time"":26098},{""page_index"":2,""viewing_time"":4899},{""page_index"":3,""viewing_time"":20907}]",161
,,,,,,,,,,,,,45348,,,215807,,,instructions,"[{""page_index"":0,""viewing_time"":3064},{""page_index"":1,""viewing_time"":3878},{""page_index"":2,""viewing_time"":2612},{""page_index"":3,""viewing_time"":7190},{""page_index"":2,""viewing_time"":1529},{""page_index"":1,""viewing_time"":9571},{""page_index"":2,""viewing_time"":1242},{""page_index"":3,""viewing_time"":2273},{""page_index"":2,""viewing_time"":1363},{""page_index"":1,""viewing_time"":2836},{""page_index"":0,""viewing_time"":3181},{""page_index"":1,""viewing_time"":1337},{""page_index"":2,""viewing_time"":2281},{""page_index"":3,""viewing_time"":2991}]",161
,,,,,,,,,,,,,96573,,,96577,,,instructions,"[{""page_index"":0,""viewing_time"":33931},{""page_index"":1,""viewing_time"":31276},{""page_index"":0,""viewing_time"":8124},{""page_index"":1,""viewing_time"":7924},{""page_index"":2,""viewing_time"":15318}]",162
,,,,,,,,,,,,,17070,,,140320,,,instructions,"[{""page_index"":0,""viewing_time"":6680},{""page_index"":1,""viewing_time"":2953},{""page_index"":2,""viewing_time"":7437}]",162
,,,,,,,,,,,,,34714,,,195240,,,instructions,"[{""page_index"":0,""viewing_time"":21125},{""page_index"":1,""viewing_time"":8797},{""page_index"":2,""viewing_time"":4792}]",162
,,,,,,,,,,,,,82964,,,82965,,,instructions,"[{""page_index"":0,""viewing_time"":22446},{""page_index"":1,""viewing_time"":25635},{""page_index"":2,""viewing_time"":21863},{""page_index"":3,""viewing_time"":13019}]",163
,,,,,,,,,,,,,19655,,,136236,,,instructions,"[{""page_index"":0,""viewing_time"":11877},{""page_index"":1,""viewing_time"":3783},{""page_index"":2,""viewing_time"":3300},{""page_index"":3,""viewing_time"":694}]",163
,,,,,,,,,,,,,165015,,,165017,,,instructions,"[{""page_index"":0,""viewing_time"":66112},{""page_index"":1,""viewing_time"":65301},{""page_index"":2,""viewing_time"":33600}]",164
,,,,,,,,,,,,,199236,,,199237,,,instructions,"[{""page_index"":0,""viewing_time"":86002},{""page_index"":1,""viewing_time"":855},{""page_index"":0,""viewing_time"":3008},{""page_index"":1,""viewing_time"":61581},{""page_index"":2,""viewing_time"":11609},{""page_index"":3,""viewing_time"":36180}]",165
,,,,,,,,,,,,,85511,,,85513,,,instructions,"[{""page_index"":0,""viewing_time"":47647},{""page_index"":1,""viewing_time"":15631},{""page_index"":2,""viewing_time"":16976},{""page_index"":1,""viewing_time"":4456},{""page_index"":2,""viewing_time"":800}]",166
,,,,,,,,,,,,,99158,,,99162,,,instructions,"[{""page_index"":0,""viewing_time"":37028},{""page_index"":1,""viewing_time"":21658},{""page_index"":2,""viewing_time"":40369},{""page_index"":3,""viewing_time"":101}]",167
,,,,,,,,,,,,,45411,,,187504,,,instructions,"[{""page_index"":0,""viewing_time"":6118},{""page_index"":1,""viewing_time"":3368},{""page_index"":2,""viewing_time"":19852},{""page_index"":3,""viewing_time"":16071}]",167
,,,,,,,,,,,,,8481,,,215489,,,instructions,"[{""page_index"":0,""viewing_time"":2783},{""page_index"":1,""viewing_time"":1189},{""page_index"":2,""viewing_time"":2156},{""page_index"":3,""viewing_time"":2352}]",167
,,,,,,,,,,,,,105898,,,105898,,,instructions,"[{""page_index"":0,""viewing_time"":26549},{""page_index"":1,""viewing_time"":19383},{""page_index"":2,""viewing_time"":42629},{""page_index"":3,""viewing_time"":17336}]",168
,,,,,,,,,,,,,57813,,,224696,,,instructions,"[{""page_index"":0,""viewing_time"":29917},{""page_index"":1,""viewing_time"":11482},{""page_index"":2,""viewing_time"":9450},{""page_index"":3,""viewing_time"":6964}]",168
,,,,,,,,,,,,,62383,,,62383,,,instructions,"[{""page_index"":0,""viewing_time"":16359},{""page_index"":1,""viewing_time"":24383},{""page_index"":2,""viewing_time"":21640}]",169
,,,,,,,,,,,,,108326,,,108331,,,instructions,"[{""page_index"":0,""viewing_time"":43852},{""page_index"":1,""viewing_time"":43953},{""page_index"":2,""viewing_time"":20517}]",170
