action_times,actions,button_pressed,correct,delays,information_used_correctly,key_press,path,planned_too_little,planned_too_much,queries,questions,responses,rt,score,stimulus,time_elapsed,trial_index,trial_i,trial_type,view_history,pid
"[20192, 25358, 28526]","[u'right', u'right', u'down']",,,"[3, 0, 1]","[False, True, True]",,"[u'1', 2, 6, 11]","[True, False, True]","[False, False, False]","{u'mouseover': {u'state': {u'target': [], u'time': []}, u'edge': {u'target': [], u'time': []}}, u'click': {u'state': {u'target': [u'2', u'6'], u'time': [5451, 10341]}, u'edge': {u'target': [], u'time': []}}, u'mouseout': {u'state': {u'target': [], u'time': []}, u'edge': {u'target': [], u'time': []}}}",,,"[20191, 862, 2470]",26.0,,149422,1.0,11.0,mouselab-mdp,,0
"[987, 7808, 10936]","[u'up', u'up', u'right']",,,"[3, 0, 1]","[True, True, True]",,"[u'1', 3, 7, 13]","[True, False, True]","[False, False, False]","{u'mouseover': {u'state': {u'target': [], u'time': []}, u'edge': {u'target': [], u'time': []}}, u'click': {u'state': {u'target': [], u'time': []}, u'edge': {u'target': [], u'time': []}}, u'mouseout': {u'state': {u'target': [], u'time': []}, u'edge': {u'target': [], u'time': []}}}",,,"[987, 2701, 2425]",55.0,,201377,2.0,3.0,mouselab-mdp,,0
"[4208, 10965, 14197]","[u'left', u'left', u'up']",,,"[3, 0, 1]","[True, True, True]",,"[u'1', 4, 8, 14]","[True, False, True]","[False, False, False]","{u'mouseover': {u'state': {u'target': [], u'time': []}, u'edge': {u'target': [], u'time': []}}, u'click': {u'state': {u'target': [], u'time': []}, u'edge': {u'target': [], u'time': []}}, u'mouseout': {u'state': {u'target': [], u'time': []}, u'edge': {u'target': [], u'time': []}}}",,,"[4208, 2652, 2539]",13.0,,257592,3.0,8.0,mouselab-mdp,,0
"[1494, 6722, 11210]","[u'down', u'down', u'right']",,,"[3, 0, 1]","[True, True, True]",,"[u'1', 5, 9, 17]","[True, False, True]","[False, False, False]","{u'mouseover': {u'state': {u'target': [], u'time': []}, u'edge': {u'target': [], u'time': []}}, u'click': {u'state': {u'target': [], u'time': []}, u'edge': {u'target': [], u'time': []}}, u'mouseout': {u'state': {u'target': [], u'time': []}, u'edge': {u'target': [], u'time': []}}}",,,"[1493, 1117, 3804]",-5.0,,310542,4.0,12.0,mouselab-mdp,,0
"[5248, 10136, 15944]","[u'right', u'right', u'up']",,,"[3, 0, 1]","[True, True, True]",,"[u'1', 2, 6, 10]","[True, False, False]","[False, False, False]","{u'mouseover': {u'state': {u'target': [], u'time': []}, u'edge': {u'target': [], u'time': []}}, u'click': {u'state': {u'target': [u'7', u'6', u'10', u'11'], u'time': [1883, 3126, 12276, 14312]}, u'edge': {u'target': [], u'time': []}}, u'mouseout': {u'state': {u'target': [], u'time': []}, u'edge': {u'target': [], u'time': []}}}",,,"[5248, 559, 5119]",49.0,,367781,5.0,10.0,mouselab-mdp,,0
"[11688, 16812, 20239]","[u'down', u'down', u'right']",,,"[3, 0, 1]","[True, True, True]",,"[u'1', 5, 9, 17]","[False, False, False]","[False, False, False]","{u'mouseover': {u'state': {u'target': [], u'time': []}, u'edge': {u'target': [], u'time': []}}, u'click': {u'state': {u'target': [u'7', u'8', u'9', u'6', u'16', u'17'], u'time': [3010, 4291, 5630, 6949, 8985, 9802]}, u'edge': {u'target': [], u'time': []}}, u'mouseout': {u'state': {u'target': [], u'time': []}, u'edge': {u'target': [], u'time': []}}}",,,"[11688, 444, 2755]",45.0,,423588,6.0,9.0,mouselab-mdp,,0
"[16217, 21801, 25825]","[u'left', u'left', u'up']",,,"[3, 0, 1]","[True, True, True]",,"[u'1', 4, 8, 14]","[False, False, False]","[False, False, False]","{u'mouseover': {u'state': {u'target': [], u'time': []}, u'edge': {u'target': [], u'time': []}}, u'click': {u'state': {u'target': [u'8', u'6', u'11', u'16', u'17', u'7', u'13', u'12', u'14', u'15', u'4'], u'time': [1593, 2858, 3577, 6590, 7812, 10066, 10818, 11720, 12706, 13668, 15191]}, u'edge': {u'target': [], u'time': []}}, u'mouseout': {u'state': {u'target': [], u'time': []}, u'edge': {u'target': [], u'time': []}}}",,,"[16217, 551, 3407]",17.0,,481738,7.0,7.0,mouselab-mdp,,0
"[4831, 9599, 12121]","[u'up', u'up', u'right']",,,"[3, 0, 1]","[True, True, True]",,"[u'1', 3, 7, 13]","[True, False, False]","[False, False, False]","{u'mouseover': {u'state': {u'target': [], u'time': []}, u'edge': {u'target': [], u'time': []}}, u'click': {u'state': {u'target': [u'7', u'13'], u'time': [1811, 2939]}, u'edge': {u'target': [], u'time': []}}, u'mouseout': {u'state': {u'target': [], u'time': []}, u'edge': {u'target': [], u'time': []}}}",,,"[4831, 445, 1830]",38.0,,541620,8.0,1.0,mouselab-mdp,,0
"[8590, 13630, 16566]","[u'left', u'left', u'down']",,,"[3, 0, 1]","[True, True, True]",,"[u'1', 4, 8, 15]","[True, False, False]","[False, False, False]","{u'mouseover': {u'state': {u'target': [], u'time': []}, u'edge': {u'target': [], u'time': []}}, u'click': {u'state': {u'target': [u'6', u'10', u'2', u'8', u'4', u'14'], u'time': [902, 3454, 4793, 6582, 7330, 15247]}, u'edge': {u'target': [], u'time': []}}, u'mouseout': {u'state': {u'target': [], u'time': []}, u'edge': {u'target': [], u'time': []}}}",,,"[8590, 523, 2241]",19.0,,604696,9.0,14.0,mouselab-mdp,,0
"[10440, 15424, 18687]","[u'up', u'up', u'left']",,,"[3, 0, 1]","[True, True, True]",,"[u'1', 3, 7, 12]","[False, False, False]","[False, False, False]","{u'mouseover': {u'state': {u'target': [], u'time': []}, u'edge': {u'target': [], u'time': []}}, u'click': {u'state': {u'target': [u'7', u'13', u'3', u'12'], u'time': [5614, 6536, 7706, 8821]}, u'edge': {u'target': [], u'time': []}}, u'mouseout': {u'state': {u'target': [], u'time': []}, u'edge': {u'target': [], u'time': []}}}",,,"[10440, 607, 2610]",46.0,,668238,10.0,13.0,mouselab-mdp,,0
"[7533, 9405, 12197]","[u'right', u'right', u'down']",,,[],[],,"[u'1', 2, 6, 11]",[],[],"{u'mouseover': {u'state': {u'target': [], u'time': []}, u'edge': {u'target': [], u'time': []}}, u'click': {u'state': {u'target': [u'2', u'10', u'11'], u'time': [3614, 5865, 6743]}, u'edge': {u'target': [], u'time': []}}, u'mouseout': {u'state': {u'target': [], u'time': []}, u'edge': {u'target': [], u'time': []}}}",,,"[7532, 1349, 2257]",5.0,,726389,11.0,4.0,mouselab-mdp,,0
"[9508, 11308, 13164]","[u'up', u'up', u'right']",,,[],[],,"[u'1', 3, 7, 13]",[],[],"{u'mouseover': {u'state': {u'target': [], u'time': []}, u'edge': {u'target': [], u'time': []}}, u'click': {u'state': {u'target': [u'5', u'9', u'17', u'16', u'8', u'7', u'13', u'3'], u'time': [936, 2080, 2737, 3619, 4890, 6469, 7528, 8466]}, u'edge': {u'target': [], u'time': []}}, u'mouseout': {u'state': {u'target': [], u'time': []}, u'edge': {u'target': [], u'time': []}}}",,,"[9508, 1255, 1344]",30.0,,793003,12.0,15.0,mouselab-mdp,,0
"[5385, 7561, 10856]","[u'up', u'up', u'left']",,,[],[],,"[u'1', 3, 7, 12]",[],[],"{u'mouseover': {u'state': {u'target': [], u'time': []}, u'edge': {u'target': [], u'time': []}}, u'click': {u'state': {u'target': [u'6', u'4', u'8', u'7', u'13'], u'time': [663, 1585, 2594, 3889, 9378]}, u'edge': {u'target': [], u'time': []}}, u'mouseout': {u'state': {u'target': [], u'time': []}, u'edge': {u'target': [], u'time': []}}}",,,"[5385, 1646, 2758]",42.0,,845874,13.0,5.0,mouselab-mdp,,0
"[2418, 3466, 5890]","[u'left', u'left', u'up']",,,[],[],,"[u'1', 4, 8, 14]",[],[],"{u'mouseover': {u'state': {u'target': [], u'time': []}, u'edge': {u'target': [], u'time': []}}, u'click': {u'state': {u'target': [u'8', u'14'], u'time': [676, 4726]}, u'edge': {u'target': [], u'time': []}}, u'mouseout': {u'state': {u'target': [], u'time': []}, u'edge': {u'target': [], u'time': []}}}",,,"[2418, 522, 1896]",60.0,,893449,14.0,0.0,mouselab-mdp,,0
"[10101, 11061, 12437]","[u'up', u'up', u'right']",,,[],[],,"[u'1', 3, 7, 13]",[],[],"{u'mouseover': {u'state': {u'target': [], u'time': []}, u'edge': {u'target': [], u'time': []}}, u'click': {u'state': {u'target': [u'6', u'9', u'16', u'17', u'5', u'7', u'13'], u'time': [1247, 2119, 3134, 4833, 5827, 7595, 8637]}, u'edge': {u'target': [], u'time': []}}, u'mouseout': {u'state': {u'target': [], u'time': []}, u'edge': {u'target': [], u'time': []}}}",,,"[10101, 420, 845]",48.0,,941112,15.0,2.0,mouselab-mdp,,0
"[7858, 9274, 10994]","[u'right', u'right', u'down']",,,[],[],,"[u'1', 2, 6, 11]",[],[],"{u'mouseover': {u'state': {u'target': [], u'time': []}, u'edge': {u'target': [], u'time': []}}, u'click': {u'state': {u'target': [u'8', u'6', u'10', u'11'], u'time': [3225, 4563, 5613, 6431]}, u'edge': {u'target': [], u'time': []}}, u'mouseout': {u'state': {u'target': [], u'time': []}, u'edge': {u'target': [], u'time': []}}}",,,"[7858, 877, 1180]",53.0,,990303,16.0,6.0,mouselab-mdp,,0
"[3002, 4003, 6003]","[u'up', u'up', u'left']",,,[],[],,"[u'1', 3, 7, 12]",[],[],"{u'mouseover': {u'state': {u'target': [], u'time': []}, u'edge': {u'target': [], u'time': []}}, u'click': {u'state': {u'target': [2, 3, 12], u'time': [1009, 2008, 5006]}, u'edge': {u'target': [], u'time': []}}, u'mouseout': {u'state': {u'target': [], u'time': []}, u'edge': {u'target': [], u'time': []}}}",,,[],47.0,,206839,1.0,13.0,mouselab-mdp,,1
"[6001, 7001, 9001]","[u'up', u'up', u'right']",,,[],[],,"[u'1', 3, 7, 13]",[],[],"{u'mouseover': {u'state': {u'target': [], u'time': []}, u'edge': {u'target': [], u'time': []}}, u'click': {u'state': {u'target': [2, 6, 3, 4, 7, 12], u'time': [1006, 2006, 3006, 4007, 5006, 8005]}, u'edge': {u'target': [], u'time': []}}, u'mouseout': {u'state': {u'target': [], u'time': []}, u'edge': {u'target': [], u'time': []}}}",,,[],49.0,,223709,2.0,2.0,mouselab-mdp,,1
"[5001, 6001, 8000]","[u'up', u'up', u'right']",,,[],[],,"[u'1', 3, 7, 13]",[],[],"{u'mouseover': {u'state': {u'target': [], u'time': []}, u'edge': {u'target': [], u'time': []}}, u'click': {u'state': {u'target': [2, 3, 7, 4, 12], u'time': [1006, 2005, 3005, 4005, 7005]}, u'edge': {u'target': [], u'time': []}}, u'mouseout': {u'state': {u'target': [], u'time': []}, u'edge': {u'target': [], u'time': []}}}",,,[],35.0,,236064,3.0,1.0,mouselab-mdp,,1
"[5000, 5999, 8999]","[u'right', u'right', u'up']",,,[],[],,"[u'1', 2, 6, 10]",[],[],"{u'mouseover': {u'state': {u'target': [], u'time': []}, u'edge': {u'target': [], u'time': []}}, u'click': {u'state': {u'target': [2, 3, 4, 6, 11, 10], u'time': [1007, 2005, 3005, 4004, 7004, 8004]}, u'edge': {u'target': [], u'time': []}}, u'mouseout': {u'state': {u'target': [], u'time': []}, u'edge': {u'target': [], u'time': []}}}",,,[],47.0,,249136,4.0,10.0,mouselab-mdp,,1
"[7002, 8002, 10002]","[u'right', u'right', u'down']",,,[],[],,"[u'1', 2, 6, 11]",[],[],"{u'mouseover': {u'state': {u'target': [], u'time': []}, u'edge': {u'target': [], u'time': []}}, u'click': {u'state': {u'target': [2, 3, 4, 5, 6, 11], u'time': [1005, 2005, 3005, 4006, 6223, 9006]}, u'edge': {u'target': [], u'time': []}}, u'mouseout': {u'state': {u'target': [], u'time': []}, u'edge': {u'target': [], u'time': []}}}",,,[],52.0,,262928,5.0,8.0,mouselab-mdp,,1
"[7001, 8002, 10002]","[u'up', u'up', u'right']",,,[],[],,"[u'1', 3, 7, 13]",[],[],"{u'mouseover': {u'state': {u'target': [], u'time': []}, u'edge': {u'target': [], u'time': []}}, u'click': {u'state': {u'target': [2, 6, 3, 4, 7, 12], u'time': [1006, 3849, 4005, 5005, 6005, 9006]}, u'edge': {u'target': [], u'time': []}}, u'mouseout': {u'state': {u'target': [], u'time': []}, u'edge': {u'target': [], u'time': []}}}",,,[],49.0,,278455,6.0,4.0,mouselab-mdp,,1
"[7001, 8001, 10002]","[u'down', u'down', u'right']",,,[],[],,"[u'1', 5, 9, 17]",[],[],"{u'mouseover': {u'state': {u'target': [], u'time': []}, u'edge': {u'target': [], u'time': []}}, u'click': {u'state': {u'target': [2, 3, 4, 8, 5, 9, 16], u'time': [1005, 2005, 3005, 4005, 5005, 6005, 9005]}, u'edge': {u'target': [], u'time': []}}, u'mouseout': {u'state': {u'target': [], u'time': []}, u'edge': {u'target': [], u'time': []}}}",,,[],44.0,,293880,7.0,9.0,mouselab-mdp,,1
"[5001, 6001, 8001]","[u'up', u'up', u'left']",,,[],[],,"[u'1', 3, 7, 12]",[],[],"{u'mouseover': {u'state': {u'target': [], u'time': []}, u'edge': {u'target': [], u'time': []}}, u'click': {u'state': {u'target': [2, 3, 4, 7, 12], u'time': [1006, 2666, 3019, 4005, 7004]}, u'edge': {u'target': [], u'time': []}}, u'mouseout': {u'state': {u'target': [], u'time': []}, u'edge': {u'target': [], u'time': []}}}",,,[],47.0,,306020,8.0,12.0,mouselab-mdp,,1
"[12602, 14603, 16000]","[u'right', u'right', u'down']",,,[],[],,"[u'1', 2, 6, 11]",[],[],"{u'mouseover': {u'state': {u'target': [], u'time': []}, u'edge': {u'target': [], u'time': []}}, u'click': {u'state': {u'target': [2, 3, 4, 5, 7, 6, 9, 8, 16, 17, 11], u'time': [1005, 2005, 3005, 4006, 5005, 6005, 7005, 8005, 9005, 11094, 15004]}, u'edge': {u'target': [], u'time': []}}, u'mouseout': {u'state': {u'target': [], u'time': []}, u'edge': {u'target': [], u'time': []}}}",,,[],17.0,,326759,9.0,11.0,mouselab-mdp,,1
"[7001, 8001, 10001]","[u'up', u'up', u'right']",,,[],[],,"[u'1', 3, 7, 13]",[],[],"{u'mouseover': {u'state': {u'target': [], u'time': []}, u'edge': {u'target': [], u'time': []}}, u'click': {u'state': {u'target': [2, 6, 3, 4, 7, 12], u'time': [2843, 3005, 4005, 5005, 6004, 9005]}, u'edge': {u'target': [], u'time': []}}, u'mouseout': {u'state': {u'target': [], u'time': []}, u'edge': {u'target': [], u'time': []}}}",,,[],49.0,,345258,10.0,3.0,mouselab-mdp,,1
"[2382, 8390, 10059]","[u'up', u'up', u'left']",,,[],[],,"[u'1', 3, 7, 12]",[],[],"{u'mouseover': {u'state': {u'target': [], u'time': []}, u'edge': {u'target': [], u'time': []}}, u'click': {u'state': {u'target': [], u'time': []}, u'edge': {u'target': [], u'time': []}}, u'mouseout': {u'state': {u'target': [], u'time': []}, u'edge': {u'target': [], u'time': []}}}",,,"[2381, 5496, 1166]",14.0,,402338,11.0,0.0,mouselab-mdp,,1
"[4017, 7544, 12143]","[u'down', u'down', u'right']",,,[],[],,"[u'1', 5, 9, 17]",[],[],"{u'mouseover': {u'state': {u'target': [], u'time': []}, u'edge': {u'target': [], u'time': []}}, u'click': {u'state': {u'target': [u'5', u'17', u'16'], u'time': [2710, 9384, 10861]}, u'edge': {u'target': [], u'time': []}}, u'mouseout': {u'state': {u'target': [], u'time': []}, u'edge': {u'target': [], u'time': []}}}",,,"[4017, 3021, 4096]",21.0,,452893,12.0,6.0,mouselab-mdp,,1
"[6420, 9086, 14963]","[u'down', u'down', u'left']",,,[],[],,"[u'1', 5, 9, 16]",[],[],"{u'mouseover': {u'state': {u'target': [], u'time': []}, u'edge': {u'target': [], u'time': []}}, u'click': {u'state': {u'target': [u'4', u'2', u'3', u'5', u'17', u'16'], u'time': [1503, 3399, 4302, 5006, 11271, 12366]}, u'edge': {u'target': [], u'time': []}}, u'mouseout': {u'state': {u'target': [], u'time': []}, u'edge': {u'target': [], u'time': []}}}",,,"[6419, 2171, 5370]",0.0,,522685,13.0,5.0,mouselab-mdp,,1
"[10912, 11870, 15797]","[u'up', u'up', u'left']",,,[],[],,"[u'1', 3, 7, 12]",[],[],"{u'mouseover': {u'state': {u'target': [], u'time': []}, u'edge': {u'target': [], u'time': []}}, u'click': {u'state': {u'target': [u'3', u'2', u'4', u'5', u'7', u'9', u'13', u'12'], u'time': [2327, 3118, 3910, 4886, 6069, 7126, 13693, 14494]}, u'edge': {u'target': [], u'time': []}}, u'mouseout': {u'state': {u'target': [], u'time': []}, u'edge': {u'target': [], u'time': []}}}",,,"[10912, 455, 3417]",41.0,,575733,14.0,15.0,mouselab-mdp,,1
"[8972, 9720, 13349]","[u'left', u'left', u'up']",,,[],[],,"[u'1', 4, 8, 14]",[],[],"{u'mouseover': {u'state': {u'target': [], u'time': []}, u'edge': {u'target': [], u'time': []}}, u'click': {u'state': {u'target': [u'4', u'3', u'2', u'5', u'6', u'8', u'14', u'15'], u'time': [2320, 2999, 3952, 4768, 6129, 7072, 11128, 12081]}, u'edge': {u'target': [], u'time': []}}, u'mouseout': {u'state': {u'target': [], u'time': []}, u'edge': {u'target': [], u'time': []}}}",,,"[8972, 224, 3123]",20.0,,628419,15.0,7.0,mouselab-mdp,,1
"[14201, 14998, 15816]","[u'up', u'up', u'left']",,,[],[],,"[u'1', 3, 7, 12]",[],[],"{u'mouseover': {u'state': {u'target': [], u'time': []}, u'edge': {u'target': [], u'time': []}}, u'click': {u'state': {u'target': [u'3', u'2', u'5', u'4', u'7', u'8', u'13', u'12'], u'time': [2364, 3117, 3852, 4739, 5892, 6715, 11517, 12315]}, u'edge': {u'target': [], u'time': []}}, u'mouseout': {u'state': {u'target': [], u'time': []}, u'edge': {u'target': [], u'time': []}}}",,,"[14201, 300, 322]",44.0,,678885,16.0,14.0,mouselab-mdp,,1
"[14383, 20472, 22746]","[u'up', u'up', u'left']",,,"[1, 0, 0]","[True, True, True]",,"[u'1', 3, 7, 12]","[False, False, False]","[True, False, False]","{u'mouseover': {u'state': {u'target': [], u'time': []}, u'edge': {u'target': [], u'time': []}}, u'click': {u'state': {u'target': [u'3', u'7', u'13', u'12', u'4', u'8', u'14', u'15', u'16', u'9', u'5', u'17', u'2', u'11', u'6', u'10'], u'time': [1725, 2680, 3173, 3682, 4158, 4646, 5006, 5655, 6274, 6629, 6933, 7353, 7763, 8173, 8506, 8855]}, u'edge': {u'target': [], u'time': []}}, u'mouseout': {u'state': {u'target': [], u'time': []}, u'edge': {u'target': [], u'time': []}}}",,,"[14383, 1469, 1766]",31.0,,163161,1.0,5.0,mouselab-mdp,,2
"[14745, 18876, 19946]","[u'up', u'up', u'right']",,,"[0, 0, 0]","[True, True, True]",,"[u'1', 3, 7, 13]","[False, False, False]","[True, False, False]","{u'mouseover': {u'state': {u'target': [], u'time': []}, u'edge': {u'target': [], u'time': []}}, u'click': {u'state': {u'target': [u'4', u'5', u'2', u'3', u'9', u'8', u'15', u'7', u'13'], u'time': [2122, 2783, 3532, 4284, 7085, 8700, 9440, 10881, 11513]}, u'edge': {u'target': [], u'time': []}}, u'mouseout': {u'state': {u'target': [], u'time': []}, u'edge': {u'target': [], u'time': []}}}",,,"[14745, 2, 98]",31.0,,222200,2.0,1.0,mouselab-mdp,,2
"[7382, 10610, 11550]","[u'up', u'up', u'left']",,,"[0, 0, 0]","[True, True, True]",,"[u'1', 3, 7, 12]","[False, False, False]","[True, False, False]","{u'mouseover': {u'state': {u'target': [], u'time': []}, u'edge': {u'target': [], u'time': []}}, u'click': {u'state': {u'target': [u'5', u'4', u'3', u'2', u'7', u'13', u'12'], u'time': [2425, 3034, 3566, 4037, 4708, 5250, 5790]}, u'edge': {u'target': [], u'time': []}}, u'mouseout': {u'state': {u'target': [], u'time': []}, u'edge': {u'target': [], u'time': []}}}",,,"[7382, 2, 122]",43.0,,294698,3.0,13.0,mouselab-mdp,,2
"[11898, 15489, 17035]","[u'up', u'up', u'right']",,,"[0, 0, 0]","[True, True, True]",,"[u'1', 3, 7, 13]","[False, False, False]","[True, False, False]","{u'mouseover': {u'state': {u'target': [], u'time': []}, u'edge': {u'target': [], u'time': []}}, u'click': {u'state': {u'target': [u'5', u'2', u'3', u'4', u'6', u'8', u'7', u'13', u'12'], u'time': [3748, 4207, 4693, 5348, 6296, 7363, 8235, 9128, 9668]}, u'edge': {u'target': [], u'time': []}}, u'mouseout': {u'state': {u'target': [], u'time': []}, u'edge': {u'target': [], u'time': []}}}",,,"[11898, 3, 731]",46.0,,351776,4.0,4.0,mouselab-mdp,,2
"[8813, 12465, 13299]","[u'up', u'up', u'right']",,,"[0, 0, 0]","[True, True, True]",,"[u'1', 3, 7, 13]","[False, False, False]","[True, False, False]","{u'mouseover': {u'state': {u'target': [], u'time': []}, u'edge': {u'target': [], u'time': []}}, u'click': {u'state': {u'target': [u'5', u'2', u'3', u'4', u'6', u'7', u'8', u'12', u'13'], u'time': [1928, 2476, 3046, 3459, 4185, 5312, 6055, 6786, 7321]}, u'edge': {u'target': [], u'time': []}}, u'mouseout': {u'state': {u'target': [], u'time': []}, u'edge': {u'target': [], u'time': []}}}",,,"[8813, 3, 2]",46.0,,408392,5.0,3.0,mouselab-mdp,,2
"[12634, 16310, 17156]","[u'down', u'down', u'right']",,,"[0, 0, 0]","[True, True, True]",,"[u'1', 5, 9, 17]","[False, False, False]","[True, False, False]","{u'mouseover': {u'state': {u'target': [], u'time': []}, u'edge': {u'target': [], u'time': []}}, u'click': {u'state': {u'target': [u'2', u'3', u'5', u'4', u'8', u'7', u'9', u'16', u'17'], u'time': [1126, 1590, 2317, 2858, 6589, 7645, 8585, 9232, 9948]}, u'edge': {u'target': [], u'time': []}}, u'mouseout': {u'state': {u'target': [], u'time': []}, u'edge': {u'target': [], u'time': []}}}",,,"[12634, 2, 3]",42.0,,487056,6.0,9.0,mouselab-mdp,,2
"[8961, 12807, 13654]","[u'left', u'left', u'up']",,,"[0, 0, 0]","[True, True, True]",,"[u'1', 4, 8, 14]","[False, False, False]","[True, False, False]","{u'mouseover': {u'state': {u'target': [], u'time': []}, u'edge': {u'target': [], u'time': []}}, u'click': {u'state': {u'target': [u'5', u'2', u'3', u'4', u'6', u'8', u'7', u'9', u'15', u'14'], u'time': [1591, 2012, 2730, 3172, 3796, 4557, 5349, 6197, 7114, 7627]}, u'edge': {u'target': [], u'time': []}}, u'mouseout': {u'state': {u'target': [], u'time': []}, u'edge': {u'target': [], u'time': []}}}",,,"[8961, 2, 1]",18.0,,536952,7.0,7.0,mouselab-mdp,,2
"[7525, 12324, 13396]","[u'up', u'up', u'right']",,,"[0, 0, 0]","[True, True, True]",,"[u'1', 3, 7, 13]","[False, False, False]","[True, False, False]","{u'mouseover': {u'state': {u'target': [], u'time': []}, u'edge': {u'target': [], u'time': []}}, u'click': {u'state': {u'target': [u'5', u'2', u'3', u'4', u'6', u'7', u'8', u'13', u'12'], u'time': [1521, 2082, 2614, 3104, 3745, 4363, 4917, 5678, 6523]}, u'edge': {u'target': [], u'time': []}}, u'mouseout': {u'state': {u'target': [], u'time': []}, u'edge': {u'target': [], u'time': []}}}",,,"[7525, 1096, 295]",46.0,,597701,8.0,2.0,mouselab-mdp,,2
"[8537, 11796, 12638]","[u'up', u'up', u'left']",,,"[0, 0, 0]","[True, True, True]",,"[u'1', 3, 7, 12]","[False, False, False]","[True, False, False]","{u'mouseover': {u'state': {u'target': [], u'time': []}, u'edge': {u'target': [], u'time': []}}, u'click': {u'state': {u'target': [u'4', u'3', u'2', u'5', u'7', u'12', u'13'], u'time': [2924, 3388, 4266, 4732, 5428, 6606, 7107]}, u'edge': {u'target': [], u'time': []}}, u'mouseout': {u'state': {u'target': [], u'time': []}, u'edge': {u'target': [], u'time': []}}}",,,"[8537, 2, 2]",45.0,,651998,9.0,12.0,mouselab-mdp,,2
"[8055, 11497, 12329]","[u'right', u'right', u'down']",,,"[0, 0, 0]","[True, True, True]",,"[u'1', 2, 6, 11]","[False, False, False]","[True, False, False]","{u'mouseover': {u'state': {u'target': [], u'time': []}, u'edge': {u'target': [], u'time': []}}, u'click': {u'state': {u'target': [u'5', u'2', u'3', u'4', u'9', u'6', u'10', u'11'], u'time': [888, 1555, 2143, 2500, 3117, 4310, 5232, 5949]}, u'edge': {u'target': [], u'time': []}}, u'mouseout': {u'state': {u'target': [], u'time': []}, u'edge': {u'target': [], u'time': []}}}",,,"[8055, 2, 1]",50.0,,716710,10.0,8.0,mouselab-mdp,,2
"[11601, 12608, 13191]","[u'up', u'up', u'left']",,,[],[],,"[u'1', 3, 7, 12]",[],[],"{u'mouseover': {u'state': {u'target': [], u'time': []}, u'edge': {u'target': [], u'time': []}}, u'click': {u'state': {u'target': [u'5', u'2', u'3', u'4', u'7', u'9', u'13', u'12', u'17', u'16'], u'time': [4023, 4482, 4937, 5383, 6069, 6991, 7861, 8463, 9965, 10386]}, u'edge': {u'target': [], u'time': []}}, u'mouseout': {u'state': {u'target': [], u'time': []}, u'edge': {u'target': [], u'time': []}}}",,,"[11600, 503, 85]",39.0,,773189,11.0,15.0,mouselab-mdp,,2
"[13023, 13783, 14463]","[u'right', u'right', u'down']",,,[],[],,"[u'1', 2, 6, 11]",[],[],"{u'mouseover': {u'state': {u'target': [], u'time': []}, u'edge': {u'target': [], u'time': []}}, u'click': {u'state': {u'target': [u'5', u'2', u'3', u'4', u'9', u'7', u'6', u'11', u'10', u'17', u'16', u'12', u'13', u'8'], u'time': [1441, 1951, 2421, 3207, 3754, 4415, 5247, 5763, 6290, 6839, 7491, 8046, 8542, 11360]}, u'edge': {u'target': [], u'time': []}}, u'mouseout': {u'state': {u'target': [], u'time': []}, u'edge': {u'target': [], u'time': []}}}",,,"[13023, 254, 181]",14.0,,823364,12.0,11.0,mouselab-mdp,,2
"[10368, 11398, 11909]","[u'up', u'up', u'left']",,,[],[],,"[u'1', 3, 7, 12]",[],[],"{u'mouseover': {u'state': {u'target': [], u'time': []}, u'edge': {u'target': [], u'time': []}}, u'click': {u'state': {u'target': [u'5', u'2', u'3', u'4', u'7', u'8', u'12', u'15', u'14', u'13'], u'time': [1647, 2117, 2544, 3309, 3809, 4419, 5291, 6714, 7405, 8101]}, u'edge': {u'target': [], u'time': []}}, u'mouseout': {u'state': {u'target': [], u'time': []}, u'edge': {u'target': [], u'time': []}}}",,,"[10368, 538, 13]",42.0,,875268,13.0,14.0,mouselab-mdp,,2
"[8474, 9419, 10026]","[u'left', u'left', u'up']",,,[],[],,"[u'1', 4, 8, 14]",[],[],"{u'mouseover': {u'state': {u'target': [], u'time': []}, u'edge': {u'target': [], u'time': []}}, u'click': {u'state': {u'target': [u'5', u'2', u'3', u'4', u'8', u'7', u'15', u'14'], u'time': [1927, 2394, 3043, 3749, 4252, 4853, 6825, 7406]}, u'edge': {u'target': [], u'time': []}}, u'mouseout': {u'state': {u'target': [], u'time': []}, u'edge': {u'target': [], u'time': []}}}",,,"[8474, 444, 116]",54.0,,922946,14.0,0.0,mouselab-mdp,,2
"[12332, 13097, 13858]","[u'right', u'right', u'up']",,,[],[],,"[u'1', 2, 6, 10]",[],[],"{u'mouseover': {u'state': {u'target': [], u'time': []}, u'edge': {u'target': [], u'time': []}}, u'click': {u'state': {u'target': [u'5', u'2', u'3', u'4', u'9', u'6', u'8', u'11', u'10'], u'time': [6423, 6983, 7511, 8003, 8566, 9298, 9967, 10568, 11111]}, u'edge': {u'target': [], u'time': []}}, u'mouseout': {u'state': {u'target': [], u'time': []}, u'edge': {u'target': [], u'time': []}}}",,,"[12331, 265, 256]",44.0,,971859,15.0,10.0,mouselab-mdp,,2
"[13177, 14047, 14768]","[u'right', u'right', u'down']",,,[],[],,"[u'1', 2, 6, 11]",[],[],"{u'mouseover': {u'state': {u'target': [], u'time': []}, u'edge': {u'target': [], u'time': []}}, u'click': {u'state': {u'target': [u'5', u'2', u'3', u'4', u'9', u'7', u'13', u'12', u'17', u'16', u'6', u'8', u'11', u'10'], u'time': [1697, 2209, 2626, 3140, 3631, 4287, 4756, 5155, 5833, 6344, 9677, 10381, 11123, 11786]}, u'edge': {u'target': [], u'time': []}}, u'mouseout': {u'state': {u'target': [], u'time': []}, u'edge': {u'target': [], u'time': []}}}",,,"[13177, 375, 229]",43.0,,1032545,16.0,6.0,mouselab-mdp,,2
"[15831, 25991, 27743]","[u'down', u'down', u'right']",,,"[3, 0, 0]","[True, True, True]",,"[u'1', 5, 9, 17]","[True, False, False]","[False, False, False]","{u'mouseover': {u'state': {u'target': [], u'time': []}, u'edge': {u'target': [], u'time': []}}, u'click': {u'state': {u'target': [u'7', u'6', u'9', u'17', u'16'], u'time': [5447, 7555, 9063, 13158, 14362]}, u'edge': {u'target': [], u'time': []}}, u'mouseout': {u'state': {u'target': [], u'time': []}, u'edge': {u'target': [], u'time': []}}}",,,"[15831, 1323, 608]",29.0,,356837,1.0,3.0,mouselab-mdp,,3
"[11009, 17511, 18778]","[u'up', u'up', u'left']",,,"[0, 0, 0]","[True, True, True]",,"[u'1', 3, 7, 12]","[False, False, False]","[False, False, False]","{u'mouseover': {u'state': {u'target': [], u'time': []}, u'edge': {u'target': [], u'time': []}}, u'click': {u'state': {u'target': [u'7', u'6', u'9', u'8', u'15', u'14', u'12'], u'time': [2821, 3811, 4892, 5713, 7489, 8640, 9358]}, u'edge': {u'target': [], u'time': []}}, u'mouseout': {u'state': {u'target': [], u'time': []}, u'edge': {u'target': [], u'time': []}}}",,,"[11009, 5, 4]",45.0,,413798,2.0,14.0,mouselab-mdp,,3
"[15975, 22971, 24718]","[u'up', u'up', u'left']",,,"[0, 0, 0]","[True, True, True]",,"[u'1', 3, 7, 12]","[False, False, False]","[True, False, False]","{u'mouseover': {u'state': {u'target': [], u'time': []}, u'edge': {u'target': [], u'time': []}}, u'click': {u'state': {u'target': [u'7', u'12', u'6', u'11', u'8', u'9', u'17'], u'time': [1632, 3573, 5849, 6891, 10484, 12903, 14785]}, u'edge': {u'target': [], u'time': []}}, u'mouseout': {u'state': {u'target': [], u'time': []}, u'edge': {u'target': [], u'time': []}}}",,,"[15975, 5, 458]",40.0,,472151,3.0,5.0,mouselab-mdp,,3
"[14254, 21722, 23312]","[u'up', u'up', u'left']",,,"[0, 0, 0]","[True, True, True]",,"[u'1', 3, 7, 12]","[False, False, False]","[False, False, False]","{u'mouseover': {u'state': {u'target': [], u'time': []}, u'edge': {u'target': [], u'time': []}}, u'click': {u'state': {u'target': [u'7', u'8', u'9', u'6', u'13', u'12', u'14', u'16', u'11'], u'time': [1635, 2999, 4190, 5316, 6333, 7425, 8727, 10611, 12326]}, u'edge': {u'target': [], u'time': []}}, u'mouseout': {u'state': {u'target': [], u'time': []}, u'edge': {u'target': [], u'time': []}}}",,,"[14254, 4, 551]",43.0,,530313,4.0,12.0,mouselab-mdp,,3
"[10976, 16810, 18735]","[u'right', u'right', u'down']",,,"[0, 0, 0]","[True, True, True]",,"[u'1', 2, 6, 11]","[False, False, False]","[False, False, False]","{u'mouseover': {u'state': {u'target': [], u'time': []}, u'edge': {u'target': [], u'time': []}}, u'click': {u'state': {u'target': [u'7', u'8', u'9', u'6', u'10', u'11'], u'time': [1733, 3535, 4541, 5603, 7454, 8753]}, u'edge': {u'target': [], u'time': []}}, u'mouseout': {u'state': {u'target': [], u'time': []}, u'edge': {u'target': [], u'time': []}}}",,,"[10976, 3, 812]",22.0,,585003,5.0,11.0,mouselab-mdp,,3
"[14113, 23293, 24616]","[u'up', u'up', u'right']",,,"[1, 0, 0]","[True, True, True]",,"[u'1', 3, 7, 13]","[True, False, False]","[False, False, False]","{u'mouseover': {u'state': {u'target': [], u'time': []}, u'edge': {u'target': [], u'time': []}}, u'click': {u'state': {u'target': [u'7', u'8', u'9', u'6', u'13', u'16', u'12'], u'time': [1763, 2731, 3796, 4630, 5610, 7718, 12377]}, u'edge': {u'target': [], u'time': []}}, u'mouseout': {u'state': {u'target': [], u'time': []}, u'edge': {u'target': [], u'time': []}}}",,,"[14113, 1205, 206]",48.0,,655745,6.0,4.0,mouselab-mdp,,3
"[10666, 25726, 26928]","[u'right', u'right', u'down']",,,"[7, 0, 0]","[True, True, True]",,"[u'1', 2, 6, 11]","[True, False, False]","[False, False, False]","{u'mouseover': {u'state': {u'target': [], u'time': []}, u'edge': {u'target': [], u'time': []}}, u'click': {u'state': {u'target': [u'7', u'8', u'9', u'6', u'13', u'11'], u'time': [1388, 2716, 3705, 4626, 6143, 8607]}, u'edge': {u'target': [], u'time': []}}, u'mouseout': {u'state': {u'target': [], u'time': []}, u'edge': {u'target': [], u'time': []}}}",,,"[10666, 1322, 3]",8.0,,718640,7.0,15.0,mouselab-mdp,,3
"[7027, 12951, 14482]","[u'right', u'right', u'down']",,,"[0, 0, 0]","[True, True, True]",,"[u'1', 2, 6, 11]","[False, False, False]","[False, False, False]","{u'mouseover': {u'state': {u'target': [], u'time': []}, u'edge': {u'target': [], u'time': []}}, u'click': {u'state': {u'target': [u'7', u'8', u'9', u'6', u'11'], u'time': [1435, 2685, 3735, 4815, 5895]}, u'edge': {u'target': [], u'time': []}}, u'mouseout': {u'state': {u'target': [], u'time': []}, u'edge': {u'target': [], u'time': []}}}",,,"[7027, 7, 165]",53.0,,772366,8.0,8.0,mouselab-mdp,,3
"[10236, 16538, 17702]","[u'up', u'up', u'right']",,,"[0, 0, 0]","[True, True, True]",,"[u'1', 3, 7, 13]","[False, False, False]","[True, False, False]","{u'mouseover': {u'state': {u'target': [], u'time': []}, u'edge': {u'target': [], u'time': []}}, u'click': {u'state': {u'target': [u'6', u'7', u'8', u'9', u'13', u'12'], u'time': [1569, 2724, 3811, 4845, 5847, 9341]}, u'edge': {u'target': [], u'time': []}}, u'mouseout': {u'state': {u'target': [], u'time': []}, u'edge': {u'target': [], u'time': []}}}",,,"[10235, 5, 4]",34.0,,826607,9.0,1.0,mouselab-mdp,,3
"[16482, 25105, 26165]","[u'up', u'up', u'left']",,,"[1, 0, 0]","[True, True, True]",,"[u'1', 3, 7, 12]","[True, False, False]","[False, False, False]","{u'mouseover': {u'state': {u'target': [], u'time': []}, u'edge': {u'target': [], u'time': []}}, u'click': {u'state': {u'target': [u'7', u'8', u'9', u'6', u'13', u'14', u'15', u'12'], u'time': [1756, 3085, 4100, 5266, 6883, 9016, 12758, 15463]}, u'edge': {u'target': [], u'time': []}}, u'mouseout': {u'state': {u'target': [], u'time': []}, u'edge': {u'target': [], u'time': []}}}",,,"[16482, 592, 9]",42.0,,888642,10.0,13.0,mouselab-mdp,,3
"[5462, 6633, 7254]","[u'left', u'left', u'up']",,,[],[],,"[u'1', 4, 8, 14]",[],[],"{u'mouseover': {u'state': {u'target': [], u'time': []}, u'edge': {u'target': [], u'time': []}}, u'click': {u'state': {u'target': [u'7', u'8', u'9', u'6', u'14'], u'time': [742, 1628, 2596, 3416, 4345]}, u'edge': {u'target': [], u'time': []}}, u'mouseout': {u'state': {u'target': [], u'time': []}, u'edge': {u'target': [], u'time': []}}}",,,"[5462, 659, 115]",57.0,,953451,11.0,0.0,mouselab-mdp,,3
"[5349, 6294, 7145]","[u'right', u'right', u'down']",,,[],[],,"[u'1', 2, 6, 11]",[],[],"{u'mouseover': {u'state': {u'target': [], u'time': []}, u'edge': {u'target': [], u'time': []}}, u'click': {u'state': {u'target': [u'7', u'6', u'10', u'11'], u'time': [955, 2078, 3304, 4469]}, u'edge': {u'target': [], u'time': []}}, u'mouseout': {u'state': {u'target': [], u'time': []}, u'edge': {u'target': [], u'time': []}}}",,,"[5349, 440, 341]",53.0,,1002649,12.0,6.0,mouselab-mdp,,3
"[6916, 16283, 17630]","[u'down', u'down', u'right']",,,[],[],,"[u'1', 5, 9, 17]",[],[],"{u'mouseover': {u'state': {u'target': [], u'time': []}, u'edge': {u'target': [], u'time': []}}, u'click': {u'state': {u'target': [u'6', u'10', u'17', u'16'], u'time': [972, 2344, 11186, 15122]}, u'edge': {u'target': [], u'time': []}}, u'mouseout': {u'state': {u'target': [], u'time': []}, u'edge': {u'target': [], u'time': []}}}",,,"[6915, 8857, 838]",12.0,,1054554,13.0,10.0,mouselab-mdp,,3
"[7609, 8818, 9937]","[u'up', u'up', u'right']",,,[],[],,"[u'1', 3, 7, 13]",[],[],"{u'mouseover': {u'state': {u'target': [], u'time': []}, u'edge': {u'target': [], u'time': []}}, u'click': {u'state': {u'target': [u'7', u'13'], u'time': [4589, 5711]}, u'edge': {u'target': [], u'time': []}}, u'mouseout': {u'state': {u'target': [], u'time': []}, u'edge': {u'target': [], u'time': []}}}",,,"[7609, 689, 611]",53.0,,1103087,14.0,2.0,mouselab-mdp,,3
"[31702, 32955, 34272]","[u'left', u'left', u'up']",,,[],[],,"[u'1', 4, 8, 14]",[],[],"{u'mouseover': {u'state': {u'target': [], u'time': []}, u'edge': {u'target': [], u'time': []}}, u'click': {u'state': {u'target': [u'7', u'6', u'9', u'8', u'14', u'11'], u'time': [1458, 2499, 3626, 4679, 9238, 23838]}, u'edge': {u'target': [], u'time': []}}, u'mouseout': {u'state': {u'target': [], u'time': []}, u'edge': {u'target': [], u'time': []}}}",,,"[31700, 739, 807]",22.0,,1151805,15.0,7.0,mouselab-mdp,,3
"[8043, 9101, 9924]","[u'down', u'down', u'right']",,,[],[],,"[u'1', 5, 9, 17]",[],[],"{u'mouseover': {u'state': {u'target': [], u'time': []}, u'edge': {u'target': [], u'time': []}}, u'click': {u'state': {u'target': [u'7', u'6', u'9', u'16', u'17'], u'time': [1422, 2598, 4181, 5797, 6931]}, u'edge': {u'target': [], u'time': []}}, u'mouseout': {u'state': {u'target': [], u'time': []}, u'edge': {u'target': [], u'time': []}}}",,,"[8042, 539, 313]",46.0,,1200735,16.0,9.0,mouselab-mdp,,3
"[5001, 6001, 9001]","[u'right', u'right', u'up']",,,[],[],,"[u'1', 2, 6, 10]",[],[],"{u'mouseover': {u'state': {u'target': [], u'time': []}, u'edge': {u'target': [], u'time': []}}, u'click': {u'state': {u'target': [2, 3, 4, 6, 11, 10], u'time': [1013, 2007, 3009, 4012, 7007, 8006]}, u'edge': {u'target': [], u'time': []}}, u'mouseout': {u'state': {u'target': [], u'time': []}, u'edge': {u'target': [], u'time': []}}}",,,[],47.0,,127603,1.0,10.0,mouselab-mdp,,4
"[4001, 5001, 7000]","[u'right', u'right', u'down']",,,[],[],,"[u'1', 2, 6, 11]",[],[],"{u'mouseover': {u'state': {u'target': [], u'time': []}, u'edge': {u'target': [], u'time': []}}, u'click': {u'state': {u'target': [2, 3, 6, 11], u'time': [1006, 2013, 3006, 6005]}, u'edge': {u'target': [], u'time': []}}, u'mouseout': {u'state': {u'target': [], u'time': []}, u'edge': {u'target': [], u'time': []}}}",,,[],53.0,,139260,2.0,6.0,mouselab-mdp,,4
"[6001, 7001, 9001]","[u'up', u'up', u'right']",,,[],[],,"[u'1', 3, 7, 13]",[],[],"{u'mouseover': {u'state': {u'target': [], u'time': []}, u'edge': {u'target': [], u'time': []}}, u'click': {u'state': {u'target': [2, 6, 3, 4, 7, 12], u'time': [1008, 2005, 3005, 4004, 5005, 8006]}, u'edge': {u'target': [], u'time': []}}, u'mouseout': {u'state': {u'target': [], u'time': []}, u'edge': {u'target': [], u'time': []}}}",,,[],49.0,,153900,3.0,3.0,mouselab-mdp,,4
"[7002, 8001, 10001]","[u'left', u'left', u'up']",,,[],[],,"[u'1', 4, 8, 14]",[],[],"{u'mouseover': {u'state': {u'target': [], u'time': []}, u'edge': {u'target': [], u'time': []}}, u'click': {u'state': {u'target': [2, 3, 4, 7, 5, 8, 15], u'time': [1005, 2004, 3005, 4005, 5004, 6005, 9005]}, u'edge': {u'target': [], u'time': []}}, u'mouseout': {u'state': {u'target': [], u'time': []}, u'edge': {u'target': [], u'time': []}}}",,,[],55.0,,167680,4.0,0.0,mouselab-mdp,,4
"[6001, 7001, 9001]","[u'right', u'right', u'down']",,,[],[],,"[u'1', 2, 6, 11]",[],[],"{u'mouseover': {u'state': {u'target': [], u'time': []}, u'edge': {u'target': [], u'time': []}}, u'click': {u'state': {u'target': [2, 3, 4, 5, 6, 11], u'time': [1006, 2005, 3005, 4005, 5005, 8005]}, u'edge': {u'target': [], u'time': []}}, u'mouseout': {u'state': {u'target': [], u'time': []}, u'edge': {u'target': [], u'time': []}}}",,,[],52.0,,180499,5.0,8.0,mouselab-mdp,,4
"[5000, 6000, 8001]","[u'up', u'up', u'left']",,,[],[],,"[u'1', 3, 7, 12]",[],[],"{u'mouseover': {u'state': {u'target': [], u'time': []}, u'edge': {u'target': [], u'time': []}}, u'click': {u'state': {u'target': [2, 3, 4, 7, 12], u'time': [1005, 2004, 3004, 4011, 7004]}, u'edge': {u'target': [], u'time': []}}, u'mouseout': {u'state': {u'target': [], u'time': []}, u'edge': {u'target': [], u'time': []}}}",,,[],47.0,,192225,6.0,12.0,mouselab-mdp,,4
"[3000, 4001, 6000]","[u'up', u'up', u'left']",,,[],[],,"[u'1', 3, 7, 12]",[],[],"{u'mouseover': {u'state': {u'target': [], u'time': []}, u'edge': {u'target': [], u'time': []}}, u'click': {u'state': {u'target': [2, 3, 12], u'time': [1006, 2004, 5005]}, u'edge': {u'target': [], u'time': []}}, u'mouseout': {u'state': {u'target': [], u'time': []}, u'edge': {u'target': [], u'time': []}}}",,,[],47.0,,201873,7.0,13.0,mouselab-mdp,,4
"[6000, 7001, 9000]","[u'up', u'up', u'left']",,,[],[],,"[u'1', 3, 7, 12]",[],[],"{u'mouseover': {u'state': {u'target': [], u'time': []}, u'edge': {u'target': [], u'time': []}}, u'click': {u'state': {u'target': [2, 3, 6, 4, 7, 12], u'time': [1005, 2005, 3004, 4005, 5004, 8005]}, u'edge': {u'target': [], u'time': []}}, u'mouseout': {u'state': {u'target': [], u'time': []}, u'edge': {u'target': [], u'time': []}}}",,,[],41.0,,214982,8.0,5.0,mouselab-mdp,,4
"[6001, 7001, 9000]","[u'up', u'up', u'right']",,,[],[],,"[u'1', 3, 7, 13]",[],[],"{u'mouseover': {u'state': {u'target': [], u'time': []}, u'edge': {u'target': [], u'time': []}}, u'click': {u'state': {u'target': [2, 6, 3, 4, 7, 12], u'time': [1005, 2004, 3003, 4004, 5010, 8005]}, u'edge': {u'target': [], u'time': []}}, u'mouseout': {u'state': {u'target': [], u'time': []}, u'edge': {u'target': [], u'time': []}}}",,,[],49.0,,228290,9.0,4.0,mouselab-mdp,,4
"[5001, 6001, 8000]","[u'up', u'up', u'left']",,,[],[],,"[u'1', 3, 7, 12]",[],[],"{u'mouseover': {u'state': {u'target': [], u'time': []}, u'edge': {u'target': [], u'time': []}}, u'click': {u'state': {u'target': [2, 3, 4, 7, 12], u'time': [1005, 2004, 3004, 4003, 7004]}, u'edge': {u'target': [], u'time': []}}, u'mouseout': {u'state': {u'target': [], u'time': []}, u'edge': {u'target': [], u'time': []}}}",,,[],47.0,,240090,10.0,14.0,mouselab-mdp,,4
"[16298, 17923, 22446]","[u'up', u'up', u'right']",,,[],[],,"[u'1', 3, 7, 13]",[],[],"{u'mouseover': {u'state': {u'target': [], u'time': []}, u'edge': {u'target': [], u'time': []}}, u'click': {u'state': {u'target': [u'2', u'4', u'3', u'5', u'9', u'7', u'12', u'13'], u'time': [5955, 8227, 9584, 10714, 12521, 14058, 19607, 21000]}, u'edge': {u'target': [], u'time': []}}, u'mouseout': {u'state': {u'target': [], u'time': []}, u'edge': {u'target': [], u'time': []}}}",,,"[16297, 1086, 3991]",32.0,,296903,11.0,1.0,mouselab-mdp,,4
"[10366, 11346, 14552]","[u'up', u'up', u'right']",,,[],[],,"[u'1', 3, 7, 13]",[],[],"{u'mouseover': {u'state': {u'target': [], u'time': []}, u'edge': {u'target': [], u'time': []}}, u'click': {u'state': {u'target': [u'3', u'2', u'5', u'4', u'6', u'7', u'12', u'13'], u'time': [1257, 2211, 3775, 4795, 6597, 8114, 12634, 13624]}, u'edge': {u'target': [], u'time': []}}, u'mouseout': {u'state': {u'target': [], u'time': []}, u'edge': {u'target': [], u'time': []}}}",,,"[10366, 442, 2669]",47.0,,345975,12.0,2.0,mouselab-mdp,,4
"[9227, 9951, 15737]","[u'up', u'up', u'left']",,,[],[],,"[u'1', 3, 7, 12]",[],[],"{u'mouseover': {u'state': {u'target': [], u'time': []}, u'edge': {u'target': [], u'time': []}}, u'click': {u'state': {u'target': [u'3', u'2', u'4', u'5', u'7', u'12', u'13'], u'time': [1946, 3262, 4240, 5302, 6640, 11964, 13835]}, u'edge': {u'target': [], u'time': []}}, u'mouseout': {u'state': {u'target': [], u'time': []}, u'edge': {u'target': [], u'time': []}}}",,,"[9227, 197, 5243]",42.0,,408325,13.0,15.0,mouselab-mdp,,4
"[11801, 12566, 13417]","[u'down', u'down', u'right']",,,[],[],,"[u'1', 5, 9, 17]",[],[],"{u'mouseover': {u'state': {u'target': [], u'time': []}, u'edge': {u'target': [], u'time': []}}, u'click': {u'state': {u'target': [u'3', u'2', u'5', u'4', u'8', u'9', u'17', u'16'], u'time': [1333, 2222, 3224, 4120, 5279, 6821, 8960, 10033]}, u'edge': {u'target': [], u'time': []}}, u'mouseout': {u'state': {u'target': [], u'time': []}, u'edge': {u'target': [], u'time': []}}}",,,"[11801, 227, 320]",43.0,,460140,14.0,9.0,mouselab-mdp,,4
"[11753, 12533, 13259]","[u'left', u'left', u'up']",,,[],[],,"[u'1', 4, 8, 14]",[],[],"{u'mouseover': {u'state': {u'target': [], u'time': []}, u'edge': {u'target': [], u'time': []}}, u'click': {u'state': {u'target': [u'3', u'2', u'5', u'4', u'6', u'8', u'15', u'14'], u'time': [2118, 2919, 3677, 4461, 6057, 7510, 9133, 10235]}, u'edge': {u'target': [], u'time': []}}, u'mouseout': {u'state': {u'target': [], u'time': []}, u'edge': {u'target': [], u'time': []}}}",,,"[11752, 237, 184]",20.0,,512970,15.0,7.0,mouselab-mdp,,4
"[14307, 15088, 16401]","[u'right', u'right', u'down']",,,[],[],,"[u'1', 2, 6, 11]",[],[],"{u'mouseover': {u'state': {u'target': [], u'time': []}, u'edge': {u'target': [], u'time': []}}, u'click': {u'state': {u'target': [u'4', u'2', u'3', u'5', u'9', u'7', u'6', u'10', u'11'], u'time': [2809, 3637, 4556, 5377, 7745, 8974, 10226, 12206, 13098]}, u'edge': {u'target': [], u'time': []}}, u'mouseout': {u'state': {u'target': [], u'time': []}, u'edge': {u'target': [], u'time': []}}}",,,"[14307, 256, 790]",19.0,,562853,16.0,11.0,mouselab-mdp,,4
"[7002, 8001, 10001]","[u'left', u'left', u'up']",,,[],[],,"[u'1', 4, 8, 14]",[],[],"{u'mouseover': {u'state': {u'target': [], u'time': []}, u'edge': {u'target': [], u'time': []}}, u'click': {u'state': {u'target': [2, 3, 4, 7, 5, 8, 15], u'time': [1007, 2005, 3005, 4005, 5005, 6005, 9005]}, u'edge': {u'target': [], u'time': []}}, u'mouseout': {u'state': {u'target': [], u'time': []}, u'edge': {u'target': [], u'time': []}}}",,,[],55.0,,336893,1.0,0.0,mouselab-mdp,,5
"[6002, 7001, 9001]","[u'up', u'up', u'left']",,,[],[],,"[u'1', 3, 7, 12]",[],[],"{u'mouseover': {u'state': {u'target': [], u'time': []}, u'edge': {u'target': [], u'time': []}}, u'click': {u'state': {u'target': [2, 3, 6, 4, 7, 12], u'time': [1006, 2006, 3005, 4005, 5005, 8005]}, u'edge': {u'target': [], u'time': []}}, u'mouseout': {u'state': {u'target': [], u'time': []}, u'edge': {u'target': [], u'time': []}}}",,,[],41.0,,355607,2.0,5.0,mouselab-mdp,,5
"[5002, 6001, 9001]","[u'right', u'right', u'up']",,,[],[],,"[u'1', 2, 6, 10]",[],[],"{u'mouseover': {u'state': {u'target': [], u'time': []}, u'edge': {u'target': [], u'time': []}}, u'click': {u'state': {u'target': [2, 3, 4, 6, 11, 10], u'time': [1006, 2005, 3004, 4005, 7005, 8005]}, u'edge': {u'target': [], u'time': []}}, u'mouseout': {u'state': {u'target': [], u'time': []}, u'edge': {u'target': [], u'time': []}}}",,,[],47.0,,379333,3.0,10.0,mouselab-mdp,,5
"[7001, 8001, 10000]","[u'down', u'down', u'right']",,,[],[],,"[u'1', 5, 9, 17]",[],[],"{u'mouseover': {u'state': {u'target': [], u'time': []}, u'edge': {u'target': [], u'time': []}}, u'click': {u'state': {u'target': [2, 3, 4, 8, 5, 9, 16], u'time': [1006, 2004, 3004, 4005, 5004, 6004, 9005]}, u'edge': {u'target': [], u'time': []}}, u'mouseout': {u'state': {u'target': [], u'time': []}, u'edge': {u'target': [], u'time': []}}}",,,[],44.0,,405779,4.0,9.0,mouselab-mdp,,5
"[5001, 6001, 8001]","[u'up', u'up', u'left']",,,[],[],,"[u'1', 3, 7, 12]",[],[],"{u'mouseover': {u'state': {u'target': [], u'time': []}, u'edge': {u'target': [], u'time': []}}, u'click': {u'state': {u'target': [2, 3, 4, 7, 12], u'time': [1005, 2005, 3005, 4004, 7005]}, u'edge': {u'target': [], u'time': []}}, u'mouseout': {u'state': {u'target': [], u'time': []}, u'edge': {u'target': [], u'time': []}}}",,,[],47.0,,421318,5.0,14.0,mouselab-mdp,,5
"[7001, 8001, 10002]","[u'left', u'left', u'up']",,,[],[],,"[u'1', 4, 8, 14]",[],[],"{u'mouseover': {u'state': {u'target': [], u'time': []}, u'edge': {u'target': [], u'time': []}}, u'click': {u'state': {u'target': [2, 3, 4, 6, 5, 7, 15], u'time': [1006, 2005, 3005, 4006, 5005, 6006, 9007]}, u'edge': {u'target': [], u'time': []}}, u'mouseout': {u'state': {u'target': [], u'time': []}, u'edge': {u'target': [], u'time': []}}}",,,[],21.0,,439547,6.0,7.0,mouselab-mdp,,5
"[11001, 12000, 14001]","[u'right', u'right', u'down']",,,[],[],,"[u'1', 2, 6, 11]",[],[],"{u'mouseover': {u'state': {u'target': [], u'time': []}, u'edge': {u'target': [], u'time': []}}, u'click': {u'state': {u'target': [2, 3, 4, 5, 7, 6, 9, 8, 16, 17, 11], u'time': [1005, 2005, 3003, 4004, 5004, 6002, 7005, 8004, 9005, 10004, 13005]}, u'edge': {u'target': [], u'time': []}}, u'mouseout': {u'state': {u'target': [], u'time': []}, u'edge': {u'target': [], u'time': []}}}",,,[],17.0,,472343,7.0,11.0,mouselab-mdp,,5
"[3001, 4001, 6001]","[u'up', u'up', u'left']",,,[],[],,"[u'1', 3, 7, 12]",[],[],"{u'mouseover': {u'state': {u'target': [], u'time': []}, u'edge': {u'target': [], u'time': []}}, u'click': {u'state': {u'target': [2, 3, 12], u'time': [1005, 2004, 5004]}, u'edge': {u'target': [], u'time': []}}, u'mouseout': {u'state': {u'target': [], u'time': []}, u'edge': {u'target': [], u'time': []}}}",,,[],47.0,,482429,8.0,13.0,mouselab-mdp,,5
"[6002, 7001, 9001]","[u'up', u'up', u'right']",,,[],[],,"[u'1', 3, 7, 13]",[],[],"{u'mouseover': {u'state': {u'target': [], u'time': []}, u'edge': {u'target': [], u'time': []}}, u'click': {u'state': {u'target': [2, 6, 3, 4, 7, 12], u'time': [1005, 2004, 3004, 4005, 5004, 8004]}, u'edge': {u'target': [], u'time': []}}, u'mouseout': {u'state': {u'target': [], u'time': []}, u'edge': {u'target': [], u'time': []}}}",,,[],49.0,,501070,9.0,3.0,mouselab-mdp,,5
"[6000, 7001, 9001]","[u'up', u'up', u'right']",,,[],[],,"[u'1', 3, 7, 13]",[],[],"{u'mouseover': {u'state': {u'target': [], u'time': []}, u'edge': {u'target': [], u'time': []}}, u'click': {u'state': {u'target': [2, 6, 3, 4, 7, 12], u'time': [1004, 2004, 3004, 4004, 5004, 8006]}, u'edge': {u'target': [], u'time': []}}, u'mouseout': {u'state': {u'target': [], u'time': []}, u'edge': {u'target': [], u'time': []}}}",,,[],49.0,,514943,10.0,4.0,mouselab-mdp,,5
"[12476, 20565, 29643]","[u'up', u'up', u'right']",,,[],[],,"[u'1', 3, 7, 13]",[],[],"{u'mouseover': {u'state': {u'target': [], u'time': []}, u'edge': {u'target': [], u'time': []}}, u'click': {u'state': {u'target': [u'4', u'3', u'2', u'5', u'7', u'13'], u'time': [4049, 5646, 7438, 9121, 17805, 26387]}, u'edge': {u'target': [], u'time': []}}, u'mouseout': {u'state': {u'target': [], u'time': []}, u'edge': {u'target': [], u'time': []}}}",,,"[12476, 7600, 8578]",36.0,,580986,11.0,12.0,mouselab-mdp,,5
"[16098, 17038, 21054]","[u'up', u'up', u'right']",,,[],[],,"[u'1', 3, 7, 13]",[],[],"{u'mouseover': {u'state': {u'target': [], u'time': []}, u'edge': {u'target': [], u'time': []}}, u'click': {u'state': {u'target': [u'3', u'4', u'5', u'2', u'6', u'8', u'7', u'13'], u'time': [2692, 4045, 5259, 6589, 9625, 11263, 13831, 19341]}, u'edge': {u'target': [], u'time': []}}, u'mouseout': {u'state': {u'target': [], u'time': []}, u'edge': {u'target': [], u'time': []}}}",,,"[16098, 438, 3503]",47.0,,632332,12.0,2.0,mouselab-mdp,,5
"[15099, 15854, 23153]","[u'up', u'up', u'right']",,,[],[],,"[u'1', 3, 7, 13]",[],[],"{u'mouseover': {u'state': {u'target': [], u'time': []}, u'edge': {u'target': [], u'time': []}}, u'click': {u'state': {u'target': [u'3', u'4', u'5', u'2', u'7', u'9', u'13', u'12'], u'time': [4646, 5903, 7257, 8800, 10679, 12546, 18259, 19766]}, u'edge': {u'target': [], u'time': []}}, u'mouseout': {u'state': {u'target': [], u'time': []}, u'edge': {u'target': [], u'time': []}}}",,,"[15099, 250, 6802]",13.0,,681400,13.0,6.0,mouselab-mdp,,5
"[19671, 20410, 21448]","[u'up', u'up', u'left']",,,[],[],,"[u'1', 3, 7, 12]",[],[],"{u'mouseover': {u'state': {u'target': [], u'time': []}, u'edge': {u'target': [], u'time': []}}, u'click': {u'state': {u'target': [u'3', u'4', u'2', u'5', u'7', u'9', u'12'], u'time': [3633, 4939, 6360, 7779, 11087, 12987, 15744]}, u'edge': {u'target': [], u'time': []}}, u'mouseout': {u'state': {u'target': [], u'time': []}, u'edge': {u'target': [], u'time': []}}}",,,"[19671, 241, 546]",42.0,,732717,14.0,15.0,mouselab-mdp,,5
"[23479, 24370, 25564]","[u'up', u'up', u'right']",,,[],[],,"[u'1', 3, 7, 13]",[],[],"{u'mouseover': {u'state': {u'target': [], u'time': []}, u'edge': {u'target': [], u'time': []}}, u'click': {u'state': {u'target': [u'3', u'4', u'5', u'2', u'7', u'9', u'12', u'13'], u'time': [10011, 11187, 12512, 13931, 15716, 17194, 19841, 21283]}, u'edge': {u'target': [], u'time': []}}, u'mouseout': {u'state': {u'target': [], u'time': []}, u'edge': {u'target': [], u'time': []}}}",,,"[23479, 379, 690]",32.0,,789129,15.0,1.0,mouselab-mdp,,5
"[22184, 23398, 24632]","[u'right', u'right', u'down']",,,[],[],,"[u'1', 2, 6, 11]",[],[],"{u'mouseover': {u'state': {u'target': [], u'time': []}, u'edge': {u'target': [], u'time': []}}, u'click': {u'state': {u'target': [u'3', u'4', u'5', u'2', u'9', u'16', u'17', u'6', u'10', u'11'], u'time': [2480, 3913, 5252, 6539, 8182, 9897, 11485, 13781, 16012, 19882]}, u'edge': {u'target': [], u'time': []}}, u'mouseout': {u'state': {u'target': [], u'time': []}, u'edge': {u'target': [], u'time': []}}}",,,"[22183, 724, 741]",48.0,,851283,16.0,8.0,mouselab-mdp,,5
"[4645, 38456, 41520]","[u'down', u'down', u'right']",,,"[26, 0, 7]","[True, True, True]",,"[u'1', 5, 9, 17]","[True, False, True]","[False, False, False]","{u'mouseover': {u'state': {u'target': [], u'time': []}, u'edge': {u'target': [], u'time': []}}, u'click': {u'state': {u'target': [], u'time': []}, u'edge': {u'target': [], u'time': []}}, u'mouseout': {u'state': {u'target': [], u'time': []}, u'edge': {u'target': [], u'time': []}}}",,,"[4644, 5726, 2092]",-15.0,,206821,1.0,13.0,mouselab-mdp,,6
"[3801, 33376, 38735]","[u'right', u'right', u'down']",,,"[26, 0, 7]","[True, True, True]",,"[u'1', 2, 6, 11]","[True, False, True]","[False, False, False]","{u'mouseover': {u'state': {u'target': [], u'time': []}, u'edge': {u'target': [], u'time': []}}, u'click': {u'state': {u'target': [], u'time': []}, u'edge': {u'target': [], u'time': []}}, u'mouseout': {u'state': {u'target': [], u'time': []}, u'edge': {u'target': [], u'time': []}}}",,,"[3800, 1281, 4388]",7.0,,292856,2.0,12.0,mouselab-mdp,,6
"[4870, 21902, 28050]","[u'right', u'right', u'down']",,,"[8, 3, 0]","[True, True, True]",,"[u'1', 2, 6, 11]","[True, False, False]","[False, True, False]","{u'mouseover': {u'state': {u'target': [], u'time': []}, u'edge': {u'target': [], u'time': []}}, u'click': {u'state': {u'target': [u'2', u'11', u'10'], u'time': [2628, 18044, 20866]}, u'edge': {u'target': [], u'time': []}}, u'mouseout': {u'state': {u'target': [], u'time': []}, u'edge': {u'target': [], u'time': []}}}",,,"[4870, 6649, 1823]",55.0,,353801,3.0,8.0,mouselab-mdp,,6
"[5390, 16606, 22395]","[u'up', u'up', u'right']",,,"[6, 3, 0]","[True, True, True]",,"[u'1', 3, 7, 13]","[True, False, False]","[False, True, False]","{u'mouseover': {u'state': {u'target': [], u'time': []}, u'edge': {u'target': [], u'time': []}}, u'click': {u'state': {u'target': [u'3', u'13', u'12'], u'time': [3579, 14860, 15618]}, u'edge': {u'target': [], u'time': []}}, u'mouseout': {u'state': {u'target': [], u'time': []}, u'edge': {u'target': [], u'time': []}}}",,,"[5390, 2671, 1216]",52.0,,415794,4.0,2.0,mouselab-mdp,,6
"[11147, 24703, 29782]","[u'down', u'down', u'right']",,,"[7, 3, 3]","[True, True, False]",,"[u'1', 5, 9, 17]","[True, False, False]","[False, True, False]","{u'mouseover': {u'state': {u'target': [], u'time': []}, u'edge': {u'target': [], u'time': []}}, u'click': {u'state': {u'target': [u'4', u'2', u'5', u'3', u'16', u'17'], u'time': [3880, 7151, 8799, 9631, 22692, 23477]}, u'edge': {u'target': [], u'time': []}}, u'mouseout': {u'state': {u'target': [], u'time': []}, u'edge': {u'target': [], u'time': []}}}",,,"[11147, 3638, 598]",-5.0,,488754,5.0,5.0,mouselab-mdp,,6
"[6266, 16774, 22006]","[u'right', u'right', u'down']",,,"[4, 3, 0]","[True, True, True]",,"[u'1', 2, 6, 11]","[True, False, False]","[False, True, False]","{u'mouseover': {u'state': {u'target': [], u'time': []}, u'edge': {u'target': [], u'time': []}}, u'click': {u'state': {u'target': [u'2', u'10', u'11'], u'time': [4822, 13363, 15834]}, u'edge': {u'target': [], u'time': []}}, u'mouseout': {u'state': {u'target': [], u'time': []}, u'edge': {u'target': [], u'time': []}}}",,,"[6266, 4086, 676]",5.0,,552333,6.0,4.0,mouselab-mdp,,6
"[19434, 30850, 31857]","[u'left', u'left', u'down']",,,"[7, 0, 0]","[False, True, True]",,"[u'1', 4, 8, 15]","[True, False, False]","[False, False, False]","{u'mouseover': {u'state': {u'target': [], u'time': []}, u'edge': {u'target': [], u'time': []}}, u'click': {u'state': {u'target': [u'2', u'10', u'11', u'8', u'15', u'14', u'4'], u'time': [9696, 11142, 11830, 14494, 15934, 17086, 17853]}, u'edge': {u'target': [], u'time': []}}, u'mouseout': {u'state': {u'target': [], u'time': []}, u'edge': {u'target': [], u'time': []}}}",,,"[19434, 544, 237]",18.0,,629891,7.0,3.0,mouselab-mdp,,6
"[15006, 23623, 25342]","[u'up', u'up', u'right']",,,"[5, 0, 0]","[True, True, True]",,"[u'1', 3, 7, 13]","[True, False, False]","[False, False, False]","{u'mouseover': {u'state': {u'target': [], u'time': []}, u'edge': {u'target': [], u'time': []}}, u'click': {u'state': {u'target': [u'3', u'13', u'12'], u'time': [11323, 12010, 13722]}, u'edge': {u'target': [], u'time': []}}, u'mouseout': {u'state': {u'target': [], u'time': []}, u'edge': {u'target': [], u'time': []}}}",,,"[15006, 576, 795]",37.0,,685231,8.0,1.0,mouselab-mdp,,6
"[9026, 15051, 17298]","[u'up', u'up', u'left']",,,"[0, 0, 0]","[True, True, True]",,"[u'1', 3, 7, 12]","[False, False, False]","[False, False, False]","{u'mouseover': {u'state': {u'target': [], u'time': []}, u'edge': {u'target': [], u'time': []}}, u'click': {u'state': {u'target': [u'5', u'17', u'11', u'10', u'14', u'15', u'13', u'12', u'3'], u'time': [2392, 3013, 3847, 4654, 5671, 6326, 7029, 7598, 8215]}, u'edge': {u'target': [], u'time': []}}, u'mouseout': {u'state': {u'target': [], u'time': []}, u'edge': {u'target': [], u'time': []}}}",,,"[9026, 1913, 1374]",43.0,,738140,9.0,14.0,mouselab-mdp,,6
"[6984, 10227, 11679]","[u'left', u'left', u'up']",,,"[0, 0, 0]","[True, True, True]",,"[u'1', 4, 8, 14]","[False, False, False]","[False, False, False]","{u'mouseover': {u'state': {u'target': [], u'time': []}, u'edge': {u'target': [], u'time': []}}, u'click': {u'state': {u'target': [u'17', u'16', u'8', u'15', u'14'], u'time': [2180, 2739, 3379, 3767, 4380]}, u'edge': {u'target': [], u'time': []}}, u'mouseout': {u'state': {u'target': [], u'time': []}, u'edge': {u'target': [], u'time': []}}}",,,"[6984, 18, 663]",57.0,,787973,10.0,0.0,mouselab-mdp,,6
"[8873, 10080, 11144]","[u'right', u'right', u'down']",,,[],[],,"[u'1', 2, 6, 11]",[],[],"{u'mouseover': {u'state': {u'target': [], u'time': []}, u'edge': {u'target': [], u'time': []}}, u'click': {u'state': {u'target': [u'6', u'11', u'10'], u'time': [3097, 5733, 7053]}, u'edge': {u'target': [], u'time': []}}, u'mouseout': {u'state': {u'target': [], u'time': []}, u'edge': {u'target': [], u'time': []}}}",,,"[8873, 715, 563]",54.0,,841105,11.0,6.0,mouselab-mdp,,6
"[9782, 10717, 11414]","[u'up', u'up', u'right']",,,[],[],,"[u'1', 3, 7, 13]",[],[],"{u'mouseover': {u'state': {u'target': [], u'time': []}, u'edge': {u'target': [], u'time': []}}, u'click': {u'state': {u'target': [u'15', u'14', u'17', u'16', u'11', u'10', u'13', u'12', u'3', u'7'], u'time': [1546, 2345, 3377, 3899, 4602, 5209, 5809, 6353, 7354, 8690]}, u'edge': {u'target': [], u'time': []}}, u'mouseout': {u'state': {u'target': [], u'time': []}, u'edge': {u'target': [], u'time': []}}}",,,"[9782, 440, 203]",5.0,,890330,12.0,10.0,mouselab-mdp,,6
"[16079, 17168, 18215]","[u'down', u'down', u'right']",,,[],[],,"[u'1', 5, 9, 17]",[],[],"{u'mouseover': {u'state': {u'target': [], u'time': []}, u'edge': {u'target': [], u'time': []}}, u'click': {u'state': {u'target': [u'11', u'10', u'16', u'17', u'15', u'14', u'12', u'13', u'2', u'6', u'5'], u'time': [1381, 2372, 3428, 4138, 5356, 6083, 6843, 7348, 11132, 11636, 15131]}, u'edge': {u'target': [], u'time': []}}, u'mouseout': {u'state': {u'target': [], u'time': []}, u'edge': {u'target': [], u'time': []}}}",,,"[16079, 594, 557]",40.0,,936925,13.0,9.0,mouselab-mdp,,6
"[14341, 14933, 15677]","[u'left', u'left', u'up']",,,[],[],,"[u'1', 4, 8, 14]",[],[],"{u'mouseover': {u'state': {u'target': [], u'time': []}, u'edge': {u'target': [], u'time': []}}, u'click': {u'state': {u'target': [u'16', u'17', u'11', u'10', u'12', u'13', u'14', u'15', u'4', u'8'], u'time': [1050, 1593, 2081, 2729, 3881, 4391, 5128, 5624, 12427, 13213]}, u'edge': {u'target': [], u'time': []}}, u'mouseout': {u'state': {u'target': [], u'time': []}, u'edge': {u'target': [], u'time': []}}}",,,"[14341, 91, 251]",18.0,,985232,14.0,7.0,mouselab-mdp,,6
"[7008, 7816, 8712]","[u'up', u'up', u'left']",,,[],[],,"[u'1', 3, 7, 12]",[],[],"{u'mouseover': {u'state': {u'target': [], u'time': []}, u'edge': {u'target': [], u'time': []}}, u'click': {u'state': {u'target': [u'17', u'16', u'11', u'10', u'13', u'12', u'14', u'15', u'3'], u'time': [1069, 1940, 2595, 3140, 3884, 4380, 4907, 5460, 6109]}, u'edge': {u'target': [], u'time': []}}, u'mouseout': {u'state': {u'target': [], u'time': []}, u'edge': {u'target': [], u'time': []}}}",,,"[7008, 311, 407]",40.0,,1032317,15.0,15.0,mouselab-mdp,,6
"[7407, 8552, 9391]","[u'right', u'right', u'down']",,,[],[],,"[u'1', 2, 6, 11]",[],[],"{u'mouseover': {u'state': {u'target': [], u'time': []}, u'edge': {u'target': [], u'time': []}}, u'click': {u'state': {u'target': [u'17', u'14', u'11', u'10', u'6'], u'time': [1350, 2326, 3967, 4614, 6246]}, u'edge': {u'target': [], u'time': []}}, u'mouseout': {u'state': {u'target': [], u'time': []}, u'edge': {u'target': [], u'time': []}}}",,,"[7407, 654, 343]",23.0,,1085649,16.0,11.0,mouselab-mdp,,6
"[7002, 8005, 10003]","[u'down', u'down', u'right']",,,[],[],,"[u'1', 5, 9, 17]",[],[],"{u'mouseover': {u'state': {u'target': [], u'time': []}, u'edge': {u'target': [], u'time': []}}, u'click': {u'state': {u'target': [2, 3, 4, 8, 5, 9, 16], u'time': [1005, 2004, 3004, 4004, 5007, 6005, 9007]}, u'edge': {u'target': [], u'time': []}}, u'mouseout': {u'state': {u'target': [], u'time': []}, u'edge': {u'target': [], u'time': []}}}",,,[],44.0,,272677,1.0,9.0,mouselab-mdp,,7
"[7001, 8001, 10002]","[u'left', u'left', u'up']",,,[],[],,"[u'1', 4, 8, 14]",[],[],"{u'mouseover': {u'state': {u'target': [], u'time': []}, u'edge': {u'target': [], u'time': []}}, u'click': {u'state': {u'target': [2, 3, 4, 7, 5, 8, 15], u'time': [1003, 2004, 3003, 4007, 5003, 6003, 9006]}, u'edge': {u'target': [], u'time': []}}, u'mouseout': {u'state': {u'target': [], u'time': []}, u'edge': {u'target': [], u'time': []}}}",,,[],55.0,,289918,2.0,0.0,mouselab-mdp,,7
"[5001, 6002, 9002]","[u'right', u'right', u'up']",,,[],[],,"[u'1', 2, 6, 10]",[],[],"{u'mouseover': {u'state': {u'target': [], u'time': []}, u'edge': {u'target': [], u'time': []}}, u'click': {u'state': {u'target': [2, 3, 4, 6, 11, 10], u'time': [1003, 2003, 3003, 4002, 7004, 8005]}, u'edge': {u'target': [], u'time': []}}, u'mouseout': {u'state': {u'target': [], u'time': []}, u'edge': {u'target': [], u'time': []}}}",,,[],47.0,,305798,3.0,10.0,mouselab-mdp,,7
"[6001, 7003, 9002]","[u'up', u'up', u'left']",,,[],[],,"[u'1', 3, 7, 12]",[],[],"{u'mouseover': {u'state': {u'target': [], u'time': []}, u'edge': {u'target': [], u'time': []}}, u'click': {u'state': {u'target': [2, 3, 4, 5, 7, 12], u'time': [1003, 2002, 3002, 4005, 5004, 8005]}, u'edge': {u'target': [], u'time': []}}, u'mouseout': {u'state': {u'target': [], u'time': []}, u'edge': {u'target': [], u'time': []}}}",,,[],43.0,,320710,4.0,15.0,mouselab-mdp,,7
"[6001, 7000, 9002]","[u'up', u'up', u'right']",,,[],[],,"[u'1', 3, 7, 13]",[],[],"{u'mouseover': {u'state': {u'target': [], u'time': []}, u'edge': {u'target': [], u'time': []}}, u'click': {u'state': {u'target': [2, 6, 3, 4, 7, 12], u'time': [1002, 2003, 3003, 4002, 5002, 8002]}, u'edge': {u'target': [], u'time': []}}, u'mouseout': {u'state': {u'target': [], u'time': []}, u'edge': {u'target': [], u'time': []}}}",,,[],49.0,,339187,5.0,3.0,mouselab-mdp,,7
"[3002, 4001, 6001]","[u'up', u'up', u'left']",,,[],[],,"[u'1', 3, 7, 12]",[],[],"{u'mouseover': {u'state': {u'target': [], u'time': []}, u'edge': {u'target': [], u'time': []}}, u'click': {u'state': {u'target': [2, 3, 12], u'time': [1006, 2004, 5002]}, u'edge': {u'target': [], u'time': []}}, u'mouseout': {u'state': {u'target': [], u'time': []}, u'edge': {u'target': [], u'time': []}}}",,,[],47.0,,347914,6.0,13.0,mouselab-mdp,,7
"[6002, 7004, 9001]","[u'up', u'up', u'right']",,,[],[],,"[u'1', 3, 7, 13]",[],[],"{u'mouseover': {u'state': {u'target': [], u'time': []}, u'edge': {u'target': [], u'time': []}}, u'click': {u'state': {u'target': [2, 6, 3, 4, 7, 12], u'time': [1003, 2001, 3001, 4004, 5003, 8004]}, u'edge': {u'target': [], u'time': []}}, u'mouseout': {u'state': {u'target': [], u'time': []}, u'edge': {u'target': [], u'time': []}}}",,,[],49.0,,359363,7.0,4.0,mouselab-mdp,,7
"[5001, 6001, 8002]","[u'up', u'up', u'left']",,,[],[],,"[u'1', 3, 7, 12]",[],[],"{u'mouseover': {u'state': {u'target': [], u'time': []}, u'edge': {u'target': [], u'time': []}}, u'click': {u'state': {u'target': [2, 3, 4, 7, 12], u'time': [1003, 2002, 3004, 4003, 7004]}, u'edge': {u'target': [], u'time': []}}, u'mouseout': {u'state': {u'target': [], u'time': []}, u'edge': {u'target': [], u'time': []}}}",,,[],47.0,,369523,8.0,12.0,mouselab-mdp,,7
"[5005, 6005, 8002]","[u'up', u'up', u'right']",,,[],[],,"[u'1', 3, 7, 13]",[],[],"{u'mouseover': {u'state': {u'target': [], u'time': []}, u'edge': {u'target': [], u'time': []}}, u'click': {u'state': {u'target': [2, 3, 7, 4, 12], u'time': [1004, 2006, 3005, 4003, 7005]}, u'edge': {u'target': [], u'time': []}}, u'mouseout': {u'state': {u'target': [], u'time': []}, u'edge': {u'target': [], u'time': []}}}",,,[],35.0,,380268,9.0,1.0,mouselab-mdp,,7
"[6002, 7001, 9001]","[u'up', u'up', u'left']",,,[],[],,"[u'1', 3, 7, 12]",[],[],"{u'mouseover': {u'state': {u'target': [], u'time': []}, u'edge': {u'target': [], u'time': []}}, u'click': {u'state': {u'target': [2, 3, 6, 4, 7, 12], u'time': [1003, 2003, 3003, 4004, 5002, 8003]}, u'edge': {u'target': [], u'time': []}}, u'mouseout': {u'state': {u'target': [], u'time': []}, u'edge': {u'target': [], u'time': []}}}",,,[],41.0,,391548,10.0,5.0,mouselab-mdp,,7
"[6599, 7398, 8575]","[u'up', u'up', u'left']",,,[],[],,"[u'1', 3, 7, 12]",[],[],"{u'mouseover': {u'state': {u'target': [], u'time': []}, u'edge': {u'target': [], u'time': []}}, u'click': {u'state': {u'target': [u'3', u'7', u'12'], u'time': [1997, 4214, 5160]}, u'edge': {u'target': [], u'time': []}}, u'mouseout': {u'state': {u'target': [], u'time': []}, u'edge': {u'target': [], u'time': []}}}",,,"[6599, 301, 665]",49.0,,457529,11.0,14.0,mouselab-mdp,,7
"[1598, 5806, 6422]","[u'up', u'up', u'right']",,,[],[],,"[u'1', 3, 7, 13]",[],[],"{u'mouseover': {u'state': {u'target': [], u'time': []}, u'edge': {u'target': [], u'time': []}}, u'click': {u'state': {u'target': [u'7', u'12', u'13'], u'time': [3542, 4192, 4912]}, u'edge': {u'target': [], u'time': []}}, u'mouseout': {u'state': {u'target': [], u'time': []}, u'edge': {u'target': [], u'time': []}}}",,,"[1598, 3708, 122]",52.0,,559836,12.0,2.0,mouselab-mdp,,7
"[13307, 14075, 14979]","[u'right', u'right', u'down']",,,[],[],,"[u'1', 2, 6, 11]",[],[],"{u'mouseover': {u'state': {u'target': [], u'time': []}, u'edge': {u'target': [], u'time': []}}, u'click': {u'state': {u'target': [u'3', u'4', u'2', u'5', u'9', u'7', u'13', u'12', u'17', u'16', u'6', u'10', u'11'], u'time': [1327, 2001, 2617, 3279, 4874, 5739, 6435, 7029, 8143, 8849, 10347, 11373, 12117]}, u'edge': {u'target': [], u'time': []}}, u'mouseout': {u'state': {u'target': [], u'time': []}, u'edge': {u'target': [], u'time': []}}}",,,"[13307, 281, 418]",44.0,,656966,13.0,6.0,mouselab-mdp,,7
"[11589, 12325, 13133]","[u'left', u'left', u'up']",,,[],[],,"[u'1', 4, 8, 14]",[],[],"{u'mouseover': {u'state': {u'target': [], u'time': []}, u'edge': {u'target': [], u'time': []}}, u'click': {u'state': {u'target': [u'2', u'3', u'4', u'5', u'6', u'10', u'8', u'14', u'15', u'7', u'9'], u'time': [960, 1968, 2632, 3178, 4029, 4676, 6239, 6857, 7409, 8147, 9333]}, u'edge': {u'target': [], u'time': []}}, u'mouseout': {u'state': {u'target': [], u'time': []}, u'edge': {u'target': [], u'time': []}}}",,,"[11589, 234, 310]",17.0,,782395,14.0,7.0,mouselab-mdp,,7
"[8484, 9172, 9900]","[u'right', u'right', u'down']",,,[],[],,"[u'1', 2, 6, 11]",[],[],"{u'mouseover': {u'state': {u'target': [], u'time': []}, u'edge': {u'target': [], u'time': []}}, u'click': {u'state': {u'target': [u'3', u'4', u'2', u'5', u'9', u'17', u'16', u'6', u'10', u'11'], u'time': [1276, 2019, 2710, 3279, 4040, 4591, 5313, 6220, 6917, 7773]}, u'edge': {u'target': [], u'time': []}}, u'mouseout': {u'state': {u'target': [], u'time': []}, u'edge': {u'target': [], u'time': []}}}",,,"[8484, 179, 241]",48.0,,847508,15.0,8.0,mouselab-mdp,,7
"[9287, 9958, 10615]","[u'right', u'right', u'down']",,,[],[],,"[u'1', 2, 6, 11]",[],[],"{u'mouseover': {u'state': {u'target': [], u'time': []}, u'edge': {u'target': [], u'time': []}}, u'click': {u'state': {u'target': [u'3', u'4', u'5', u'2', u'9', u'7', u'6', u'11', u'10'], u'time': [1255, 2336, 2944, 3578, 4396, 5244, 7017, 7795, 8580]}, u'edge': {u'target': [], u'time': []}}, u'mouseout': {u'state': {u'target': [], u'time': []}, u'edge': {u'target': [], u'time': []}}}",,,"[9287, 180, 170]",19.0,,921035,16.0,11.0,mouselab-mdp,,7
"[5488, 8971, 9683]","[u'up', u'up', u'right']",,,"[1, 0, 0]","[True, True, True]",,"[u'1', 3, 7, 13]","[True, False, False]","[False, False, False]","{u'mouseover': {u'state': {u'target': [], u'time': []}, u'edge': {u'target': [], u'time': []}}, u'click': {u'state': {u'target': [u'3', u'7', u'13', u'12'], u'time': [806, 1515, 2113, 3068]}, u'edge': {u'target': [], u'time': []}}, u'mouseout': {u'state': {u'target': [], u'time': []}, u'edge': {u'target': [], u'time': []}}}",,,"[5486, 552, 2]",36.0,,176883,1.0,1.0,mouselab-mdp,,8
"[7838, 10138, 10966]","[u'left', u'left', u'down']",,,"[0, 0, 7]","[True, True, True]",,"[u'1', 4, 8, 15]","[False, False, True]","[False, False, False]","{u'mouseover': {u'state': {u'target': [], u'time': []}, u'edge': {u'target': [], u'time': []}}, u'click': {u'state': {u'target': [u'3', u'2', u'5', u'4', u'7', u'8'], u'time': [1088, 1886, 2737, 3624, 5409, 6669]}, u'edge': {u'target': [], u'time': []}}, u'mouseout': {u'state': {u'target': [], u'time': []}, u'edge': {u'target': [], u'time': []}}}",,,"[7838, 3, 2]",24.0,,246524,2.0,0.0,mouselab-mdp,,8
"[15585, 23855, 24937]","[u'down', u'down', u'right']",,,"[5, 0, 0]","[True, True, True]",,"[u'1', 5, 9, 17]","[True, False, False]","[False, False, False]","{u'mouseover': {u'state': {u'target': [], u'time': []}, u'edge': {u'target': [], u'time': []}}, u'click': {u'state': {u'target': [u'4', u'3', u'7', u'13', u'12', u'2', u'5', u'9', u'17', u'16'], u'time': [4331, 5229, 7505, 8167, 8985, 10819, 11507, 12683, 13409, 14256]}, u'edge': {u'target': [], u'time': []}}, u'mouseout': {u'state': {u'target': [], u'time': []}, u'edge': {u'target': [], u'time': []}}}",,,"[15584, 960, 428]",14.0,,300198,3.0,6.0,mouselab-mdp,,8
"[6552, 9917, 10721]","[u'up', u'up', u'right']",,,"[1, 0, 0]","[True, True, True]",,"[u'1', 3, 7, 13]","[True, False, False]","[False, False, False]","{u'mouseover': {u'state': {u'target': [], u'time': []}, u'edge': {u'target': [], u'time': []}}, u'click': {u'state': {u'target': [u'3', u'7', u'13'], u'time': [2332, 3984, 5353]}, u'edge': {u'target': [], u'time': []}}, u'mouseout': {u'state': {u'target': [], u'time': []}, u'edge': {u'target': [], u'time': []}}}",,,"[6552, 411, 1]",35.0,,359313,4.0,15.0,mouselab-mdp,,8
"[10955, 20473, 59447]","[u'down', u'down', u'left']",,,"[4, 4, 0]","[True, True, True]",,"[u'1', 5, 9, 16]","[True, False, False]","[False, True, False]","{u'mouseover': {u'state': {u'target': [], u'time': []}, u'edge': {u'target': [], u'time': []}}, u'click': {u'state': {u'target': [u'3', u'7', u'2', u'5', u'4', u'9', u'17', u'16'], u'time': [4355, 5194, 5899, 7155, 8258, 17524, 18219, 19016]}, u'edge': {u'target': [], u'time': []}}, u'mouseout': {u'state': {u'target': [], u'time': []}, u'edge': {u'target': [], u'time': []}}}",,,"[10955, 3465, 33823]",17.0,,422638,5.0,8.0,mouselab-mdp,,8
"[5855, 24852, 30078]","[u'left', u'left', u'down']",,,"[7, 4, 0]","[True, True, True]",,"[u'1', 4, 8, 15]","[True, False, False]","[False, True, False]","{u'mouseover': {u'state': {u'target': [], u'time': []}, u'edge': {u'target': [], u'time': []}}, u'click': {u'state': {u'target': [u'3', u'2', u'5', u'4', u'14', u'15', u'8'], u'time': [2211, 3031, 3972, 4678, 15808, 17350, 23452]}, u'edge': {u'target': [], u'time': []}}, u'mouseout': {u'state': {u'target': [], u'time': []}, u'edge': {u'target': [], u'time': []}}}",,,"[5854, 9975, 18]",10.0,,486695,6.0,10.0,mouselab-mdp,,8
"[5905, 132222, 143270]","[u'right', u'right', u'down']",,,"[6, 4, 0]","[True, True, True]",,"[u'1', 2, 6, 11]","[True, False, False]","[False, True, False]","{u'mouseover': {u'state': {u'target': [], u'time': []}, u'edge': {u'target': [], u'time': []}}, u'click': {u'state': {u'target': [u'4', u'3', u'5', u'2', u'6', u'10', u'11'], u'time': [2578, 3318, 4000, 4797, 13920, 15647, 16342]}, u'edge': {u'target': [], u'time': []}}, u'mouseout': {u'state': {u'target': [], u'time': []}, u'edge': {u'target': [], u'time': []}}}",,,"[5904, 118415, 5850]",-19.0,,635081,7.0,7.0,mouselab-mdp,,8
"[1612, 42415, 52180]","[u'down', u'down', u'right']",,,"[26, 3, 0]","[True, True, True]",,"[u'1', 5, 9, 17]","[True, False, False]","[False, True, False]","{u'mouseover': {u'state': {u'target': [], u'time': []}, u'edge': {u'target': [], u'time': []}}, u'click': {u'state': {u'target': [u'9', u'16', u'17'], u'time': [40489, 41387, 51336]}, u'edge': {u'target': [], u'time': []}}, u'mouseout': {u'state': {u'target': [], u'time': []}, u'edge': {u'target': [], u'time': []}}}",,,"[1612, 13305, 5671]",31.0,,714433,8.0,4.0,mouselab-mdp,,8
"[12371, 14701, 15479]","[u'up', u'up', u'right']",,,"[0, 0, 0]","[True, True, True]",,"[u'1', 3, 7, 13]","[False, False, False]","[True, False, False]","{u'mouseover': {u'state': {u'target': [], u'time': []}, u'edge': {u'target': [], u'time': []}}, u'click': {u'state': {u'target': [u'5', u'2', u'3', u'6', u'7', u'12', u'13'], u'time': [2372, 3383, 4346, 6181, 8135, 10096, 11328]}, u'edge': {u'target': [], u'time': []}}, u'mouseout': {u'state': {u'target': [], u'time': []}, u'edge': {u'target': [], u'time': []}}}",,,"[12371, 2, 19]",48.0,,764198,9.0,3.0,mouselab-mdp,,8
"[6784, 8563, 9284]","[u'up', u'up', u'left']",,,"[0, 0, 0]","[True, True, True]",,"[u'1', 3, 7, 12]","[False, False, False]","[False, False, False]","{u'mouseover': {u'state': {u'target': [], u'time': []}, u'edge': {u'target': [], u'time': []}}, u'click': {u'state': {u'target': [u'3', u'7', u'13', u'12'], u'time': [1937, 3236, 4454, 5462]}, u'edge': {u'target': [], u'time': []}}, u'mouseout': {u'state': {u'target': [], u'time': []}, u'edge': {u'target': [], u'time': []}}}",,,"[6783, 3, 6]",43.0,,816453,10.0,5.0,mouselab-mdp,,8
"[3864, 4498, 5021]","[u'up', u'up', u'right']",,,[],[],,"[u'1', 3, 7, 13]",[],[],"{u'mouseover': {u'state': {u'target': [], u'time': []}, u'edge': {u'target': [], u'time': []}}, u'click': {u'state': {u'target': [u'3', u'7', u'13'], u'time': [1294, 2078, 2756]}, u'edge': {u'target': [], u'time': []}}, u'mouseout': {u'state': {u'target': [], u'time': []}, u'edge': {u'target': [], u'time': []}}}",,,"[3864, 138, 28]",52.0,,869195,11.0,2.0,mouselab-mdp,,8
"[7542, 8886, 9495]","[u'up', u'up', u'left']",,,[],[],,"[u'1', 3, 7, 12]",[],[],"{u'mouseover': {u'state': {u'target': [], u'time': []}, u'edge': {u'target': [], u'time': []}}, u'click': {u'state': {u'target': [u'3', u'7', u'12'], u'time': [1124, 2012, 2944]}, u'edge': {u'target': [], u'time': []}}, u'mouseout': {u'state': {u'target': [], u'time': []}, u'edge': {u'target': [], u'time': []}}}",,,"[7542, 839, 100]",49.0,,916733,12.0,12.0,mouselab-mdp,,8
"[9553, 10189, 11191]","[u'down', u'down', u'right']",,,[],[],,"[u'1', 5, 9, 17]",[],[],"{u'mouseover': {u'state': {u'target': [], u'time': []}, u'edge': {u'target': [], u'time': []}}, u'click': {u'state': {u'target': [u'3', u'2', u'5', u'9', u'16', u'17'], u'time': [1889, 3584, 4484, 6069, 6923, 7925]}, u'edge': {u'target': [], u'time': []}}, u'mouseout': {u'state': {u'target': [], u'time': []}, u'edge': {u'target': [], u'time': []}}}",,,"[9553, 142, 494]",45.0,,1015161,13.0,9.0,mouselab-mdp,,8
"[11962, 12550, 13061]","[u'up', u'up', u'left']",,,[],[],,"[u'1', 3, 7, 12]",[],[],"{u'mouseover': {u'state': {u'target': [], u'time': []}, u'edge': {u'target': [], u'time': []}}, u'click': {u'state': {u'target': [u'5', u'2', u'3', u'7', u'12'], u'time': [6365, 7696, 8455, 9342, 10036]}, u'edge': {u'target': [], u'time': []}}, u'mouseout': {u'state': {u'target': [], u'time': []}, u'edge': {u'target': [], u'time': []}}}",,,"[11962, 88, 17]",45.0,,1085882,14.0,13.0,mouselab-mdp,,8
"[15637, 76673, 77498]","[u'down', u'down', u'right']",,,[],[],,"[u'1', 5, 9, 17]",[],[],"{u'mouseover': {u'state': {u'target': [], u'time': []}, u'edge': {u'target': [], u'time': []}}, u'click': {u'state': {u'target': [u'4', u'3', u'2', u'5', u'9', u'17', u'7', u'6', u'8'], u'time': [3126, 3976, 4871, 5563, 7012, 7788, 8717, 10998, 11832]}, u'edge': {u'target': [], u'time': []}}, u'mouseout': {u'state': {u'target': [], u'time': []}, u'edge': {u'target': [], u'time': []}}}",,,"[15637, 60531, 313]",-18.0,,1172006,15.0,11.0,mouselab-mdp,,8
"[6874, 7410, 8225]","[u'up', u'up', u'left']",,,[],[],,"[u'1', 3, 7, 12]",[],[],"{u'mouseover': {u'state': {u'target': [], u'time': []}, u'edge': {u'target': [], u'time': []}}, u'click': {u'state': {u'target': [u'3', u'2', u'5', u'7', u'13'], u'time': [1688, 2453, 3057, 5229, 5903]}, u'edge': {u'target': [], u'time': []}}, u'mouseout': {u'state': {u'target': [], u'time': []}, u'edge': {u'target': [], u'time': []}}}",,,"[6874, 45, 305]",47.0,,1221605,16.0,14.0,mouselab-mdp,,8
"[7004, 8002, 10002]","[u'left', u'left', u'up']",,,[],[],,"[u'1', 4, 8, 14]",[],[],"{u'mouseover': {u'state': {u'target': [], u'time': []}, u'edge': {u'target': [], u'time': []}}, u'click': {u'state': {u'target': [2, 3, 4, 7, 5, 8, 15], u'time': [1019, 2013, 3012, 4017, 5040, 6026, 9014]}, u'edge': {u'target': [], u'time': []}}, u'mouseout': {u'state': {u'target': [], u'time': []}, u'edge': {u'target': [], u'time': []}}}",,,[],55.0,,135856,1.0,0.0,mouselab-mdp,,9
"[6002, 7003, 9002]","[u'up', u'up', u'left']",,,[],[],,"[u'1', 3, 7, 12]",[],[],"{u'mouseover': {u'state': {u'target': [], u'time': []}, u'edge': {u'target': [], u'time': []}}, u'click': {u'state': {u'target': [2, 3, 6, 4, 7, 12], u'time': [1008, 2008, 3040, 4039, 5010, 8010]}, u'edge': {u'target': [], u'time': []}}, u'mouseout': {u'state': {u'target': [], u'time': []}, u'edge': {u'target': [], u'time': []}}}",,,[],41.0,,154417,2.0,5.0,mouselab-mdp,,9
"[5002, 6004, 8001]","[u'up', u'up', u'left']",,,[],[],,"[u'1', 3, 7, 12]",[],[],"{u'mouseover': {u'state': {u'target': [], u'time': []}, u'edge': {u'target': [], u'time': []}}, u'click': {u'state': {u'target': [2, 3, 4, 7, 12], u'time': [1008, 2020, 3037, 4035, 7019]}, u'edge': {u'target': [], u'time': []}}, u'mouseout': {u'state': {u'target': [], u'time': []}, u'edge': {u'target': [], u'time': []}}}",,,[],47.0,,168797,3.0,14.0,mouselab-mdp,,9
"[4000, 5001, 7001]","[u'right', u'right', u'down']",,,[],[],,"[u'1', 2, 6, 11]",[],[],"{u'mouseover': {u'state': {u'target': [], u'time': []}, u'edge': {u'target': [], u'time': []}}, u'click': {u'state': {u'target': [2, 3, 6, 11], u'time': [1011, 2030, 3009, 6009]}, u'edge': {u'target': [], u'time': []}}, u'mouseout': {u'state': {u'target': [], u'time': []}, u'edge': {u'target': [], u'time': []}}}",,,[],53.0,,181258,4.0,6.0,mouselab-mdp,,9
"[6001, 7000, 9001]","[u'up', u'up', u'right']",,,[],[],,"[u'1', 3, 7, 13]",[],[],"{u'mouseover': {u'state': {u'target': [], u'time': []}, u'edge': {u'target': [], u'time': []}}, u'click': {u'state': {u'target': [2, 6, 3, 4, 7, 12], u'time': [1009, 2010, 3039, 4020, 5030, 8022]}, u'edge': {u'target': [], u'time': []}}, u'mouseout': {u'state': {u'target': [], u'time': []}, u'edge': {u'target': [], u'time': []}}}",,,[],49.0,,194294,5.0,3.0,mouselab-mdp,,9
"[6003, 7002, 9002]","[u'right', u'right', u'down']",,,[],[],,"[u'1', 2, 6, 11]",[],[],"{u'mouseover': {u'state': {u'target': [], u'time': []}, u'edge': {u'target': [], u'time': []}}, u'click': {u'state': {u'target': [2, 3, 4, 5, 6, 11], u'time': [1014, 2046, 3020, 4055, 5027, 8027]}, u'edge': {u'target': [], u'time': []}}, u'mouseout': {u'state': {u'target': [], u'time': []}, u'edge': {u'target': [], u'time': []}}}",,,[],52.0,,208562,6.0,8.0,mouselab-mdp,,9
"[6001, 7003, 9001]","[u'up', u'up', u'left']",,,[],[],,"[u'1', 3, 7, 12]",[],[],"{u'mouseover': {u'state': {u'target': [], u'time': []}, u'edge': {u'target': [], u'time': []}}, u'click': {u'state': {u'target': [2, 3, 4, 5, 7, 12], u'time': [1009, 2037, 3010, 4016, 5012, 8054]}, u'edge': {u'target': [], u'time': []}}, u'mouseout': {u'state': {u'target': [], u'time': []}, u'edge': {u'target': [], u'time': []}}}",,,[],43.0,,223504,7.0,15.0,mouselab-mdp,,9
"[5002, 6001, 9001]","[u'right', u'right', u'up']",,,[],[],,"[u'1', 2, 6, 10]",[],[],"{u'mouseover': {u'state': {u'target': [], u'time': []}, u'edge': {u'target': [], u'time': []}}, u'click': {u'state': {u'target': [2, 3, 4, 6, 11, 10], u'time': [1008, 2066, 3042, 4008, 7026, 8011]}, u'edge': {u'target': [], u'time': []}}, u'mouseout': {u'state': {u'target': [], u'time': []}, u'edge': {u'target': [], u'time': []}}}",,,[],47.0,,239880,8.0,10.0,mouselab-mdp,,9
"[7000, 8036, 10000]","[u'down', u'down', u'right']",,,[],[],,"[u'1', 5, 9, 17]",[],[],"{u'mouseover': {u'state': {u'target': [], u'time': []}, u'edge': {u'target': [], u'time': []}}, u'click': {u'state': {u'target': [2, 3, 4, 8, 5, 9, 16], u'time': [1008, 2008, 3007, 4007, 5006, 6006, 9040]}, u'edge': {u'target': [], u'time': []}}, u'mouseout': {u'state': {u'target': [], u'time': []}, u'edge': {u'target': [], u'time': []}}}",,,[],44.0,,255398,9.0,9.0,mouselab-mdp,,9
"[11001, 12000, 14003]","[u'right', u'right', u'down']",,,[],[],,"[u'1', 2, 6, 11]",[],[],"{u'mouseover': {u'state': {u'target': [], u'time': []}, u'edge': {u'target': [], u'time': []}}, u'click': {u'state': {u'target': [2, 3, 4, 5, 7, 6, 9, 8, 16, 17, 11], u'time': [1009, 2008, 3028, 4024, 5045, 6005, 7027, 8044, 9027, 10006, 13025]}, u'edge': {u'target': [], u'time': []}}, u'mouseout': {u'state': {u'target': [], u'time': []}, u'edge': {u'target': [], u'time': []}}}",,,[],17.0,,273637,10.0,11.0,mouselab-mdp,,9
"[13052, 13859, 16479]","[u'up', u'up', u'right']",,,[],[],,"[u'1', 3, 7, 13]",[],[],"{u'mouseover': {u'state': {u'target': [], u'time': []}, u'edge': {u'target': [], u'time': []}}, u'click': {u'state': {u'target': [u'2', u'3', u'4', u'7', u'13'], u'time': [3068, 4337, 6102, 9456, 15529]}, u'edge': {u'target': [], u'time': []}}, u'mouseout': {u'state': {u'target': [], u'time': []}, u'edge': {u'target': [], u'time': []}}}",,,"[13050, 287, 2102]",35.0,,327691,11.0,1.0,mouselab-mdp,,9
"[17216, 17983, 20309]","[u'up', u'up', u'right']",,,[],[],,"[u'1', 3, 7, 13]",[],[],"{u'mouseover': {u'state': {u'target': [], u'time': []}, u'edge': {u'target': [], u'time': []}}, u'click': {u'state': {u'target': [u'4', u'8', u'5', u'2', u'6', u'3', u'7', u'13'], u'time': [2127, 5823, 7036, 8742, 10400, 13765, 15935, 19515]}, u'edge': {u'target': [], u'time': []}}, u'mouseout': {u'state': {u'target': [], u'time': []}, u'edge': {u'target': [], u'time': []}}}",,,"[17216, 245, 1817]",47.0,,379960,12.0,4.0,mouselab-mdp,,9
"[13332, 16816, 17739]","[u'up', u'up', u'left']",,,[],[],,"[u'1', 3, 7, 12]",[],[],"{u'mouseover': {u'state': {u'target': [], u'time': []}, u'edge': {u'target': [], u'time': []}}, u'click': {u'state': {u'target': [u'2', u'3', u'4', u'8', u'7', u'13'], u'time': [1218, 2446, 5133, 7300, 9940, 15133]}, u'edge': {u'target': [], u'time': []}}, u'mouseout': {u'state': {u'target': [], u'time': []}, u'edge': {u'target': [], u'time': []}}}",,,"[13332, 2963, 406]",44.0,,428900,13.0,13.0,mouselab-mdp,,9
"[6886, 7744, 13919]","[u'up', u'up', u'left']",,,[],[],,"[u'1', 3, 7, 12]",[],[],"{u'mouseover': {u'state': {u'target': [], u'time': []}, u'edge': {u'target': [], u'time': []}}, u'click': {u'state': {u'target': [u'3', u'7', u'13', u'12'], u'time': [1398, 5371, 9647, 13086]}, u'edge': {u'target': [], u'time': []}}, u'mouseout': {u'state': {u'target': [], u'time': []}, u'edge': {u'target': [], u'time': []}}}",,,"[6885, 344, 5638]",48.0,,480650,14.0,12.0,mouselab-mdp,,9
"[10753, 11577, 14096]","[u'up', u'up', u'right']",,,[],[],,"[u'1', 3, 7, 13]",[],[],"{u'mouseover': {u'state': {u'target': [], u'time': []}, u'edge': {u'target': [], u'time': []}}, u'click': {u'state': {u'target': [u'2', u'6', u'3', u'4', u'7', u'13'], u'time': [1799, 4069, 5577, 8683, 9992, 13110]}, u'edge': {u'target': [], u'time': []}}, u'mouseout': {u'state': {u'target': [], u'time': []}, u'edge': {u'target': [], u'time': []}}}",,,"[10753, 308, 1986]",49.0,,529331,15.0,2.0,mouselab-mdp,,9
"[10893, 13791, 14532]","[u'left', u'left', u'up']",,,[],[],,"[u'1', 4, 8, 14]",[],[],"{u'mouseover': {u'state': {u'target': [], u'time': []}, u'edge': {u'target': [], u'time': []}}, u'click': {u'state': {u'target': [u'3', u'4', u'2', u'6', u'8', u'14'], u'time': [2520, 3744, 4846, 6766, 8339, 12925]}, u'edge': {u'target': [], u'time': []}}, u'mouseout': {u'state': {u'target': [], u'time': []}, u'edge': {u'target': [], u'time': []}}}",,,"[10893, 2388, 230]",22.0,,577841,16.0,7.0,mouselab-mdp,,9
"[11829, 19576, 26800]","[u'up', u'up', u'left']",,,"[3, 0, 1]","[True, True, True]",,"[u'1', 3, 7, 12]","[True, False, False]","[False, False, False]","{u'mouseover': {u'state': {u'target': [], u'time': []}, u'edge': {u'target': [], u'time': []}}, u'click': {u'state': {u'target': [u'2', u'3', u'13', u'12'], u'time': [6878, 10267, 23779, 25545]}, u'edge': {u'target': [], u'time': []}}, u'mouseout': {u'state': {u'target': [], u'time': []}, u'edge': {u'target': [], u'time': []}}}",,,"[11829, 3039, 6406]",46.0,,181075,1.0,13.0,mouselab-mdp,,10
"[15824, 22135, 29950]","[u'down', u'down', u'left']",,,"[3, 0, 1]","[True, True, True]",,"[u'1', 5, 9, 16]","[True, False, False]","[False, False, False]","{u'mouseover': {u'state': {u'target': [], u'time': []}, u'edge': {u'target': [], u'time': []}}, u'click': {u'state': {u'target': [u'3', u'4', u'5', u'2', u'17', u'16'], u'time': [3412, 11374, 13274, 14617, 24807, 26293]}, u'edge': {u'target': [], u'time': []}}, u'mouseout': {u'state': {u'target': [], u'time': []}, u'edge': {u'target': [], u'time': []}}}",,,"[15824, 1267, 7061]",-5.0,,248168,2.0,1.0,mouselab-mdp,,10
"[9248, 14997, 18418]","[u'up', u'up', u'left']",,,"[3, 0, 1]","[True, True, True]",,"[u'1', 3, 7, 12]","[False, False, False]","[False, False, False]","{u'mouseover': {u'state': {u'target': [], u'time': []}, u'edge': {u'target': [], u'time': []}}, u'click': {u'state': {u'target': [u'2', u'4', u'3', u'5', u'7', u'13', u'12'], u'time': [2217, 3711, 5196, 6166, 7798, 16846, 17650]}, u'edge': {u'target': [], u'time': []}}, u'mouseout': {u'state': {u'target': [], u'time': []}, u'edge': {u'target': [], u'time': []}}}",,,"[9248, 739, 2581]",42.0,,305073,3.0,15.0,mouselab-mdp,,10
"[10832, 17259, 20984]","[u'up', u'up', u'right']",,,"[3, 0, 1]","[True, True, True]",,"[u'1', 3, 7, 13]","[False, False, False]","[True, False, False]","{u'mouseover': {u'state': {u'target': [], u'time': []}, u'edge': {u'target': [], u'time': []}}, u'click': {u'state': {u'target': [u'2', u'5', u'4', u'3', u'6', u'7', u'12', u'13'], u'time': [1431, 2390, 3130, 3751, 4969, 6552, 8622, 9492]}, u'edge': {u'target': [], u'time': []}}, u'mouseout': {u'state': {u'target': [], u'time': []}, u'edge': {u'target': [], u'time': []}}}",,,"[10832, 1127, 3013]",47.0,,361155,4.0,4.0,mouselab-mdp,,10
"[19545, 25546, 27226]","[u'left', u'left', u'up']",,,"[3, 0, 1]","[True, True, True]",,"[u'1', 4, 8, 14]","[False, False, False]","[True, False, False]","{u'mouseover': {u'state': {u'target': [], u'time': []}, u'edge': {u'target': [], u'time': []}}, u'click': {u'state': {u'target': [u'3', u'2', u'5', u'4', u'7', u'8', u'14', u'15', u'13', u'12'], u'time': [5790, 6408, 7030, 7740, 10179, 10924, 12784, 13914, 17325, 17981]}, u'edge': {u'target': [], u'time': []}}, u'mouseout': {u'state': {u'target': [], u'time': []}, u'edge': {u'target': [], u'time': []}}}",,,"[19545, 610, 1041]",52.0,,416144,5.0,0.0,mouselab-mdp,,10
"[9848, 15750, 17988]","[u'up', u'up', u'left']",,,"[3, 0, 1]","[True, True, True]",,"[u'1', 3, 7, 12]","[False, False, False]","[False, False, False]","{u'mouseover': {u'state': {u'target': [], u'time': []}, u'edge': {u'target': [], u'time': []}}, u'click': {u'state': {u'target': [u'2', u'4', u'5', u'3', u'9', u'7', u'13', u'12'], u'time': [1298, 2242, 3159, 3965, 5629, 6588, 7508, 8288]}, u'edge': {u'target': [], u'time': []}}, u'mouseout': {u'state': {u'target': [], u'time': []}, u'edge': {u'target': [], u'time': []}}}",,,"[9848, 740, 1545]",39.0,,475779,6.0,5.0,mouselab-mdp,,10
"[11572, 17754, 19544]","[u'right', u'right', u'down']",,,"[3, 0, 1]","[True, True, True]",,"[u'1', 2, 6, 11]","[False, False, False]","[True, False, False]","{u'mouseover': {u'state': {u'target': [], u'time': []}, u'edge': {u'target': [], u'time': []}}, u'click': {u'state': {u'target': [u'3', u'5', u'2', u'4', u'9', u'6', u'17', u'11'], u'time': [1302, 2272, 3100, 3847, 4901, 6066, 8010, 9912]}, u'edge': {u'target': [], u'time': []}}, u'mouseout': {u'state': {u'target': [], u'time': []}, u'edge': {u'target': [], u'time': []}}}",,,"[11572, 758, 1025]",50.0,,530265,7.0,8.0,mouselab-mdp,,10
"[18407, 24678, 26378]","[u'right', u'right', u'down']",,,"[3, 0, 1]","[True, True, True]",,"[u'1', 2, 6, 11]","[False, False, False]","[True, False, False]","{u'mouseover': {u'state': {u'target': [], u'time': []}, u'edge': {u'target': [], u'time': []}}, u'click': {u'state': {u'target': [u'2', u'4', u'3', u'5', u'9', u'7', u'13', u'17', u'16', u'12', u'6', u'11'], u'time': [678, 1707, 2214, 2945, 4284, 4934, 6056, 6887, 7897, 9038, 14785, 17080]}, u'edge': {u'target': [], u'time': []}}, u'mouseout': {u'state': {u'target': [], u'time': []}, u'edge': {u'target': [], u'time': []}}}",,,"[18407, 772, 1050]",45.0,,590260,8.0,6.0,mouselab-mdp,,10
"[12263, 18016, 19584]","[u'up', u'up', u'left']",,,"[3, 0, 1]","[True, True, True]",,"[u'1', 3, 7, 12]","[False, False, False]","[True, False, False]","{u'mouseover': {u'state': {u'target': [], u'time': []}, u'edge': {u'target': [], u'time': []}}, u'click': {u'state': {u'target': [u'2', u'4', u'5', u'3', u'7', u'12', u'13'], u'time': [1335, 2195, 2872, 3622, 5302, 6422, 11081]}, u'edge': {u'target': [], u'time': []}}, u'mouseout': {u'state': {u'target': [], u'time': []}, u'edge': {u'target': [], u'time': []}}}",,,"[12263, 584, 823]",45.0,,646464,9.0,14.0,mouselab-mdp,,10
"[17808, 23598, 25969]","[u'right', u'right', u'down']",,,"[3, 0, 1]","[True, True, True]",,"[u'1', 2, 6, 11]","[False, False, False]","[True, False, False]","{u'mouseover': {u'state': {u'target': [], u'time': []}, u'edge': {u'target': [], u'time': []}}, u'click': {u'state': {u'target': [u'2', u'5', u'4', u'3', u'9', u'7', u'6', u'8', u'11', u'10'], u'time': [2068, 2886, 3555, 4153, 6148, 6900, 8103, 9216, 12649, 13468]}, u'edge': {u'target': [], u'time': []}}, u'mouseout': {u'state': {u'target': [], u'time': []}, u'edge': {u'target': [], u'time': []}}}",,,"[17808, 370, 1671]",18.0,,702900,10.0,11.0,mouselab-mdp,,10
"[15980, 17912, 19750]","[u'down', u'down', u'right']",,,[],[],,"[u'1', 5, 9, 17]",[],[],"{u'mouseover': {u'state': {u'target': [], u'time': []}, u'edge': {u'target': [], u'time': []}}, u'click': {u'state': {u'target': [u'2', u'4', u'5', u'3', u'8', u'9', u'17', u'15', u'14', u'16'], u'time': [3317, 4721, 5618, 6328, 7480, 8530, 10386, 11594, 12999, 14719]}, u'edge': {u'target': [], u'time': []}}, u'mouseout': {u'state': {u'target': [], u'time': []}, u'edge': {u'target': [], u'time': []}}}",,,"[15980, 1407, 1329]",41.0,,751864,11.0,9.0,mouselab-mdp,,10
"[11361, 14446, 16084]","[u'up', u'up', u'right']",,,[],[],,"[u'1', 3, 7, 13]",[],[],"{u'mouseover': {u'state': {u'target': [], u'time': []}, u'edge': {u'target': [], u'time': []}}, u'click': {u'state': {u'target': [u'2', u'5', u'4', u'3', u'6', u'7', u'8', u'13'], u'time': [2096, 3106, 3826, 4866, 5786, 6741, 7916, 8947]}, u'edge': {u'target': [], u'time': []}}, u'mouseout': {u'state': {u'target': [], u'time': []}, u'edge': {u'target': [], u'time': []}}}",,,"[11361, 2583, 1122]",47.0,,806399,12.0,2.0,mouselab-mdp,,10
"[12383, 14129, 15139]","[u'up', u'up', u'left']",,,[],[],,"[u'1', 3, 7, 12]",[],[],"{u'mouseover': {u'state': {u'target': [], u'time': []}, u'edge': {u'target': [], u'time': []}}, u'click': {u'state': {u'target': [u'2', u'4', u'5', u'3', u'7', u'13', u'12', u'8', u'14', u'15'], u'time': [881, 1672, 2392, 3114, 4202, 5363, 6202, 7386, 8753, 9621]}, u'edge': {u'target': [], u'time': []}}, u'mouseout': {u'state': {u'target': [], u'time': []}, u'edge': {u'target': [], u'time': []}}}",,,"[12383, 1234, 494]",42.0,,866213,13.0,12.0,mouselab-mdp,,10
"[10386, 12186, 13096]","[u'right', u'right', u'up']",,,[],[],,"[u'1', 2, 6, 10]",[],[],"{u'mouseover': {u'state': {u'target': [], u'time': []}, u'edge': {u'target': [], u'time': []}}, u'click': {u'state': {u'target': [u'2', u'3', u'4', u'5', u'8', u'6', u'9', u'11', u'10'], u'time': [1121, 2257, 3018, 3756, 5021, 5947, 7246, 8210, 9137]}, u'edge': {u'target': [], u'time': []}}, u'mouseout': {u'state': {u'target': [], u'time': []}, u'edge': {u'target': [], u'time': []}}}",,,"[10386, 1279, 389]",44.0,,921320,14.0,10.0,mouselab-mdp,,10
"[9494, 11363, 12304]","[u'up', u'up', u'right']",,,[],[],,"[u'1', 3, 7, 13]",[],[],"{u'mouseover': {u'state': {u'target': [], u'time': []}, u'edge': {u'target': [], u'time': []}}, u'click': {u'state': {u'target': [u'2', u'5', u'4', u'3', u'6', u'7', u'8', u'13'], u'time': [989, 1923, 2576, 3176, 4204, 5066, 5813, 6897]}, u'edge': {u'target': [], u'time': []}}, u'mouseout': {u'state': {u'target': [], u'time': []}, u'edge': {u'target': [], u'time': []}}}",,,"[9494, 1360, 436]",47.0,,969033,15.0,3.0,mouselab-mdp,,10
"[15786, 16882, 17702]","[u'left', u'left', u'up']",,,[],[],,"[u'1', 4, 8, 14]",[],[],"{u'mouseover': {u'state': {u'target': [], u'time': []}, u'edge': {u'target': [], u'time': []}}, u'click': {u'state': {u'target': [u'2', u'3', u'4', u'5', u'6', u'8', u'14', u'7', u'15'], u'time': [2183, 3317, 4342, 4911, 5772, 6612, 7782, 9972, 13258]}, u'edge': {u'target': [], u'time': []}}, u'mouseout': {u'state': {u'target': [], u'time': []}, u'edge': {u'target': [], u'time': []}}}",,,"[15786, 584, 321]",19.0,,1018039,16.0,7.0,mouselab-mdp,,10
"[11004, 12016, 14016]","[u'right', u'right', u'down']",,,[],[],,"[u'1', 2, 6, 11]",[],[],"{u'mouseover': {u'state': {u'target': [], u'time': []}, u'edge': {u'target': [], u'time': []}}, u'click': {u'state': {u'target': [2, 3, 4, 5, 7, 6, 9, 8, 16, 17, 11], u'time': [1009, 2006, 3010, 4018, 5012, 6018, 7021, 8008, 9012, 10006, 13017]}, u'edge': {u'target': [], u'time': []}}, u'mouseout': {u'state': {u'target': [], u'time': []}, u'edge': {u'target': [], u'time': []}}}",,,[],17.0,,209665,1.0,11.0,mouselab-mdp,,11
"[7004, 8012, 10010]","[u'left', u'left', u'up']",,,[],[],,"[u'1', 4, 8, 14]",[],[],"{u'mouseover': {u'state': {u'target': [], u'time': []}, u'edge': {u'target': [], u'time': []}}, u'click': {u'state': {u'target': [2, 3, 4, 7, 5, 8, 15], u'time': [1004, 2004, 3019, 4004, 5005, 6009, 9015]}, u'edge': {u'target': [], u'time': []}}, u'mouseout': {u'state': {u'target': [], u'time': []}, u'edge': {u'target': [], u'time': []}}}",,,[],55.0,,227126,2.0,0.0,mouselab-mdp,,11
"[7003, 8011, 10011]","[u'down', u'down', u'right']",,,[],[],,"[u'1', 5, 9, 17]",[],[],"{u'mouseover': {u'state': {u'target': [], u'time': []}, u'edge': {u'target': [], u'time': []}}, u'click': {u'state': {u'target': [2, 3, 4, 8, 5, 9, 16], u'time': [1005, 2015, 3009, 4020, 5010, 6017, 9005]}, u'edge': {u'target': [], u'time': []}}, u'mouseout': {u'state': {u'target': [], u'time': []}, u'edge': {u'target': [], u'time': []}}}",,,[],44.0,,244241,3.0,9.0,mouselab-mdp,,11
"[5001, 6001, 8001]","[u'up', u'up', u'left']",,,[],[],,"[u'1', 3, 7, 12]",[],[],"{u'mouseover': {u'state': {u'target': [], u'time': []}, u'edge': {u'target': [], u'time': []}}, u'click': {u'state': {u'target': [2, 3, 4, 7, 12], u'time': [1005, 2002, 3004, 4006, 7004]}, u'edge': {u'target': [], u'time': []}}, u'mouseout': {u'state': {u'target': [], u'time': []}, u'edge': {u'target': [], u'time': []}}}",,,[],47.0,,260349,4.0,14.0,mouselab-mdp,,11
"[5004, 6014, 9005]","[u'right', u'right', u'up']",,,[],[],,"[u'1', 2, 6, 10]",[],[],"{u'mouseover': {u'state': {u'target': [], u'time': []}, u'edge': {u'target': [], u'time': []}}, u'click': {u'state': {u'target': [2, 3, 4, 6, 11, 10], u'time': [1006, 2011, 3004, 4007, 7005, 8004]}, u'edge': {u'target': [], u'time': []}}, u'mouseout': {u'state': {u'target': [], u'time': []}, u'edge': {u'target': [], u'time': []}}}",,,[],47.0,,276581,5.0,10.0,mouselab-mdp,,11
"[5001, 6002, 8001]","[u'up', u'up', u'right']",,,[],[],,"[u'1', 3, 7, 13]",[],[],"{u'mouseover': {u'state': {u'target': [], u'time': []}, u'edge': {u'target': [], u'time': []}}, u'click': {u'state': {u'target': [2, 3, 7, 4, 12], u'time': [1005, 2004, 3004, 4005, 7008]}, u'edge': {u'target': [], u'time': []}}, u'mouseout': {u'state': {u'target': [], u'time': []}, u'edge': {u'target': [], u'time': []}}}",,,[],35.0,,286669,6.0,1.0,mouselab-mdp,,11
"[4001, 5000, 7007]","[u'right', u'right', u'down']",,,[],[],,"[u'1', 2, 6, 11]",[],[],"{u'mouseover': {u'state': {u'target': [], u'time': []}, u'edge': {u'target': [], u'time': []}}, u'click': {u'state': {u'target': [2, 3, 6, 11], u'time': [1005, 2008, 3011, 6005]}, u'edge': {u'target': [], u'time': []}}, u'mouseout': {u'state': {u'target': [], u'time': []}, u'edge': {u'target': [], u'time': []}}}",,,[],53.0,,298790,7.0,6.0,mouselab-mdp,,11
"[6001, 7001, 9006]","[u'up', u'up', u'left']",,,[],[],,"[u'1', 3, 7, 12]",[],[],"{u'mouseover': {u'state': {u'target': [], u'time': []}, u'edge': {u'target': [], u'time': []}}, u'click': {u'state': {u'target': [2, 3, 4, 5, 7, 12], u'time': [1007, 2005, 3005, 4005, 5006, 8011]}, u'edge': {u'target': [], u'time': []}}, u'mouseout': {u'state': {u'target': [], u'time': []}, u'edge': {u'target': [], u'time': []}}}",,,[],43.0,,313482,8.0,15.0,mouselab-mdp,,11
"[3005, 4015, 6003]","[u'up', u'up', u'left']",,,[],[],,"[u'1', 3, 7, 12]",[],[],"{u'mouseover': {u'state': {u'target': [], u'time': []}, u'edge': {u'target': [], u'time': []}}, u'click': {u'state': {u'target': [2, 3, 12], u'time': [1007, 2018, 5008]}, u'edge': {u'target': [], u'time': []}}, u'mouseout': {u'state': {u'target': [], u'time': []}, u'edge': {u'target': [], u'time': []}}}",,,[],47.0,,328597,9.0,13.0,mouselab-mdp,,11
"[6010, 7015, 9009]","[u'up', u'up', u'left']",,,[],[],,"[u'1', 3, 7, 12]",[],[],"{u'mouseover': {u'state': {u'target': [], u'time': []}, u'edge': {u'target': [], u'time': []}}, u'click': {u'state': {u'target': [2, 3, 6, 4, 7, 12], u'time': [1005, 2011, 3012, 4018, 5018, 8018]}, u'edge': {u'target': [], u'time': []}}, u'mouseout': {u'state': {u'target': [], u'time': []}, u'edge': {u'target': [], u'time': []}}}",,,[],41.0,,342769,10.0,5.0,mouselab-mdp,,11
"[4379, 6008, 7548]","[u'up', u'up', u'right']",,,[],[],,"[u'1', 3, 7, 13]",[],[],"{u'mouseover': {u'state': {u'target': [], u'time': []}, u'edge': {u'target': [], u'time': []}}, u'click': {u'state': {u'target': [], u'time': []}, u'edge': {u'target': [], u'time': []}}, u'mouseout': {u'state': {u'target': [], u'time': []}, u'edge': {u'target': [], u'time': []}}}",,,"[4379, 1119, 1031]",42.0,,400369,11.0,12.0,mouselab-mdp,,11
"[7728, 8625, 12136]","[u'right', u'right', u'down']",,,[],[],,"[u'1', 2, 6, 11]",[],[],"{u'mouseover': {u'state': {u'target': [], u'time': []}, u'edge': {u'target': [], u'time': []}}, u'click': {u'state': {u'target': [u'2', u'6', u'11'], u'time': [3113, 5688, 10447]}, u'edge': {u'target': [], u'time': []}}, u'mouseout': {u'state': {u'target': [], u'time': []}, u'edge': {u'target': [], u'time': []}}}",,,"[7728, 386, 2999]",55.0,,449117,12.0,8.0,mouselab-mdp,,11
"[6348, 13195, 14757]","[u'right', u'right', u'down']",,,[],[],,"[u'1', 2, 6, 11]",[],[],"{u'mouseover': {u'state': {u'target': [], u'time': []}, u'edge': {u'target': [], u'time': []}}, u'click': {u'state': {u'target': [u'2', u'5', u'3', u'4', u'6', u'11', u'10'], u'time': [1198, 1987, 3072, 4059, 7556, 9730, 10772]}, u'edge': {u'target': [], u'time': []}}, u'mouseout': {u'state': {u'target': [], u'time': []}, u'edge': {u'target': [], u'time': []}}}",,,"[6348, 6342, 1047]",1.0,,496635,13.0,2.0,mouselab-mdp,,11
"[7355, 8246, 11514]","[u'up', u'up', u'right']",,,[],[],,"[u'1', 3, 7, 13]",[],[],"{u'mouseover': {u'state': {u'target': [], u'time': []}, u'edge': {u'target': [], u'time': []}}, u'click': {u'state': {u'target': [u'3', u'5', u'7', u'13'], u'time': [1198, 2539, 5312, 10171]}, u'edge': {u'target': [], u'time': []}}, u'mouseout': {u'state': {u'target': [], u'time': []}, u'edge': {u'target': [], u'time': []}}}",,,"[7355, 380, 2750]",51.0,,544160,14.0,4.0,mouselab-mdp,,11
"[5431, 6348, 8385]","[u'left', u'left', u'up']",,,[],[],,"[u'1', 4, 8, 14]",[],[],"{u'mouseover': {u'state': {u'target': [], u'time': []}, u'edge': {u'target': [], u'time': []}}, u'click': {u'state': {u'target': [u'3', u'4', u'14'], u'time': [796, 1672, 3590]}, u'edge': {u'target': [], u'time': []}}, u'mouseout': {u'state': {u'target': [], u'time': []}, u'edge': {u'target': [], u'time': []}}}",,,"[5431, 404, 1525]",25.0,,592958,15.0,7.0,mouselab-mdp,,11
"[6547, 8636, 11568]","[u'right', u'right', u'down']",,,[],[],,"[u'1', 2, 6, 11]",[],[],"{u'mouseover': {u'state': {u'target': [], u'time': []}, u'edge': {u'target': [], u'time': []}}, u'click': {u'state': {u'target': [u'2', u'10'], u'time': [923, 2708]}, u'edge': {u'target': [], u'time': []}}, u'mouseout': {u'state': {u'target': [], u'time': []}, u'edge': {u'target': [], u'time': []}}}",,,"[6547, 1571, 2422]",6.0,,642245,16.0,3.0,mouselab-mdp,,11
"[12068, 14398, 15927]","[u'up', u'up', u'left']",,,"[0, 0, 0]","[True, True, True]",,"[u'1', 3, 7, 12]","[False, False, False]","[False, False, False]","{u'mouseover': {u'state': {u'target': [], u'time': []}, u'edge': {u'target': [], u'time': []}}, u'click': {u'state': {u'target': [u'3', u'7', u'12'], u'time': [5222, 7600, 8205]}, u'edge': {u'target': [], u'time': []}}, u'mouseout': {u'state': {u'target': [], u'time': []}, u'edge': {u'target': [], u'time': []}}}",,,"[12068, 2, 746]",44.0,,124524,1.0,5.0,mouselab-mdp,,12
"[12421, 15702, 16529]","[u'up', u'up', u'left']",,,"[0, 0, 0]","[True, True, True]",,"[u'1', 3, 7, 12]","[False, False, False]","[True, False, False]","{u'mouseover': {u'state': {u'target': [], u'time': []}, u'edge': {u'target': [], u'time': []}}, u'click': {u'state': {u'target': [u'5', u'2', u'4', u'8', u'15', u'14', u'6', u'10', u'12', u'3', u'7'], u'time': [2065, 3040, 4541, 5375, 5952, 6792, 8089, 8870, 9722, 10351, 11016]}, u'edge': {u'target': [], u'time': []}}, u'mouseout': {u'state': {u'target': [], u'time': []}, u'edge': {u'target': [], u'time': []}}}",,,"[12421, 2, 93]",41.0,,174732,2.0,14.0,mouselab-mdp,,12
