action_times,actions,button_pressed,correct,delays,information_used_correctly,key_press,path,planned_too_little,planned_too_much,queries,questions,responses,rt,score,stimulus,time_elapsed,trial_index,trial_i,trial_type,view_history,pid
,,,,,,32.0,,,,,,,5584,,,351846,,,text,,1
,,,,,,32.0,,,,,,,4470,,,722197,,,text,,2
,,,,,,32.0,,,,,,,4729,,,894380,,,text,,3
,,,,,,32.0,,,,,,,3518,,,244612,,,text,,4
,,,,,,32.0,,,,,,,7792,,,523738,,,text,,5
,,,,,,32.0,,,,,,,3820,,,792797,,,text,,6
,,,,,,32.0,,,,,,,1084,,,393635,,,text,,7
,,,,,,32.0,,,,,,,4237,,,821695,,,text,,8
,,,,,,32.0,,,,,,,3197,,,277843,,,text,,9
,,,,,,32.0,,,,,,,5707,,,349493,,,text,,11
,,,,,,32.0,,,,,,,2062,,,676276,,,text,,12
,,,,,,32.0,,,,,,,43204,,,550481,,,text,,13
,,,,,,32.0,,,,,,,6279,,,364237,,,text,,15
,,,,,,32.0,,,,,,,5258,,,1213182,,,text,,18
,,,,,,32.0,,,,,,,56623,,,940242,,,text,,19
,,,,,,32.0,,,,,,,3836,,,266471,,,text,,20
,,,,,,32.0,,,,,,,5700,,,1295358,,,text,,21
,,,,,,32.0,,,,,,,8930,,,806496,,,text,,22
,,,,,,32.0,,,,,,,1954,,,319619,,,text,,24
,,,,,,32.0,,,,,,,7622,,,848693,,,text,,25
,,,,,,32.0,,,,,,,10743,,,382008,,,text,,27
,,,,,,32.0,,,,,,,4827,,,266237,,,text,,28
,,,,,,32.0,,,,,,,7666,,,791409,,,text,,31
,,,,,,32.0,,,,,,,3622,,,965467,,,text,,33
,,,,,,32.0,,,,,,,3060,,,259075,,,text,,37
,,,,,,32.0,,,,,,,2707,,,223618,,,text,,38
,,,,,,32.0,,,,,,,7622,,,414402,,,text,,39
,,,,,,32.0,,,,,,,9530,,,873566,,,text,,40
,,,,,,32.0,,,,,,,4510,,,366448,,,text,,46
,,,,,,32.0,,,,,,,3981,,,350675,,,text,,47
,,,,,,32.0,,,,,,,6833,,,827495,,,text,,48
,,,,,,32.0,,,,,,,6429,,,329943,,,text,,49
,,,,,,32.0,,,,,,,4199,,,338088,,,text,,50
,,,,,,32.0,,,,,,,4481,,,244305,,,text,,51
,,,,,,32.0,,,,,,,27985,,,1217672,,,text,,52
,,,,,,32.0,,,,,,,6007,,,336633,,,text,,53
,,,,,,32.0,,,,,,,9705,,,1986399,,,text,,55
,,,,,,32.0,,,,,,,7103,,,788858,,,text,,56
,,,,,,32.0,,,,,,,9279,,,938133,,,text,,57
,,,,,,32.0,,,,,,,6281,,,1899095,,,text,,58
,,,,,,32.0,,,,,,,3061,,,303685,,,text,,61
,,,,,,32.0,,,,,,,5361,,,273864,,,text,,62
,,,,,,32.0,,,,,,,5008,,,376582,,,text,,64
,,,,,,32.0,,,,,,,6803,,,1155446,,,text,,66
,,,,,,32.0,,,,,,,4032,,,794017,,,text,,68
,,,,,,32.0,,,,,,,2127,,,1898864,,,text,,69
,,,,,,32.0,,,,,,,4739,,,377208,,,text,,70
,,,,,,32.0,,,,,,,2019,,,214982,,,text,,73
,,,,,,32.0,,,,,,,3916,,,967434,,,text,,74
,,,,,,32.0,,,,,,,3531,,,224233,,,text,,75
,,,,,,32.0,,,,,,,1696,,,695951,,,text,,76
,,,,,,32.0,,,,,,,5281,,,1786004,,,text,,78
,,,,,,32.0,,,,,,,9134,,,881785,,,text,,79
,,,,,,32.0,,,,,,,33290,,,662269,,,text,,80
,,,,,,32.0,,,,,,,3525,,,344638,,,text,,82
,,,,,,32.0,,,,,,,6544,,,358270,,,text,,83
,,,,,,32.0,,,,,,,6081,,,325837,,,text,,84
,,,,,,32.0,,,,,,,5617,,,686964,,,text,,87
,,,,,,32.0,,,,,,,6289,,,381321,,,text,,88
,,,,,,32.0,,,,,,,8834,,,940606,,,text,,89
,,,,,,32.0,,,,,,,6875,,,877997,,,text,,92
,,,,,,32.0,,,,,,,3584,,,706343,,,text,,93
,,,,,,32.0,,,,,,,7074,,,880038,,,text,,97
,,,,,,32.0,,,,,,,4556,,,242606,,,text,,98
,,,,,,32.0,,,,,,,2694,,,762866,,,text,,101
,,,,,,32.0,,,,,,,6757,,,873740,,,text,,103
,,,,,,32.0,,,,,,,4359,,,307244,,,text,,104
,,,,,,32.0,,,,,,,2198,,,282713,,,text,,105
,,,,,,32.0,,,,,,,6957,,,743989,,,text,,107
,,,,,,32.0,,,,,,,5351,,,740445,,,text,,109
,,,,,,32.0,,,,,,,2373,,,887909,,,text,,110
,,,,,,32.0,,,,,,,4602,,,966728,,,text,,112
,,,,,,32.0,,,,,,,1965,,,910027,,,text,,113
,,,,,,32.0,,,,,,,9488,,,1050152,,,text,,115
,,,,,,32.0,,,,,,,7362,,,874116,,,text,,117
,,,,,,32.0,,,,,,,9523,,,463986,,,text,,118
,,,,,,32.0,,,,,,,3613,,,323329,,,text,,119
,,,,,,32.0,,,,,,,6173,,,968438,,,text,,120
,,,,,,32.0,,,,,,,4585,,,240096,,,text,,121
,,,,,,32.0,,,,,,,3949,,,271814,,,text,,122
,,,,,,32.0,,,,,,,8203,,,433297,,,text,,124
,,,,,,32.0,,,,,,,6384,,,1054084,,,text,,127
,,,,,,32.0,,,,,,,6777,,,710200,,,text,,128
,,,,,,32.0,,,,,,,3324,,,398534,,,text,,132
,,,,,,32.0,,,,,,,6099,,,791401,,,text,,134
,,,,,,32.0,,,,,,,1974,,,256405,,,text,,135
,,,,,,32.0,,,,,,,4539,,,301638,,,text,,140
,,,,,,32.0,,,,,,,5295,,,892523,,,text,,142
,,,,,,32.0,,,,,,,8190,,,791577,,,text,,144
,,,,,,32.0,,,,,,,8166,,,876681,,,text,,145
,,,,,,32.0,,,,,,,3485,,,347533,,,text,,146
,,,,,,32.0,,,,,,,3095,,,733065,,,text,,147
,,,,,,32.0,,,,,,,1853,,,388009,,,text,,149
,,,,,,32.0,,,,,,,3717,,,250027,,,text,,150
,,,,,,32.0,,,,,,,4764,,,1553482,,,text,,152
,,,,,,32.0,,,,,,,2331,,,207207,,,text,,153
,,,,,,32.0,,,,,,,7315,,,56908917,,,text,,154
,,,,,,32.0,,,,,,,5493,,,273139,,,text,,155
,,,,,,32.0,,,,,,,2263,,,405588,,,text,,159
,,,,,,32.0,,,,,,,2239,,,387022,,,text,,161
,,,,,,32.0,,,,,,,8065,,,782156,,,text,,163
,,,,,,32.0,,,,,,,4151,,,411882,,,text,,165
,,,,,,32.0,,,,,,,8015,,,1371075,,,text,,167
,,,,,,32.0,,,,,,,7851,,,993628,,,text,,168
