p_rdata,action_times,actions,beliefs,correct,delays,information_used_correctly,meta_actions,path,planned_too_little,planned_too_much,queries,questions,responses,rt,score,time_elapsed,trial_index,trial_id,trial_type,view_history,pid
,,,,"[True, True, True, True]",,,,,,,,"[""True or false: The hidden values will change each time I start a new round."",""How much does it cost to observe each hidden value?"",""How many hidden values am I allowed to observe in each round?"",""How is your bonus determined?""]","[""True"",""$1.25"",""As many or as few as I wish"",""1 cent for every $1 I earn in each round""]",16516,,125357,,,survey-multi-choice,,0
,,,,"[True, True, True, True]",,,,,,,,"[""True or false: The hidden values will change each time I start a new round."",""How much does it cost to observe each hidden value?"",""How many hidden values am I allowed to observe in each round?"",""How is your bonus determined?""]","[""True"",""$4.00"",""As many or as few as I wish"",""1 cent for every $1 I earn in each round""]",16958,,182890,,,survey-multi-choice,,1
,,,,"[True, True, False, True]",,,,,,,,"[""True or false: The hidden values will change each time I start a new round."",""How much does it cost to observe each hidden value?"",""How many hidden values am I allowed to observe in each round?"",""How is your bonus determined?""]","[""True"",""$0.10"",""At most 10"",""1 cent for every $1 I earn in each round""]",553246,,829480,,,survey-multi-choice,,2
,,,,"[True, True, True, True]",,,,,,,,"[""True or false: The hidden values will change each time I start a new round."",""How much does it cost to observe each hidden value?"",""How many hidden values am I allowed to observe in each round?"",""How is your bonus determined?""]","[""True"",""$0.10"",""As many or as few as I wish"",""1 cent for every $1 I earn in each round""]",21039,,898326,,,survey-multi-choice,,2
,,,,"[True, False, False, True]",,,,,,,,"[""True or false: The hidden values will change each time I start a new round."",""How much does it cost to observe each hidden value?"",""How many hidden values am I allowed to observe in each round?"",""How is your bonus determined?""]","[""True"",""$1.00"",""At most 1"",""1 cent for every $1 I earn in each round""]",25241,,70681,,,survey-multi-choice,,3
,,,,"[True, True, True, True]",,,,,,,,"[""True or false: The hidden values will change each time I start a new round."",""How much does it cost to observe each hidden value?"",""How many hidden values am I allowed to observe in each round?"",""How is your bonus determined?""]","[""True"",""$0.10"",""As many or as few as I wish"",""1 cent for every $1 I earn in each round""]",15894,,139853,,,survey-multi-choice,,3
,,,,"[True, True, True, True]",,,,,,,,"[""True or false: The hidden values will change each time I start a new round."",""How much does it cost to observe each hidden value?"",""How many hidden values am I allowed to observe in each round?"",""How is your bonus determined?""]","[""True"",""$4.00"",""As many or as few as I wish"",""1 cent for every $1 I earn in each round""]",24142,,242270,,,survey-multi-choice,,4
,,,,"[True, True, True, True]",,,,,,,,"[""True or false: The hidden values will change each time I start a new round."",""How much does it cost to observe each hidden value?"",""How many hidden values am I allowed to observe in each round?"",""How is your bonus determined?""]","[""True"",""$1.25"",""As many or as few as I wish"",""1 cent for every $1 I earn in each round""]",16691,,171053,,,survey-multi-choice,,5
,,,,"[True, True, True, True]",,,,,,,,"[""True or false: The hidden values will change each time I start a new round."",""How much does it cost to observe each hidden value?"",""How many hidden values am I allowed to observe in each round?"",""How is your bonus determined?""]","[""True"",""$4.00"",""As many or as few as I wish"",""1 cent for every $1 I earn in each round""]",16564,,192176,,,survey-multi-choice,,6
,,,,"[True, False, False, True]",,,,,,,,"[""True or false: The hidden values will change each time I start a new round."",""How much does it cost to observe each hidden value?"",""How many hidden values am I allowed to observe in each round?"",""How is your bonus determined?""]","[""True"",""$0.05"",""At most 5"",""1 cent for every $1 I earn in each round""]",17735,,58428,,,survey-multi-choice,,7
,,,,"[True, True, False, True]",,,,,,,,"[""True or false: The hidden values will change each time I start a new round."",""How much does it cost to observe each hidden value?"",""How many hidden values am I allowed to observe in each round?"",""How is your bonus determined?""]","[""True"",""$0.10"",""At most 5"",""1 cent for every $1 I earn in each round""]",9144,,86277,,,survey-multi-choice,,7
,,,,"[True, True, False, False]",,,,,,,,"[""True or false: The hidden values will change each time I start a new round."",""How much does it cost to observe each hidden value?"",""How many hidden values am I allowed to observe in each round?"",""How is your bonus determined?""]","[""True"",""$0.10"",""At most 15"",""10% of my score on a random round""]",19687,,186022,,,survey-multi-choice,,7
,,,,"[True, False, True, True]",,,,,,,,"[""True or false: The hidden values will change each time I start a new round."",""How much does it cost to observe each hidden value?"",""How many hidden values am I allowed to observe in each round?"",""How is your bonus determined?""]","[""True"",""$4.00"",""As many or as few as I wish"",""1 cent for every $1 I earn in each round""]",74422,,315806,,,survey-multi-choice,,7
,,,,"[True, False, True, True]",,,,,,,,"[""True or false: The hidden values will change each time I start a new round."",""How much does it cost to observe each hidden value?"",""How many hidden values am I allowed to observe in each round?"",""How is your bonus determined?""]","[""True"",""$10.00"",""As many or as few as I wish"",""1 cent for every $1 I earn in each round""]",21018,,348580,,,survey-multi-choice,,7
,,,,"[True, True, True, True]",,,,,,,,"[""True or false: The hidden values will change each time I start a new round."",""How much does it cost to observe each hidden value?"",""How many hidden values am I allowed to observe in each round?"",""How is your bonus determined?""]","[""True"",""$0.10"",""As many or as few as I wish"",""1 cent for every $1 I earn in each round""]",9324,,374143,,,survey-multi-choice,,7
,,,,"[True, True, True, True]",,,,,,,,"[""True or false: The hidden values will change each time I start a new round."",""How much does it cost to observe each hidden value?"",""How many hidden values am I allowed to observe in each round?"",""How is your bonus determined?""]","[""True"",""$4.00"",""As many or as few as I wish"",""1 cent for every $1 I earn in each round""]",24768,,218566,,,survey-multi-choice,,8
,,,,"[True, True, True, True]",,,,,,,,"[""True or false: The hidden values will change each time I start a new round."",""How much does it cost to observe each hidden value?"",""How many hidden values am I allowed to observe in each round?"",""How is your bonus determined?""]","[""True"",""$0.10"",""As many or as few as I wish"",""1 cent for every $1 I earn in each round""]",24389,,102381,,,survey-multi-choice,,9
,,,,"[True, True, True, True]",,,,,,,,"[""True or false: The hidden values will change each time I start a new round."",""How much does it cost to observe each hidden value?"",""How many hidden values am I allowed to observe in each round?"",""How is your bonus determined?""]","[""True"",""$0.10"",""As many or as few as I wish"",""1 cent for every $1 I earn in each round""]",21584,,149346,,,survey-multi-choice,,10
,,,,"[True, True, True, True]",,,,,,,,"[""True or false: The hidden values will change each time I start a new round."",""How much does it cost to observe each hidden value?"",""How many hidden values am I allowed to observe in each round?"",""How is your bonus determined?""]","[""True"",""$0.10"",""As many or as few as I wish"",""1 cent for every $1 I earn in each round""]",14893,,95571,,,survey-multi-choice,,11
,,,,"[True, True, True, True]",,,,,,,,"[""True or false: The hidden values will change each time I start a new round."",""How much does it cost to observe each hidden value?"",""How many hidden values am I allowed to observe in each round?"",""How is your bonus determined?""]","[""True"",""$0.10"",""As many or as few as I wish"",""1 cent for every $1 I earn in each round""]",29468,,243883,,,survey-multi-choice,,12
,,,,"[True, False, True, False]",,,,,,,,"[""True or false: The hidden values will change each time I start a new round."",""How much does it cost to observe each hidden value?"",""How many hidden values am I allowed to observe in each round?"",""How is your bonus determined?""]","[""True"",""$1.00"",""As many or as few as I wish"",""10% of my best score on any round""]",51337,,202755,,,survey-multi-choice,,13
,,,,"[True, False, True, False]",,,,,,,,"[""True or false: The hidden values will change each time I start a new round."",""How much does it cost to observe each hidden value?"",""How many hidden values am I allowed to observe in each round?"",""How is your bonus determined?""]","[""True"",""$0.01"",""As many or as few as I wish"",""10% of my score on a random round""]",22449,,313618,,,survey-multi-choice,,13
,,,,"[True, True, True, False]",,,,,,,,"[""True or false: The hidden values will change each time I start a new round."",""How much does it cost to observe each hidden value?"",""How many hidden values am I allowed to observe in each round?"",""How is your bonus determined?""]","[""True"",""$4.00"",""As many or as few as I wish"",""10% of my best score on any round""]",14387,,445945,,,survey-multi-choice,,13
,,,,"[True, True, True, False]",,,,,,,,"[""True or false: The hidden values will change each time I start a new round."",""How much does it cost to observe each hidden value?"",""How many hidden values am I allowed to observe in each round?"",""How is your bonus determined?""]","[""True"",""$4.00"",""As many or as few as I wish"",""1% of my best score on any round""]",15912,,524737,,,survey-multi-choice,,13
,,,,"[True, True, True, True]",,,,,,,,"[""True or false: The hidden values will change each time I start a new round."",""How much does it cost to observe each hidden value?"",""How many hidden values am I allowed to observe in each round?"",""How is your bonus determined?""]","[""True"",""$4.00"",""As many or as few as I wish"",""1 cent for every $1 I earn in each round""]",17578,,565515,,,survey-multi-choice,,13
,,,,"[True, False, True, True]",,,,,,,,"[""True or false: The hidden values will change each time I start a new round."",""How much does it cost to observe each hidden value?"",""How many hidden values am I allowed to observe in each round?"",""How is your bonus determined?""]","[""True"",""$1.50"",""As many or as few as I wish"",""1 cent for every $1 I earn in each round""]",24660,,141833,,,survey-multi-choice,,14
,,,,"[True, True, True, True]",,,,,,,,"[""True or false: The hidden values will change each time I start a new round."",""How much does it cost to observe each hidden value?"",""How many hidden values am I allowed to observe in each round?"",""How is your bonus determined?""]","[""True"",""$1.25"",""As many or as few as I wish"",""1 cent for every $1 I earn in each round""]",28681,,261368,,,survey-multi-choice,,14
,,,,"[True, True, True, True]",,,,,,,,"[""True or false: The hidden values will change each time I start a new round."",""How much does it cost to observe each hidden value?"",""How many hidden values am I allowed to observe in each round?"",""How is your bonus determined?""]","[""True"",""$1.25"",""As many or as few as I wish"",""1 cent for every $1 I earn in each round""]",29823,,216097,,,survey-multi-choice,,15
,,,,"[True, False, True, True]",,,,,,,,"[""True or false: The hidden values will change each time I start a new round."",""How much does it cost to observe each hidden value?"",""How many hidden values am I allowed to observe in each round?"",""How is your bonus determined?""]","[""True"",""$0.05"",""As many or as few as I wish"",""1 cent for every $1 I earn in each round""]",122736,,231422,,,survey-multi-choice,,16
,,,,"[True, True, True, True]",,,,,,,,"[""True or false: The hidden values will change each time I start a new round."",""How much does it cost to observe each hidden value?"",""How many hidden values am I allowed to observe in each round?"",""How is your bonus determined?""]","[""True"",""$4.00"",""As many or as few as I wish"",""1 cent for every $1 I earn in each round""]",213303,,622602,,,survey-multi-choice,,16
,,,,"[True, False, True, True]",,,,,,,,"[""True or false: The hidden values will change each time I start a new round."",""How much does it cost to observe each hidden value?"",""How many hidden values am I allowed to observe in each round?"",""How is your bonus determined?""]","[""True"",""$1.00"",""As many or as few as I wish"",""1 cent for every $1 I earn in each round""]",45260,,249693,,,survey-multi-choice,,17
,,,,"[True, True, True, True]",,,,,,,,"[""True or false: The hidden values will change each time I start a new round."",""How much does it cost to observe each hidden value?"",""How many hidden values am I allowed to observe in each round?"",""How is your bonus determined?""]","[""True"",""$4.00"",""As many or as few as I wish"",""1 cent for every $1 I earn in each round""]",16923,,304172,,,survey-multi-choice,,17
,,,,"[True, True, True, True]",,,,,,,,"[""True or false: The hidden values will change each time I start a new round."",""How much does it cost to observe each hidden value?"",""How many hidden values am I allowed to observe in each round?"",""How is your bonus determined?""]","[""True"",""$1.25"",""As many or as few as I wish"",""1 cent for every $1 I earn in each round""]",17189,,248683,,,survey-multi-choice,,18
,,,,"[True, True, True, True]",,,,,,,,"[""True or false: The hidden values will change each time I start a new round."",""How much does it cost to observe each hidden value?"",""How many hidden values am I allowed to observe in each round?"",""How is your bonus determined?""]","[""True"",""$4.00"",""As many or as few as I wish"",""1 cent for every $1 I earn in each round""]",19591,,183240,,,survey-multi-choice,,19
,,,,"[True, False, True, True]",,,,,,,,"[""True or false: The hidden values will change each time I start a new round."",""How much does it cost to observe each hidden value?"",""How many hidden values am I allowed to observe in each round?"",""How is your bonus determined?""]","[""True"",""$1.50"",""As many or as few as I wish"",""1 cent for every $1 I earn in each round""]",25616,,120977,,,survey-multi-choice,,20
,,,,"[True, True, True, True]",,,,,,,,"[""True or false: The hidden values will change each time I start a new round."",""How much does it cost to observe each hidden value?"",""How many hidden values am I allowed to observe in each round?"",""How is your bonus determined?""]","[""True"",""$1.25"",""As many or as few as I wish"",""1 cent for every $1 I earn in each round""]",8795,,142870,,,survey-multi-choice,,20
,,,,"[True, False, True, True]",,,,,,,,"[""True or false: The hidden values will change each time I start a new round."",""How much does it cost to observe each hidden value?"",""How many hidden values am I allowed to observe in each round?"",""How is your bonus determined?""]","[""True"",""$0.01"",""As many or as few as I wish"",""1 cent for every $1 I earn in each round""]",37111,,195436,,,survey-multi-choice,,21
,,,,"[True, True, True, True]",,,,,,,,"[""True or false: The hidden values will change each time I start a new round."",""How much does it cost to observe each hidden value?"",""How many hidden values am I allowed to observe in each round?"",""How is your bonus determined?""]","[""True"",""$0.10"",""As many or as few as I wish"",""1 cent for every $1 I earn in each round""]",16277,,236780,,,survey-multi-choice,,21
,,,,"[True, True, True, True]",,,,,,,,"[""True or false: The hidden values will change each time I start a new round."",""How much does it cost to observe each hidden value?"",""How many hidden values am I allowed to observe in each round?"",""How is your bonus determined?""]","[""True"",""$0.10"",""As many or as few as I wish"",""1 cent for every $1 I earn in each round""]",12553,,108582,,,survey-multi-choice,,22
,,,,"[True, True, True, True]",,,,,,,,"[""True or false: The hidden values will change each time I start a new round."",""How much does it cost to observe each hidden value?"",""How many hidden values am I allowed to observe in each round?"",""How is your bonus determined?""]","[""True"",""$4.00"",""As many or as few as I wish"",""1 cent for every $1 I earn in each round""]",44142,,371853,,,survey-multi-choice,,23
,,,,"[True, True, True, True]",,,,,,,,"[""True or false: The hidden values will change each time I start a new round."",""How much does it cost to observe each hidden value?"",""How many hidden values am I allowed to observe in each round?"",""How is your bonus determined?""]","[""True"",""$4.00"",""As many or as few as I wish"",""1 cent for every $1 I earn in each round""]",16027,,195146,,,survey-multi-choice,,24
,,,,"[True, True, True, True]",,,,,,,,"[""True or false: The hidden values will change each time I start a new round."",""How much does it cost to observe each hidden value?"",""How many hidden values am I allowed to observe in each round?"",""How is your bonus determined?""]","[""True"",""$4.00"",""As many or as few as I wish"",""1 cent for every $1 I earn in each round""]",36654,,143082,,,survey-multi-choice,,25
,,,,"[True, False, False, False]",,,,,,,,"[""True or false: The hidden values will change each time I start a new round."",""How much does it cost to observe each hidden value?"",""How many hidden values am I allowed to observe in each round?"",""How is your bonus determined?""]","[""True"",""$0.25"",""At most 5"",""10% of my best score on any round""]",39903,,98111,,,survey-multi-choice,,26
,,,,"[True, True, True, True]",,,,,,,,"[""True or false: The hidden values will change each time I start a new round."",""How much does it cost to observe each hidden value?"",""How many hidden values am I allowed to observe in each round?"",""How is your bonus determined?""]","[""True"",""$4.00"",""As many or as few as I wish"",""1 cent for every $1 I earn in each round""]",15137,,170293,,,survey-multi-choice,,26
,,,,"[True, False, True, True]",,,,,,,,"[""True or false: The hidden values will change each time I start a new round."",""How much does it cost to observe each hidden value?"",""How many hidden values am I allowed to observe in each round?"",""How is your bonus determined?""]","[""True"",""$0.05"",""As many or as few as I wish"",""1 cent for every $1 I earn in each round""]",206649,,256262,,,survey-multi-choice,,27
,,,,"[True, True, True, True]",,,,,,,,"[""True or false: The hidden values will change each time I start a new round."",""How much does it cost to observe each hidden value?"",""How many hidden values am I allowed to observe in each round?"",""How is your bonus determined?""]","[""True"",""$4.00"",""As many or as few as I wish"",""1 cent for every $1 I earn in each round""]",30301,,522773,,,survey-multi-choice,,27
,,,,"[True, True, True, True]",,,,,,,,"[""True or false: The hidden values will change each time I start a new round."",""How much does it cost to observe each hidden value?"",""How many hidden values am I allowed to observe in each round?"",""How is your bonus determined?""]","[""True"",""$1.25"",""As many or as few as I wish"",""1 cent for every $1 I earn in each round""]",14548,,94042,,,survey-multi-choice,,28
,,,,"[True, True, True, True]",,,,,,,,"[""True or false: The hidden values will change each time I start a new round."",""How much does it cost to observe each hidden value?"",""How many hidden values am I allowed to observe in each round?"",""How is your bonus determined?""]","[""True"",""$1.25"",""As many or as few as I wish"",""1 cent for every $1 I earn in each round""]",74697,,192462,,,survey-multi-choice,,29
,,,,"[True, True, True, True]",,,,,,,,"[""True or false: The hidden values will change each time I start a new round."",""How much does it cost to observe each hidden value?"",""How many hidden values am I allowed to observe in each round?"",""How is your bonus determined?""]","[""True"",""$4.00"",""As many or as few as I wish"",""1 cent for every $1 I earn in each round""]",20857,,150914,,,survey-multi-choice,,30
,,,,"[True, True, True, True]",,,,,,,,"[""True or false: The hidden values will change each time I start a new round."",""How much does it cost to observe each hidden value?"",""How many hidden values am I allowed to observe in each round?"",""How is your bonus determined?""]","[""True"",""$1.25"",""As many or as few as I wish"",""1 cent for every $1 I earn in each round""]",17544,,118409,,,survey-multi-choice,,31
,,,,"[True, True, True, True]",,,,,,,,"[""True or false: The hidden values will change each time I start a new round."",""How much does it cost to observe each hidden value?"",""How many hidden values am I allowed to observe in each round?"",""How is your bonus determined?""]","[""True"",""$1.25"",""As many or as few as I wish"",""1 cent for every $1 I earn in each round""]",19160,,132446,,,survey-multi-choice,,32
,,,,"[True, True, True, True]",,,,,,,,"[""True or false: The hidden values will change each time I start a new round."",""How much does it cost to observe each hidden value?"",""How many hidden values am I allowed to observe in each round?"",""How is your bonus determined?""]","[""True"",""$0.10"",""As many or as few as I wish"",""1 cent for every $1 I earn in each round""]",14528,,110163,,,survey-multi-choice,,33
,,,,"[True, True, True, True]",,,,,,,,"[""True or false: The hidden values will change each time I start a new round."",""How much does it cost to observe each hidden value?"",""How many hidden values am I allowed to observe in each round?"",""How is your bonus determined?""]","[""True"",""$0.10"",""As many or as few as I wish"",""1 cent for every $1 I earn in each round""]",14999,,151808,,,survey-multi-choice,,34
,,,,"[True, True, True, True]",,,,,,,,"[""True or false: The hidden values will change each time I start a new round."",""How much does it cost to observe each hidden value?"",""How many hidden values am I allowed to observe in each round?"",""How is your bonus determined?""]","[""True"",""$1.25"",""As many or as few as I wish"",""1 cent for every $1 I earn in each round""]",24057,,179100,,,survey-multi-choice,,35
,,,,"[True, False, True, True]",,,,,,,,"[""True or false: The hidden values will change each time I start a new round."",""How much does it cost to observe each hidden value?"",""How many hidden values am I allowed to observe in each round?"",""How is your bonus determined?""]","[""True"",""$1.00"",""As many or as few as I wish"",""1 cent for every $1 I earn in each round""]",35033,,166532,,,survey-multi-choice,,36
,,,,"[True, True, True, True]",,,,,,,,"[""True or false: The hidden values will change each time I start a new round."",""How much does it cost to observe each hidden value?"",""How many hidden values am I allowed to observe in each round?"",""How is your bonus determined?""]","[""True"",""$4.00"",""As many or as few as I wish"",""1 cent for every $1 I earn in each round""]",13297,,223870,,,survey-multi-choice,,36
,,,,"[True, True, True, True]",,,,,,,,"[""True or false: The hidden values will change each time I start a new round."",""How much does it cost to observe each hidden value?"",""How many hidden values am I allowed to observe in each round?"",""How is your bonus determined?""]","[""True"",""$0.10"",""As many or as few as I wish"",""1 cent for every $1 I earn in each round""]",18678,,143729,,,survey-multi-choice,,37
,,,,"[True, True, True, False]",,,,,,,,"[""True or false: The hidden values will change each time I start a new round."",""How much does it cost to observe each hidden value?"",""How many hidden values am I allowed to observe in each round?"",""How is your bonus determined?""]","[""True"",""$0.10"",""As many or as few as I wish"",""10% of my best score on any round""]",25226,,110583,,,survey-multi-choice,,38
,,,,"[True, True, True, True]",,,,,,,,"[""True or false: The hidden values will change each time I start a new round."",""How much does it cost to observe each hidden value?"",""How many hidden values am I allowed to observe in each round?"",""How is your bonus determined?""]","[""True"",""$0.10"",""As many or as few as I wish"",""1 cent for every $1 I earn in each round""]",9326,,196360,,,survey-multi-choice,,38
,,,,"[True, True, True, True]",,,,,,,,"[""True or false: The hidden values will change each time I start a new round."",""How much does it cost to observe each hidden value?"",""How many hidden values am I allowed to observe in each round?"",""How is your bonus determined?""]","[""True"",""$4.00"",""As many or as few as I wish"",""1 cent for every $1 I earn in each round""]",17271,,122614,,,survey-multi-choice,,39
,,,,"[True, True, True, True]",,,,,,,,"[""True or false: The hidden values will change each time I start a new round."",""How much does it cost to observe each hidden value?"",""How many hidden values am I allowed to observe in each round?"",""How is your bonus determined?""]","[""True"",""$0.10"",""As many or as few as I wish"",""1 cent for every $1 I earn in each round""]",41658,,167020,,,survey-multi-choice,,40
,,,,"[True, True, True, True]",,,,,,,,"[""True or false: The hidden values will change each time I start a new round."",""How much does it cost to observe each hidden value?"",""How many hidden values am I allowed to observe in each round?"",""How is your bonus determined?""]","[""True"",""$4.00"",""As many or as few as I wish"",""1 cent for every $1 I earn in each round""]",25005,,140143,,,survey-multi-choice,,41
,,,,"[True, True, True, True]",,,,,,,,"[""True or false: The hidden values will change each time I start a new round."",""How much does it cost to observe each hidden value?"",""How many hidden values am I allowed to observe in each round?"",""How is your bonus determined?""]","[""True"",""$1.25"",""As many or as few as I wish"",""1 cent for every $1 I earn in each round""]",25767,,152660,,,survey-multi-choice,,42
,,,,"[True, True, True, True]",,,,,,,,"[""True or false: The hidden values will change each time I start a new round."",""How much does it cost to observe each hidden value?"",""How many hidden values am I allowed to observe in each round?"",""How is your bonus determined?""]","[""True"",""$4.00"",""As many or as few as I wish"",""1 cent for every $1 I earn in each round""]",15574,,243840,,,survey-multi-choice,,43
,,,,"[True, True, True, True]",,,,,,,,"[""True or false: The hidden values will change each time I start a new round."",""How much does it cost to observe each hidden value?"",""How many hidden values am I allowed to observe in each round?"",""How is your bonus determined?""]","[""True"",""$1.25"",""As many or as few as I wish"",""1 cent for every $1 I earn in each round""]",15138,,228649,,,survey-multi-choice,,44
,,,,"[True, False, True, False]",,,,,,,,"[""True or false: The hidden values will change each time I start a new round."",""How much does it cost to observe each hidden value?"",""How many hidden values am I allowed to observe in each round?"",""How is your bonus determined?""]","[""True"",""$0.25"",""As many or as few as I wish"",""10% of my score on a random round""]",27167,,82403,,,survey-multi-choice,,45
,,,,"[True, True, True, True]",,,,,,,,"[""True or false: The hidden values will change each time I start a new round."",""How much does it cost to observe each hidden value?"",""How many hidden values am I allowed to observe in each round?"",""How is your bonus determined?""]","[""True"",""$0.10"",""As many or as few as I wish"",""1 cent for every $1 I earn in each round""]",12660,,147498,,,survey-multi-choice,,45
,,,,"[True, True, True, True]",,,,,,,,"[""True or false: The hidden values will change each time I start a new round."",""How much does it cost to observe each hidden value?"",""How many hidden values am I allowed to observe in each round?"",""How is your bonus determined?""]","[""True"",""$0.10"",""As many or as few as I wish"",""1 cent for every $1 I earn in each round""]",24355,,199691,,,survey-multi-choice,,46
,,,,"[True, True, True, True]",,,,,,,,"[""True or false: The hidden values will change each time I start a new round."",""How much does it cost to observe each hidden value?"",""How many hidden values am I allowed to observe in each round?"",""How is your bonus determined?""]","[""True"",""$0.10"",""As many or as few as I wish"",""1 cent for every $1 I earn in each round""]",19054,,90529,,,survey-multi-choice,,47
,,,,"[True, True, True, True]",,,,,,,,"[""True or false: The hidden values will change each time I start a new round."",""How much does it cost to observe each hidden value?"",""How many hidden values am I allowed to observe in each round?"",""How is your bonus determined?""]","[""True"",""$4.00"",""As many or as few as I wish"",""1 cent for every $1 I earn in each round""]",92196,,110252,,,survey-multi-choice,,48
,,,,"[True, True, True, True]",,,,,,,,"[""True or false: The hidden values will change each time I start a new round."",""How much does it cost to observe each hidden value?"",""How many hidden values am I allowed to observe in each round?"",""How is your bonus determined?""]","[""True"",""$1.25"",""As many or as few as I wish"",""1 cent for every $1 I earn in each round""]",45586,,322277,,,survey-multi-choice,,49
,,,,"[True, True, True, True]",,,,,,,,"[""True or false: The hidden values will change each time I start a new round."",""How much does it cost to observe each hidden value?"",""How many hidden values am I allowed to observe in each round?"",""How is your bonus determined?""]","[""True"",""$1.25"",""As many or as few as I wish"",""1 cent for every $1 I earn in each round""]",24551,,128086,,,survey-multi-choice,,50
,,,,"[True, True, True, False]",,,,,,,,"[""True or false: The hidden values will change each time I start a new round."",""How much does it cost to observe each hidden value?"",""How many hidden values am I allowed to observe in each round?"",""How is your bonus determined?""]","[""True"",""$1.25"",""As many or as few as I wish"",""10% of my best score on any round""]",23715,,287403,,,survey-multi-choice,,51
,,,,"[True, True, True, True]",,,,,,,,"[""True or false: The hidden values will change each time I start a new round."",""How much does it cost to observe each hidden value?"",""How many hidden values am I allowed to observe in each round?"",""How is your bonus determined?""]","[""True"",""$1.25"",""As many or as few as I wish"",""1 cent for every $1 I earn in each round""]",11645,,314988,,,survey-multi-choice,,51
,,,,"[True, True, True, True]",,,,,,,,"[""True or false: The hidden values will change each time I start a new round."",""How much does it cost to observe each hidden value?"",""How many hidden values am I allowed to observe in each round?"",""How is your bonus determined?""]","[""True"",""$0.10"",""As many or as few as I wish"",""1 cent for every $1 I earn in each round""]",43668,,191755,,,survey-multi-choice,,52
,,,,"[True, True, True, True]",,,,,,,,"[""True or false: The hidden values will change each time I start a new round."",""How much does it cost to observe each hidden value?"",""How many hidden values am I allowed to observe in each round?"",""How is your bonus determined?""]","[""True"",""$4.00"",""As many or as few as I wish"",""1 cent for every $1 I earn in each round""]",19476,,365358,,,survey-multi-choice,,53
,,,,"[True, True, True, True]",,,,,,,,"[""True or false: The hidden values will change each time I start a new round."",""How much does it cost to observe each hidden value?"",""How many hidden values am I allowed to observe in each round?"",""How is your bonus determined?""]","[""True"",""$4.00"",""As many or as few as I wish"",""1 cent for every $1 I earn in each round""]",21833,,367999,,,survey-multi-choice,,54
,,,,"[True, True, True, True]",,,,,,,,"[""True or false: The hidden values will change each time I start a new round."",""How much does it cost to observe each hidden value?"",""How many hidden values am I allowed to observe in each round?"",""How is your bonus determined?""]","[""True"",""$0.10"",""As many or as few as I wish"",""1 cent for every $1 I earn in each round""]",20504,,130911,,,survey-multi-choice,,55
,,,,"[False, True, True, True]",,,,,,,,"[""True or false: The hidden values will change each time I start a new round."",""How much does it cost to observe each hidden value?"",""How many hidden values am I allowed to observe in each round?"",""How is your bonus determined?""]","[""False"",""$1.25"",""As many or as few as I wish"",""1 cent for every $1 I earn in each round""]",12202,,120571,,,survey-multi-choice,,56
,,,,"[True, True, True, True]",,,,,,,,"[""True or false: The hidden values will change each time I start a new round."",""How much does it cost to observe each hidden value?"",""How many hidden values am I allowed to observe in each round?"",""How is your bonus determined?""]","[""True"",""$1.25"",""As many or as few as I wish"",""1 cent for every $1 I earn in each round""]",13350,,165369,,,survey-multi-choice,,56
,,,,"[True, True, True, True]",,,,,,,,"[""True or false: The hidden values will change each time I start a new round."",""How much does it cost to observe each hidden value?"",""How many hidden values am I allowed to observe in each round?"",""How is your bonus determined?""]","[""True"",""$1.25"",""As many or as few as I wish"",""1 cent for every $1 I earn in each round""]",21367,,140968,,,survey-multi-choice,,57
,,,,"[True, True, True, True]",,,,,,,,"[""True or false: The hidden values will change each time I start a new round."",""How much does it cost to observe each hidden value?"",""How many hidden values am I allowed to observe in each round?"",""How is your bonus determined?""]","[""True"",""$4.00"",""As many or as few as I wish"",""1 cent for every $1 I earn in each round""]",17355,,74631,,,survey-multi-choice,,58
,,,,"[True, True, True, False]",,,,,,,,"[""True or false: The hidden values will change each time I start a new round."",""How much does it cost to observe each hidden value?"",""How many hidden values am I allowed to observe in each round?"",""How is your bonus determined?""]","[""True"",""$4.00"",""As many or as few as I wish"",""10% of my best score on any round""]",43254,,146045,,,survey-multi-choice,,59
,,,,"[True, True, True, True]",,,,,,,,"[""True or false: The hidden values will change each time I start a new round."",""How much does it cost to observe each hidden value?"",""How many hidden values am I allowed to observe in each round?"",""How is your bonus determined?""]","[""True"",""$4.00"",""As many or as few as I wish"",""1 cent for every $1 I earn in each round""]",10983,,238903,,,survey-multi-choice,,59
,,,,"[True, False, True, True]",,,,,,,,"[""True or false: The hidden values will change each time I start a new round."",""How much does it cost to observe each hidden value?"",""How many hidden values am I allowed to observe in each round?"",""How is your bonus determined?""]","[""True"",""$0.05"",""As many or as few as I wish"",""1 cent for every $1 I earn in each round""]",36623,,209663,,,survey-multi-choice,,60
,,,,"[False, True, True, True]",,,,,,,,"[""True or false: The hidden values will change each time I start a new round."",""How much does it cost to observe each hidden value?"",""How many hidden values am I allowed to observe in each round?"",""How is your bonus determined?""]","[""False"",""$0.10"",""As many or as few as I wish"",""1 cent for every $1 I earn in each round""]",26193,,283381,,,survey-multi-choice,,60
,,,,"[True, True, True, True]",,,,,,,,"[""True or false: The hidden values will change each time I start a new round."",""How much does it cost to observe each hidden value?"",""How many hidden values am I allowed to observe in each round?"",""How is your bonus determined?""]","[""True"",""$0.10"",""As many or as few as I wish"",""1 cent for every $1 I earn in each round""]",14699,,336956,,,survey-multi-choice,,60
,,,,"[True, True, True, True]",,,,,,,,"[""True or false: The hidden values will change each time I start a new round."",""How much does it cost to observe each hidden value?"",""How many hidden values am I allowed to observe in each round?"",""How is your bonus determined?""]","[""True"",""$0.10"",""As many or as few as I wish"",""1 cent for every $1 I earn in each round""]",19476,,274432,,,survey-multi-choice,,61
,,,,"[True, True, True, True]",,,,,,,,"[""True or false: The hidden values will change each time I start a new round."",""How much does it cost to observe each hidden value?"",""How many hidden values am I allowed to observe in each round?"",""How is your bonus determined?""]","[""True"",""$4.00"",""As many or as few as I wish"",""1 cent for every $1 I earn in each round""]",14731,,139342,,,survey-multi-choice,,62
,,,,"[False, False, True, True]",,,,,,,,"[""True or false: The hidden values will change each time I start a new round."",""How much does it cost to observe each hidden value?"",""How many hidden values am I allowed to observe in each round?"",""How is your bonus determined?""]","[""False"",""$1.00"",""As many or as few as I wish"",""1 cent for every $1 I earn in each round""]",33041,,133395,,,survey-multi-choice,,63
,,,,"[True, True, True, True]",,,,,,,,"[""True or false: The hidden values will change each time I start a new round."",""How much does it cost to observe each hidden value?"",""How many hidden values am I allowed to observe in each round?"",""How is your bonus determined?""]","[""True"",""$1.25"",""As many or as few as I wish"",""1 cent for every $1 I earn in each round""]",15492,,184019,,,survey-multi-choice,,63
,,,,"[True, True, True, True]",,,,,,,,"[""True or false: The hidden values will change each time I start a new round."",""How much does it cost to observe each hidden value?"",""How many hidden values am I allowed to observe in each round?"",""How is your bonus determined?""]","[""True"",""$0.10"",""As many or as few as I wish"",""1 cent for every $1 I earn in each round""]",19775,,105627,,,survey-multi-choice,,64
,,,,"[True, True, True, True]",,,,,,,,"[""True or false: The hidden values will change each time I start a new round."",""How much does it cost to observe each hidden value?"",""How many hidden values am I allowed to observe in each round?"",""How is your bonus determined?""]","[""True"",""$0.10"",""As many or as few as I wish"",""1 cent for every $1 I earn in each round""]",22540,,167858,,,survey-multi-choice,,65
,,,,"[True, True, True, True]",,,,,,,,"[""True or false: The hidden values will change each time I start a new round."",""How much does it cost to observe each hidden value?"",""How many hidden values am I allowed to observe in each round?"",""How is your bonus determined?""]","[""True"",""$4.00"",""As many or as few as I wish"",""1 cent for every $1 I earn in each round""]",14305,,126109,,,survey-multi-choice,,66
,,,,"[True, True, True, True]",,,,,,,,"[""True or false: The hidden values will change each time I start a new round."",""How much does it cost to observe each hidden value?"",""How many hidden values am I allowed to observe in each round?"",""How is your bonus determined?""]","[""True"",""$4.00"",""As many or as few as I wish"",""1 cent for every $1 I earn in each round""]",18259,,101043,,,survey-multi-choice,,67
,,,,"[True, True, True, True]",,,,,,,,"[""True or false: The hidden values will change each time I start a new round."",""How much does it cost to observe each hidden value?"",""How many hidden values am I allowed to observe in each round?"",""How is your bonus determined?""]","[""True"",""$4.00"",""As many or as few as I wish"",""1 cent for every $1 I earn in each round""]",16753,,95302,,,survey-multi-choice,,68
,,,,"[True, True, True, True]",,,,,,,,"[""True or false: The hidden values will change each time I start a new round."",""How much does it cost to observe each hidden value?"",""How many hidden values am I allowed to observe in each round?"",""How is your bonus determined?""]","[""True"",""$4.00"",""As many or as few as I wish"",""1 cent for every $1 I earn in each round""]",19002,,212714,,,survey-multi-choice,,69
,,,,"[True, True, True, True]",,,,,,,,"[""True or false: The hidden values will change each time I start a new round."",""How much does it cost to observe each hidden value?"",""How many hidden values am I allowed to observe in each round?"",""How is your bonus determined?""]","[""True"",""$4.00"",""As many or as few as I wish"",""1 cent for every $1 I earn in each round""]",44466,,260985,,,survey-multi-choice,,70
,,,,"[True, True, True, True]",,,,,,,,"[""True or false: The hidden values will change each time I start a new round."",""How much does it cost to observe each hidden value?"",""How many hidden values am I allowed to observe in each round?"",""How is your bonus determined?""]","[""True"",""$1.25"",""As many or as few as I wish"",""1 cent for every $1 I earn in each round""]",19656,,147816,,,survey-multi-choice,,71
,,,,"[True, True, True, True]",,,,,,,,"[""True or false: The hidden values will change each time I start a new round."",""How much does it cost to observe each hidden value?"",""How many hidden values am I allowed to observe in each round?"",""How is your bonus determined?""]","[""True"",""$4.00"",""As many or as few as I wish"",""1 cent for every $1 I earn in each round""]",28901,,248461,,,survey-multi-choice,,72
,,,,"[True, True, True, True]",,,,,,,,"[""True or false: The hidden values will change each time I start a new round."",""How much does it cost to observe each hidden value?"",""How many hidden values am I allowed to observe in each round?"",""How is your bonus determined?""]","[""True"",""$1.25"",""As many or as few as I wish"",""1 cent for every $1 I earn in each round""]",15641,,144568,,,survey-multi-choice,,73
,,,,"[True, False, True, True]",,,,,,,,"[""True or false: The hidden values will change each time I start a new round."",""How much does it cost to observe each hidden value?"",""How many hidden values am I allowed to observe in each round?"",""How is your bonus determined?""]","[""True"",""$0.01"",""As many or as few as I wish"",""1 cent for every $1 I earn in each round""]",19940,,103912,,,survey-multi-choice,,74
,,,,"[True, True, True, True]",,,,,,,,"[""True or false: The hidden values will change each time I start a new round."",""How much does it cost to observe each hidden value?"",""How many hidden values am I allowed to observe in each round?"",""How is your bonus determined?""]","[""True"",""$1.25"",""As many or as few as I wish"",""1 cent for every $1 I earn in each round""]",11056,,181195,,,survey-multi-choice,,74
,,,,"[True, False, True, True]",,,,,,,,"[""True or false: The hidden values will change each time I start a new round."",""How much does it cost to observe each hidden value?"",""How many hidden values am I allowed to observe in each round?"",""How is your bonus determined?""]","[""True"",""$0.01"",""As many or as few as I wish"",""1 cent for every $1 I earn in each round""]",16546,,125934,,,survey-multi-choice,,75
,,,,"[True, True, True, True]",,,,,,,,"[""True or false: The hidden values will change each time I start a new round."",""How much does it cost to observe each hidden value?"",""How many hidden values am I allowed to observe in each round?"",""How is your bonus determined?""]","[""True"",""$0.10"",""As many or as few as I wish"",""1 cent for every $1 I earn in each round""]",266980,,455638,,,survey-multi-choice,,75
,,,,"[True, True, True, True]",,,,,,,,"[""True or false: The hidden values will change each time I start a new round."",""How much does it cost to observe each hidden value?"",""How many hidden values am I allowed to observe in each round?"",""How is your bonus determined?""]","[""True"",""$1.25"",""As many or as few as I wish"",""1 cent for every $1 I earn in each round""]",40853,,241717,,,survey-multi-choice,,76
,,,,"[True, False, True, True]",,,,,,,,"[""True or false: The hidden values will change each time I start a new round."",""How much does it cost to observe each hidden value?"",""How many hidden values am I allowed to observe in each round?"",""How is your bonus determined?""]","[""True"",""$0.25"",""As many or as few as I wish"",""1 cent for every $1 I earn in each round""]",18486,,80068,,,survey-multi-choice,,77
,,,,"[True, True, True, True]",,,,,,,,"[""True or false: The hidden values will change each time I start a new round."",""How much does it cost to observe each hidden value?"",""How many hidden values am I allowed to observe in each round?"",""How is your bonus determined?""]","[""True"",""$1.25"",""As many or as few as I wish"",""1 cent for every $1 I earn in each round""]",8693,,106800,,,survey-multi-choice,,77
,,,,"[True, True, True, True]",,,,,,,,"[""True or false: The hidden values will change each time I start a new round."",""How much does it cost to observe each hidden value?"",""How many hidden values am I allowed to observe in each round?"",""How is your bonus determined?""]","[""True"",""$0.10"",""As many or as few as I wish"",""1 cent for every $1 I earn in each round""]",20263,,110904,,,survey-multi-choice,,78
,,,,"[True, True, True, True]",,,,,,,,"[""True or false: The hidden values will change each time I start a new round."",""How much does it cost to observe each hidden value?"",""How many hidden values am I allowed to observe in each round?"",""How is your bonus determined?""]","[""True"",""$1.25"",""As many or as few as I wish"",""1 cent for every $1 I earn in each round""]",13949,,30142,,,survey-multi-choice,,79
,,,,"[True, False, False, True]",,,,,,,,"[""True or false: The hidden values will change each time I start a new round."",""How much does it cost to observe each hidden value?"",""How many hidden values am I allowed to observe in each round?"",""How is your bonus determined?""]","[""True"",""$1.00"",""At most 1"",""1 cent for every $1 I earn in each round""]",17137,,115955,,,survey-multi-choice,,80
,,,,"[True, True, True, True]",,,,,,,,"[""True or false: The hidden values will change each time I start a new round."",""How much does it cost to observe each hidden value?"",""How many hidden values am I allowed to observe in each round?"",""How is your bonus determined?""]","[""True"",""$0.10"",""As many or as few as I wish"",""1 cent for every $1 I earn in each round""]",9131,,149503,,,survey-multi-choice,,80
,,,,"[True, True, True, True]",,,,,,,,"[""True or false: The hidden values will change each time I start a new round."",""How much does it cost to observe each hidden value?"",""How many hidden values am I allowed to observe in each round?"",""How is your bonus determined?""]","[""True"",""$0.10"",""As many or as few as I wish"",""1 cent for every $1 I earn in each round""]",13423,,131205,,,survey-multi-choice,,81
,,,,"[True, True, True, True]",,,,,,,,"[""True or false: The hidden values will change each time I start a new round."",""How much does it cost to observe each hidden value?"",""How many hidden values am I allowed to observe in each round?"",""How is your bonus determined?""]","[""True"",""$0.10"",""As many or as few as I wish"",""1 cent for every $1 I earn in each round""]",13199,,109217,,,survey-multi-choice,,82
,,,,"[True, False, False, False]",,,,,,,,"[""True or false: The hidden values will change each time I start a new round."",""How much does it cost to observe each hidden value?"",""How many hidden values am I allowed to observe in each round?"",""How is your bonus determined?""]","[""True"",""$1.00"",""At most 5"",""10% of my best score on any round""]",51665,,64096,,,survey-multi-choice,,83
,,,,"[True, False, False, True]",,,,,,,,"[""True or false: The hidden values will change each time I start a new round."",""How much does it cost to observe each hidden value?"",""How many hidden values am I allowed to observe in each round?"",""How is your bonus determined?""]","[""True"",""$0.01"",""At most 10"",""1 cent for every $1 I earn in each round""]",43395,,223447,,,survey-multi-choice,,83
,,,,"[False, True, False, True]",,,,,,,,"[""True or false: The hidden values will change each time I start a new round."",""How much does it cost to observe each hidden value?"",""How many hidden values am I allowed to observe in each round?"",""How is your bonus determined?""]","[""False"",""$4.00"",""At most 10"",""1 cent for every $1 I earn in each round""]",42472,,277516,,,survey-multi-choice,,83
,,,,"[True, True, True, True]",,,,,,,,"[""True or false: The hidden values will change each time I start a new round."",""How much does it cost to observe each hidden value?"",""How many hidden values am I allowed to observe in each round?"",""How is your bonus determined?""]","[""True"",""$4.00"",""As many or as few as I wish"",""1 cent for every $1 I earn in each round""]",39000,,388574,,,survey-multi-choice,,83
,,,,"[True, False, True, False]",,,,,,,,"[""True or false: The hidden values will change each time I start a new round."",""How much does it cost to observe each hidden value?"",""How many hidden values am I allowed to observe in each round?"",""How is your bonus determined?""]","[""True"",""$1.50"",""As many or as few as I wish"",""10% of my score on a random round""]",36081,,121337,,,survey-multi-choice,,84
,,,,"[True, True, True, True]",,,,,,,,"[""True or false: The hidden values will change each time I start a new round."",""How much does it cost to observe each hidden value?"",""How many hidden values am I allowed to observe in each round?"",""How is your bonus determined?""]","[""True"",""$0.10"",""As many or as few as I wish"",""1 cent for every $1 I earn in each round""]",14254,,202827,,,survey-multi-choice,,84
,,,,"[True, True, False, True]",,,,,,,,"[""True or false: The hidden values will change each time I start a new round."",""How much does it cost to observe each hidden value?"",""How many hidden values am I allowed to observe in each round?"",""How is your bonus determined?""]","[""True"",""$4.00"",""At most 1"",""1 cent for every $1 I earn in each round""]",30507,,247605,,,survey-multi-choice,,85
,,,,"[True, True, True, True]",,,,,,,,"[""True or false: The hidden values will change each time I start a new round."",""How much does it cost to observe each hidden value?"",""How many hidden values am I allowed to observe in each round?"",""How is your bonus determined?""]","[""True"",""$4.00"",""As many or as few as I wish"",""1 cent for every $1 I earn in each round""]",15860,,344514,,,survey-multi-choice,,85
,,,,"[True, True, True, True]",,,,,,,,"[""True or false: The hidden values will change each time I start a new round."",""How much does it cost to observe each hidden value?"",""How many hidden values am I allowed to observe in each round?"",""How is your bonus determined?""]","[""True"",""$4.00"",""As many or as few as I wish"",""1 cent for every $1 I earn in each round""]",12428,,65760,,,survey-multi-choice,,86
,,,,"[True, True, True, True]",,,,,,,,"[""True or false: The hidden values will change each time I start a new round."",""How much does it cost to observe each hidden value?"",""How many hidden values am I allowed to observe in each round?"",""How is your bonus determined?""]","[""True"",""$4.00"",""As many or as few as I wish"",""1 cent for every $1 I earn in each round""]",149038,,281949,,,survey-multi-choice,,87
,,,,"[True, True, True, True]",,,,,,,,"[""True or false: The hidden values will change each time I start a new round."",""How much does it cost to observe each hidden value?"",""How many hidden values am I allowed to observe in each round?"",""How is your bonus determined?""]","[""True"",""$1.25"",""As many or as few as I wish"",""1 cent for every $1 I earn in each round""]",20956,,98070,,,survey-multi-choice,,88
,,,,"[True, True, True, True]",,,,,,,,"[""True or false: The hidden values will change each time I start a new round."",""How much does it cost to observe each hidden value?"",""How many hidden values am I allowed to observe in each round?"",""How is your bonus determined?""]","[""True"",""$0.10"",""As many or as few as I wish"",""1 cent for every $1 I earn in each round""]",37667,,219024,,,survey-multi-choice,,89
,,,,"[True, True, True, True]",,,,,,,,"[""True or false: The hidden values will change each time I start a new round."",""How much does it cost to observe each hidden value?"",""How many hidden values am I allowed to observe in each round?"",""How is your bonus determined?""]","[""True"",""$4.00"",""As many or as few as I wish"",""1 cent for every $1 I earn in each round""]",20445,,118928,,,survey-multi-choice,,90
,,,,"[True, True, True, True]",,,,,,,,"[""True or false: The hidden values will change each time I start a new round."",""How much does it cost to observe each hidden value?"",""How many hidden values am I allowed to observe in each round?"",""How is your bonus determined?""]","[""True"",""$1.25"",""As many or as few as I wish"",""1 cent for every $1 I earn in each round""]",14380,,73304,,,survey-multi-choice,,91
,,,,"[True, True, True, True]",,,,,,,,"[""True or false: The hidden values will change each time I start a new round."",""How much does it cost to observe each hidden value?"",""How many hidden values am I allowed to observe in each round?"",""How is your bonus determined?""]","[""True"",""$1.25"",""As many or as few as I wish"",""1 cent for every $1 I earn in each round""]",14283,,120239,,,survey-multi-choice,,92
,,,,"[True, True, False, True]",,,,,,,,"[""True or false: The hidden values will change each time I start a new round."",""How much does it cost to observe each hidden value?"",""How many hidden values am I allowed to observe in each round?"",""How is your bonus determined?""]","[""True"",""$4.00"",""At most 1"",""1 cent for every $1 I earn in each round""]",17568,,64253,,,survey-multi-choice,,93
,,,,"[False, True, False, True]",,,,,,,,"[""True or false: The hidden values will change each time I start a new round."",""How much does it cost to observe each hidden value?"",""How many hidden values am I allowed to observe in each round?"",""How is your bonus determined?""]","[""False"",""$4.00"",""At most 1"",""1 cent for every $1 I earn in each round""]",8839,,90927,,,survey-multi-choice,,93
,,,,"[True, True, False, True]",,,,,,,,"[""True or false: The hidden values will change each time I start a new round."",""How much does it cost to observe each hidden value?"",""How many hidden values am I allowed to observe in each round?"",""How is your bonus determined?""]","[""True"",""$4.00"",""At most 5"",""1 cent for every $1 I earn in each round""]",12817,,109939,,,survey-multi-choice,,93
,,,,"[True, True, True, True]",,,,,,,,"[""True or false: The hidden values will change each time I start a new round."",""How much does it cost to observe each hidden value?"",""How many hidden values am I allowed to observe in each round?"",""How is your bonus determined?""]","[""True"",""$4.00"",""As many or as few as I wish"",""1 cent for every $1 I earn in each round""]",10055,,134812,,,survey-multi-choice,,93
,,,,"[True, False, True, True]",,,,,,,,"[""True or false: The hidden values will change each time I start a new round."",""How much does it cost to observe each hidden value?"",""How many hidden values am I allowed to observe in each round?"",""How is your bonus determined?""]","[""True"",""$0.01"",""As many or as few as I wish"",""1 cent for every $1 I earn in each round""]",32361,,105562,,,survey-multi-choice,,94
,,,,"[True, True, True, True]",,,,,,,,"[""True or false: The hidden values will change each time I start a new round."",""How much does it cost to observe each hidden value?"",""How many hidden values am I allowed to observe in each round?"",""How is your bonus determined?""]","[""True"",""$0.10"",""As many or as few as I wish"",""1 cent for every $1 I earn in each round""]",12128,,170031,,,survey-multi-choice,,94
,,,,"[True, False, True, True]",,,,,,,,"[""True or false: The hidden values will change each time I start a new round."",""How much does it cost to observe each hidden value?"",""How many hidden values am I allowed to observe in each round?"",""How is your bonus determined?""]","[""True"",""$0.10"",""As many or as few as I wish"",""1 cent for every $1 I earn in each round""]",37557,,196028,,,survey-multi-choice,,95
,,,,"[True, False, True, True]",,,,,,,,"[""True or false: The hidden values will change each time I start a new round."",""How much does it cost to observe each hidden value?"",""How many hidden values am I allowed to observe in each round?"",""How is your bonus determined?""]","[""True"",""$0.10"",""As many or as few as I wish"",""1 cent for every $1 I earn in each round""]",21339,,226373,,,survey-multi-choice,,95
,,,,"[True, True, True, True]",,,,,,,,"[""True or false: The hidden values will change each time I start a new round."",""How much does it cost to observe each hidden value?"",""How many hidden values am I allowed to observe in each round?"",""How is your bonus determined?""]","[""True"",""$4.00"",""As many or as few as I wish"",""1 cent for every $1 I earn in each round""]",16298,,273450,,,survey-multi-choice,,95
,,,,"[True, True, True, True]",,,,,,,,"[""True or false: The hidden values will change each time I start a new round."",""How much does it cost to observe each hidden value?"",""How many hidden values am I allowed to observe in each round?"",""How is your bonus determined?""]","[""True"",""$4.00"",""As many or as few as I wish"",""1 cent for every $1 I earn in each round""]",56496,,141332,,,survey-multi-choice,,96
,,,,"[True, True, True, True]",,,,,,,,"[""True or false: The hidden values will change each time I start a new round."",""How much does it cost to observe each hidden value?"",""How many hidden values am I allowed to observe in each round?"",""How is your bonus determined?""]","[""True"",""$0.10"",""As many or as few as I wish"",""1 cent for every $1 I earn in each round""]",12496,,636041,,,survey-multi-choice,,97
,,,,"[True, True, True, True]",,,,,,,,"[""True or false: The hidden values will change each time I start a new round."",""How much does it cost to observe each hidden value?"",""How many hidden values am I allowed to observe in each round?"",""How is your bonus determined?""]","[""True"",""$1.25"",""As many or as few as I wish"",""1 cent for every $1 I earn in each round""]",47997,,227037,,,survey-multi-choice,,98
,,,,"[True, True, True, True]",,,,,,,,"[""True or false: The hidden values will change each time I start a new round."",""How much does it cost to observe each hidden value?"",""How many hidden values am I allowed to observe in each round?"",""How is your bonus determined?""]","[""True"",""$4.00"",""As many or as few as I wish"",""1 cent for every $1 I earn in each round""]",16777,,97271,,,survey-multi-choice,,99
,,,,"[True, True, True, True]",,,,,,,,"[""True or false: The hidden values will change each time I start a new round."",""How much does it cost to observe each hidden value?"",""How many hidden values am I allowed to observe in each round?"",""How is your bonus determined?""]","[""True"",""$1.25"",""As many or as few as I wish"",""1 cent for every $1 I earn in each round""]",20197,,124974,,,survey-multi-choice,,100
,,,,"[True, True, True, True]",,,,,,,,"[""True or false: The hidden values will change each time I start a new round."",""How much does it cost to observe each hidden value?"",""How many hidden values am I allowed to observe in each round?"",""How is your bonus determined?""]","[""True"",""$0.10"",""As many or as few as I wish"",""1 cent for every $1 I earn in each round""]",28681,,182459,,,survey-multi-choice,,101
,,,,"[True, True, True, False]",,,,,,,,"[""True or false: The hidden values will change each time I start a new round."",""How much does it cost to observe each hidden value?"",""How many hidden values am I allowed to observe in each round?"",""How is your bonus determined?""]","[""True"",""$1.25"",""As many or as few as I wish"",""10% of my score on a random round""]",33452,,239303,,,survey-multi-choice,,102
,,,,"[True, True, True, True]",,,,,,,,"[""True or false: The hidden values will change each time I start a new round."",""How much does it cost to observe each hidden value?"",""How many hidden values am I allowed to observe in each round?"",""How is your bonus determined?""]","[""True"",""$1.25"",""As many or as few as I wish"",""1 cent for every $1 I earn in each round""]",19054,,324825,,,survey-multi-choice,,102
