p_rdata,action_times,actions,beliefs,correct,delays,information_used_correctly,meta_actions,path,planned_too_little,planned_too_much,queries,questions,responses,rt,score,time_elapsed,trial_index,trial_i,trial_type,view_history,pid
"[{u'Q': -1.9984014443252818e-15, u'action': u'__TERM_ACTION__', u'Qs': [5.1359999999999975, 5.1359999999999975, 5.135999999999999, 5.135999999999999, 5.1359999999999975, 5.1359999999999975, 5.135999999999999, 5.135999999999999, 5.1359999999999975, 5.1359999999999975, 5.135999999999999, 5.135999999999999, 5.1359999999999975, 5.1359999999999975, 5.135999999999999, 5.135999999999999, -1.9984014443252818e-15], u'state': [0, u'__', u'__', u'__', u'__', u'__', u'__', u'__', u'__', u'__', u'__', u'__', u'__', u'__', u'__', u'__', u'__'], u'V': 5.135999999999999}]","[2362, 15018, 18065]","[u'1', u'1', u'0']","[[0, u'__', u'__', u'__', u'__', u'__', u'__', u'__', u'__', u'__', u'__', u'__', u'__', u'__', u'__', u'__', u'__']]",,[3],[True],[u'__TERM_ACTION__'],"[0, 5, 6, 8]",[True],[False],"{u'mouseover': {u'state': {u'target': [], u'time': []}, u'edge': {u'target': [], u'time': []}}, u'click': {u'state': {u'target': [], u'time': []}, u'edge': {u'target': [], u'time': []}}, u'mouseout': {u'state': {u'target': [], u'time': []}, u'edge': {u'target': [], u'time': []}}}",,,"[2359, 3936, 2520]",4.0,511502,1.0,,mouselab-mdp,,0
"[{u'Q': -1.9984014443252818e-15, u'action': u'__TERM_ACTION__', u'Qs': [5.1359999999999975, 5.1359999999999975, 5.135999999999999, 5.135999999999999, 5.1359999999999975, 5.1359999999999975, 5.135999999999999, 5.135999999999999, 5.1359999999999975, 5.1359999999999975, 5.135999999999999, 5.135999999999999, 5.1359999999999975, 5.1359999999999975, 5.135999999999999, 5.135999999999999, -1.9984014443252818e-15], u'state': [0, u'__', u'__', u'__', u'__', u'__', u'__', u'__', u'__', u'__', u'__', u'__', u'__', u'__', u'__', u'__', u'__'], u'V': 5.135999999999999}]","[2781, 7767, 10349]","[u'2', u'2', u'3']","[[0, u'__', u'__', u'__', u'__', u'__', u'__', u'__', u'__', u'__', u'__', u'__', u'__', u'__', u'__', u'__', u'__']]",,[3],[True],[u'__TERM_ACTION__'],"[0, 9, 10, 11]",[True],[False],"{u'mouseover': {u'state': {u'target': [], u'time': []}, u'edge': {u'target': [], u'time': []}}, u'click': {u'state': {u'target': [], u'time': []}, u'edge': {u'target': [], u'time': []}}, u'mouseout': {u'state': {u'target': [], u'time': []}, u'edge': {u'target': [], u'time': []}}}",,,"[2781, 1467, 2070]",36.0,578539,2.0,,mouselab-mdp,,0
"[{u'Q': 5.135999999999999, u'action': 15, u'Qs': [5.1359999999999975, 5.1359999999999975, 5.135999999999999, 5.135999999999999, 5.1359999999999975, 5.1359999999999975, 5.135999999999999, 5.135999999999999, 5.1359999999999975, 5.1359999999999975, 5.135999999999999, 5.135999999999999, 5.1359999999999975, 5.1359999999999975, 5.135999999999999, 5.135999999999999, -1.9984014443252818e-15], u'state': [0, u'__', u'__', u'__', u'__', u'__', u'__', u'__', u'__', u'__', u'__', u'__', u'__', u'__', u'__', u'__', u'__'], u'V': 5.135999999999999}, {u'Q': -1.9984014443252818e-15, u'action': u'__TERM_ACTION__', u'Qs': [5.1359999999999975, 5.1359999999999975, 5.135999999999999, 5.135999999999999, 5.1359999999999975, 5.1359999999999975, 5.135999999999999, 5.135999999999999, 5.1359999999999975, 5.1359999999999975, 5.135999999999999, 5.135999999999999, 5.1359999999999975, 5.1359999999999975, 5.135999999999999, -1.9984014443252818e-15], u'state': [0, u'__', u'__', u'__', u'__', u'__', u'__', u'__', u'__', u'__', u'__', u'__', u'__', u'__', u'__', -12, u'__'], u'V': 5.135999999999999}]","[8981, 17581, 81683]","[u'0', u'0', u'1']","[[0, u'__', u'__', u'__', u'__', u'__', u'__', u'__', u'__', u'__', u'__', u'__', u'__', u'__', u'__', u'__', u'__'], [0, u'__', u'__', u'__', u'__', u'__', u'__', u'__', u'__', u'__', u'__', u'__', u'__', u'__', u'__', -12, u'__']]",,[3],[True],"[15, u'__TERM_ACTION__']","[0, 1, 2, 3]",[True],[False],"{u'mouseover': {u'state': {u'target': [], u'time': []}, u'edge': {u'target': [], u'time': []}}, u'click': {u'state': {u'target': [15], u'time': [2002]}, u'edge': {u'target': [], u'time': []}}, u'mouseout': {u'state': {u'target': [], u'time': []}, u'edge': {u'target': [], u'time': []}}}",,,"[8979, 667, 63586]",19.0,666578,3.0,,mouselab-mdp,,0
"[{u'Q': -1.9984014443252818e-15, u'action': u'__TERM_ACTION__', u'Qs': [5.1359999999999975, 5.1359999999999975, 5.135999999999999, 5.135999999999999, 5.1359999999999975, 5.1359999999999975, 5.135999999999999, 5.135999999999999, 5.1359999999999975, 5.1359999999999975, 5.135999999999999, 5.135999999999999, 5.1359999999999975, 5.1359999999999975, 5.135999999999999, 5.135999999999999, -1.9984014443252818e-15], u'state': [0, u'__', u'__', u'__', u'__', u'__', u'__', u'__', u'__', u'__', u'__', u'__', u'__', u'__', u'__', u'__', u'__'], u'V': 5.135999999999999}]","[15235, 31614, 33937]","[u'2', u'2', u'1']","[[0, u'__', u'__', u'__', u'__', u'__', u'__', u'__', u'__', u'__', u'__', u'__', u'__', u'__', u'__', u'__', u'__']]",,[3],[True],[u'__TERM_ACTION__'],"[0, 9, 10, 12]",[True],[False],"{u'mouseover': {u'state': {u'target': [], u'time': []}, u'edge': {u'target': [], u'time': []}}, u'click': {u'state': {u'target': [], u'time': []}, u'edge': {u'target': [], u'time': []}}, u'mouseout': {u'state': {u'target': [], u'time': []}, u'edge': {u'target': [], u'time': []}}}",,,"[15235, 12849, 1809]",-4.0,718381,4.0,,mouselab-mdp,,0
"[{u'Q': 5.135999999999999, u'action': 15, u'Qs': [5.1359999999999975, 5.1359999999999975, 5.135999999999999, 5.135999999999999, 5.1359999999999975, 5.1359999999999975, 5.135999999999999, 5.135999999999999, 5.1359999999999975, 5.1359999999999975, 5.135999999999999, 5.135999999999999, 5.1359999999999975, 5.1359999999999975, 5.135999999999999, 5.135999999999999, -1.9984014443252818e-15], u'state': [0, u'__', u'__', u'__', u'__', u'__', u'__', u'__', u'__', u'__', u'__', u'__', u'__', u'__', u'__', u'__', u'__'], u'V': 5.135999999999999}, {u'Q': -1.9984014443252818e-15, u'action': u'__TERM_ACTION__', u'Qs': [5.1359999999999975, 5.1359999999999975, 5.135999999999999, 5.135999999999999, 5.1359999999999975, 5.1359999999999975, 5.135999999999999, 5.135999999999999, 5.1359999999999975, 5.1359999999999975, 5.135999999999999, 5.135999999999999, 5.1359999999999975, 5.1359999999999975, 5.135999999999999, -1.9984014443252818e-15], u'state': [0, u'__', u'__', u'__', u'__', u'__', u'__', u'__', u'__', u'__', u'__', u'__', u'__', u'__', u'__', -4, u'__'], u'V': 5.135999999999999}]","[6166, 15673, 18066]","[u'3', u'3', u'2']","[[0, u'__', u'__', u'__', u'__', u'__', u'__', u'__', u'__', u'__', u'__', u'__', u'__', u'__', u'__', u'__', u'__'], [0, u'__', u'__', u'__', u'__', u'__', u'__', u'__', u'__', u'__', u'__', u'__', u'__', u'__', u'__', -4, u'__']]",,[3],[True],"[15, u'__TERM_ACTION__']","[0, 13, 14, 16]",[True],[False],"{u'mouseover': {u'state': {u'target': [], u'time': []}, u'edge': {u'target': [], u'time': []}}, u'click': {u'state': {u'target': [15], u'time': [3594]}, u'edge': {u'target': [], u'time': []}}, u'mouseout': {u'state': {u'target': [], u'time': []}, u'edge': {u'target': [], u'time': []}}}",,,"[6166, 2181, 1881]",3.0,770611,5.0,,mouselab-mdp,,0
"[{u'Q': 5.135999999999999, u'action': 4, u'Qs': [5.1359999999999975, 5.1359999999999975, 5.135999999999999, 5.135999999999999, 5.1359999999999975, 5.1359999999999975, 5.135999999999999, 5.135999999999999, 5.1359999999999975, 5.1359999999999975, 5.135999999999999, 5.135999999999999, 5.1359999999999975, 5.1359999999999975, 5.135999999999999, 5.135999999999999, -1.9984014443252818e-15], u'state': [0, u'__', u'__', u'__', u'__', u'__', u'__', u'__', u'__', u'__', u'__', u'__', u'__', u'__', u'__', u'__', u'__'], u'V': 5.135999999999999}, {u'Q': 20, u'action': u'__TERM_ACTION__', u'Qs': [21, 21, 21, 21, 21, 21, 21, 21, 21, 21, 21, 21, 21, 21, 21, 20], u'state': [0, u'__', u'__', u'__', 20, u'__', u'__', u'__', u'__', u'__', u'__', u'__', u'__', u'__', u'__', u'__', u'__'], u'V': 21}]","[6302, 14414, 17264]","[u'0', u'0', u'1']","[[0, u'__', u'__', u'__', u'__', u'__', u'__', u'__', u'__', u'__', u'__', u'__', u'__', u'__', u'__', u'__', u'__'], [0, u'__', u'__', u'__', 20, u'__', u'__', u'__', u'__', u'__', u'__', u'__', u'__', u'__', u'__', u'__', u'__']]",,[3],[True],"[4, u'__TERM_ACTION__']","[0, 1, 2, 3]",[True],[False],"{u'mouseover': {u'state': {u'target': [], u'time': []}, u'edge': {u'target': [], u'time': []}}, u'click': {u'state': {u'target': [4], u'time': [4854]}, u'edge': {u'target': [], u'time': []}}, u'mouseout': {u'state': {u'target': [], u'time': []}, u'edge': {u'target': [], u'time': []}}}",,,"[6301, 1662, 2337]",-13.0,821706,6.0,,mouselab-mdp,,0
"[{u'Q': 5.135999999999999, u'action': 12, u'Qs': [5.1359999999999975, 5.1359999999999975, 5.135999999999999, 5.135999999999999, 5.1359999999999975, 5.1359999999999975, 5.135999999999999, 5.135999999999999, 5.1359999999999975, 5.1359999999999975, 5.135999999999999, 5.135999999999999, 5.1359999999999975, 5.1359999999999975, 5.135999999999999, 5.135999999999999, -1.9984014443252818e-15], u'state': [0, u'__', u'__', u'__', u'__', u'__', u'__', u'__', u'__', u'__', u'__', u'__', u'__', u'__', u'__', u'__', u'__'], u'V': 5.135999999999999}, {u'Q': 3.9999999999999982, u'action': u'__TERM_ACTION__', u'Qs': [7.1359999999999975, 7.135999999999998, 7.135999999999999, 7.135999999999999, 7.1359999999999975, 7.135999999999998, 7.135999999999999, 7.135999999999999, 7.135999999999998, 7.135999999999998, 7.135999999999999, 7.1359999999999975, 7.135999999999998, 7.135999999999999, 7.135999999999999, 3.9999999999999982], u'state': [0, u'__', u'__', u'__', u'__', u'__', u'__', u'__', u'__', u'__', u'__', u'__', 4, u'__', u'__', u'__', u'__'], u'V': 7.135999999999999}]","[6107, 22871, 26696]","[u'1', u'1', u'2']","[[0, u'__', u'__', u'__', u'__', u'__', u'__', u'__', u'__', u'__', u'__', u'__', u'__', u'__', u'__', u'__', u'__'], [0, u'__', u'__', u'__', u'__', u'__', u'__', u'__', u'__', u'__', u'__', u'__', 4, u'__', u'__', u'__', u'__']]",,[3],[False],"[12, u'__TERM_ACTION__']","[0, 5, 6, 7]",[True],[False],"{u'mouseover': {u'state': {u'target': [], u'time': []}, u'edge': {u'target': [], u'time': []}}, u'click': {u'state': {u'target': [12], u'time': [2973]}, u'edge': {u'target': [], u'time': []}}, u'mouseout': {u'state': {u'target': [], u'time': []}, u'edge': {u'target': [], u'time': []}}}",,,"[6107, 9758, 3237]",-37.0,873303,7.0,,mouselab-mdp,,0
"[{u'Q': -1.9984014443252818e-15, u'action': u'__TERM_ACTION__', u'Qs': [5.1359999999999975, 5.1359999999999975, 5.135999999999999, 5.135999999999999, 5.1359999999999975, 5.1359999999999975, 5.135999999999999, 5.135999999999999, 5.1359999999999975, 5.1359999999999975, 5.135999999999999, 5.135999999999999, 5.1359999999999975, 5.1359999999999975, 5.135999999999999, 5.135999999999999, -1.9984014443252818e-15], u'state': [0, u'__', u'__', u'__', u'__', u'__', u'__', u'__', u'__', u'__', u'__', u'__', u'__', u'__', u'__', u'__', u'__'], u'V': 5.135999999999999}]","[681, 4508, 5211]","[u'0', u'0', u'1']","[[0, u'__', u'__', u'__', u'__', u'__', u'__', u'__', u'__', u'__', u'__', u'__', u'__', u'__', u'__', u'__', u'__']]",,[3],[True],[u'__TERM_ACTION__'],"[0, 1, 2, 3]",[True],[False],"{u'mouseover': {u'state': {u'target': [], u'time': []}, u'edge': {u'target': [], u'time': []}}, u'click': {u'state': {u'target': [], u'time': []}, u'edge': {u'target': [], u'time': []}}, u'mouseout': {u'state': {u'target': [], u'time': []}, u'edge': {u'target': [], u'time': []}}}",,,"[681, 291, 182]",-36.0,924032,8.0,,mouselab-mdp,,0
"[{u'Q': -1.9984014443252818e-15, u'action': u'__TERM_ACTION__', u'Qs': [5.1359999999999975, 5.1359999999999975, 5.135999999999999, 5.135999999999999, 5.1359999999999975, 5.1359999999999975, 5.135999999999999, 5.135999999999999, 5.1359999999999975, 5.1359999999999975, 5.135999999999999, 5.135999999999999, 5.1359999999999975, 5.1359999999999975, 5.135999999999999, 5.135999999999999, -1.9984014443252818e-15], u'state': [0, u'__', u'__', u'__', u'__', u'__', u'__', u'__', u'__', u'__', u'__', u'__', u'__', u'__', u'__', u'__', u'__'], u'V': 5.135999999999999}]","[2147, 5989, 7508]","[u'2', u'2', u'3']","[[0, u'__', u'__', u'__', u'__', u'__', u'__', u'__', u'__', u'__', u'__', u'__', u'__', u'__', u'__', u'__', u'__']]",,[3],[True],[u'__TERM_ACTION__'],"[0, 9, 10, 11]",[True],[False],"{u'mouseover': {u'state': {u'target': [], u'time': []}, u'edge': {u'target': [], u'time': []}}, u'click': {u'state': {u'target': [], u'time': []}, u'edge': {u'target': [], u'time': []}}, u'mouseout': {u'state': {u'target': [], u'time': []}, u'edge': {u'target': [], u'time': []}}}",,,"[2146, 299, 999]",-4.0,975340,9.0,,mouselab-mdp,,0
"[{u'Q': -1.9984014443252818e-15, u'action': u'__TERM_ACTION__', u'Qs': [5.1359999999999975, 5.1359999999999975, 5.135999999999999, 5.135999999999999, 5.1359999999999975, 5.1359999999999975, 5.135999999999999, 5.135999999999999, 5.1359999999999975, 5.1359999999999975, 5.135999999999999, 5.135999999999999, 5.1359999999999975, 5.1359999999999975, 5.135999999999999, 5.135999999999999, -1.9984014443252818e-15], u'state': [0, u'__', u'__', u'__', u'__', u'__', u'__', u'__', u'__', u'__', u'__', u'__', u'__', u'__', u'__', u'__', u'__'], u'V': 5.135999999999999}]","[2650, 6305, 7275]","[u'1', u'1', u'2']","[[0, u'__', u'__', u'__', u'__', u'__', u'__', u'__', u'__', u'__', u'__', u'__', u'__', u'__', u'__', u'__', u'__']]",,[3],[True],[u'__TERM_ACTION__'],"[0, 5, 6, 7]",[True],[False],"{u'mouseover': {u'state': {u'target': [], u'time': []}, u'edge': {u'target': [], u'time': []}}, u'click': {u'state': {u'target': [], u'time': []}, u'edge': {u'target': [], u'time': []}}, u'mouseout': {u'state': {u'target': [], u'time': []}, u'edge': {u'target': [], u'time': []}}}",,,"[2650, 122, 453]",12.0,1027816,10.0,,mouselab-mdp,,0
,"[1208, 1773, 2400]","[u'1', u'1', u'2']","[[0, u'__', u'__', u'__', u'__', u'__', u'__', u'__', u'__', u'__', u'__', u'__', u'__', u'__', u'__', u'__', u'__']]",,[],[],[u'__TERM_ACTION__'],"[0, 5, 6, 7]",[],[],"{u'mouseover': {u'state': {u'target': [], u'time': []}, u'edge': {u'target': [], u'time': []}}, u'click': {u'state': {u'target': [], u'time': []}, u'edge': {u'target': [], u'time': []}}, u'mouseout': {u'state': {u'target': [], u'time': []}, u'edge': {u'target': [], u'time': []}}}",,,"[1207, 34, 116]",-44.0,1075513,11.0,,mouselab-mdp,,0
,"[640, 1263, 1903]","[u'0', u'0', u'3']","[[0, u'__', u'__', u'__', u'__', u'__', u'__', u'__', u'__', u'__', u'__', u'__', u'__', u'__', u'__', u'__', u'__']]",,[],[],[u'__TERM_ACTION__'],"[0, 1, 2, 4]",[],[],"{u'mouseover': {u'state': {u'target': [], u'time': []}, u'edge': {u'target': [], u'time': []}}, u'click': {u'state': {u'target': [], u'time': []}, u'edge': {u'target': [], u'time': []}}, u'mouseout': {u'state': {u'target': [], u'time': []}, u'edge': {u'target': [], u'time': []}}}",,,"[639, 128, 119]",20.0,1122812,12.0,,mouselab-mdp,,0
,"[472, 1118, 1731]","[u'0', u'0', u'1']","[[0, u'__', u'__', u'__', u'__', u'__', u'__', u'__', u'__', u'__', u'__', u'__', u'__', u'__', u'__', u'__', u'__']]",,[],[],[u'__TERM_ACTION__'],"[0, 1, 2, 3]",[],[],"{u'mouseover': {u'state': {u'target': [], u'time': []}, u'edge': {u'target': [], u'time': []}}, u'click': {u'state': {u'target': [], u'time': []}, u'edge': {u'target': [], u'time': []}}, u'mouseout': {u'state': {u'target': [], u'time': []}, u'edge': {u'target': [], u'time': []}}}",,,"[471, 119, 99]",-12.0,1171399,13.0,,mouselab-mdp,,0
,"[1199, 1725, 3621]","[u'3', u'3', u'2']","[[0, u'__', u'__', u'__', u'__', u'__', u'__', u'__', u'__', u'__', u'__', u'__', u'__', u'__', u'__', u'__', u'__']]",,[],[],[u'__TERM_ACTION__'],"[0, 13, 14, 16]",[],[],"{u'mouseover': {u'state': {u'target': [], u'time': []}, u'edge': {u'target': [], u'time': []}}, u'click': {u'state': {u'target': [], u'time': []}, u'edge': {u'target': [], u'time': []}}, u'mouseout': {u'state': {u'target': [], u'time': []}, u'edge': {u'target': [], u'time': []}}}",,,"[1199, 16, 1380]",-4.0,1226271,14.0,,mouselab-mdp,,0
,"[583, 1307, 1952]","[u'2', u'2', u'1']","[[0, u'__', u'__', u'__', u'__', u'__', u'__', u'__', u'__', u'__', u'__', u'__', u'__', u'__', u'__', u'__', u'__']]",,[],[],[u'__TERM_ACTION__'],"[0, 9, 10, 12]",[],[],"{u'mouseover': {u'state': {u'target': [], u'time': []}, u'edge': {u'target': [], u'time': []}}, u'click': {u'state': {u'target': [], u'time': []}, u'edge': {u'target': [], u'time': []}}, u'mouseout': {u'state': {u'target': [], u'time': []}, u'edge': {u'target': [], u'time': []}}}",,,"[583, 197, 128]",-12.0,1274687,15.0,,mouselab-mdp,,0
,"[2633, 4028, 4896]","[u'2', u'2', u'1']","[[0, u'__', u'__', u'__', u'__', u'__', u'__', u'__', u'__', u'__', u'__', u'__', u'__', u'__', u'__', u'__', u'__']]",,[],[],[u'__TERM_ACTION__'],"[0, 9, 10, 12]",[],[],"{u'mouseover': {u'state': {u'target': [], u'time': []}, u'edge': {u'target': [], u'time': []}}, u'click': {u'state': {u'target': [], u'time': []}, u'edge': {u'target': [], u'time': []}}, u'mouseout': {u'state': {u'target': [], u'time': []}, u'edge': {u'target': [], u'time': []}}}",,,"[2633, 875, 344]",28.0,1322166,16.0,,mouselab-mdp,,0
"[{u'Q': -1.9984014443252818e-15, u'action': u'__TERM_ACTION__', u'Qs': [5.1359999999999975, 5.1359999999999975, 5.135999999999999, 5.135999999999999, 5.1359999999999975, 5.1359999999999975, 5.135999999999999, 5.135999999999999, 5.1359999999999975, 5.1359999999999975, 5.135999999999999, 5.135999999999999, 5.1359999999999975, 5.1359999999999975, 5.135999999999999, 5.135999999999999, -1.9984014443252818e-15], u'state': [0, u'__', u'__', u'__', u'__', u'__', u'__', u'__', u'__', u'__', u'__', u'__', u'__', u'__', u'__', u'__', u'__'], u'V': 5.135999999999999}]","[7601, 17208, 19312]","[u'2', u'2', u'3']","[[0, u'__', u'__', u'__', u'__', u'__', u'__', u'__', u'__', u'__', u'__', u'__', u'__', u'__', u'__', u'__', u'__']]",,[3],[True],[u'__TERM_ACTION__'],"[0, 9, 10, 11]",[True],[False],"{u'mouseover': {u'state': {u'target': [], u'time': []}, u'edge': {u'target': [], u'time': []}}, u'click': {u'state': {u'target': [], u'time': []}, u'edge': {u'target': [], u'time': []}}, u'mouseout': {u'state': {u'target': [], u'time': []}, u'edge': {u'target': [], u'time': []}}}",,,"[7600, 4552, 1565]",-4.0,105258,1.0,,mouselab-mdp,,1
"[{u'Q': -1.9984014443252818e-15, u'action': u'__TERM_ACTION__', u'Qs': [5.1359999999999975, 5.1359999999999975, 5.135999999999999, 5.135999999999999, 5.1359999999999975, 5.1359999999999975, 5.135999999999999, 5.135999999999999, 5.1359999999999975, 5.1359999999999975, 5.135999999999999, 5.135999999999999, 5.1359999999999975, 5.1359999999999975, 5.135999999999999, 5.135999999999999, -1.9984014443252818e-15], u'state': [0, u'__', u'__', u'__', u'__', u'__', u'__', u'__', u'__', u'__', u'__', u'__', u'__', u'__', u'__', u'__', u'__'], u'V': 5.135999999999999}]","[980, 5083, 10500]","[u'3', u'3', u'0']","[[0, u'__', u'__', u'__', u'__', u'__', u'__', u'__', u'__', u'__', u'__', u'__', u'__', u'__', u'__', u'__', u'__']]",,[3],[True],[u'__TERM_ACTION__'],"[0, 13, 14, 15]",[True],[False],"{u'mouseover': {u'state': {u'target': [], u'time': []}, u'edge': {u'target': [], u'time': []}}, u'click': {u'state': {u'target': [], u'time': []}, u'edge': {u'target': [], u'time': []}}, u'mouseout': {u'state': {u'target': [], u'time': []}, u'edge': {u'target': [], u'time': []}}}",,,"[980, 573, 4892]",4.0,156426,2.0,,mouselab-mdp,,1
"[{u'Q': -1.9984014443252818e-15, u'action': u'__TERM_ACTION__', u'Qs': [5.1359999999999975, 5.1359999999999975, 5.135999999999999, 5.135999999999999, 5.1359999999999975, 5.1359999999999975, 5.135999999999999, 5.135999999999999, 5.1359999999999975, 5.1359999999999975, 5.135999999999999, 5.135999999999999, 5.1359999999999975, 5.1359999999999975, 5.135999999999999, 5.135999999999999, -1.9984014443252818e-15], u'state': [0, u'__', u'__', u'__', u'__', u'__', u'__', u'__', u'__', u'__', u'__', u'__', u'__', u'__', u'__', u'__', u'__'], u'V': 5.135999999999999}]","[2682, 8730, 10859]","[u'0', u'0', u'3']","[[0, u'__', u'__', u'__', u'__', u'__', u'__', u'__', u'__', u'__', u'__', u'__', u'__', u'__', u'__', u'__', u'__']]",,[3],[True],[u'__TERM_ACTION__'],"[0, 1, 2, 4]",[True],[False],"{u'mouseover': {u'state': {u'target': [], u'time': []}, u'edge': {u'target': [], u'time': []}}, u'click': {u'state': {u'target': [], u'time': []}, u'edge': {u'target': [], u'time': []}}, u'mouseout': {u'state': {u'target': [], u'time': []}, u'edge': {u'target': [], u'time': []}}}",,,"[2682, 2515, 1598]",-12.0,206218,3.0,,mouselab-mdp,,1
"[{u'Q': -1.9984014443252818e-15, u'action': u'__TERM_ACTION__', u'Qs': [5.1359999999999975, 5.1359999999999975, 5.135999999999999, 5.135999999999999, 5.1359999999999975, 5.1359999999999975, 5.135999999999999, 5.135999999999999, 5.1359999999999975, 5.1359999999999975, 5.135999999999999, 5.135999999999999, 5.1359999999999975, 5.1359999999999975, 5.135999999999999, 5.135999999999999, -1.9984014443252818e-15], u'state': [0, u'__', u'__', u'__', u'__', u'__', u'__', u'__', u'__', u'__', u'__', u'__', u'__', u'__', u'__', u'__', u'__'], u'V': 5.135999999999999}]","[4559, 8822, 10494]","[u'3', u'3', u'2']","[[0, u'__', u'__', u'__', u'__', u'__', u'__', u'__', u'__', u'__', u'__', u'__', u'__', u'__', u'__', u'__', u'__']]",,[3],[True],[u'__TERM_ACTION__'],"[0, 13, 14, 16]",[True],[False],"{u'mouseover': {u'state': {u'target': [], u'time': []}, u'edge': {u'target': [], u'time': []}}, u'click': {u'state': {u'target': [], u'time': []}, u'edge': {u'target': [], u'time': []}}, u'mouseout': {u'state': {u'target': [], u'time': []}, u'edge': {u'target': [], u'time': []}}}",,,"[4559, 732, 1136]",-4.0,258833,4.0,,mouselab-mdp,,1
"[{u'Q': -1.9984014443252818e-15, u'action': u'__TERM_ACTION__', u'Qs': [5.1359999999999975, 5.1359999999999975, 5.135999999999999, 5.135999999999999, 5.1359999999999975, 5.1359999999999975, 5.135999999999999, 5.135999999999999, 5.1359999999999975, 5.1359999999999975, 5.135999999999999, 5.135999999999999, 5.1359999999999975, 5.1359999999999975, 5.135999999999999, 5.135999999999999, -1.9984014443252818e-15], u'state': [0, u'__', u'__', u'__', u'__', u'__', u'__', u'__', u'__', u'__', u'__', u'__', u'__', u'__', u'__', u'__', u'__'], u'V': 5.135999999999999}]","[960, 4912, 16905]","[u'1', u'1', u'0']","[[0, u'__', u'__', u'__', u'__', u'__', u'__', u'__', u'__', u'__', u'__', u'__', u'__', u'__', u'__', u'__', u'__']]",,[3],[True],[u'__TERM_ACTION__'],"[0, 5, 6, 8]",[True],[False],"{u'mouseover': {u'state': {u'target': [], u'time': []}, u'edge': {u'target': [], u'time': []}}, u'click': {u'state': {u'target': [], u'time': []}, u'edge': {u'target': [], u'time': []}}, u'mouseout': {u'state': {u'target': [], u'time': []}, u'edge': {u'target': [], u'time': []}}}",,,"[960, 419, 11467]",28.0,308922,5.0,,mouselab-mdp,,1
"[{u'Q': -1.9984014443252818e-15, u'action': u'__TERM_ACTION__', u'Qs': [5.1359999999999975, 5.1359999999999975, 5.135999999999999, 5.135999999999999, 5.1359999999999975, 5.1359999999999975, 5.135999999999999, 5.135999999999999, 5.1359999999999975, 5.1359999999999975, 5.135999999999999, 5.135999999999999, 5.1359999999999975, 5.1359999999999975, 5.135999999999999, 5.135999999999999, -1.9984014443252818e-15], u'state': [0, u'__', u'__', u'__', u'__', u'__', u'__', u'__', u'__', u'__', u'__', u'__', u'__', u'__', u'__', u'__', u'__'], u'V': 5.135999999999999}]","[3409, 7304, 11656]","[u'0', u'0', u'3']","[[0, u'__', u'__', u'__', u'__', u'__', u'__', u'__', u'__', u'__', u'__', u'__', u'__', u'__', u'__', u'__', u'__']]",,[3],[True],[u'__TERM_ACTION__'],"[0, 1, 2, 4]",[True],[False],"{u'mouseover': {u'state': {u'target': [], u'time': []}, u'edge': {u'target': [], u'time': []}}, u'click': {u'state': {u'target': [], u'time': []}, u'edge': {u'target': [], u'time': []}}, u'mouseout': {u'state': {u'target': [], u'time': []}, u'edge': {u'target': [], u'time': []}}}",,,"[3409, 362, 3812]",20.0,358872,6.0,,mouselab-mdp,,1
"[{u'Q': -1.9984014443252818e-15, u'action': u'__TERM_ACTION__', u'Qs': [5.1359999999999975, 5.1359999999999975, 5.135999999999999, 5.135999999999999, 5.1359999999999975, 5.1359999999999975, 5.135999999999999, 5.135999999999999, 5.1359999999999975, 5.1359999999999975, 5.135999999999999, 5.135999999999999, 5.1359999999999975, 5.1359999999999975, 5.135999999999999, 5.135999999999999, -1.9984014443252818e-15], u'state': [0, u'__', u'__', u'__', u'__', u'__', u'__', u'__', u'__', u'__', u'__', u'__', u'__', u'__', u'__', u'__', u'__'], u'V': 5.135999999999999}]","[3579, 8115, 10827]","[u'2', u'2', u'3']","[[0, u'__', u'__', u'__', u'__', u'__', u'__', u'__', u'__', u'__', u'__', u'__', u'__', u'__', u'__', u'__', u'__']]",,[3],[True],[u'__TERM_ACTION__'],"[0, 9, 10, 11]",[True],[False],"{u'mouseover': {u'state': {u'target': [], u'time': []}, u'edge': {u'target': [], u'time': []}}, u'click': {u'state': {u'target': [], u'time': []}, u'edge': {u'target': [], u'time': []}}, u'mouseout': {u'state': {u'target': [], u'time': []}, u'edge': {u'target': [], u'time': []}}}",,,"[3579, 1001, 2185]",20.0,414809,7.0,,mouselab-mdp,,1
"[{u'Q': -1.9984014443252818e-15, u'action': u'__TERM_ACTION__', u'Qs': [5.1359999999999975, 5.1359999999999975, 5.135999999999999, 5.135999999999999, 5.1359999999999975, 5.1359999999999975, 5.135999999999999, 5.135999999999999, 5.1359999999999975, 5.1359999999999975, 5.135999999999999, 5.135999999999999, 5.1359999999999975, 5.1359999999999975, 5.135999999999999, 5.135999999999999, -1.9984014443252818e-15], u'state': [0, u'__', u'__', u'__', u'__', u'__', u'__', u'__', u'__', u'__', u'__', u'__', u'__', u'__', u'__', u'__', u'__'], u'V': 5.135999999999999}]","[1484, 6844, 10620]","[u'3', u'3', u'2']","[[0, u'__', u'__', u'__', u'__', u'__', u'__', u'__', u'__', u'__', u'__', u'__', u'__', u'__', u'__', u'__', u'__']]",,[3],[True],[u'__TERM_ACTION__'],"[0, 13, 14, 16]",[True],[False],"{u'mouseover': {u'state': {u'target': [], u'time': []}, u'edge': {u'target': [], u'time': []}}, u'click': {u'state': {u'target': [], u'time': []}, u'edge': {u'target': [], u'time': []}}, u'mouseout': {u'state': {u'target': [], u'time': []}, u'edge': {u'target': [], u'time': []}}}",,,"[1484, 1813, 3247]",28.0,469913,8.0,,mouselab-mdp,,1
"[{u'Q': -1.9984014443252818e-15, u'action': u'__TERM_ACTION__', u'Qs': [5.1359999999999975, 5.1359999999999975, 5.135999999999999, 5.135999999999999, 5.1359999999999975, 5.1359999999999975, 5.135999999999999, 5.135999999999999, 5.1359999999999975, 5.1359999999999975, 5.135999999999999, 5.135999999999999, 5.1359999999999975, 5.1359999999999975, 5.135999999999999, 5.135999999999999, -1.9984014443252818e-15], u'state': [0, u'__', u'__', u'__', u'__', u'__', u'__', u'__', u'__', u'__', u'__', u'__', u'__', u'__', u'__', u'__', u'__'], u'V': 5.135999999999999}]","[2787, 7139, 10155]","[u'1', u'1', u'0']","[[0, u'__', u'__', u'__', u'__', u'__', u'__', u'__', u'__', u'__', u'__', u'__', u'__', u'__', u'__', u'__', u'__']]",,[3],[True],[u'__TERM_ACTION__'],"[0, 5, 6, 8]",[True],[False],"{u'mouseover': {u'state': {u'target': [], u'time': []}, u'edge': {u'target': [], u'time': []}}, u'click': {u'state': {u'target': [], u'time': []}, u'edge': {u'target': [], u'time': []}}, u'mouseout': {u'state': {u'target': [], u'time': []}, u'edge': {u'target': [], u'time': []}}}",,,"[2787, 815, 2486]",-28.0,520657,9.0,,mouselab-mdp,,1
"[{u'Q': -1.9984014443252818e-15, u'action': u'__TERM_ACTION__', u'Qs': [5.1359999999999975, 5.1359999999999975, 5.135999999999999, 5.135999999999999, 5.1359999999999975, 5.1359999999999975, 5.135999999999999, 5.135999999999999, 5.1359999999999975, 5.1359999999999975, 5.135999999999999, 5.135999999999999, 5.1359999999999975, 5.1359999999999975, 5.135999999999999, 5.135999999999999, -1.9984014443252818e-15], u'state': [0, u'__', u'__', u'__', u'__', u'__', u'__', u'__', u'__', u'__', u'__', u'__', u'__', u'__', u'__', u'__', u'__'], u'V': 5.135999999999999}]","[1237, 6132, 9573]","[u'0', u'0', u'1']","[[0, u'__', u'__', u'__', u'__', u'__', u'__', u'__', u'__', u'__', u'__', u'__', u'__', u'__', u'__', u'__', u'__']]",,[3],[True],[u'__TERM_ACTION__'],"[0, 1, 2, 3]",[True],[False],"{u'mouseover': {u'state': {u'target': [], u'time': []}, u'edge': {u'target': [], u'time': []}}, u'click': {u'state': {u'target': [], u'time': []}, u'edge': {u'target': [], u'time': []}}, u'mouseout': {u'state': {u'target': [], u'time': []}, u'edge': {u'target': [], u'time': []}}}",,,"[1237, 1361, 2915]",-12.0,573536,10.0,,mouselab-mdp,,1
,"[3403, 7090, 9291]","[u'0', u'0', u'3']","[[0, u'__', u'__', u'__', u'__', u'__', u'__', u'__', u'__', u'__', u'__', u'__', u'__', u'__', u'__', u'__', u'__']]",,[],[],[u'__TERM_ACTION__'],"[0, 1, 2, 4]",[],[],"{u'mouseover': {u'state': {u'target': [], u'time': []}, u'edge': {u'target': [], u'time': []}}, u'click': {u'state': {u'target': [], u'time': []}, u'edge': {u'target': [], u'time': []}}, u'mouseout': {u'state': {u'target': [], u'time': []}, u'edge': {u'target': [], u'time': []}}}",,,"[3403, 3138, 1663]",-4.0,620996,11.0,,mouselab-mdp,,1
,"[2784, 6441, 8977]","[u'3', u'3', u'0']","[[0, u'__', u'__', u'__', u'__', u'__', u'__', u'__', u'__', u'__', u'__', u'__', u'__', u'__', u'__', u'__', u'__']]",,[],[],[u'__TERM_ACTION__'],"[0, 13, 14, 15]",[],[],"{u'mouseover': {u'state': {u'target': [], u'time': []}, u'edge': {u'target': [], u'time': []}}, u'click': {u'state': {u'target': [], u'time': []}, u'edge': {u'target': [], u'time': []}}, u'mouseout': {u'state': {u'target': [], u'time': []}, u'edge': {u'target': [], u'time': []}}}",,,"[2784, 3122, 2007]",-12.0,667945,12.0,,mouselab-mdp,,1
,"[2471, 5406, 8230]","[u'1', u'1', u'0']","[[0, u'__', u'__', u'__', u'__', u'__', u'__', u'__', u'__', u'__', u'__', u'__', u'__', u'__', u'__', u'__', u'__']]",,[],[],[u'__TERM_ACTION__'],"[0, 5, 6, 8]",[],[],"{u'mouseover': {u'state': {u'target': [], u'time': []}, u'edge': {u'target': [], u'time': []}}, u'click': {u'state': {u'target': [], u'time': []}, u'edge': {u'target': [], u'time': []}}, u'mouseout': {u'state': {u'target': [], u'time': []}, u'edge': {u'target': [], u'time': []}}}",,,"[2471, 2400, 2292]",28.0,715161,13.0,,mouselab-mdp,,1
,"[3475, 6498, 8386]","[u'3', u'3', u'2']","[[0, u'__', u'__', u'__', u'__', u'__', u'__', u'__', u'__', u'__', u'__', u'__', u'__', u'__', u'__', u'__', u'__']]",,[],[],[u'__TERM_ACTION__'],"[0, 13, 14, 16]",[],[],"{u'mouseover': {u'state': {u'target': [], u'time': []}, u'edge': {u'target': [], u'time': []}}, u'click': {u'state': {u'target': [], u'time': []}, u'edge': {u'target': [], u'time': []}}, u'mouseout': {u'state': {u'target': [], u'time': []}, u'edge': {u'target': [], u'time': []}}}",,,"[3473, 2487, 1350]",-4.0,762481,14.0,,mouselab-mdp,,1
,"[1715, 4307, 6874]","[u'2', u'2', u'1']","[[0, u'__', u'__', u'__', u'__', u'__', u'__', u'__', u'__', u'__', u'__', u'__', u'__', u'__', u'__', u'__', u'__']]",,[],[],[u'__TERM_ACTION__'],"[0, 9, 10, 12]",[],[],"{u'mouseover': {u'state': {u'target': [], u'time': []}, u'edge': {u'target': [], u'time': []}}, u'click': {u'state': {u'target': [], u'time': []}, u'edge': {u'target': [], u'time': []}}, u'mouseout': {u'state': {u'target': [], u'time': []}, u'edge': {u'target': [], u'time': []}}}",,,"[1715, 2057, 2039]",-4.0,809593,15.0,,mouselab-mdp,,1
,"[3203, 5771, 7499]","[u'2', u'2', u'3']","[[0, u'__', u'__', u'__', u'__', u'__', u'__', u'__', u'__', u'__', u'__', u'__', u'__', u'__', u'__', u'__', u'__']]",,[],[],[u'__TERM_ACTION__'],"[0, 9, 10, 11]",[],[],"{u'mouseover': {u'state': {u'target': [], u'time': []}, u'edge': {u'target': [], u'time': []}}, u'click': {u'state': {u'target': [], u'time': []}, u'edge': {u'target': [], u'time': []}}, u'mouseout': {u'state': {u'target': [], u'time': []}, u'edge': {u'target': [], u'time': []}}}",,,"[3203, 2034, 1203]",12.0,856776,16.0,,mouselab-mdp,,1
