p_rdata,action_times,actions,beliefs,correct,delays,information_used_correctly,meta_actions,path,planned_too_little,planned_too_much,queries,questions,responses,rt,score,time_elapsed,trial_index,trial_i,trial_type,view_history,pid
"[{u'Q': -1.9984014443252818e-15, u'action': u'__TERM_ACTION__', u'Qs': [5.1359999999999975, 5.1359999999999975, 5.135999999999999, 5.135999999999999, 5.1359999999999975, 5.1359999999999975, 5.135999999999999, 5.135999999999999, 5.1359999999999975, 5.1359999999999975, 5.135999999999999, 5.135999999999999, 5.1359999999999975, 5.1359999999999975, 5.135999999999999, 5.135999999999999, -1.9984014443252818e-15], u'state': [0, u'__', u'__', u'__', u'__', u'__', u'__', u'__', u'__', u'__', u'__', u'__', u'__', u'__', u'__', u'__', u'__'], u'V': 5.135999999999999}]","[2362, 15018, 18065]","[u'1', u'1', u'0']","[[0, u'__', u'__', u'__', u'__', u'__', u'__', u'__', u'__', u'__', u'__', u'__', u'__', u'__', u'__', u'__', u'__']]",,[3],[True],[u'__TERM_ACTION__'],"[0, 5, 6, 8]",[True],[False],"{u'mouseover': {u'state': {u'target': [], u'time': []}, u'edge': {u'target': [], u'time': []}}, u'click': {u'state': {u'target': [], u'time': []}, u'edge': {u'target': [], u'time': []}}, u'mouseout': {u'state': {u'target': [], u'time': []}, u'edge': {u'target': [], u'time': []}}}",,,"[2359, 3936, 2520]",4.0,511502,1.0,,mouselab-mdp,,0
"[{u'Q': -1.9984014443252818e-15, u'action': u'__TERM_ACTION__', u'Qs': [5.1359999999999975, 5.1359999999999975, 5.135999999999999, 5.135999999999999, 5.1359999999999975, 5.1359999999999975, 5.135999999999999, 5.135999999999999, 5.1359999999999975, 5.1359999999999975, 5.135999999999999, 5.135999999999999, 5.1359999999999975, 5.1359999999999975, 5.135999999999999, 5.135999999999999, -1.9984014443252818e-15], u'state': [0, u'__', u'__', u'__', u'__', u'__', u'__', u'__', u'__', u'__', u'__', u'__', u'__', u'__', u'__', u'__', u'__'], u'V': 5.135999999999999}]","[2781, 7767, 10349]","[u'2', u'2', u'3']","[[0, u'__', u'__', u'__', u'__', u'__', u'__', u'__', u'__', u'__', u'__', u'__', u'__', u'__', u'__', u'__', u'__']]",,[3],[True],[u'__TERM_ACTION__'],"[0, 9, 10, 11]",[True],[False],"{u'mouseover': {u'state': {u'target': [], u'time': []}, u'edge': {u'target': [], u'time': []}}, u'click': {u'state': {u'target': [], u'time': []}, u'edge': {u'target': [], u'time': []}}, u'mouseout': {u'state': {u'target': [], u'time': []}, u'edge': {u'target': [], u'time': []}}}",,,"[2781, 1467, 2070]",36.0,578539,2.0,,mouselab-mdp,,0
"[{u'Q': 5.135999999999999, u'action': 15, u'Qs': [5.1359999999999975, 5.1359999999999975, 5.135999999999999, 5.135999999999999, 5.1359999999999975, 5.1359999999999975, 5.135999999999999, 5.135999999999999, 5.1359999999999975, 5.1359999999999975, 5.135999999999999, 5.135999999999999, 5.1359999999999975, 5.1359999999999975, 5.135999999999999, 5.135999999999999, -1.9984014443252818e-15], u'state': [0, u'__', u'__', u'__', u'__', u'__', u'__', u'__', u'__', u'__', u'__', u'__', u'__', u'__', u'__', u'__', u'__'], u'V': 5.135999999999999}, {u'Q': -1.9984014443252818e-15, u'action': u'__TERM_ACTION__', u'Qs': [5.1359999999999975, 5.1359999999999975, 5.135999999999999, 5.135999999999999, 5.1359999999999975, 5.1359999999999975, 5.135999999999999, 5.135999999999999, 5.1359999999999975, 5.1359999999999975, 5.135999999999999, 5.135999999999999, 5.1359999999999975, 5.1359999999999975, 5.135999999999999, -1.9984014443252818e-15], u'state': [0, u'__', u'__', u'__', u'__', u'__', u'__', u'__', u'__', u'__', u'__', u'__', u'__', u'__', u'__', -12, u'__'], u'V': 5.135999999999999}]","[8981, 17581, 81683]","[u'0', u'0', u'1']","[[0, u'__', u'__', u'__', u'__', u'__', u'__', u'__', u'__', u'__', u'__', u'__', u'__', u'__', u'__', u'__', u'__'], [0, u'__', u'__', u'__', u'__', u'__', u'__', u'__', u'__', u'__', u'__', u'__', u'__', u'__', u'__', -12, u'__']]",,[3],[True],"[15, u'__TERM_ACTION__']","[0, 1, 2, 3]",[True],[False],"{u'mouseover': {u'state': {u'target': [], u'time': []}, u'edge': {u'target': [], u'time': []}}, u'click': {u'state': {u'target': [15], u'time': [2002]}, u'edge': {u'target': [], u'time': []}}, u'mouseout': {u'state': {u'target': [], u'time': []}, u'edge': {u'target': [], u'time': []}}}",,,"[8979, 667, 63586]",19.0,666578,3.0,,mouselab-mdp,,0
"[{u'Q': -1.9984014443252818e-15, u'action': u'__TERM_ACTION__', u'Qs': [5.1359999999999975, 5.1359999999999975, 5.135999999999999, 5.135999999999999, 5.1359999999999975, 5.1359999999999975, 5.135999999999999, 5.135999999999999, 5.1359999999999975, 5.1359999999999975, 5.135999999999999, 5.135999999999999, 5.1359999999999975, 5.1359999999999975, 5.135999999999999, 5.135999999999999, -1.9984014443252818e-15], u'state': [0, u'__', u'__', u'__', u'__', u'__', u'__', u'__', u'__', u'__', u'__', u'__', u'__', u'__', u'__', u'__', u'__'], u'V': 5.135999999999999}]","[15235, 31614, 33937]","[u'2', u'2', u'1']","[[0, u'__', u'__', u'__', u'__', u'__', u'__', u'__', u'__', u'__', u'__', u'__', u'__', u'__', u'__', u'__', u'__']]",,[3],[True],[u'__TERM_ACTION__'],"[0, 9, 10, 12]",[True],[False],"{u'mouseover': {u'state': {u'target': [], u'time': []}, u'edge': {u'target': [], u'time': []}}, u'click': {u'state': {u'target': [], u'time': []}, u'edge': {u'target': [], u'time': []}}, u'mouseout': {u'state': {u'target': [], u'time': []}, u'edge': {u'target': [], u'time': []}}}",,,"[15235, 12849, 1809]",-4.0,718381,4.0,,mouselab-mdp,,0
"[{u'Q': 5.135999999999999, u'action': 15, u'Qs': [5.1359999999999975, 5.1359999999999975, 5.135999999999999, 5.135999999999999, 5.1359999999999975, 5.1359999999999975, 5.135999999999999, 5.135999999999999, 5.1359999999999975, 5.1359999999999975, 5.135999999999999, 5.135999999999999, 5.1359999999999975, 5.1359999999999975, 5.135999999999999, 5.135999999999999, -1.9984014443252818e-15], u'state': [0, u'__', u'__', u'__', u'__', u'__', u'__', u'__', u'__', u'__', u'__', u'__', u'__', u'__', u'__', u'__', u'__'], u'V': 5.135999999999999}, {u'Q': -1.9984014443252818e-15, u'action': u'__TERM_ACTION__', u'Qs': [5.1359999999999975, 5.1359999999999975, 5.135999999999999, 5.135999999999999, 5.1359999999999975, 5.1359999999999975, 5.135999999999999, 5.135999999999999, 5.1359999999999975, 5.1359999999999975, 5.135999999999999, 5.135999999999999, 5.1359999999999975, 5.1359999999999975, 5.135999999999999, -1.9984014443252818e-15], u'state': [0, u'__', u'__', u'__', u'__', u'__', u'__', u'__', u'__', u'__', u'__', u'__', u'__', u'__', u'__', -4, u'__'], u'V': 5.135999999999999}]","[6166, 15673, 18066]","[u'3', u'3', u'2']","[[0, u'__', u'__', u'__', u'__', u'__', u'__', u'__', u'__', u'__', u'__', u'__', u'__', u'__', u'__', u'__', u'__'], [0, u'__', u'__', u'__', u'__', u'__', u'__', u'__', u'__', u'__', u'__', u'__', u'__', u'__', u'__', -4, u'__']]",,[3],[True],"[15, u'__TERM_ACTION__']","[0, 13, 14, 16]",[True],[False],"{u'mouseover': {u'state': {u'target': [], u'time': []}, u'edge': {u'target': [], u'time': []}}, u'click': {u'state': {u'target': [15], u'time': [3594]}, u'edge': {u'target': [], u'time': []}}, u'mouseout': {u'state': {u'target': [], u'time': []}, u'edge': {u'target': [], u'time': []}}}",,,"[6166, 2181, 1881]",3.0,770611,5.0,,mouselab-mdp,,0
"[{u'Q': 5.135999999999999, u'action': 4, u'Qs': [5.1359999999999975, 5.1359999999999975, 5.135999999999999, 5.135999999999999, 5.1359999999999975, 5.1359999999999975, 5.135999999999999, 5.135999999999999, 5.1359999999999975, 5.1359999999999975, 5.135999999999999, 5.135999999999999, 5.1359999999999975, 5.1359999999999975, 5.135999999999999, 5.135999999999999, -1.9984014443252818e-15], u'state': [0, u'__', u'__', u'__', u'__', u'__', u'__', u'__', u'__', u'__', u'__', u'__', u'__', u'__', u'__', u'__', u'__'], u'V': 5.135999999999999}, {u'Q': 20, u'action': u'__TERM_ACTION__', u'Qs': [21, 21, 21, 21, 21, 21, 21, 21, 21, 21, 21, 21, 21, 21, 21, 20], u'state': [0, u'__', u'__', u'__', 20, u'__', u'__', u'__', u'__', u'__', u'__', u'__', u'__', u'__', u'__', u'__', u'__'], u'V': 21}]","[6302, 14414, 17264]","[u'0', u'0', u'1']","[[0, u'__', u'__', u'__', u'__', u'__', u'__', u'__', u'__', u'__', u'__', u'__', u'__', u'__', u'__', u'__', u'__'], [0, u'__', u'__', u'__', 20, u'__', u'__', u'__', u'__', u'__', u'__', u'__', u'__', u'__', u'__', u'__', u'__']]",,[3],[True],"[4, u'__TERM_ACTION__']","[0, 1, 2, 3]",[True],[False],"{u'mouseover': {u'state': {u'target': [], u'time': []}, u'edge': {u'target': [], u'time': []}}, u'click': {u'state': {u'target': [4], u'time': [4854]}, u'edge': {u'target': [], u'time': []}}, u'mouseout': {u'state': {u'target': [], u'time': []}, u'edge': {u'target': [], u'time': []}}}",,,"[6301, 1662, 2337]",-13.0,821706,6.0,,mouselab-mdp,,0
"[{u'Q': 5.135999999999999, u'action': 12, u'Qs': [5.1359999999999975, 5.1359999999999975, 5.135999999999999, 5.135999999999999, 5.1359999999999975, 5.1359999999999975, 5.135999999999999, 5.135999999999999, 5.1359999999999975, 5.1359999999999975, 5.135999999999999, 5.135999999999999, 5.1359999999999975, 5.1359999999999975, 5.135999999999999, 5.135999999999999, -1.9984014443252818e-15], u'state': [0, u'__', u'__', u'__', u'__', u'__', u'__', u'__', u'__', u'__', u'__', u'__', u'__', u'__', u'__', u'__', u'__'], u'V': 5.135999999999999}, {u'Q': 3.9999999999999982, u'action': u'__TERM_ACTION__', u'Qs': [7.1359999999999975, 7.135999999999998, 7.135999999999999, 7.135999999999999, 7.1359999999999975, 7.135999999999998, 7.135999999999999, 7.135999999999999, 7.135999999999998, 7.135999999999998, 7.135999999999999, 7.1359999999999975, 7.135999999999998, 7.135999999999999, 7.135999999999999, 3.9999999999999982], u'state': [0, u'__', u'__', u'__', u'__', u'__', u'__', u'__', u'__', u'__', u'__', u'__', 4, u'__', u'__', u'__', u'__'], u'V': 7.135999999999999}]","[6107, 22871, 26696]","[u'1', u'1', u'2']","[[0, u'__', u'__', u'__', u'__', u'__', u'__', u'__', u'__', u'__', u'__', u'__', u'__', u'__', u'__', u'__', u'__'], [0, u'__', u'__', u'__', u'__', u'__', u'__', u'__', u'__', u'__', u'__', u'__', 4, u'__', u'__', u'__', u'__']]",,[3],[False],"[12, u'__TERM_ACTION__']","[0, 5, 6, 7]",[True],[False],"{u'mouseover': {u'state': {u'target': [], u'time': []}, u'edge': {u'target': [], u'time': []}}, u'click': {u'state': {u'target': [12], u'time': [2973]}, u'edge': {u'target': [], u'time': []}}, u'mouseout': {u'state': {u'target': [], u'time': []}, u'edge': {u'target': [], u'time': []}}}",,,"[6107, 9758, 3237]",-37.0,873303,7.0,,mouselab-mdp,,0
"[{u'Q': -1.9984014443252818e-15, u'action': u'__TERM_ACTION__', u'Qs': [5.1359999999999975, 5.1359999999999975, 5.135999999999999, 5.135999999999999, 5.1359999999999975, 5.1359999999999975, 5.135999999999999, 5.135999999999999, 5.1359999999999975, 5.1359999999999975, 5.135999999999999, 5.135999999999999, 5.1359999999999975, 5.1359999999999975, 5.135999999999999, 5.135999999999999, -1.9984014443252818e-15], u'state': [0, u'__', u'__', u'__', u'__', u'__', u'__', u'__', u'__', u'__', u'__', u'__', u'__', u'__', u'__', u'__', u'__'], u'V': 5.135999999999999}]","[681, 4508, 5211]","[u'0', u'0', u'1']","[[0, u'__', u'__', u'__', u'__', u'__', u'__', u'__', u'__', u'__', u'__', u'__', u'__', u'__', u'__', u'__', u'__']]",,[3],[True],[u'__TERM_ACTION__'],"[0, 1, 2, 3]",[True],[False],"{u'mouseover': {u'state': {u'target': [], u'time': []}, u'edge': {u'target': [], u'time': []}}, u'click': {u'state': {u'target': [], u'time': []}, u'edge': {u'target': [], u'time': []}}, u'mouseout': {u'state': {u'target': [], u'time': []}, u'edge': {u'target': [], u'time': []}}}",,,"[681, 291, 182]",-36.0,924032,8.0,,mouselab-mdp,,0
"[{u'Q': -1.9984014443252818e-15, u'action': u'__TERM_ACTION__', u'Qs': [5.1359999999999975, 5.1359999999999975, 5.135999999999999, 5.135999999999999, 5.1359999999999975, 5.1359999999999975, 5.135999999999999, 5.135999999999999, 5.1359999999999975, 5.1359999999999975, 5.135999999999999, 5.135999999999999, 5.1359999999999975, 5.1359999999999975, 5.135999999999999, 5.135999999999999, -1.9984014443252818e-15], u'state': [0, u'__', u'__', u'__', u'__', u'__', u'__', u'__', u'__', u'__', u'__', u'__', u'__', u'__', u'__', u'__', u'__'], u'V': 5.135999999999999}]","[2147, 5989, 7508]","[u'2', u'2', u'3']","[[0, u'__', u'__', u'__', u'__', u'__', u'__', u'__', u'__', u'__', u'__', u'__', u'__', u'__', u'__', u'__', u'__']]",,[3],[True],[u'__TERM_ACTION__'],"[0, 9, 10, 11]",[True],[False],"{u'mouseover': {u'state': {u'target': [], u'time': []}, u'edge': {u'target': [], u'time': []}}, u'click': {u'state': {u'target': [], u'time': []}, u'edge': {u'target': [], u'time': []}}, u'mouseout': {u'state': {u'target': [], u'time': []}, u'edge': {u'target': [], u'time': []}}}",,,"[2146, 299, 999]",-4.0,975340,9.0,,mouselab-mdp,,0
"[{u'Q': -1.9984014443252818e-15, u'action': u'__TERM_ACTION__', u'Qs': [5.1359999999999975, 5.1359999999999975, 5.135999999999999, 5.135999999999999, 5.1359999999999975, 5.1359999999999975, 5.135999999999999, 5.135999999999999, 5.1359999999999975, 5.1359999999999975, 5.135999999999999, 5.135999999999999, 5.1359999999999975, 5.1359999999999975, 5.135999999999999, 5.135999999999999, -1.9984014443252818e-15], u'state': [0, u'__', u'__', u'__', u'__', u'__', u'__', u'__', u'__', u'__', u'__', u'__', u'__', u'__', u'__', u'__', u'__'], u'V': 5.135999999999999}]","[2650, 6305, 7275]","[u'1', u'1', u'2']","[[0, u'__', u'__', u'__', u'__', u'__', u'__', u'__', u'__', u'__', u'__', u'__', u'__', u'__', u'__', u'__', u'__']]",,[3],[True],[u'__TERM_ACTION__'],"[0, 5, 6, 7]",[True],[False],"{u'mouseover': {u'state': {u'target': [], u'time': []}, u'edge': {u'target': [], u'time': []}}, u'click': {u'state': {u'target': [], u'time': []}, u'edge': {u'target': [], u'time': []}}, u'mouseout': {u'state': {u'target': [], u'time': []}, u'edge': {u'target': [], u'time': []}}}",,,"[2650, 122, 453]",12.0,1027816,10.0,,mouselab-mdp,,0
,"[1208, 1773, 2400]","[u'1', u'1', u'2']","[[0, u'__', u'__', u'__', u'__', u'__', u'__', u'__', u'__', u'__', u'__', u'__', u'__', u'__', u'__', u'__', u'__']]",,[],[],[u'__TERM_ACTION__'],"[0, 5, 6, 7]",[],[],"{u'mouseover': {u'state': {u'target': [], u'time': []}, u'edge': {u'target': [], u'time': []}}, u'click': {u'state': {u'target': [], u'time': []}, u'edge': {u'target': [], u'time': []}}, u'mouseout': {u'state': {u'target': [], u'time': []}, u'edge': {u'target': [], u'time': []}}}",,,"[1207, 34, 116]",-44.0,1075513,11.0,,mouselab-mdp,,0
,"[640, 1263, 1903]","[u'0', u'0', u'3']","[[0, u'__', u'__', u'__', u'__', u'__', u'__', u'__', u'__', u'__', u'__', u'__', u'__', u'__', u'__', u'__', u'__']]",,[],[],[u'__TERM_ACTION__'],"[0, 1, 2, 4]",[],[],"{u'mouseover': {u'state': {u'target': [], u'time': []}, u'edge': {u'target': [], u'time': []}}, u'click': {u'state': {u'target': [], u'time': []}, u'edge': {u'target': [], u'time': []}}, u'mouseout': {u'state': {u'target': [], u'time': []}, u'edge': {u'target': [], u'time': []}}}",,,"[639, 128, 119]",20.0,1122812,12.0,,mouselab-mdp,,0
,"[472, 1118, 1731]","[u'0', u'0', u'1']","[[0, u'__', u'__', u'__', u'__', u'__', u'__', u'__', u'__', u'__', u'__', u'__', u'__', u'__', u'__', u'__', u'__']]",,[],[],[u'__TERM_ACTION__'],"[0, 1, 2, 3]",[],[],"{u'mouseover': {u'state': {u'target': [], u'time': []}, u'edge': {u'target': [], u'time': []}}, u'click': {u'state': {u'target': [], u'time': []}, u'edge': {u'target': [], u'time': []}}, u'mouseout': {u'state': {u'target': [], u'time': []}, u'edge': {u'target': [], u'time': []}}}",,,"[471, 119, 99]",-12.0,1171399,13.0,,mouselab-mdp,,0
,"[1199, 1725, 3621]","[u'3', u'3', u'2']","[[0, u'__', u'__', u'__', u'__', u'__', u'__', u'__', u'__', u'__', u'__', u'__', u'__', u'__', u'__', u'__', u'__']]",,[],[],[u'__TERM_ACTION__'],"[0, 13, 14, 16]",[],[],"{u'mouseover': {u'state': {u'target': [], u'time': []}, u'edge': {u'target': [], u'time': []}}, u'click': {u'state': {u'target': [], u'time': []}, u'edge': {u'target': [], u'time': []}}, u'mouseout': {u'state': {u'target': [], u'time': []}, u'edge': {u'target': [], u'time': []}}}",,,"[1199, 16, 1380]",-4.0,1226271,14.0,,mouselab-mdp,,0
,"[583, 1307, 1952]","[u'2', u'2', u'1']","[[0, u'__', u'__', u'__', u'__', u'__', u'__', u'__', u'__', u'__', u'__', u'__', u'__', u'__', u'__', u'__', u'__']]",,[],[],[u'__TERM_ACTION__'],"[0, 9, 10, 12]",[],[],"{u'mouseover': {u'state': {u'target': [], u'time': []}, u'edge': {u'target': [], u'time': []}}, u'click': {u'state': {u'target': [], u'time': []}, u'edge': {u'target': [], u'time': []}}, u'mouseout': {u'state': {u'target': [], u'time': []}, u'edge': {u'target': [], u'time': []}}}",,,"[583, 197, 128]",-12.0,1274687,15.0,,mouselab-mdp,,0
,"[2633, 4028, 4896]","[u'2', u'2', u'1']","[[0, u'__', u'__', u'__', u'__', u'__', u'__', u'__', u'__', u'__', u'__', u'__', u'__', u'__', u'__', u'__', u'__']]",,[],[],[u'__TERM_ACTION__'],"[0, 9, 10, 12]",[],[],"{u'mouseover': {u'state': {u'target': [], u'time': []}, u'edge': {u'target': [], u'time': []}}, u'click': {u'state': {u'target': [], u'time': []}, u'edge': {u'target': [], u'time': []}}, u'mouseout': {u'state': {u'target': [], u'time': []}, u'edge': {u'target': [], u'time': []}}}",,,"[2633, 875, 344]",28.0,1322166,16.0,,mouselab-mdp,,0
"[{u'Q': 5.1359999999999975, u'action': 9, u'Qs': [5.1359999999999975, 5.1359999999999975, 5.135999999999999, 5.135999999999999, 5.1359999999999975, 5.1359999999999975, 5.135999999999999, 5.135999999999999, 5.1359999999999975, 5.1359999999999975, 5.135999999999999, 5.135999999999999, 5.1359999999999975, 5.1359999999999975, 5.135999999999999, 5.135999999999999, -1.9984014443252818e-15], u'state': [0, u'__', u'__', u'__', u'__', u'__', u'__', u'__', u'__', u'__', u'__', u'__', u'__', u'__', u'__', u'__', u'__'], u'V': 5.135999999999999}, {u'Q': -1.9984014443252818e-15, u'action': u'__TERM_ACTION__', u'Qs': [5.1359999999999975, 5.1359999999999975, 5.135999999999999, 5.135999999999999, 5.1359999999999975, 5.1359999999999975, 5.135999999999999, 5.135999999999999, 0.9999999999999981, 0.9999999999999981, 0.9999999999999981, 5.1359999999999975, 5.1359999999999975, 5.135999999999999, 5.135999999999999, -1.9984014443252818e-15], u'state': [0, u'__', u'__', u'__', u'__', u'__', u'__', u'__', u'__', -20, u'__', u'__', u'__', u'__', u'__', u'__', u'__'], u'V': 5.135999999999999}]","[9828, 22483, 37315]","[u'1', u'1', u'2']","[[0, u'__', u'__', u'__', u'__', u'__', u'__', u'__', u'__', u'__', u'__', u'__', u'__', u'__', u'__', u'__', u'__'], [0, u'__', u'__', u'__', u'__', u'__', u'__', u'__', u'__', -20, u'__', u'__', u'__', u'__', u'__', u'__', u'__']]",,[3],[True],"[9, u'__TERM_ACTION__']","[0, 5, 6, 7]",[True],[False],"{u'mouseover': {u'state': {u'target': [], u'time': []}, u'edge': {u'target': [], u'time': []}}, u'click': {u'state': {u'target': [9], u'time': [5244]}, u'edge': {u'target': [], u'time': []}}, u'mouseout': {u'state': {u'target': [], u'time': []}, u'edge': {u'target': [], u'time': []}}}",,,"[9828, 8598, 14327]",19.0,229362,1.0,,mouselab-mdp,,1
"[{u'Q': 5.1359999999999975, u'action': 9, u'Qs': [5.1359999999999975, 5.1359999999999975, 5.135999999999999, 5.135999999999999, 5.1359999999999975, 5.1359999999999975, 5.135999999999999, 5.135999999999999, 5.1359999999999975, 5.1359999999999975, 5.135999999999999, 5.135999999999999, 5.1359999999999975, 5.1359999999999975, 5.135999999999999, 5.135999999999999, -1.9984014443252818e-15], u'state': [0, u'__', u'__', u'__', u'__', u'__', u'__', u'__', u'__', u'__', u'__', u'__', u'__', u'__', u'__', u'__', u'__'], u'V': 5.135999999999999}, {u'Q': 3.9999999999999987, u'action': u'__TERM_ACTION__', u'Qs': [7.135999999999999, 7.135999999999998, 7.135999999999999, 7.135999999999999, 7.135999999999999, 7.135999999999998, 7.135999999999999, 7.135999999999999, 7.1359999999999975, 9.136, 9.136, 7.135999999999999, 7.135999999999998, 7.135999999999999, 7.135999999999999, 3.9999999999999987], u'state': [0, u'__', u'__', u'__', u'__', u'__', u'__', u'__', u'__', 4, u'__', u'__', u'__', u'__', u'__', u'__', u'__'], u'V': 9.136}]","[6915, 12246, 15518]","[u'2', u'2', u'3']","[[0, u'__', u'__', u'__', u'__', u'__', u'__', u'__', u'__', u'__', u'__', u'__', u'__', u'__', u'__', u'__', u'__'], [0, u'__', u'__', u'__', u'__', u'__', u'__', u'__', u'__', 4, u'__', u'__', u'__', u'__', u'__', u'__', u'__']]",,[3],[True],"[9, u'__TERM_ACTION__']","[0, 9, 10, 11]",[True],[False],"{u'mouseover': {u'state': {u'target': [], u'time': []}, u'edge': {u'target': [], u'time': []}}, u'click': {u'state': {u'target': [9], u'time': [4626]}, u'edge': {u'target': [], u'time': []}}, u'mouseout': {u'state': {u'target': [], u'time': []}, u'edge': {u'target': [], u'time': []}}}",,,"[6915, 1271, 2756]",-13.0,283900,2.0,,mouselab-mdp,,1
"[{u'Q': 5.1359999999999975, u'action': 13, u'Qs': [5.1359999999999975, 5.1359999999999975, 5.135999999999999, 5.135999999999999, 5.1359999999999975, 5.1359999999999975, 5.135999999999999, 5.135999999999999, 5.1359999999999975, 5.1359999999999975, 5.135999999999999, 5.135999999999999, 5.1359999999999975, 5.1359999999999975, 5.135999999999999, 5.135999999999999, -1.9984014443252818e-15], u'state': [0, u'__', u'__', u'__', u'__', u'__', u'__', u'__', u'__', u'__', u'__', u'__', u'__', u'__', u'__', u'__', u'__'], u'V': 5.135999999999999}, {u'Q': -1.9984014443252818e-15, u'action': u'__TERM_ACTION__', u'Qs': [5.1359999999999975, 5.1359999999999975, 5.135999999999999, 5.135999999999999, 5.1359999999999975, 5.1359999999999975, 5.135999999999999, 5.135999999999999, 5.1359999999999975, 5.1359999999999975, 5.135999999999999, 5.135999999999999, 1.4399999999999982, 1.4399999999999984, 1.4399999999999984, -1.9984014443252818e-15], u'state': [0, u'__', u'__', u'__', u'__', u'__', u'__', u'__', u'__', u'__', u'__', u'__', u'__', -12, u'__', u'__', u'__'], u'V': 5.135999999999999}]","[6415, 16370, 31946]","[u'0', u'0', u'3']","[[0, u'__', u'__', u'__', u'__', u'__', u'__', u'__', u'__', u'__', u'__', u'__', u'__', u'__', u'__', u'__', u'__'], [0, u'__', u'__', u'__', u'__', u'__', u'__', u'__', u'__', u'__', u'__', u'__', u'__', -12, u'__', u'__', u'__']]",,[3],[True],"[13, u'__TERM_ACTION__']","[0, 1, 2, 4]",[True],[False],"{u'mouseover': {u'state': {u'target': [], u'time': []}, u'edge': {u'target': [], u'time': []}}, u'click': {u'state': {u'target': [13], u'time': [2558]}, u'edge': {u'target': [], u'time': []}}, u'mouseout': {u'state': {u'target': [], u'time': []}, u'edge': {u'target': [], u'time': []}}}",,,"[6415, 5865, 15061]",-5.0,336878,3.0,,mouselab-mdp,,1
"[{u'Q': 5.1359999999999975, u'action': 14, u'Qs': [5.1359999999999975, 5.1359999999999975, 5.135999999999999, 5.135999999999999, 5.1359999999999975, 5.1359999999999975, 5.135999999999999, 5.135999999999999, 5.1359999999999975, 5.1359999999999975, 5.135999999999999, 5.135999999999999, 5.1359999999999975, 5.1359999999999975, 5.135999999999999, 5.135999999999999, -1.9984014443252818e-15], u'state': [0, u'__', u'__', u'__', u'__', u'__', u'__', u'__', u'__', u'__', u'__', u'__', u'__', u'__', u'__', u'__', u'__'], u'V': 5.135999999999999}, {u'Q': 12, u'action': u'__TERM_ACTION__', u'Qs': [13.44, 13.44, 13.44, 13.44, 13.44, 13.44, 13.44, 13.44, 13.44, 13.44, 13.44, 13.44, 13.44, 17.136, 17.136, 12], u'state': [0, u'__', u'__', u'__', u'__', u'__', u'__', u'__', u'__', u'__', u'__', u'__', u'__', u'__', 12, u'__', u'__'], u'V': 17.136}]","[6012, 16388, 19859]","[u'3', u'3', u'0']","[[0, u'__', u'__', u'__', u'__', u'__', u'__', u'__', u'__', u'__', u'__', u'__', u'__', u'__', u'__', u'__', u'__'], [0, u'__', u'__', u'__', u'__', u'__', u'__', u'__', u'__', u'__', u'__', u'__', u'__', u'__', 12, u'__', u'__']]",,[3],[True],"[14, u'__TERM_ACTION__']","[0, 13, 14, 15]",[True],[False],"{u'mouseover': {u'state': {u'target': [], u'time': []}, u'edge': {u'target': [], u'time': []}}, u'click': {u'state': {u'target': [14], u'time': [3403]}, u'edge': {u'target': [], u'time': []}}, u'mouseout': {u'state': {u'target': [], u'time': []}, u'edge': {u'target': [], u'time': []}}}",,,"[6012, 6289, 2966]",-13.0,390257,4.0,,mouselab-mdp,,1
"[{u'Q': 5.1359999999999975, u'action': 9, u'Qs': [5.1359999999999975, 5.1359999999999975, 5.135999999999999, 5.135999999999999, 5.1359999999999975, 5.1359999999999975, 5.135999999999999, 5.135999999999999, 5.1359999999999975, 5.1359999999999975, 5.135999999999999, 5.135999999999999, 5.1359999999999975, 5.1359999999999975, 5.135999999999999, 5.135999999999999, -1.9984014443252818e-15], u'state': [0, u'__', u'__', u'__', u'__', u'__', u'__', u'__', u'__', u'__', u'__', u'__', u'__', u'__', u'__', u'__', u'__'], u'V': 5.135999999999999}, {u'Q': 25.135999999999996, u'action': 12, u'Qs': [21, 21, 21, 21, 21, 21, 21, 21, 21, 25.135999999999996, 25.135999999999996, 21, 21, 21, 21, 20], u'state': [0, u'__', u'__', u'__', u'__', u'__', u'__', u'__', u'__', 20, u'__', u'__', u'__', u'__', u'__', u'__', u'__'], u'V': 25.135999999999996}, {u'Q': 24, u'action': u'__TERM_ACTION__', u'Qs': [25, 25, 25, 25, 25, 25, 25, 25, 25, 27.136, 25, 25, 25, 25, 24], u'state': [0, u'__', u'__', u'__', u'__', u'__', u'__', u'__', u'__', 20, u'__', u'__', 4, u'__', u'__', u'__', u'__'], u'V': 27.136}]","[19590, 24151, 26047]","[u'2', u'2', u'1']","[[0, u'__', u'__', u'__', u'__', u'__', u'__', u'__', u'__', u'__', u'__', u'__', u'__', u'__', u'__', u'__', u'__'], [0, u'__', u'__', u'__', u'__', u'__', u'__', u'__', u'__', 20, u'__', u'__', u'__', u'__', u'__', u'__', u'__'], [0, u'__', u'__', u'__', u'__', u'__', u'__', u'__', u'__', 20, u'__', u'__', 4, u'__', u'__', u'__', u'__']]",,[3],[True],"[9, 12, u'__TERM_ACTION__']","[0, 9, 10, 12]",[True],[False],"{u'mouseover': {u'state': {u'target': [], u'time': []}, u'edge': {u'target': [], u'time': []}}, u'click': {u'state': {u'target': [9, 12], u'time': [11765, 17796]}, u'edge': {u'target': [], u'time': []}}, u'mouseout': {u'state': {u'target': [], u'time': []}, u'edge': {u'target': [], u'time': []}}}",,,"[19590, 677, 1383]",26.0,454739,5.0,,mouselab-mdp,,1
"[{u'Q': 5.1359999999999975, u'action': 5, u'Qs': [5.1359999999999975, 5.1359999999999975, 5.135999999999999, 5.135999999999999, 5.1359999999999975, 5.1359999999999975, 5.135999999999999, 5.135999999999999, 5.1359999999999975, 5.1359999999999975, 5.135999999999999, 5.135999999999999, 5.1359999999999975, 5.1359999999999975, 5.135999999999999, 5.135999999999999, -1.9984014443252818e-15], u'state': [0, u'__', u'__', u'__', u'__', u'__', u'__', u'__', u'__', u'__', u'__', u'__', u'__', u'__', u'__', u'__', u'__'], u'V': 5.135999999999999}, {u'Q': 5.1359999999999975, u'action': 13, u'Qs': [5.1359999999999975, 5.1359999999999975, 5.135999999999999, 5.135999999999999, 3.1359999999999983, 3.1359999999999992, 3.1359999999999992, 5.1359999999999975, 5.1359999999999975, 5.135999999999999, 5.135999999999999, 5.1359999999999975, 5.1359999999999975, 5.135999999999999, 5.135999999999999, -1.9984014443252818e-15], u'state': [0, u'__', u'__', u'__', u'__', -4, u'__', u'__', u'__', u'__', u'__', u'__', u'__', u'__', u'__', u'__', u'__'], u'V': 5.135999999999999}, {u'Q': 7.1359999999999975, u'action': 14, u'Qs': [7.135999999999999, 7.135999999999998, 7.135999999999999, 7.135999999999999, 6.2879999999999985, 6.287999999999999, 6.287999999999999, 7.135999999999999, 7.135999999999998, 7.135999999999999, 7.135999999999999, 7.1359999999999975, 9.136, 9.136, 3.9999999999999987], u'state': [0, u'__', u'__', u'__', u'__', -4, u'__', u'__', u'__', u'__', u'__', u'__', u'__', 4, u'__', u'__', u'__'], u'V': 9.136}, {u'Q': 29.136000000000003, u'action': 15, u'Qs': [25, 25, 25, 25, 25, 25, 25, 25, 25, 25, 25, 29.136000000000003, 29.136000000000003, 24], u'state': [0, u'__', u'__', u'__', u'__', -4, u'__', u'__', u'__', u'__', u'__', u'__', u'__', 4, 20, u'__', u'__'], u'V': 29.136000000000003}, {u'Q': 24, u'action': u'__TERM_ACTION__', u'Qs': [25, 25, 25, 25, 25, 25, 25, 25, 25, 25, 25, 25.44, 24], u'state': [0, u'__', u'__', u'__', u'__', -4, u'__', u'__', u'__', u'__', u'__', u'__', u'__', 4, 20, -12, u'__'], u'V': 25.44}]","[16529, 20865, 22665]","[u'3', u'3', u'2']","[[0, u'__', u'__', u'__', u'__', u'__', u'__', u'__', u'__', u'__', u'__', u'__', u'__', u'__', u'__', u'__', u'__'], [0, u'__', u'__', u'__', u'__', -4, u'__', u'__', u'__', u'__', u'__', u'__', u'__', u'__', u'__', u'__', u'__'], [0, u'__', u'__', u'__', u'__', -4, u'__', u'__', u'__', u'__', u'__', u'__', u'__', 4, u'__', u'__', u'__'], [0, u'__', u'__', u'__', u'__', -4, u'__', u'__', u'__', u'__', u'__', u'__', u'__', 4, 20, u'__', u'__'], [0, u'__', u'__', u'__', u'__', -4, u'__', u'__', u'__', u'__', u'__', u'__', u'__', 4, 20, -12, u'__']]",,[3],[True],"[5, 13, 14, 15, u'__TERM_ACTION__']","[0, 13, 14, 16]",[True],[False],"{u'mouseover': {u'state': {u'target': [], u'time': []}, u'edge': {u'target': [], u'time': []}}, u'click': {u'state': {u'target': [5, 13, 14, 15], u'time': [4703, 6847, 10200, 14288]}, u'edge': {u'target': [], u'time': []}}, u'mouseout': {u'state': {u'target': [], u'time': []}, u'edge': {u'target': [], u'time': []}}}",,,"[16529, 632, 1294]",8.0,510301,6.0,,mouselab-mdp,,1
"[{u'Q': 5.1359999999999975, u'action': 10, u'Qs': [5.1359999999999975, 5.1359999999999975, 5.135999999999999, 5.135999999999999, 5.1359999999999975, 5.1359999999999975, 5.135999999999999, 5.135999999999999, 5.1359999999999975, 5.1359999999999975, 5.135999999999999, 5.135999999999999, 5.1359999999999975, 5.1359999999999975, 5.135999999999999, 5.135999999999999, -1.9984014443252818e-15], u'state': [0, u'__', u'__', u'__', u'__', u'__', u'__', u'__', u'__', u'__', u'__', u'__', u'__', u'__', u'__', u'__', u'__'], u'V': 5.135999999999999}, {u'Q': 21, u'action': 9, u'Qs': [21, 21, 21, 21, 21, 21, 21, 21, 21, 25.135999999999996, 25.135999999999996, 21, 21, 21, 21, 20], u'state': [0, u'__', u'__', u'__', u'__', u'__', u'__', u'__', u'__', u'__', 20, u'__', u'__', u'__', u'__', u'__', u'__'], u'V': 25.135999999999996}, {u'Q': 5.136, u'action': 12, u'Qs': [5.135999999999999, 5.135999999999998, 5.136, 5.136, 5.135999999999999, 5.135999999999998, 5.136, 5.136, 5.136, 5.136, 5.135999999999999, 5.135999999999998, 5.136, 5.136, 0], u'state': [0, u'__', u'__', u'__', u'__', u'__', u'__', u'__', u'__', -20, 20, u'__', u'__', u'__', u'__', u'__', u'__'], u'V': 5.136}, {u'Q': 5.135999999999999, u'action': 11, u'Qs': [5.135999999999999, 5.135999999999998, 5.136, 5.136, 5.135999999999999, 5.135999999999998, 5.136, 5.136, 5.135999999999999, 5.135999999999999, 5.135999999999998, 5.136, 5.136, 0], u'state': [0, u'__', u'__', u'__', u'__', u'__', u'__', u'__', u'__', -20, 20, u'__', -20, u'__', u'__', u'__', u'__'], u'V': 5.136}, {u'Q': 12, u'action': u'__TERM_ACTION__', u'Qs': [13.44, 13.44, 13.44, 13.44, 13.44, 13.44, 13.44, 13.44, 13.44, 13.44, 13.44, 13.44, 12], u'state': [0, u'__', u'__', u'__', u'__', u'__', u'__', u'__', u'__', -20, 20, 12, -20, u'__', u'__', u'__', u'__'], u'V': 13.44}]","[16029, 20229, 21660]","[u'2', u'2', u'3']","[[0, u'__', u'__', u'__', u'__', u'__', u'__', u'__', u'__', u'__', u'__', u'__', u'__', u'__', u'__', u'__', u'__'], [0, u'__', u'__', u'__', u'__', u'__', u'__', u'__', u'__', u'__', 20, u'__', u'__', u'__', u'__', u'__', u'__'], [0, u'__', u'__', u'__', u'__', u'__', u'__', u'__', u'__', -20, 20, u'__', u'__', u'__', u'__', u'__', u'__'], [0, u'__', u'__', u'__', u'__', u'__', u'__', u'__', u'__', -20, 20, u'__', -20, u'__', u'__', u'__', u'__'], [0, u'__', u'__', u'__', u'__', u'__', u'__', u'__', u'__', -20, 20, 12, -20, u'__', u'__', u'__', u'__']]",,[3],[True],"[10, 9, 12, 11, u'__TERM_ACTION__']","[0, 9, 10, 11]",[True],[False],"{u'mouseover': {u'state': {u'target': [], u'time': []}, u'edge': {u'target': [], u'time': []}}, u'click': {u'state': {u'target': [10, 9, 12, 11], u'time': [2443, 6267, 9963, 12267]}, u'edge': {u'target': [], u'time': []}}, u'mouseout': {u'state': {u'target': [], u'time': []}, u'edge': {u'target': [], u'time': []}}}",,,"[16029, 626, 919]",8.0,560976,7.0,,mouselab-mdp,,1
"[{u'Q': 5.1359999999999975, u'action': 6, u'Qs': [5.1359999999999975, 5.1359999999999975, 5.135999999999999, 5.135999999999999, 5.1359999999999975, 5.1359999999999975, 5.135999999999999, 5.135999999999999, 5.1359999999999975, 5.1359999999999975, 5.135999999999999, 5.135999999999999, 5.1359999999999975, 5.1359999999999975, 5.135999999999999, 5.135999999999999, -1.9984014443252818e-15], u'state': [0, u'__', u'__', u'__', u'__', u'__', u'__', u'__', u'__', u'__', u'__', u'__', u'__', u'__', u'__', u'__', u'__'], u'V': 5.135999999999999}, {u'Q': 5.1359999999999975, u'action': 14, u'Qs': [5.1359999999999975, 5.1359999999999975, 5.135999999999999, 5.135999999999999, 0.9999999999999981, 0.9999999999999981, 0.9999999999999981, 5.1359999999999975, 5.1359999999999975, 5.135999999999999, 5.135999999999999, 5.1359999999999975, 5.1359999999999975, 5.135999999999999, 5.135999999999999, -1.9984014443252818e-15], u'state': [0, u'__', u'__', u'__', u'__', u'__', -20, u'__', u'__', u'__', u'__', u'__', u'__', u'__', u'__', u'__', u'__'], u'V': 5.135999999999999}, {u'Q': 5.1359999999999975, u'action': 10, u'Qs': [5.1359999999999975, 5.1359999999999975, 5.135999999999999, 5.135999999999999, 0.9999999999999981, 0.9999999999999981, 0.9999999999999981, 5.1359999999999975, 5.1359999999999975, 5.135999999999999, 5.135999999999999, 3.1359999999999983, 3.1359999999999983, 3.1359999999999983, -1.9984014443252818e-15], u'state': [0, u'__', u'__', u'__', u'__', u'__', -20, u'__', u'__', u'__', u'__', u'__', u'__', u'__', -4, u'__', u'__'], u'V': 5.135999999999999}, {u'Q': 7.135999999999998, u'action': 2, u'Qs': [7.1359999999999975, 7.135999999999998, 7.135999999999999, 7.135999999999999, 4.999999999999998, 4.999999999999998, 4.999999999999998, 7.135999999999998, 9.136, 9.136, 6.2879999999999985, 6.2879999999999985, 6.2879999999999985, 3.9999999999999982], u'state': [0, u'__', u'__', u'__', u'__', u'__', -20, u'__', u'__', u'__', 4, u'__', u'__', u'__', -4, u'__', u'__'], u'V': 9.136}, {u'Q': 9.136, u'action': 12, u'Qs': [6.2879999999999985, 6.2879999999999985, 6.2879999999999985, 4.999999999999998, 4.999999999999998, 4.999999999999998, 6.2879999999999985, 9.136, 9.136, 6.2879999999999985, 6.2879999999999985, 6.2879999999999985, 3.9999999999999982], u'state': [0, u'__', -4, u'__', u'__', u'__', -20, u'__', u'__', u'__', 4, u'__', u'__', u'__', -4, u'__', u'__'], u'V': 9.136}, {u'Q': 25, u'action': 9, u'Qs': [25, 25, 25, 25, 25, 25, 25, 25, 25, 25, 25, 24], u'state': [0, u'__', -4, u'__', u'__', u'__', -20, u'__', u'__', u'__', 4, u'__', 20, u'__', -4, u'__', u'__'], u'V': 25}, {u'Q': 28, u'action': u'__TERM_ACTION__', u'Qs': [29, 29, 29, 29, 29, 29, 29, 29, 29, 29, 28], u'state': [0, u'__', -4, u'__', u'__', u'__', -20, u'__', u'__', 4, 4, u'__', 20, u'__', -4, u'__', u'__'], u'V': 29}]","[15433, 19472, 20928]","[u'2', u'2', u'1']","[[0, u'__', u'__', u'__', u'__', u'__', u'__', u'__', u'__', u'__', u'__', u'__', u'__', u'__', u'__', u'__', u'__'], [0, u'__', u'__', u'__', u'__', u'__', -20, u'__', u'__', u'__', u'__', u'__', u'__', u'__', u'__', u'__', u'__'], [0, u'__', u'__', u'__', u'__', u'__', -20, u'__', u'__', u'__', u'__', u'__', u'__', u'__', -4, u'__', u'__'], [0, u'__', u'__', u'__', u'__', u'__', -20, u'__', u'__', u'__', 4, u'__', u'__', u'__', -4, u'__', u'__'], [0, u'__', -4, u'__', u'__', u'__', -20, u'__', u'__', u'__', 4, u'__', u'__', u'__', -4, u'__', u'__'], [0, u'__', -4, u'__', u'__', u'__', -20, u'__', u'__', u'__', 4, u'__', 20, u'__', -4, u'__', u'__'], [0, u'__', -4, u'__', u'__', u'__', -20, u'__', u'__', 4, 4, u'__', 20, u'__', -4, u'__', u'__']]",,[3],[True],"[6, 14, 10, 2, 12, 9, u'__TERM_ACTION__']","[0, 9, 10, 12]",[True],[False],"{u'mouseover': {u'state': {u'target': [], u'time': []}, u'edge': {u'target': [], u'time': []}}, u'click': {u'state': {u'target': [6, 14, 10, 2, 12, 9], u'time': [3902, 5463, 6934, 8238, 10983, 12271]}, u'edge': {u'target': [], u'time': []}}, u'mouseout': {u'state': {u'target': [], u'time': []}, u'edge': {u'target': [], u'time': []}}}",,,"[15433, 506, 939]",22.0,614369,8.0,,mouselab-mdp,,1
"[{u'Q': 5.1359999999999975, u'action': 14, u'Qs': [5.1359999999999975, 5.1359999999999975, 5.135999999999999, 5.135999999999999, 5.1359999999999975, 5.1359999999999975, 5.135999999999999, 5.135999999999999, 5.1359999999999975, 5.1359999999999975, 5.135999999999999, 5.135999999999999, 5.1359999999999975, 5.1359999999999975, 5.135999999999999, 5.135999999999999, -1.9984014443252818e-15], u'state': [0, u'__', u'__', u'__', u'__', u'__', u'__', u'__', u'__', u'__', u'__', u'__', u'__', u'__', u'__', u'__', u'__'], u'V': 5.135999999999999}, {u'Q': 5.1359999999999975, u'action': 2, u'Qs': [5.1359999999999975, 5.1359999999999975, 5.135999999999999, 5.135999999999999, 5.1359999999999975, 5.1359999999999975, 5.135999999999999, 5.135999999999999, 5.1359999999999975, 5.1359999999999975, 5.135999999999999, 5.135999999999999, 3.1359999999999983, 3.1359999999999983, 3.1359999999999983, -1.9984014443252818e-15], u'state': [0, u'__', u'__', u'__', u'__', u'__', u'__', u'__', u'__', u'__', u'__', u'__', u'__', u'__', -4, u'__', u'__'], u'V': 5.135999999999999}, {u'Q': 7.135999999999998, u'action': 6, u'Qs': [7.135999999999998, 9.136, 9.136, 7.1359999999999975, 7.135999999999998, 7.135999999999999, 7.135999999999999, 7.1359999999999975, 7.135999999999998, 7.135999999999999, 7.135999999999999, 6.2879999999999985, 6.2879999999999985, 6.2879999999999985, 3.9999999999999982], u'state': [0, u'__', 4, u'__', u'__', u'__', u'__', u'__', u'__', u'__', u'__', u'__', u'__', u'__', -4, u'__', u'__'], u'V': 9.136}, {u'Q': 13.44, u'action': 10, u'Qs': [14.288, 14.288, 14.288, 14.287999999999997, 17.136, 17.136, 13.44, 13.44, 13.44, 13.44, 13.22, 13.22, 13.22, 12], u'state': [0, u'__', 4, u'__', u'__', u'__', 12, u'__', u'__', u'__', u'__', u'__', u'__', u'__', -4, u'__', u'__'], u'V': 17.136}, {u'Q': 17.136, u'action': 7, u'Qs': [14.288, 14.288, 14.288, 14.287999999999997, 17.136, 17.136, 14.288, 14.288, 14.288, 13.22, 13.22, 13.22, 12], u'state': [0, u'__', 4, u'__', u'__', u'__', 12, u'__', u'__', u'__', 4, u'__', u'__', u'__', -4, u'__', u'__'], u'V': 17.136}, {u'Q': 14.288, u'action': 8, u'Qs': [14.288, 14.288, 14.288, 14.287999999999997, 14.288, 14.288, 14.288, 14.288, 13.22, 13.22, 13.22, 12], u'state': [0, u'__', 4, u'__', u'__', u'__', 12, -20, u'__', u'__', 4, u'__', u'__', u'__', -4, u'__', u'__'], u'V': 14.288}, {u'Q': 17.439999999999998, u'action': 5, u'Qs': [17.44, 17.44, 17.44, 17.439999999999998, 17.44, 17.44, 17.44, 17, 17, 17, 16], u'state': [0, u'__', 4, u'__', u'__', u'__', 12, -20, 4, u'__', 4, u'__', u'__', u'__', -4, u'__', u'__'], u'V': 17.44}, {u'Q': 20, u'action': u'__TERM_ACTION__', u'Qs': [21.220000000000002, 21.220000000000002, 21.220000000000002, 21.220000000000002, 21.220000000000002, 21.220000000000002, 21, 21, 21, 20], u'state': [0, u'__', 4, u'__', u'__', 4, 12, -20, 4, u'__', 4, u'__', u'__', u'__', -4, u'__', u'__'], u'V': 21.220000000000002}]","[11919, 15926, 17790]","[u'1', u'1', u'0']","[[0, u'__', u'__', u'__', u'__', u'__', u'__', u'__', u'__', u'__', u'__', u'__', u'__', u'__', u'__', u'__', u'__'], [0, u'__', u'__', u'__', u'__', u'__', u'__', u'__', u'__', u'__', u'__', u'__', u'__', u'__', -4, u'__', u'__'], [0, u'__', 4, u'__', u'__', u'__', u'__', u'__', u'__', u'__', u'__', u'__', u'__', u'__', -4, u'__', u'__'], [0, u'__', 4, u'__', u'__', u'__', 12, u'__', u'__', u'__', u'__', u'__', u'__', u'__', -4, u'__', u'__'], [0, u'__', 4, u'__', u'__', u'__', 12, u'__', u'__', u'__', 4, u'__', u'__', u'__', -4, u'__', u'__'], [0, u'__', 4, u'__', u'__', u'__', 12, -20, u'__', u'__', 4, u'__', u'__', u'__', -4, u'__', u'__'], [0, u'__', 4, u'__', u'__', u'__', 12, -20, 4, u'__', 4, u'__', u'__', u'__', -4, u'__', u'__'], [0, u'__', 4, u'__', u'__', 4, 12, -20, 4, u'__', 4, u'__', u'__', u'__', -4, u'__', u'__']]",,[3],[False],"[14, 2, 6, 10, 7, 8, 5, u'__TERM_ACTION__']","[0, 5, 6, 8]",[True],[False],"{u'mouseover': {u'state': {u'target': [], u'time': []}, u'edge': {u'target': [], u'time': []}}, u'click': {u'state': {u'target': [14, 2, 6, 10, 7, 8, 5], u'time': [2108, 3236, 4172, 5276, 7027, 7940, 10252]}, u'edge': {u'target': [], u'time': []}}, u'mouseout': {u'state': {u'target': [], u'time': []}, u'edge': {u'target': [], u'time': []}}}",,,"[11919, 480, 1354]",13.0,665196,9.0,,mouselab-mdp,,1
"[{u'Q': 5.1359999999999975, u'action': 6, u'Qs': [5.1359999999999975, 5.1359999999999975, 5.135999999999999, 5.135999999999999, 5.1359999999999975, 5.1359999999999975, 5.135999999999999, 5.135999999999999, 5.1359999999999975, 5.1359999999999975, 5.135999999999999, 5.135999999999999, 5.1359999999999975, 5.1359999999999975, 5.135999999999999, 5.135999999999999, -1.9984014443252818e-15], u'state': [0, u'__', u'__', u'__', u'__', u'__', u'__', u'__', u'__', u'__', u'__', u'__', u'__', u'__', u'__', u'__', u'__'], u'V': 5.135999999999999}, {u'Q': 5.1359999999999975, u'action': 2, u'Qs': [5.1359999999999975, 5.1359999999999975, 5.135999999999999, 5.135999999999999, 1.4399999999999984, 1.4399999999999982, 1.4399999999999982, 5.1359999999999975, 5.1359999999999975, 5.135999999999999, 5.135999999999999, 5.1359999999999975, 5.1359999999999975, 5.135999999999999, 5.135999999999999, -1.9984014443252818e-15], u'state': [0, u'__', u'__', u'__', u'__', u'__', -12, u'__', u'__', u'__', u'__', u'__', u'__', u'__', u'__', u'__', u'__'], u'V': 5.135999999999999}, {u'Q': 5.1359999999999975, u'action': 14, u'Qs': [3.1359999999999983, 3.1359999999999983, 3.1359999999999983, 1.4399999999999984, 1.4399999999999982, 1.4399999999999982, 5.1359999999999975, 5.1359999999999975, 5.135999999999999, 5.135999999999999, 5.1359999999999975, 5.1359999999999975, 5.135999999999999, 5.135999999999999, -1.9984014443252818e-15], u'state': [0, u'__', -4, u'__', u'__', u'__', -12, u'__', u'__', u'__', u'__', u'__', u'__', u'__', u'__', u'__', u'__'], u'V': 5.135999999999999}, {u'Q': 13.44, u'action': 10, u'Qs': [13.22, 13.22, 13.22, 13, 13, 13, 13.44, 13.44, 13.44, 13.44, 13.44, 17.136, 17.136, 12], u'state': [0, u'__', -4, u'__', u'__', u'__', -12, u'__', u'__', u'__', u'__', u'__', u'__', u'__', 12, u'__', u'__'], u'V': 17.136}, {u'Q': 17.136, u'action': 16, u'Qs': [13.22, 13.22, 13.22, 13, 13, 13, 17.136, 17.136, 17.136, 17.136, 17.136, 17.136, 12], u'state': [0, u'__', -4, u'__', u'__', u'__', -12, u'__', u'__', u'__', 12, u'__', u'__', u'__', 12, u'__', u'__'], u'V': 17.136}, {u'Q': 17.136, u'action': 11, u'Qs': [13.22, 13.22, 13.22, 13, 13, 13, 17.136, 17.136, 17.136, 17.136, 17.136, 12], u'state': [0, u'__', -4, u'__', u'__', u'__', -12, u'__', u'__', u'__', 12, u'__', u'__', u'__', 12, u'__', -12], u'V': 17.136}, {u'Q': 17.136, u'action': 12, u'Qs': [13.22, 13.22, 13.22, 13, 13, 13, 17.136, 17.136, 17.136, 17.136, 12], u'state': [0, u'__', -4, u'__', u'__', u'__', -12, u'__', u'__', u'__', 12, -12, u'__', u'__', 12, u'__', -12], u'V': 17.136}, {u'Q': 19.136000000000003, u'action': 15, u'Qs': [17, 17, 17, 17, 17, 17, 19.136, 19.136000000000003, 19.136000000000003, 16], u'state': [0, u'__', -4, u'__', u'__', u'__', -12, u'__', u'__', u'__', 12, -12, 4, u'__', 12, u'__', -12], u'V': 19.136000000000003}, {u'Q': 16, u'action': u'__TERM_ACTION__', u'Qs': [17, 17, 17, 17, 17, 17, 18.287999999999997, 18.288, 16], u'state': [0, u'__', -4, u'__', u'__', u'__', -12, u'__', u'__', u'__', 12, -12, 4, u'__', 12, -4, -12], u'V': 18.288}]","[13563, 17738, 19219]","[u'2', u'2', u'1']","[[0, u'__', u'__', u'__', u'__', u'__', u'__', u'__', u'__', u'__', u'__', u'__', u'__', u'__', u'__', u'__', u'__'], [0, u'__', u'__', u'__', u'__', u'__', -12, u'__', u'__', u'__', u'__', u'__', u'__', u'__', u'__', u'__', u'__'], [0, u'__', -4, u'__', u'__', u'__', -12, u'__', u'__', u'__', u'__', u'__', u'__', u'__', u'__', u'__', u'__'], [0, u'__', -4, u'__', u'__', u'__', -12, u'__', u'__', u'__', u'__', u'__', u'__', u'__', 12, u'__', u'__'], [0, u'__', -4, u'__', u'__', u'__', -12, u'__', u'__', u'__', 12, u'__', u'__', u'__', 12, u'__', u'__'], [0, u'__', -4, u'__', u'__', u'__', -12, u'__', u'__', u'__', 12, u'__', u'__', u'__', 12, u'__', -12], [0, u'__', -4, u'__', u'__', u'__', -12, u'__', u'__', u'__', 12, -12, u'__', u'__', 12, u'__', -12], [0, u'__', -4, u'__', u'__', u'__', -12, u'__', u'__', u'__', 12, -12, 4, u'__', 12, u'__', -12], [0, u'__', -4, u'__', u'__', u'__', -12, u'__', u'__', u'__', 12, -12, 4, u'__', 12, -4, -12]]",,[3],[False],"[6, 2, 14, 10, 16, 11, 12, 15, u'__TERM_ACTION__']","[0, 9, 10, 12]",[True],[False],"{u'mouseover': {u'state': {u'target': [], u'time': []}, u'edge': {u'target': [], u'time': []}}, u'click': {u'state': {u'target': [6, 2, 14, 10, 16, 11, 12, 15], u'time': [1817, 2840, 3680, 4624, 5921, 7058, 8056, 9714]}, u'edge': {u'target': [], u'time': []}}, u'mouseout': {u'state': {u'target': [], u'time': []}, u'edge': {u'target': [], u'time': []}}}",,,"[13563, 594, 968]",4.0,716491,10.0,,mouselab-mdp,,1
,"[14837, 16444, 17773]","[u'3', u'3', u'2']","[[0, u'__', u'__', u'__', u'__', u'__', u'__', u'__', u'__', u'__', u'__', u'__', u'__', u'__', u'__', u'__', u'__'], [0, u'__', u'__', u'__', u'__', u'__', u'__', u'__', u'__', u'__', 12, u'__', u'__', u'__', u'__', u'__', u'__'], [0, u'__', u'__', u'__', u'__', u'__', 4, u'__', u'__', u'__', 12, u'__', u'__', u'__', u'__', u'__', u'__'], [0, u'__', 12, u'__', u'__', u'__', 4, u'__', u'__', u'__', 12, u'__', u'__', u'__', u'__', u'__', u'__'], [0, u'__', 12, u'__', u'__', u'__', 4, u'__', u'__', u'__', 12, u'__', u'__', u'__', 20, u'__', u'__'], [0, u'__', 12, u'__', u'__', u'__', 4, u'__', u'__', u'__', 12, u'__', u'__', u'__', 20, u'__', 12], [0, u'__', 12, u'__', u'__', u'__', 4, u'__', u'__', u'__', 12, u'__', u'__', -4, 20, u'__', 12]]",,[],[],"[10, 6, 2, 14, 16, 13, u'__TERM_ACTION__']","[0, 13, 14, 16]",[],[],"{u'mouseover': {u'state': {u'target': [], u'time': []}, u'edge': {u'target': [], u'time': []}}, u'click': {u'state': {u'target': [10, 6, 2, 14, 16, 13], u'time': [6539, 7650, 8586, 9930, 11635, 13442]}, u'edge': {u'target': [], u'time': []}}, u'mouseout': {u'state': {u'target': [], u'time': []}, u'edge': {u'target': [], u'time': []}}}",,,"[14837, 1036, 822]",22.0,765902,11.0,,mouselab-mdp,,1
,"[11300, 50151, 52727]","[u'2', u'2', u'3']","[[0, u'__', u'__', u'__', u'__', u'__', u'__', u'__', u'__', u'__', u'__', u'__', u'__', u'__', u'__', u'__', u'__'], [0, u'__', u'__', u'__', u'__', u'__', u'__', u'__', u'__', u'__', -4, u'__', u'__', u'__', u'__', u'__', u'__'], [0, u'__', u'__', u'__', u'__', u'__', -20, u'__', u'__', u'__', -4, u'__', u'__', u'__', u'__', u'__', u'__'], [0, u'__', -4, u'__', u'__', u'__', -20, u'__', u'__', u'__', -4, u'__', u'__', u'__', u'__', u'__', u'__'], [0, u'__', -4, u'__', u'__', u'__', -20, u'__', u'__', u'__', -4, u'__', u'__', u'__', -12, u'__', u'__'], [0, u'__', -4, u'__', u'__', u'__', -20, u'__', u'__', u'__', -4, u'__', u'__', 4, -12, u'__', u'__'], [0, u'__', -4, u'__', u'__', 4, -20, u'__', u'__', u'__', -4, u'__', u'__', 4, -12, u'__', u'__'], [0, -12, -4, u'__', u'__', 4, -20, u'__', u'__', u'__', -4, u'__', u'__', 4, -12, u'__', u'__'], [0, -12, -4, u'__', u'__', 4, -20, u'__', u'__', 12, -4, u'__', u'__', 4, -12, u'__', u'__']]",,[],[],"[10, 6, 2, 14, 13, 5, 1, 9, u'__TERM_ACTION__']","[0, 9, 10, 11]",[],[],"{u'mouseover': {u'state': {u'target': [], u'time': []}, u'edge': {u'target': [], u'time': []}}, u'click': {u'state': {u'target': [10, 6, 2, 14, 13, 5, 1, 9], u'time': [1858, 2882, 3810, 4842, 6251, 8114, 8938, 9794]}, u'edge': {u'target': [], u'time': []}}, u'mouseout': {u'state': {u'target': [], u'time': []}, u'edge': {u'target': [], u'time': []}}}",,,"[11299, 38310, 2068]",12.0,824128,12.0,,mouselab-mdp,,1
,"[19887, 21663, 22767]","[u'1', u'1', u'2']","[[0, u'__', u'__', u'__', u'__', u'__', u'__', u'__', u'__', u'__', u'__', u'__', u'__', u'__', u'__', u'__', u'__'], [0, u'__', u'__', u'__', u'__', u'__', u'__', u'__', u'__', u'__', 12, u'__', u'__', u'__', u'__', u'__', u'__'], [0, u'__', u'__', u'__', u'__', u'__', 4, u'__', u'__', u'__', 12, u'__', u'__', u'__', u'__', u'__', u'__'], [0, u'__', 4, u'__', u'__', u'__', 4, u'__', u'__', u'__', 12, u'__', u'__', u'__', u'__', u'__', u'__'], [0, u'__', 4, u'__', u'__', u'__', 4, u'__', u'__', u'__', 12, u'__', u'__', u'__', -4, u'__', u'__'], [0, u'__', 4, u'__', u'__', u'__', 4, u'__', u'__', u'__', 12, -4, u'__', u'__', -4, u'__', u'__'], [0, u'__', 4, u'__', u'__', u'__', 4, u'__', u'__', u'__', 12, -4, -12, u'__', -4, u'__', u'__'], [0, u'__', 4, u'__', u'__', u'__', 4, u'__', u'__', u'__', 12, -4, -12, u'__', -4, u'__', 4], [0, u'__', 4, u'__', u'__', u'__', 4, u'__', u'__', u'__', 12, -4, -12, u'__', -4, 4, 4], [0, u'__', 4, u'__', u'__', u'__', 4, 12, u'__', u'__', 12, -4, -12, u'__', -4, 4, 4], [0, u'__', 4, u'__', u'__', 12, 4, 12, u'__', u'__', 12, -4, -12, u'__', -4, 4, 4]]",,[],[],"[10, 6, 2, 14, 11, 12, 16, 15, 7, 5, u'__TERM_ACTION__']","[0, 5, 6, 7]",[],[],"{u'mouseover': {u'state': {u'target': [], u'time': []}, u'edge': {u'target': [], u'time': []}}, u'click': {u'state': {u'target': [10, 6, 2, 14, 11, 12, 16, 15, 7, 5], u'time': [2460, 4123, 5123, 6059, 7299, 8428, 12804, 14115, 15565, 17933]}, u'edge': {u'target': [], u'time': []}}, u'mouseout': {u'state': {u'target': [], u'time': []}, u'edge': {u'target': [], u'time': []}}}",,,"[19887, 1244, 602]",18.0,872690,13.0,,mouselab-mdp,,1
,"[11066, 12058, 13082]","[u'1', u'1', u'0']","[[0, u'__', u'__', u'__', u'__', u'__', u'__', u'__', u'__', u'__', u'__', u'__', u'__', u'__', u'__', u'__', u'__'], [0, u'__', u'__', u'__', u'__', u'__', u'__', u'__', u'__', u'__', 4, u'__', u'__', u'__', u'__', u'__', u'__'], [0, u'__', u'__', u'__', u'__', u'__', 12, u'__', u'__', u'__', 4, u'__', u'__', u'__', u'__', u'__', u'__'], [0, u'__', 4, u'__', u'__', u'__', 12, u'__', u'__', u'__', 4, u'__', u'__', u'__', u'__', u'__', u'__'], [0, u'__', 4, u'__', u'__', u'__', 12, u'__', u'__', u'__', 4, u'__', u'__', u'__', 4, u'__', u'__'], [0, u'__', 4, u'__', u'__', u'__', 12, -4, u'__', u'__', 4, u'__', u'__', u'__', 4, u'__', u'__'], [0, u'__', 4, u'__', u'__', u'__', 12, -4, 20, u'__', 4, u'__', u'__', u'__', 4, u'__', u'__'], [0, u'__', 4, u'__', u'__', -4, 12, -4, 20, u'__', 4, u'__', u'__', u'__', 4, u'__', u'__']]",,[],[],"[10, 6, 2, 14, 7, 8, 5, u'__TERM_ACTION__']","[0, 5, 6, 8]",[],[],"{u'mouseover': {u'state': {u'target': [], u'time': []}, u'edge': {u'target': [], u'time': []}}, u'click': {u'state': {u'target': [10, 6, 2, 14, 7, 8, 5], u'time': [1346, 3402, 4817, 5800, 7072, 8168, 9784]}, u'edge': {u'target': [], u'time': []}}, u'mouseout': {u'state': {u'target': [], u'time': []}, u'edge': {u'target': [], u'time': []}}}",,,"[11066, 460, 522]",21.0,920236,14.0,,mouselab-mdp,,1
,"[14302, 15326, 16198]","[u'0', u'0', u'3']","[[0, u'__', u'__', u'__', u'__', u'__', u'__', u'__', u'__', u'__', u'__', u'__', u'__', u'__', u'__', u'__', u'__'], [0, u'__', u'__', u'__', u'__', u'__', u'__', u'__', u'__', u'__', u'__', u'__', u'__', u'__', 4, u'__', u'__'], [0, u'__', u'__', u'__', u'__', u'__', u'__', u'__', u'__', u'__', -4, u'__', u'__', u'__', 4, u'__', u'__'], [0, u'__', u'__', u'__', u'__', u'__', 12, u'__', u'__', u'__', -4, u'__', u'__', u'__', 4, u'__', u'__'], [0, u'__', 12, u'__', u'__', u'__', 12, u'__', u'__', u'__', -4, u'__', u'__', u'__', 4, u'__', u'__'], [0, u'__', 12, u'__', u'__', u'__', 12, -4, u'__', u'__', -4, u'__', u'__', u'__', 4, u'__', u'__'], [0, u'__', 12, u'__', u'__', u'__', 12, -4, 4, u'__', -4, u'__', u'__', u'__', 4, u'__', u'__'], [0, u'__', 12, 4, u'__', u'__', 12, -4, 4, u'__', -4, u'__', u'__', u'__', 4, u'__', u'__'], [0, u'__', 12, 4, 12, u'__', 12, -4, 4, u'__', -4, u'__', u'__', u'__', 4, u'__', u'__'], [0, -4, 12, 4, 12, u'__', 12, -4, 4, u'__', -4, u'__', u'__', u'__', 4, u'__', u'__']]",,[],[],"[14, 10, 6, 2, 7, 8, 3, 4, 1, u'__TERM_ACTION__']","[0, 1, 2, 4]",[],[],"{u'mouseover': {u'state': {u'target': [], u'time': []}, u'edge': {u'target': [], u'time': []}}, u'click': {u'state': {u'target': [14, 10, 6, 2, 7, 8, 3, 4, 1], u'time': [3716, 5148, 5972, 7283, 8668, 9755, 10620, 11659, 13067]}, u'edge': {u'target': [], u'time': []}}, u'mouseout': {u'state': {u'target': [], u'time': []}, u'edge': {u'target': [], u'time': []}}}",,,"[14302, 502, 360]",11.0,972549,15.0,,mouselab-mdp,,1
,"[22480, 23991, 25039]","[u'2', u'2', u'1']","[[0, u'__', u'__', u'__', u'__', u'__', u'__', u'__', u'__', u'__', u'__', u'__', u'__', u'__', u'__', u'__', u'__'], [0, u'__', u'__', u'__', u'__', u'__', u'__', u'__', u'__', u'__', -12, u'__', u'__', u'__', u'__', u'__', u'__'], [0, u'__', u'__', u'__', u'__', u'__', -4, u'__', u'__', u'__', -12, u'__', u'__', u'__', u'__', u'__', u'__'], [0, u'__', -12, u'__', u'__', u'__', -4, u'__', u'__', u'__', -12, u'__', u'__', u'__', u'__', u'__', u'__'], [0, u'__', -12, u'__', u'__', u'__', -4, u'__', u'__', u'__', -12, u'__', u'__', u'__', -4, u'__', u'__'], [0, u'__', -12, u'__', u'__', u'__', -4, u'__', u'__', u'__', -12, u'__', u'__', u'__', -4, 4, u'__'], [0, u'__', -12, u'__', u'__', u'__', -4, u'__', u'__', u'__', -12, u'__', u'__', u'__', -4, 4, -4], [0, u'__', -12, -20, u'__', u'__', -4, u'__', u'__', u'__', -12, u'__', u'__', u'__', -4, 4, -4], [0, u'__', -12, -20, 4, u'__', -4, u'__', u'__', u'__', -12, u'__', u'__', u'__', -4, 4, -4], [0, u'__', -12, -20, 4, u'__', -4, -4, u'__', u'__', -12, u'__', u'__', u'__', -4, 4, -4], [0, u'__', -12, -20, 4, u'__', -4, -4, -20, u'__', -12, u'__', u'__', u'__', -4, 4, -4], [0, u'__', -12, -20, 4, u'__', -4, -4, -20, u'__', -12, 4, u'__', u'__', -4, 4, -4], [0, u'__', -12, -20, 4, u'__', -4, -4, -20, u'__', -12, 4, 4, u'__', -4, 4, -4], [0, u'__', -12, -20, 4, u'__', -4, -4, -20, u'__', -12, 4, 4, -12, -4, 4, -4]]",,[],[],"[10, 6, 2, 14, 15, 16, 3, 4, 7, 8, 11, 12, 13, u'__TERM_ACTION__']","[0, 9, 10, 12]",[],[],"{u'mouseover': {u'state': {u'target': [], u'time': []}, u'edge': {u'target': [], u'time': []}}, u'click': {u'state': {u'target': [10, 6, 2, 14, 15, 16, 3, 4, 7, 8, 11, 12, 13], u'time': [2095, 3078, 4006, 4742, 6781, 7486, 8853, 9829, 11045, 11765, 13037, 14357, 18118]}, u'edge': {u'target': [], u'time': []}}, u'mouseout': {u'state': {u'target': [], u'time': []}, u'edge': {u'target': [], u'time': []}}}",,,"[22480, 988, 540]",-17.0,1021921,16.0,,mouselab-mdp,,1
"[{u'Q': -1.9984014443252818e-15, u'action': u'__TERM_ACTION__', u'Qs': [5.1359999999999975, 5.1359999999999975, 5.135999999999999, 5.135999999999999, 5.1359999999999975, 5.1359999999999975, 5.135999999999999, 5.135999999999999, 5.1359999999999975, 5.1359999999999975, 5.135999999999999, 5.135999999999999, 5.1359999999999975, 5.1359999999999975, 5.135999999999999, 5.135999999999999, -1.9984014443252818e-15], u'state': [0, u'__', u'__', u'__', u'__', u'__', u'__', u'__', u'__', u'__', u'__', u'__', u'__', u'__', u'__', u'__', u'__'], u'V': 5.135999999999999}]","[7601, 17208, 19312]","[u'2', u'2', u'3']","[[0, u'__', u'__', u'__', u'__', u'__', u'__', u'__', u'__', u'__', u'__', u'__', u'__', u'__', u'__', u'__', u'__']]",,[3],[True],[u'__TERM_ACTION__'],"[0, 9, 10, 11]",[True],[False],"{u'mouseover': {u'state': {u'target': [], u'time': []}, u'edge': {u'target': [], u'time': []}}, u'click': {u'state': {u'target': [], u'time': []}, u'edge': {u'target': [], u'time': []}}, u'mouseout': {u'state': {u'target': [], u'time': []}, u'edge': {u'target': [], u'time': []}}}",,,"[7600, 4552, 1565]",-4.0,105258,1.0,,mouselab-mdp,,2
"[{u'Q': -1.9984014443252818e-15, u'action': u'__TERM_ACTION__', u'Qs': [5.1359999999999975, 5.1359999999999975, 5.135999999999999, 5.135999999999999, 5.1359999999999975, 5.1359999999999975, 5.135999999999999, 5.135999999999999, 5.1359999999999975, 5.1359999999999975, 5.135999999999999, 5.135999999999999, 5.1359999999999975, 5.1359999999999975, 5.135999999999999, 5.135999999999999, -1.9984014443252818e-15], u'state': [0, u'__', u'__', u'__', u'__', u'__', u'__', u'__', u'__', u'__', u'__', u'__', u'__', u'__', u'__', u'__', u'__'], u'V': 5.135999999999999}]","[980, 5083, 10500]","[u'3', u'3', u'0']","[[0, u'__', u'__', u'__', u'__', u'__', u'__', u'__', u'__', u'__', u'__', u'__', u'__', u'__', u'__', u'__', u'__']]",,[3],[True],[u'__TERM_ACTION__'],"[0, 13, 14, 15]",[True],[False],"{u'mouseover': {u'state': {u'target': [], u'time': []}, u'edge': {u'target': [], u'time': []}}, u'click': {u'state': {u'target': [], u'time': []}, u'edge': {u'target': [], u'time': []}}, u'mouseout': {u'state': {u'target': [], u'time': []}, u'edge': {u'target': [], u'time': []}}}",,,"[980, 573, 4892]",4.0,156426,2.0,,mouselab-mdp,,2
"[{u'Q': -1.9984014443252818e-15, u'action': u'__TERM_ACTION__', u'Qs': [5.1359999999999975, 5.1359999999999975, 5.135999999999999, 5.135999999999999, 5.1359999999999975, 5.1359999999999975, 5.135999999999999, 5.135999999999999, 5.1359999999999975, 5.1359999999999975, 5.135999999999999, 5.135999999999999, 5.1359999999999975, 5.1359999999999975, 5.135999999999999, 5.135999999999999, -1.9984014443252818e-15], u'state': [0, u'__', u'__', u'__', u'__', u'__', u'__', u'__', u'__', u'__', u'__', u'__', u'__', u'__', u'__', u'__', u'__'], u'V': 5.135999999999999}]","[2682, 8730, 10859]","[u'0', u'0', u'3']","[[0, u'__', u'__', u'__', u'__', u'__', u'__', u'__', u'__', u'__', u'__', u'__', u'__', u'__', u'__', u'__', u'__']]",,[3],[True],[u'__TERM_ACTION__'],"[0, 1, 2, 4]",[True],[False],"{u'mouseover': {u'state': {u'target': [], u'time': []}, u'edge': {u'target': [], u'time': []}}, u'click': {u'state': {u'target': [], u'time': []}, u'edge': {u'target': [], u'time': []}}, u'mouseout': {u'state': {u'target': [], u'time': []}, u'edge': {u'target': [], u'time': []}}}",,,"[2682, 2515, 1598]",-12.0,206218,3.0,,mouselab-mdp,,2
"[{u'Q': -1.9984014443252818e-15, u'action': u'__TERM_ACTION__', u'Qs': [5.1359999999999975, 5.1359999999999975, 5.135999999999999, 5.135999999999999, 5.1359999999999975, 5.1359999999999975, 5.135999999999999, 5.135999999999999, 5.1359999999999975, 5.1359999999999975, 5.135999999999999, 5.135999999999999, 5.1359999999999975, 5.1359999999999975, 5.135999999999999, 5.135999999999999, -1.9984014443252818e-15], u'state': [0, u'__', u'__', u'__', u'__', u'__', u'__', u'__', u'__', u'__', u'__', u'__', u'__', u'__', u'__', u'__', u'__'], u'V': 5.135999999999999}]","[4559, 8822, 10494]","[u'3', u'3', u'2']","[[0, u'__', u'__', u'__', u'__', u'__', u'__', u'__', u'__', u'__', u'__', u'__', u'__', u'__', u'__', u'__', u'__']]",,[3],[True],[u'__TERM_ACTION__'],"[0, 13, 14, 16]",[True],[False],"{u'mouseover': {u'state': {u'target': [], u'time': []}, u'edge': {u'target': [], u'time': []}}, u'click': {u'state': {u'target': [], u'time': []}, u'edge': {u'target': [], u'time': []}}, u'mouseout': {u'state': {u'target': [], u'time': []}, u'edge': {u'target': [], u'time': []}}}",,,"[4559, 732, 1136]",-4.0,258833,4.0,,mouselab-mdp,,2
"[{u'Q': -1.9984014443252818e-15, u'action': u'__TERM_ACTION__', u'Qs': [5.1359999999999975, 5.1359999999999975, 5.135999999999999, 5.135999999999999, 5.1359999999999975, 5.1359999999999975, 5.135999999999999, 5.135999999999999, 5.1359999999999975, 5.1359999999999975, 5.135999999999999, 5.135999999999999, 5.1359999999999975, 5.1359999999999975, 5.135999999999999, 5.135999999999999, -1.9984014443252818e-15], u'state': [0, u'__', u'__', u'__', u'__', u'__', u'__', u'__', u'__', u'__', u'__', u'__', u'__', u'__', u'__', u'__', u'__'], u'V': 5.135999999999999}]","[960, 4912, 16905]","[u'1', u'1', u'0']","[[0, u'__', u'__', u'__', u'__', u'__', u'__', u'__', u'__', u'__', u'__', u'__', u'__', u'__', u'__', u'__', u'__']]",,[3],[True],[u'__TERM_ACTION__'],"[0, 5, 6, 8]",[True],[False],"{u'mouseover': {u'state': {u'target': [], u'time': []}, u'edge': {u'target': [], u'time': []}}, u'click': {u'state': {u'target': [], u'time': []}, u'edge': {u'target': [], u'time': []}}, u'mouseout': {u'state': {u'target': [], u'time': []}, u'edge': {u'target': [], u'time': []}}}",,,"[960, 419, 11467]",28.0,308922,5.0,,mouselab-mdp,,2
"[{u'Q': -1.9984014443252818e-15, u'action': u'__TERM_ACTION__', u'Qs': [5.1359999999999975, 5.1359999999999975, 5.135999999999999, 5.135999999999999, 5.1359999999999975, 5.1359999999999975, 5.135999999999999, 5.135999999999999, 5.1359999999999975, 5.1359999999999975, 5.135999999999999, 5.135999999999999, 5.1359999999999975, 5.1359999999999975, 5.135999999999999, 5.135999999999999, -1.9984014443252818e-15], u'state': [0, u'__', u'__', u'__', u'__', u'__', u'__', u'__', u'__', u'__', u'__', u'__', u'__', u'__', u'__', u'__', u'__'], u'V': 5.135999999999999}]","[3409, 7304, 11656]","[u'0', u'0', u'3']","[[0, u'__', u'__', u'__', u'__', u'__', u'__', u'__', u'__', u'__', u'__', u'__', u'__', u'__', u'__', u'__', u'__']]",,[3],[True],[u'__TERM_ACTION__'],"[0, 1, 2, 4]",[True],[False],"{u'mouseover': {u'state': {u'target': [], u'time': []}, u'edge': {u'target': [], u'time': []}}, u'click': {u'state': {u'target': [], u'time': []}, u'edge': {u'target': [], u'time': []}}, u'mouseout': {u'state': {u'target': [], u'time': []}, u'edge': {u'target': [], u'time': []}}}",,,"[3409, 362, 3812]",20.0,358872,6.0,,mouselab-mdp,,2
"[{u'Q': -1.9984014443252818e-15, u'action': u'__TERM_ACTION__', u'Qs': [5.1359999999999975, 5.1359999999999975, 5.135999999999999, 5.135999999999999, 5.1359999999999975, 5.1359999999999975, 5.135999999999999, 5.135999999999999, 5.1359999999999975, 5.1359999999999975, 5.135999999999999, 5.135999999999999, 5.1359999999999975, 5.1359999999999975, 5.135999999999999, 5.135999999999999, -1.9984014443252818e-15], u'state': [0, u'__', u'__', u'__', u'__', u'__', u'__', u'__', u'__', u'__', u'__', u'__', u'__', u'__', u'__', u'__', u'__'], u'V': 5.135999999999999}]","[3579, 8115, 10827]","[u'2', u'2', u'3']","[[0, u'__', u'__', u'__', u'__', u'__', u'__', u'__', u'__', u'__', u'__', u'__', u'__', u'__', u'__', u'__', u'__']]",,[3],[True],[u'__TERM_ACTION__'],"[0, 9, 10, 11]",[True],[False],"{u'mouseover': {u'state': {u'target': [], u'time': []}, u'edge': {u'target': [], u'time': []}}, u'click': {u'state': {u'target': [], u'time': []}, u'edge': {u'target': [], u'time': []}}, u'mouseout': {u'state': {u'target': [], u'time': []}, u'edge': {u'target': [], u'time': []}}}",,,"[3579, 1001, 2185]",20.0,414809,7.0,,mouselab-mdp,,2
"[{u'Q': -1.9984014443252818e-15, u'action': u'__TERM_ACTION__', u'Qs': [5.1359999999999975, 5.1359999999999975, 5.135999999999999, 5.135999999999999, 5.1359999999999975, 5.1359999999999975, 5.135999999999999, 5.135999999999999, 5.1359999999999975, 5.1359999999999975, 5.135999999999999, 5.135999999999999, 5.1359999999999975, 5.1359999999999975, 5.135999999999999, 5.135999999999999, -1.9984014443252818e-15], u'state': [0, u'__', u'__', u'__', u'__', u'__', u'__', u'__', u'__', u'__', u'__', u'__', u'__', u'__', u'__', u'__', u'__'], u'V': 5.135999999999999}]","[1484, 6844, 10620]","[u'3', u'3', u'2']","[[0, u'__', u'__', u'__', u'__', u'__', u'__', u'__', u'__', u'__', u'__', u'__', u'__', u'__', u'__', u'__', u'__']]",,[3],[True],[u'__TERM_ACTION__'],"[0, 13, 14, 16]",[True],[False],"{u'mouseover': {u'state': {u'target': [], u'time': []}, u'edge': {u'target': [], u'time': []}}, u'click': {u'state': {u'target': [], u'time': []}, u'edge': {u'target': [], u'time': []}}, u'mouseout': {u'state': {u'target': [], u'time': []}, u'edge': {u'target': [], u'time': []}}}",,,"[1484, 1813, 3247]",28.0,469913,8.0,,mouselab-mdp,,2
"[{u'Q': -1.9984014443252818e-15, u'action': u'__TERM_ACTION__', u'Qs': [5.1359999999999975, 5.1359999999999975, 5.135999999999999, 5.135999999999999, 5.1359999999999975, 5.1359999999999975, 5.135999999999999, 5.135999999999999, 5.1359999999999975, 5.1359999999999975, 5.135999999999999, 5.135999999999999, 5.1359999999999975, 5.1359999999999975, 5.135999999999999, 5.135999999999999, -1.9984014443252818e-15], u'state': [0, u'__', u'__', u'__', u'__', u'__', u'__', u'__', u'__', u'__', u'__', u'__', u'__', u'__', u'__', u'__', u'__'], u'V': 5.135999999999999}]","[2787, 7139, 10155]","[u'1', u'1', u'0']","[[0, u'__', u'__', u'__', u'__', u'__', u'__', u'__', u'__', u'__', u'__', u'__', u'__', u'__', u'__', u'__', u'__']]",,[3],[True],[u'__TERM_ACTION__'],"[0, 5, 6, 8]",[True],[False],"{u'mouseover': {u'state': {u'target': [], u'time': []}, u'edge': {u'target': [], u'time': []}}, u'click': {u'state': {u'target': [], u'time': []}, u'edge': {u'target': [], u'time': []}}, u'mouseout': {u'state': {u'target': [], u'time': []}, u'edge': {u'target': [], u'time': []}}}",,,"[2787, 815, 2486]",-28.0,520657,9.0,,mouselab-mdp,,2
"[{u'Q': -1.9984014443252818e-15, u'action': u'__TERM_ACTION__', u'Qs': [5.1359999999999975, 5.1359999999999975, 5.135999999999999, 5.135999999999999, 5.1359999999999975, 5.1359999999999975, 5.135999999999999, 5.135999999999999, 5.1359999999999975, 5.1359999999999975, 5.135999999999999, 5.135999999999999, 5.1359999999999975, 5.1359999999999975, 5.135999999999999, 5.135999999999999, -1.9984014443252818e-15], u'state': [0, u'__', u'__', u'__', u'__', u'__', u'__', u'__', u'__', u'__', u'__', u'__', u'__', u'__', u'__', u'__', u'__'], u'V': 5.135999999999999}]","[1237, 6132, 9573]","[u'0', u'0', u'1']","[[0, u'__', u'__', u'__', u'__', u'__', u'__', u'__', u'__', u'__', u'__', u'__', u'__', u'__', u'__', u'__', u'__']]",,[3],[True],[u'__TERM_ACTION__'],"[0, 1, 2, 3]",[True],[False],"{u'mouseover': {u'state': {u'target': [], u'time': []}, u'edge': {u'target': [], u'time': []}}, u'click': {u'state': {u'target': [], u'time': []}, u'edge': {u'target': [], u'time': []}}, u'mouseout': {u'state': {u'target': [], u'time': []}, u'edge': {u'target': [], u'time': []}}}",,,"[1237, 1361, 2915]",-12.0,573536,10.0,,mouselab-mdp,,2
,"[3403, 7090, 9291]","[u'0', u'0', u'3']","[[0, u'__', u'__', u'__', u'__', u'__', u'__', u'__', u'__', u'__', u'__', u'__', u'__', u'__', u'__', u'__', u'__']]",,[],[],[u'__TERM_ACTION__'],"[0, 1, 2, 4]",[],[],"{u'mouseover': {u'state': {u'target': [], u'time': []}, u'edge': {u'target': [], u'time': []}}, u'click': {u'state': {u'target': [], u'time': []}, u'edge': {u'target': [], u'time': []}}, u'mouseout': {u'state': {u'target': [], u'time': []}, u'edge': {u'target': [], u'time': []}}}",,,"[3403, 3138, 1663]",-4.0,620996,11.0,,mouselab-mdp,,2
,"[2784, 6441, 8977]","[u'3', u'3', u'0']","[[0, u'__', u'__', u'__', u'__', u'__', u'__', u'__', u'__', u'__', u'__', u'__', u'__', u'__', u'__', u'__', u'__']]",,[],[],[u'__TERM_ACTION__'],"[0, 13, 14, 15]",[],[],"{u'mouseover': {u'state': {u'target': [], u'time': []}, u'edge': {u'target': [], u'time': []}}, u'click': {u'state': {u'target': [], u'time': []}, u'edge': {u'target': [], u'time': []}}, u'mouseout': {u'state': {u'target': [], u'time': []}, u'edge': {u'target': [], u'time': []}}}",,,"[2784, 3122, 2007]",-12.0,667945,12.0,,mouselab-mdp,,2
,"[2471, 5406, 8230]","[u'1', u'1', u'0']","[[0, u'__', u'__', u'__', u'__', u'__', u'__', u'__', u'__', u'__', u'__', u'__', u'__', u'__', u'__', u'__', u'__']]",,[],[],[u'__TERM_ACTION__'],"[0, 5, 6, 8]",[],[],"{u'mouseover': {u'state': {u'target': [], u'time': []}, u'edge': {u'target': [], u'time': []}}, u'click': {u'state': {u'target': [], u'time': []}, u'edge': {u'target': [], u'time': []}}, u'mouseout': {u'state': {u'target': [], u'time': []}, u'edge': {u'target': [], u'time': []}}}",,,"[2471, 2400, 2292]",28.0,715161,13.0,,mouselab-mdp,,2
,"[3475, 6498, 8386]","[u'3', u'3', u'2']","[[0, u'__', u'__', u'__', u'__', u'__', u'__', u'__', u'__', u'__', u'__', u'__', u'__', u'__', u'__', u'__', u'__']]",,[],[],[u'__TERM_ACTION__'],"[0, 13, 14, 16]",[],[],"{u'mouseover': {u'state': {u'target': [], u'time': []}, u'edge': {u'target': [], u'time': []}}, u'click': {u'state': {u'target': [], u'time': []}, u'edge': {u'target': [], u'time': []}}, u'mouseout': {u'state': {u'target': [], u'time': []}, u'edge': {u'target': [], u'time': []}}}",,,"[3473, 2487, 1350]",-4.0,762481,14.0,,mouselab-mdp,,2
,"[1715, 4307, 6874]","[u'2', u'2', u'1']","[[0, u'__', u'__', u'__', u'__', u'__', u'__', u'__', u'__', u'__', u'__', u'__', u'__', u'__', u'__', u'__', u'__']]",,[],[],[u'__TERM_ACTION__'],"[0, 9, 10, 12]",[],[],"{u'mouseover': {u'state': {u'target': [], u'time': []}, u'edge': {u'target': [], u'time': []}}, u'click': {u'state': {u'target': [], u'time': []}, u'edge': {u'target': [], u'time': []}}, u'mouseout': {u'state': {u'target': [], u'time': []}, u'edge': {u'target': [], u'time': []}}}",,,"[1715, 2057, 2039]",-4.0,809593,15.0,,mouselab-mdp,,2
,"[3203, 5771, 7499]","[u'2', u'2', u'3']","[[0, u'__', u'__', u'__', u'__', u'__', u'__', u'__', u'__', u'__', u'__', u'__', u'__', u'__', u'__', u'__', u'__']]",,[],[],[u'__TERM_ACTION__'],"[0, 9, 10, 11]",[],[],"{u'mouseover': {u'state': {u'target': [], u'time': []}, u'edge': {u'target': [], u'time': []}}, u'click': {u'state': {u'target': [], u'time': []}, u'edge': {u'target': [], u'time': []}}, u'mouseout': {u'state': {u'target': [], u'time': []}, u'edge': {u'target': [], u'time': []}}}",,,"[3203, 2034, 1203]",12.0,856776,16.0,,mouselab-mdp,,2
