key_press,rt,time_elapsed,trial_type,pid
32.0,1941,1979,text,0
32.0,3690,6696,text,0
32.0,10952,121338,text,0
32.0,4207,597002,text,0
32.0,40273,638315,text,0
78.0,12643,12662,text,1
32.0,17124,30807,text,1
32.0,11213,179250,text,1
32.0,3148,384270,text,1
32.0,12561,397870,text,1
32.0,93542,93562,text,2
32.0,21562,116141,text,2
32.0,8287,204900,text,2
32.0,2913,678458,text,2
32.0,17541,697006,text,2
32.0,17456,17464,text,3
32.0,16322,34795,text,3
32.0,7932,103060,text,3
32.0,1943,337153,text,3
32.0,8813,346978,text,3
32.0,1845,1857,text,4
32.0,913,3775,text,4
32.0,895,57007,text,4
32.0,1872,284799,text,4
32.0,13560,299367,text,4
32.0,15794,15802,text,5
32.0,16620,33425,text,5
32.0,6995,115384,text,5
32.0,1740,320776,text,5
32.0,6511,328298,text,5
32.0,57970,57976,text,6
39.0,1857,60839,text,6
32.0,9230,126969,text,6
32.0,2151,293924,text,6
32.0,11442,306369,text,6
32.0,28940,28957,text,7
32.0,44845,74813,text,7
32.0,7925,148796,text,7
32.0,2179,324283,text,7
32.0,19467,344760,text,7
32.0,30863,30872,text,8
39.0,2151,34031,text,8
32.0,9395,105565,text,8
32.0,1531,454826,text,8
32.0,12166,467995,text,8
32.0,3111,3122,text,9
32.0,4556,8690,text,9
32.0,3085,88336,text,9
32.0,2069,284269,text,9
32.0,7097,292373,text,9
32.0,60866,60880,text,10
32.0,46507,108398,text,10
32.0,12714,253503,text,10
32.0,1825,397180,text,10
32.0,15744,413934,text,10
32.0,11145,11154,text,11
32.0,19619,31777,text,11
32.0,4181,99730,text,11
32.0,1389,277882,text,11
32.0,16922,295813,text,11
32.0,17439,17455,text,12
32.0,18236,36692,text,12
32.0,7710,118238,text,12
32.0,2867,362174,text,12
32.0,11894,375073,text,12
32.0,15722,15727,text,13
32.0,16687,33418,text,13
32.0,4795,111204,text,13
32.0,1962,286385,text,13
32.0,8157,295545,text,13
32.0,21319,21337,text,14
32.0,22792,45136,text,14
32.0,5335,170448,text,14
32.0,2631,427900,text,14
32.0,11805,440715,text,14
32.0,14437,14449,text,15
32.0,14844,30296,text,15
32.0,11503,139950,text,15
32.0,2014,496374,text,15
32.0,10837,508221,text,15
32.0,9581,9588,text,16
32.0,15823,26415,text,16
32.0,4546,112801,text,16
32.0,1753,351843,text,16
32.0,11469,364316,text,16
32.0,17708,17715,text,17
32.0,41552,60272,text,17
32.0,11920,156358,text,17
32.0,1661,350703,text,17
32.0,12997,364703,text,17
32.0,9961,9971,text,18
32.0,1969,12949,text,18
32.0,7838,95937,text,18
32.0,2489,246764,text,18
32.0,9964,257743,text,18
32.0,28836,28847,text,19
39.0,1888,31769,text,19
32.0,8587,107459,text,19
32.0,3285,677376,text,19
32.0,13565,691959,text,19
32.0,11177,11320,text,20
32.0,1764,14117,text,20
32.0,2682,80447,text,20
32.0,1806,195499,text,20
32.0,1381,197967,text,20
32.0,24429,24462,text,21
32.0,24758,50259,text,21
32.0,9167,169631,text,21
32.0,4487,416953,text,21
32.0,13961,431931,text,21
32.0,13797,13813,text,22
32.0,18252,33075,text,22
32.0,11682,160873,text,22
32.0,2357,337701,text,22
32.0,11833,350553,text,22
32.0,22228,22245,text,23
32.0,18623,41883,text,23
32.0,7693,154300,text,23
32.0,3946,318825,text,23
32.0,10433,330266,text,23
32.0,5264,5296,text,24
39.0,2962,9274,text,24
32.0,3485,107881,text,24
32.0,2879,276383,text,24
32.0,12145,289567,text,24
32.0,29105,29116,text,25
32.0,68024,98154,text,25
32.0,12247,268400,text,25
32.0,2962,566308,text,25
32.0,26551,593868,text,25
18.0,17348,17369,text,26
32.0,64516,82903,text,26
32.0,19503,254808,text,26
32.0,2868,594862,text,26
32.0,24312,620189,text,26
32.0,21143,21169,text,27
32.0,22849,45030,text,27
32.0,6874,137582,text,27
32.0,2770,625506,text,27
32.0,9641,636162,text,27
32.0,20142,20152,text,28
32.0,25194,46351,text,28
32.0,9096,142832,text,28
32.0,3197,310615,text,28
32.0,14626,326255,text,28
32.0,23931,23939,text,29
32.0,20810,45760,text,29
32.0,7037,174106,text,29
32.0,2438,520561,text,29
32.0,14693,536262,text,29
32.0,17671,17680,text,30
32.0,14455,33141,text,30
32.0,9589,106828,text,30
37.0,286,632849,text,30
32.0,13309,647170,text,30
32.0,14956,14985,text,31
32.0,7595,23589,text,31
32.0,5686,96590,text,31
66.0,1288,450147,text,31
32.0,34414,485581,text,31
32.0,26118,26124,text,32
32.0,17778,44907,text,32
32.0,7097,124318,text,32
32.0,1861,359042,text,32
32.0,9848,369898,text,32
32.0,2842,2869,text,33
32.0,1553,5446,text,33
32.0,7291,74329,text,33
32.0,2252,615825,text,33
32.0,9051,625905,text,33
32.0,50016,50034,text,34
32.0,35426,86501,text,34
32.0,11944,177220,text,34
32.0,5211,523836,text,34
32.0,18717,543585,text,34
32.0,34222,34256,text,35
32.0,30804,66090,text,35
32.0,5957,155683,text,35
32.0,4995,729974,text,35
32.0,4693,735706,text,35
32.0,32940,32951,text,36
32.0,76508,110490,text,36
32.0,7566,236750,text,36
32.0,2038,502393,text,36
32.0,22252,525666,text,36
32.0,15102,15110,text,37
32.0,19080,35196,text,37
32.0,7672,167666,text,37
32.0,2365,493954,text,37
32.0,13469,508434,text,37
32.0,25675,25731,text,38
32.0,26382,53126,text,38
32.0,6457,154636,text,38
32.0,3061,431638,text,38
32.0,9274,441936,text,38
32.0,2796,2812,text,39
32.0,10868,14687,text,39
32.0,8561,110040,text,39
32.0,2175,252523,text,39
32.0,10576,264113,text,39
32.0,9528,9541,text,40
39.0,1703,12255,text,40
32.0,5292,78708,text,40
32.0,1111,283249,text,40
32.0,3863,288116,text,40
32.0,26572,26586,text,41
32.0,17297,44908,text,41
32.0,6187,165120,text,41
32.0,2411,458103,text,41
32.0,10321,469440,text,41
32.0,12429,12457,text,42
32.0,12863,26327,text,42
32.0,10997,101240,text,42
32.0,8893,389502,text,42
32.0,12111,402632,text,42
32.0,27383,27391,text,43
32.0,26427,54826,text,43
32.0,9996,143166,text,43
32.0,1087,543274,text,43
32.0,15995,560278,text,43
32.0,13247,13258,text,44
39.0,1969,16241,text,44
32.0,4970,78411,text,44
32.0,1447,287842,text,44
32.0,5745,294608,text,44
32.0,9494,9507,text,45
32.0,17034,27546,text,45
32.0,6142,114073,text,45
32.0,1616,246890,text,45
32.0,10705,258602,text,45
32.0,26278,26285,text,46
32.0,43935,71239,text,46
32.0,14727,159621,text,46
32.0,4649,357654,text,46
32.0,12668,371358,text,46
32.0,29994,30001,text,47
32.0,21623,52633,text,47
32.0,4772,120899,text,47
32.0,2495,281443,text,47
32.0,7942,290389,text,47
39.0,22486,22496,text,48
32.0,48679,72191,text,48
32.0,12939,175761,text,48
32.0,1645,488256,text,48
32.0,8052,497313,text,48
32.0,54957,54970,text,49
32.0,29943,85934,text,49
32.0,9727,231927,text,49
32.0,2509,398632,text,49
32.0,19837,419479,text,49
38.0,9330,9338,text,50
32.0,17596,27936,text,50
32.0,6160,107081,text,50
32.0,1119,371575,text,50
32.0,5457,378037,text,50
32.0,15114,15124,text,51
40.0,2352,18482,text,51
32.0,6500,84498,text,51
32.0,2773,362737,text,51
32.0,9659,373408,text,51
32.0,7577,7599,text,52
32.0,14407,23022,text,52
32.0,8301,97453,text,52
32.0,1264,227231,text,52
13.0,5855,234093,text,52
32.0,5893,5910,text,53
32.0,18080,24997,text,53
32.0,4069,114349,text,53
32.0,3080,325070,text,53
32.0,809,326908,text,53
32.0,45161,45170,text,54
39.0,4126,50315,text,54
32.0,9869,179589,text,54
32.0,3236,318757,text,54
32.0,9164,328934,text,54
32.0,38903,38916,text,55
32.0,18511,58434,text,55
32.0,6622,154871,text,55
32.0,3044,337817,text,55
32.0,22507,361329,text,55
32.0,22072,22081,text,56
32.0,23240,46328,text,56
32.0,7063,121631,text,56
32.0,3207,375925,text,56
32.0,8572,385501,text,56
32.0,49915,49928,text,57
32.0,43430,94374,text,57
32.0,9269,188451,text,57
32.0,2963,342358,text,57
32.0,18914,362283,text,57
32.0,38043,38054,text,58
39.0,26160,65229,text,58
32.0,8439,179168,text,58
32.0,2168,368094,text,58
32.0,13066,382172,text,58
32.0,1686,1693,text,59
32.0,1259,3962,text,59
32.0,7306,65725,text,59
32.0,1270,394511,text,59
32.0,10936,406455,text,59
32.0,16665,16682,text,60
32.0,20085,37771,text,60
32.0,6119,117496,text,60
32.0,1794,448311,text,60
32.0,6653,455977,text,60
32.0,31895,31920,text,61
32.0,24483,57440,text,61
32.0,6977,156550,text,61
32.0,2234,398172,text,61
32.0,14098,413287,text,61
32.0,36674,36686,text,62
32.0,29514,67212,text,62
32.0,12530,163376,text,62
32.0,3364,563996,text,62
32.0,16819,581822,text,62
39.0,14830,14838,text,63
32.0,11102,26945,text,63
32.0,5014,109562,text,63
32.0,3191,371096,text,63
32.0,2638,374740,text,63
32.0,20778,20791,text,64
32.0,25585,47379,text,64
32.0,9173,199795,text,64
32.0,2903,365522,text,64
32.0,13150,379682,text,64
32.0,44049,44060,text,65
32.0,23257,68324,text,65
32.0,12599,183767,text,65
32.0,1631,341248,text,65
32.0,15958,358212,text,65
32.0,27992,28020,text,66
32.0,27044,56071,text,66
32.0,7183,158452,text,66
32.0,2059,467299,text,66
32.0,12014,480325,text,66
32.0,21648,21655,text,67
32.0,21332,44003,text,67
32.0,6207,119372,text,67
32.0,1613,380834,text,67
32.0,7326,389171,text,67
32.0,22006,22013,text,68
32.0,34611,57629,text,68
32.0,6706,165374,text,68
32.0,6379,459676,text,68
32.0,6697,467377,text,68
32.0,20067,20077,text,69
32.0,35447,56532,text,69
32.0,10157,133219,text,69
32.0,2046,349337,text,69
32.0,12291,362642,text,69
32.0,6380,6397,text,70
32.0,56535,63939,text,70
32.0,2813,302207,text,70
32.0,1884,485886,text,70
32.0,1861,488758,text,70
32.0,18978,18993,text,71
32.0,31628,51630,text,71
32.0,44662,186115,text,71
32.0,39367,1078337,text,71
32.0,14601,1093949,text,71
32.0,11809,11841,text,72
32.0,1716,14563,text,72
32.0,876,78308,text,72
32.0,1540,220069,text,72
32.0,21845,242933,text,72
32.0,45895,46494,text,73
32.0,99516,147024,text,73
32.0,7139,259743,text,73
32.0,1221,395751,text,73
32.0,11039,407797,text,73
32.0,13215,13230,text,74
32.0,15170,29408,text,74
32.0,5905,108705,text,74
32.0,2217,368642,text,74
91.0,9773,379433,text,74
32.0,12886,12899,text,75
32.0,16123,30029,text,75
32.0,4164,95775,text,75
32.0,1163,358224,text,75
32.0,6360,365593,text,75
32.0,17833,17843,text,76
32.0,19574,38425,text,76
32.0,8215,171148,text,76
32.0,2342,503659,text,76
32.0,19115,523779,text,76
32.0,10822,10837,text,77
32.0,9150,21008,text,77
32.0,5840,98902,text,77
32.0,1330,334209,text,77
32.0,10854,346105,text,77
32.0,13874,13882,text,78
32.0,12470,27357,text,78
32.0,6677,121603,text,78
32.0,1668,267857,text,78
32.0,6629,275492,text,78
32.0,17808,17823,text,79
32.0,42393,61223,text,79
32.0,7494,220519,text,79
32.0,10283,611829,text,79
32.0,6235,619072,text,79
32.0,15476,15485,text,80
32.0,26347,42845,text,80
32.0,6246,116602,text,80
32.0,3768,633460,text,80
32.0,23081,657549,text,80
32.0,3614,3621,text,81
32.0,9034,13660,text,81
32.0,7229,80029,text,81
32.0,1883,863930,text,81
32.0,14708,879651,text,81
32.0,31972,31980,text,82
32.0,26895,59883,text,82
32.0,10494,173517,text,82
32.0,2653,794448,text,82
32.0,12529,807983,text,82
32.0,19259,19272,text,83
32.0,23468,43750,text,83
32.0,8406,124693,text,83
32.0,2022,419219,text,83
32.0,15121,435347,text,83
32.0,6096,6109,text,84
32.0,42720,49835,text,84
32.0,2210,108645,text,84
32.0,985,254342,text,84
32.0,2361,257710,text,84
32.0,20883,20901,text,85
32.0,19359,41283,text,85
32.0,6404,132455,text,85
32.0,1442,267948,text,85
32.0,8398,277367,text,85
32.0,15145,15159,text,86
32.0,14397,30562,text,86
32.0,5676,103967,text,86
32.0,2242,217205,text,86
32.0,4309,222526,text,86
32.0,11713,11728,text,87
39.0,16206,28945,text,87
32.0,18931,158710,text,87
32.0,2285,523112,text,87
78.0,11284,535410,text,87
40.0,14930,14959,text,88
32.0,16110,32075,text,88
32.0,4189,102979,text,88
32.0,982,346812,text,88
32.0,9836,357663,text,88
32.0,6624,6634,text,89
32.0,6925,14574,text,89
32.0,2702,74461,text,89
32.0,933,297231,text,89
32.0,82579,380831,text,89
32.0,3050,3059,text,90
32.0,3269,7332,text,90
32.0,2460,145024,text,90
32.0,3004,994373,text,90
32.0,10486,1005864,text,90
32.0,4400,4412,text,91
32.0,7130,12547,text,91
32.0,3571,70329,text,91
32.0,14553,864829,text,91
32.0,6266,872104,text,91
32.0,9330,9366,text,92
32.0,14562,24933,text,92
32.0,5705,103821,text,92
32.0,1768,401116,text,92
32.0,14760,416880,text,92
32.0,91539,91547,text,93
32.0,13356,105913,text,93
32.0,7979,183142,text,93
32.0,1024,317616,text,93
32.0,8341,326968,text,93
32.0,2121,2146,text,94
32.0,1344,4498,text,94
32.0,9008,89113,text,94
32.0,2319,332495,text,94
32.0,10048,343553,text,94
32.0,14946,14955,text,95
32.0,19312,35273,text,95
32.0,4528,88746,text,95
32.0,855,353586,text,95
32.0,8548,363138,text,95
32.0,14760,14774,text,96
32.0,14967,30757,text,96
32.0,8003,155650,text,96
32.0,1429,424356,text,96
32.0,8990,434366,text,96
32.0,4846,4860,text,97
32.0,1533,7394,text,97
32.0,967,74625,text,97
32.0,18359,1325739,text,97
32.0,3024,1329771,text,97
32.0,24790,24800,text,98
32.0,28816,54623,text,98
32.0,4557,121022,text,98
32.0,1670,350964,text,98
32.0,8675,360644,text,98
32.0,15187,15201,text,99
32.0,11232,27438,text,99
32.0,3264,97221,text,99
32.0,1158,318094,text,99
32.0,10997,330100,text,99
32.0,20106,20121,text,100
32.0,30616,51745,text,100
32.0,10112,172721,text,100
32.0,2842,492254,text,100
32.0,13065,506332,text,100
32.0,17585,17596,text,101
32.0,26153,44753,text,101
32.0,9725,129041,text,101
32.0,2359,316044,text,101
32.0,12880,329932,text,101
32.0,72412,72420,text,102
32.0,4857,78283,text,102
32.0,7014,210514,text,102
32.0,1782,529273,text,102
32.0,15301,545577,text,102
32.0,59615,59628,text,103
32.0,14682,75338,text,103
32.0,5911,169858,text,103
32.0,3227,910449,text,103
32.0,10329,921795,text,103
32.0,3569,3597,text,104
32.0,1583,6198,text,104
32.0,4018,107663,text,104
32.0,1236,244914,text,104
32.0,16053,261995,text,104
32.0,18201,18212,text,105
32.0,33748,52978,text,105
32.0,7910,173666,text,105
32.0,3271,559553,text,105
32.0,17611,578177,text,105
32.0,15365,15375,text,106
32.0,7404,23781,text,106
32.0,1598,89173,text,106
32.0,1363,734099,text,106
32.0,14000,749108,text,106
32.0,12701,12740,text,107
32.0,11258,25035,text,107
32.0,4142,85113,text,107
32.0,2911,870957,text,107
32.0,6063,878045,text,107
32.0,12587,12595,text,108
32.0,36520,50124,text,108
32.0,6626,117101,text,108
32.0,1362,378545,text,108
32.0,12602,392154,text,108
32.0,640352,640365,text,109
32.0,18792,660163,text,109
32.0,5679,734531,text,109
32.0,1971,1041483,text,109
32.0,19626,1062125,text,109
32.0,13502,13522,text,110
32.0,19629,34155,text,110
32.0,7899,380691,text,110
32.0,2683,820743,text,110
32.0,10222,831975,text,110
32.0,21061,21071,text,111
32.0,25017,47096,text,111
32.0,6831,140382,text,111
32.0,2236,440916,text,111
32.0,29826,471749,text,111
32.0,20206,20212,text,112
39.0,2993,24210,text,112
32.0,156574,239114,text,112
32.0,1046,490865,text,112
32.0,14685,506553,text,112
32.0,23703,23714,text,113
32.0,21410,46154,text,113
32.0,8888,127679,text,113
32.0,13042,434618,text,113
32.0,14980,450603,text,113
32.0,30590,30708,text,114
32.0,21901,53644,text,114
32.0,11714,269213,text,114
32.0,2554,746624,text,114
32.0,42265,790147,text,114
32.0,29618,29626,text,115
32.0,21925,52562,text,115
32.0,5183,141760,text,115
32.0,3061,433549,text,115
32.0,10192,444749,text,115
32.0,18939,18948,text,116
39.0,1947,21901,text,116
32.0,9587,101372,text,116
32.0,15703,484214,text,116
32.0,12547,497774,text,116
32.0,29220,29230,text,117
32.0,42752,73003,text,117
32.0,16842,293411,text,117
32.0,5437,649396,text,117
32.0,39711,690132,text,117
32.0,22800,22822,text,118
32.0,7267,31093,text,118
32.0,7082,120332,text,118
32.0,1316,272410,text,118
32.0,14981,288408,text,118
32.0,22160,22167,text,119
32.0,21420,44592,text,119
32.0,6430,132784,text,119
32.0,1383,434715,text,119
32.0,17639,453359,text,119
32.0,11453,11477,text,120
32.0,13041,25526,text,120
32.0,5234,124377,text,120
32.0,1411,401506,text,120
32.0,15666,418198,text,120
32.0,16973,16983,text,121
32.0,16781,34773,text,121
32.0,5216,189320,text,121
32.0,2144,579725,text,121
32.0,9688,590428,text,121
32.0,21259,21275,text,122
32.0,24224,46502,text,122
32.0,10894,115158,text,122
32.0,25270,546356,text,122
32.0,20026,567391,text,122
32.0,12017,12027,text,123
32.0,17390,30422,text,123
32.0,6887,110920,text,123
32.0,1406,317395,text,123
32.0,7920,326323,text,123
32.0,28797,28830,text,124
32.0,30095,59961,text,124
32.0,8973,176180,text,124
32.0,3214,534222,text,124
32.0,13305,548547,text,124
32.0,5583,5592,text,125
32.0,4606,11205,text,125
32.0,2309,136636,text,125
32.0,2386,323427,text,125
32.0,25092,349531,text,125
32.0,20384,20418,text,126
32.0,16405,37842,text,126
32.0,8144,141880,text,126
32.0,2437,464240,text,126
32.0,31600,496859,text,126
32.0,1282251,1282268,text,127
32.0,24001,1307291,text,127
32.0,6198,1437615,text,127
32.0,2028,1687052,text,127
32.0,9225,1697301,text,127
32.0,1847,1880,text,128
32.0,1249,4148,text,128
32.0,1376,60029,text,128
32.0,765,272530,text,128
32.0,711,274258,text,128
32.0,12538,12558,text,129
32.0,19874,33438,text,129
32.0,7358,178444,text,129
32.0,2029,702597,text,129
32.0,9273,712893,text,129
32.0,21135,21142,text,130
32.0,13270,35430,text,130
32.0,6272,105655,text,130
32.0,1327,318365,text,130
32.0,5305,324683,text,130
32.0,15352,15362,text,131
32.0,24565,40948,text,131
32.0,6183,148064,text,131
32.0,2106,414577,text,131
32.0,9342,424931,text,131
32.0,9465,9522,text,132
32.0,12208,22738,text,132
32.0,5087,96049,text,132
32.0,5012,438848,text,132
32.0,9345,449209,text,132
32.0,22094,22102,text,133
102.0,4022,27135,text,133
32.0,11750,211117,text,133
32.0,2598,788454,text,133
32.0,12551,802014,text,133
32.0,29236,29253,text,134
32.0,38693,68968,text,134
32.0,11853,161614,text,134
32.0,2531,438680,text,134
32.0,13720,453458,text,134
32.0,13050,13055,text,135
32.0,13432,27491,text,135
32.0,4820,99805,text,135
32.0,969,308021,text,135
32.0,8964,317988,text,135
32.0,25832,25862,text,136
32.0,31004,57880,text,136
32.0,8536,226858,text,136
32.0,2022,725368,text,136
32.0,9628,736018,text,136
32.0,10990,11000,text,137
32.0,25228,37237,text,137
32.0,10251,143557,text,137
32.0,1377,414486,text,137
32.0,11950,427448,text,137
182.0,69236,69287,text,138
32.0,29854,100199,text,138
32.0,7230,657191,text,138
32.0,1342,966327,text,138
32.0,14524,981870,text,138
32.0,9674,9683,text,139
32.0,14493,25185,text,139
32.0,5922,99241,text,139
32.0,1454,249757,text,139
32.0,6625,257390,text,139
32.0,20033,20077,text,140
39.0,2732,23839,text,140
32.0,4071,89413,text,140
32.0,2635,636501,text,140
32.0,26561,664083,text,140
32.0,11784,11797,text,141
32.0,10593,23402,text,141
32.0,7154,83267,text,141
32.0,3250,461525,text,141
32.0,19023,481555,text,141
32.0,5591,5614,text,142
32.0,10808,17438,text,142
32.0,3650,88571,text,142
32.0,1698,814314,text,142
32.0,4592,819921,text,142
32.0,15170,15181,text,143
32.0,206007,222191,text,143
32.0,7765,311725,text,143
32.0,2617,803880,text,143
32.0,333546,1138431,text,143
32.0,57763,57774,text,144
32.0,23648,82443,text,144
32.0,11591,183321,text,144
176.0,2053,354388,text,144
32.0,13638,369040,text,144
32.0,10630,10639,text,145
32.0,18257,29905,text,145
32.0,7675,101111,text,145
32.0,1249,407204,text,145
32.0,5961,414174,text,145
32.0,85329,85341,text,146
32.0,23559,109928,text,146
32.0,9119,207000,text,146
32.0,1332,507990,text,146
32.0,13423,522439,text,146
32.0,101139,101152,text,147
39.0,822,102986,text,147
32.0,24887,221545,text,147
32.0,5261,1004171,text,147
32.0,20759,1025939,text,147
32.0,17942,17966,text,148
32.0,21092,40063,text,148
32.0,4910,124917,text,148
32.0,1597,257506,text,148
32.0,7978,266497,text,148
32.0,19088,19101,text,149
32.0,30147,50255,text,149
32.0,87554,249098,text,149
32.0,3085,1008881,text,149
32.0,13371,1023264,text,149
32.0,14073,14087,text,150
32.0,31007,46109,text,150
32.0,12524,172110,text,150
32.0,1247,295111,text,150
32.0,11501,307628,text,150
32.0,11356,11369,text,151
32.0,29738,42110,text,151
32.0,4651,116324,text,151
32.0,1199,655130,text,151
32.0,14915,671055,text,151
32.0,8285,8293,text,152
32.0,13813,23109,text,152
32.0,3719,89715,text,152
32.0,895,279146,text,152
32.0,6692,286841,text,152
32.0,24654,24664,text,153
32.0,18764,44431,text,153
32.0,6737,211165,text,153
32.0,1808,408195,text,153
32.0,15016,424227,text,153
32.0,566056,566077,text,154
32.0,33187,600278,text,154
32.0,1034,671820,text,154
32.0,1609,810367,text,154
32.0,12537,823914,text,154
32.0,12935,12948,text,155
32.0,15101,29052,text,155
32.0,7060,116707,text,155
32.0,3380,686365,text,155
32.0,9333,696703,text,155
32.0,17685,17692,text,156
32.0,16151,34858,text,156
32.0,6078,117956,text,156
32.0,2470,439195,text,156
32.0,13641,453843,text,156
32.0,27025,27036,text,157
32.0,34774,62816,text,157
32.0,14318,161053,text,157
32.0,3198,621095,text,157
32.0,14961,637064,text,157
32.0,72549,72562,text,158
32.0,21045,94624,text,158
32.0,1398,185928,text,158
32.0,1380,639716,text,158
32.0,11985,652717,text,158
32.0,17341,17352,text,159
32.0,20257,38614,text,159
32.0,6551,114239,text,159
32.0,1478,607371,text,159
32.0,15186,623572,text,159
32.0,13985,13992,text,160
32.0,24961,39958,text,160
32.0,5920,127954,text,160
32.0,1373,252070,text,160
32.0,8377,261453,text,160
32.0,22926,22936,text,161
32.0,20820,44763,text,161
32.0,5714,151663,text,161
32.0,1369,303868,text,161
32.0,8757,313630,text,161
32.0,16542,16549,text,162
87.0,1646,19212,text,162
32.0,5340,119766,text,162
32.0,1721,307862,text,162
32.0,61900,370778,text,162
66.0,22229,22242,text,163
39.0,2972,26224,text,163
32.0,8151,86687,text,163
32.0,3062,310875,text,163
32.0,20103,331988,text,163
18.0,15222,15247,text,164
18.0,7658,23923,text,164
32.0,6137,89305,text,164
32.0,1888,238613,text,164
32.0,12674,252302,text,164
32.0,13929,13941,text,165
32.0,28477,43424,text,165
32.0,7517,148927,text,165
32.0,1390,525842,text,165
32.0,12740,539593,text,165
32.0,5828,5842,text,166
32.0,2086,8932,text,166
32.0,1872,72821,text,166
32.0,1839,209221,text,166
32.0,2338,212572,text,166
32.0,44531,44543,text,167
32.0,29820,75370,text,167
32.0,9052,174391,text,167
32.0,1908,440345,text,167
32.0,14718,456069,text,167
32.0,14874,14885,text,168
32.0,8383,24273,text,168
32.0,7410,113680,text,168
32.0,2660,634960,text,168
32.0,8189,644155,text,168
32.0,22888,22903,text,169
32.0,19752,43662,text,169
32.0,9102,115132,text,169
32.0,1006,311355,text,169
32.0,5178,317547,text,169
32.0,21654,21722,text,170
38.0,2620,25354,text,170
32.0,7047,106566,text,170
32.0,2078,317725,text,170
32.0,12010,330768,text,170
32.0,6750,6816,text,171
32.0,11070,18909,text,171
32.0,1693,84055,text,171
32.0,1510,297304,text,171
32.0,14945,313264,text,171
32.0,11870,11882,text,172
32.0,7376,20264,text,172
32.0,3074,75680,text,172
32.0,1217,657782,text,172
32.0,9553,668345,text,172
78.0,17718,17725,text,173
32.0,22126,40854,text,173
32.0,11818,132211,text,173
32.0,2084,1584699,text,173
32.0,9145,1594847,text,173
32.0,23883,23894,text,174
32.0,47484,72380,text,174
32.0,11752,241140,text,174
32.0,2821,434753,text,174
32.0,15717,451476,text,174
32.0,16057,16067,text,175
32.0,19147,36219,text,175
32.0,11098,121639,text,175
32.0,2329,261897,text,175
32.0,11226,274127,text,175
32.0,59330,59337,text,176
32.0,46671,107014,text,176
32.0,9525,266601,text,176
32.0,1931,482528,text,176
32.0,19339,502880,text,176
32.0,2866,2898,text,177
32.0,6171,10095,text,177
32.0,1376,71533,text,177
32.0,212,664596,text,177
32.0,1328,666949,text,177
32.0,26017,26054,text,178
32.0,22067,49148,text,178
32.0,10207,130421,text,178
32.0,2259,511904,text,178
32.0,10504,523425,text,178
32.0,13930,13940,text,179
32.0,20429,35373,text,179
32.0,5252,108115,text,179
32.0,1834,227829,text,179
32.0,12222,241057,text,179
32.0,13087,13116,text,180
32.0,19205,33330,text,180
32.0,3435,112487,text,180
32.0,1808,365426,text,180
32.0,16077,382517,text,180
32.0,18233,18243,text,181
32.0,20382,39627,text,181
32.0,4528,114075,text,181
32.0,2342,344031,text,181
32.0,12932,357967,text,181
32.0,44125,44133,text,182
32.0,31097,76235,text,182
32.0,8447,157384,text,182
32.0,1892,613601,text,182
32.0,19769,634377,text,182
32.0,23053,23079,text,183
32.0,41463,65563,text,183
32.0,6755,225771,text,183
32.0,2464,444483,text,183
32.0,6457,451952,text,183
32.0,11380,11389,text,184
32.0,20605,33000,text,184
32.0,5158,109591,text,184
32.0,3230,650038,text,184
32.0,10497,661544,text,184
32.0,36269,36303,text,185
32.0,115794,153152,text,185
32.0,8131,237657,text,185
32.0,100962,512417,text,185
32.0,12441,525897,text,185
32.0,13225,13243,text,186
39.0,6443,20696,text,186
32.0,7448,88952,text,186
32.0,2161,300208,text,186
32.0,11304,312519,text,186
32.0,18850,18862,text,187
32.0,13184,33052,text,187
32.0,5688,146967,text,187
32.0,1186,361102,text,187
32.0,12841,374949,text,187
32.0,22533,22543,text,188
32.0,17169,40728,text,188
32.0,5688,155280,text,188
32.0,1348,466509,text,188
32.0,10862,478380,text,188
32.0,67460,67470,text,189
17.0,5518,73997,text,189
32.0,11852,218854,text,189
32.0,2344,369407,text,189
32.0,36199,406611,text,189
18.0,7227,7237,text,190
32.0,21331,29572,text,190
32.0,1702,86866,text,190
32.0,23568,300911,text,190
32.0,11029,312950,text,190
32.0,12050,12057,text,191
32.0,18058,31123,text,191
32.0,5180,107612,text,191
32.0,1715,297410,text,191
32.0,10407,308823,text,191
32.0,2005,2015,text,192
32.0,7075,10093,text,192
32.0,2488,68040,text,192
32.0,1368,214372,text,192
32.0,7870,223247,text,192
32.0,17883,17897,text,193
32.0,98746,117659,text,193
32.0,7902,208315,text,193
32.0,2138,380803,text,193
32.0,22345,404159,text,193
32.0,65095,65103,text,194
32.0,31185,97306,text,194
32.0,42294,211906,text,194
32.0,1341,5867377,text,194
32.0,5511,5873897,text,194
32.0,18095,18101,text,195
32.0,15802,34908,text,195
32.0,4912,94772,text,195
32.0,790,241723,text,195
32.0,6276,249003,text,195
32.0,26104,26112,text,196
32.0,34227,61357,text,196
32.0,9975,157993,text,196
32.0,2431,338457,text,196
32.0,18977,358448,text,196
32.0,41005,41011,text,197
32.0,62329,104356,text,197
32.0,13903,225415,text,197
32.0,3534,794211,text,197
32.0,16532,811747,text,197
32.0,67170,67179,text,198
32.0,17578,85762,text,198
32.0,5143,160109,text,198
32.0,2761,456067,text,198
32.0,1083211,1540282,text,198
32.0,14615,14625,text,199
32.0,21751,37379,text,199
32.0,8280,143987,text,199
32.0,1932,418891,text,199
32.0,9946,429841,text,199
39.0,67685,67702,text,200
32.0,13634,82359,text,200
32.0,4518,152464,text,200
32.0,14201,475106,text,200
32.0,7486,483628,text,200
32.0,19593,19611,text,201
32.0,32268,52888,text,201
32.0,8052,148426,text,201
32.0,1775,577561,text,201
32.0,22189,600764,text,201
32.0,63260,63268,text,202
32.0,44724,109002,text,202
32.0,17879,306766,text,202
32.0,4051,935552,text,202
32.0,25879,962439,text,202
32.0,26909,26924,text,203
32.0,26651,54597,text,203
32.0,12061,157937,text,203
32.0,1734,390997,text,203
32.0,6503,398520,text,203
