action_times,actions,block,button_pressed,key_press,path,queries,responses,rewards,rt,score,simulation_mode,stimulus,time_elapsed,trial_index,trial_id,trial_type,pid
"[33856, 37225]","[u'up', u'left']",train_basic,,,"[u'0', u'1', u'3']","{u'mouseover': {u'state': {u'target': [], u'time': []}, u'edge': {u'target': [], u'time': []}}, u'click': {u'state': {u'target': [], u'time': []}, u'edge': {u'target': [], u'time': []}}, u'mouseout': {u'state': {u'target': [], u'time': []}, u'edge': {u'target': [], u'time': []}}}",,"[-2, 2]","[33853, 2856]",0.0,"[None, None]",,45822,0.0,87976537.0,mouselab-mdp,0
"[6794, 8232]","[u'up', u'right']",train_basic,,,"[u'0', u'1', u'2']","{u'mouseover': {u'state': {u'target': [], u'time': []}, u'edge': {u'target': [], u'time': []}}, u'click': {u'state': {u'target': [], u'time': []}, u'edge': {u'target': [], u'time': []}}, u'mouseout': {u'state': {u'target': [], u'time': []}, u'edge': {u'target': [], u'time': []}}}",,"[2, 2]","[6792, 932]",4.0,"[None, None]",,58313,1.0,27362541.0,mouselab-mdp,0
"[4265, 12944]","[u'down', u'left']",train_basic,,,"[u'0', u'4', u'6']","{u'mouseover': {u'state': {u'target': [], u'time': []}, u'edge': {u'target': [], u'time': []}}, u'click': {u'state': {u'target': [], u'time': []}, u'edge': {u'target': [], u'time': []}}, u'mouseout': {u'state': {u'target': [], u'time': []}, u'edge': {u'target': [], u'time': []}}}",,"[2, -2]","[4264, 8165]",0.0,"[None, None]",,75412,2.0,21541698.0,mouselab-mdp,0
"[4955, 5717]","[u'up', u'right']",train_basic,,,"[u'0', u'1', u'2']","{u'mouseover': {u'state': {u'target': [], u'time': []}, u'edge': {u'target': [], u'time': []}}, u'click': {u'state': {u'target': [], u'time': []}, u'edge': {u'target': [], u'time': []}}, u'mouseout': {u'state': {u'target': [], u'time': []}, u'edge': {u'target': [], u'time': []}}}",,"[-7, 7]","[4953, 253]",0.0,"[None, None]",,84651,3.0,38952624.0,mouselab-mdp,0
"[2975, 3621]","[u'up', u'right']",train_basic,,,"[u'0', u'1', u'2']","{u'mouseover': {u'state': {u'target': [], u'time': []}, u'edge': {u'target': [], u'time': []}}, u'click': {u'state': {u'target': [], u'time': []}, u'edge': {u'target': [], u'time': []}}, u'mouseout': {u'state': {u'target': [], u'time': []}, u'edge': {u'target': [], u'time': []}}}",,"[7, 12]","[2974, 133]",19.0,"[None, None]",,92226,4.0,6999466.0,mouselab-mdp,0
"[9963, 10796]","[u'down', u'right']",train_basic,,,"[u'0', u'4', u'5']","{u'mouseover': {u'state': {u'target': [], u'time': []}, u'edge': {u'target': [], u'time': []}}, u'click': {u'state': {u'target': [], u'time': []}, u'edge': {u'target': [], u'time': []}}, u'mouseout': {u'state': {u'target': [], u'time': []}, u'edge': {u'target': [], u'time': []}}}",,"[2, 2]","[9961, 318]",4.0,"[None, None]",,106279,5.0,84170178.0,mouselab-mdp,0
"[5338, 6162]","[u'up', u'left']",train_basic,,,"[u'0', u'1', u'3']","{u'mouseover': {u'state': {u'target': [], u'time': []}, u'edge': {u'target': [], u'time': []}}, u'click': {u'state': {u'target': [], u'time': []}, u'edge': {u'target': [], u'time': []}}, u'mouseout': {u'state': {u'target': [], u'time': []}, u'edge': {u'target': [], u'time': []}}}",,"[-12, 7]","[5333, 308]",-5.0,"[None, None]",,116094,6.0,39373139.0,mouselab-mdp,0
"[3365, 4106]","[u'down', u'right']",train_basic,,,"[u'0', u'4', u'5']","{u'mouseover': {u'state': {u'target': [], u'time': []}, u'edge': {u'target': [], u'time': []}}, u'click': {u'state': {u'target': [], u'time': []}, u'edge': {u'target': [], u'time': []}}, u'mouseout': {u'state': {u'target': [], u'time': []}, u'edge': {u'target': [], u'time': []}}}",,"[7, 7]","[3364, 234]",14.0,"[None, None]",,123266,7.0,54089509.0,mouselab-mdp,0
"[3167, 3786]","[u'up', u'right']",train_basic,,,"[u'0', u'1', u'2']","{u'mouseover': {u'state': {u'target': [], u'time': []}, u'edge': {u'target': [], u'time': []}}, u'click': {u'state': {u'target': [], u'time': []}, u'edge': {u'target': [], u'time': []}}, u'mouseout': {u'state': {u'target': [], u'time': []}, u'edge': {u'target': [], u'time': []}}}",,"[-2, 12]","[3166, 114]",10.0,"[None, None]",,130031,8.0,22881673.0,mouselab-mdp,0
"[5672, 6511]","[u'down', u'left']",train_basic,,,"[u'0', u'4', u'6']","{u'mouseover': {u'state': {u'target': [], u'time': []}, u'edge': {u'target': [], u'time': []}}, u'click': {u'state': {u'target': [], u'time': []}, u'edge': {u'target': [], u'time': []}}, u'mouseout': {u'state': {u'target': [], u'time': []}, u'edge': {u'target': [], u'time': []}}}",,"[7, 12]","[5671, 323]",19.0,"[None, None]",,139338,9.0,28110053.0,mouselab-mdp,0
"[10767, 11596]","[u'up', u'right']",train_hidden,,,"[u'0', u'1', u'2']","{u'mouseover': {u'state': {u'target': [], u'time': []}, u'edge': {u'target': [], u'time': []}}, u'click': {u'state': {u'target': [], u'time': []}, u'edge': {u'target': [], u'time': []}}, u'mouseout': {u'state': {u'target': [], u'time': []}, u'edge': {u'target': [], u'time': []}}}",,"[12, -2]","[10766, 316]",10.0,"[None, None]",,157317,10.0,83195183.0,mouselab-mdp,0
"[1826, 4269]","[u'down', u'right']",train_hidden,,,"[u'0', u'4', u'5']","{u'mouseover': {u'state': {u'target': [], u'time': []}, u'edge': {u'target': [], u'time': []}}, u'click': {u'state': {u'target': [], u'time': []}, u'edge': {u'target': [], u'time': []}}, u'mouseout': {u'state': {u'target': [], u'time': []}, u'edge': {u'target': [], u'time': []}}}",,"[2, 2]","[1825, 1939]",4.0,"[None, None]",,164740,11.0,81059613.0,mouselab-mdp,0
"[965, 2418]","[u'up', u'left']",train_hidden,,,"[u'0', u'1', u'3']","{u'mouseover': {u'state': {u'target': [], u'time': []}, u'edge': {u'target': [], u'time': []}}, u'click': {u'state': {u'target': [], u'time': []}, u'edge': {u'target': [], u'time': []}}, u'mouseout': {u'state': {u'target': [], u'time': []}, u'edge': {u'target': [], u'time': []}}}",,"[7, 2]","[963, 943]",9.0,"[None, None]",,170291,12.0,66844383.0,mouselab-mdp,0
"[787, 2116]","[u'up', u'left']",train_hidden,,,"[u'0', u'1', u'3']","{u'mouseover': {u'state': {u'target': [], u'time': []}, u'edge': {u'target': [], u'time': []}}, u'click': {u'state': {u'target': [], u'time': []}, u'edge': {u'target': [], u'time': []}}, u'mouseout': {u'state': {u'target': [], u'time': []}, u'edge': {u'target': [], u'time': []}}}",,"[-2, -2]","[785, 811]",-4.0,"[None, None]",,175341,13.0,81646688.0,mouselab-mdp,0
"[640, 2567]","[u'down', u'right']",train_hidden,,,"[u'0', u'4', u'5']","{u'mouseover': {u'state': {u'target': [], u'time': []}, u'edge': {u'target': [], u'time': []}}, u'click': {u'state': {u'target': [], u'time': []}, u'edge': {u'target': [], u'time': []}}, u'mouseout': {u'state': {u'target': [], u'time': []}, u'edge': {u'target': [], u'time': []}}}",,"[-2, -2]","[637, 1415]",-4.0,"[None, None]",,180776,14.0,37663652.0,mouselab-mdp,0
"[27960, 30101]","[u'up', u'left']",train_inspector,,,"[u'0', u'1', u'3']","{u'mouseover': {u'state': {u'target': [], u'time': []}, u'edge': {u'target': [], u'time': []}}, u'click': {u'state': {u'target': [u'1', u'3', u'2', u'4'], u'time': [17016, 19734, 21142, 23649]}, u'edge': {u'target': [], u'time': []}}, u'mouseout': {u'state': {u'target': [], u'time': []}, u'edge': {u'target': [], u'time': []}}}",,"[7, -2]","[27958, 1619]",5.0,"[None, None]",,216644,15.0,78835418.0,mouselab-mdp,0
"[11127, 12097]","[u'up', u'left']",train_inspector,,,"[u'0', u'1', u'3']","{u'mouseover': {u'state': {u'target': [], u'time': []}, u'edge': {u'target': [], u'time': []}}, u'click': {u'state': {u'target': [u'4', u'1', u'2'], u'time': [2844, 4229, 6271]}, u'edge': {u'target': [], u'time': []}}, u'mouseout': {u'state': {u'target': [], u'time': []}, u'edge': {u'target': [], u'time': []}}}",,"[-2, -12]","[11125, 461]",-14.0,"[None, None]",,233522,16.0,8136407.0,mouselab-mdp,0
"[9971, 10810]","[u'down', u'right']",train_inspector,,,"[u'0', u'4', u'5']","{u'mouseover': {u'state': {u'target': [], u'time': []}, u'edge': {u'target': [], u'time': []}}, u'click': {u'state': {u'target': [u'4', u'5', u'2'], u'time': [2228, 4274, 6738]}, u'edge': {u'target': [], u'time': []}}, u'mouseout': {u'state': {u'target': [], u'time': []}, u'edge': {u'target': [], u'time': []}}}",,"[-2, 7]","[9969, 319]",5.0,"[None, None]",,248355,17.0,35321889.0,mouselab-mdp,0
"[7849, 9522]","[u'up', u'right']",train_inspector,,,"[u'0', u'1', u'2']","{u'mouseover': {u'state': {u'target': [], u'time': []}, u'edge': {u'target': [], u'time': []}}, u'click': {u'state': {u'target': [u'6', u'4', u'2'], u'time': [1364, 2637, 5534]}, u'edge': {u'target': [], u'time': []}}, u'mouseout': {u'state': {u'target': [], u'time': []}, u'edge': {u'target': [], u'time': []}}}",,"[-12, 2]","[7847, 1154]",-10.0,"[None, None]",,260822,18.0,48760919.0,mouselab-mdp,0
"[9024, 11074]","[u'up', u'left']",train_inspector,,,"[u'0', u'1', u'3']","{u'mouseover': {u'state': {u'target': [], u'time': []}, u'edge': {u'target': [], u'time': []}}, u'click': {u'state': {u'target': [u'5', u'4', u'1'], u'time': [2576, 3861, 5847]}, u'edge': {u'target': [], u'time': []}}, u'mouseout': {u'state': {u'target': [], u'time': []}, u'edge': {u'target': [], u'time': []}}}",,"[-7, 7]","[9021, 1535]",0.0,"[None, None]",,275341,19.0,50656150.0,mouselab-mdp,0
"[28782, 30384]","[u'up', u'left']",train_inspect_cost,,,"[u'0', u'1', u'3']","{u'mouseover': {u'state': {u'target': [], u'time': []}, u'edge': {u'target': [], u'time': []}}, u'click': {u'state': {u'target': [u'4', u'1', u'3'], u'time': [21185, 23884, 25578]}, u'edge': {u'target': [], u'time': []}}, u'mouseout': {u'state': {u'target': [], u'time': []}, u'edge': {u'target': [], u'time': []}}}",,"[-2, 7]","[28781, 1091]",2.0,"[None, None]",,311305,20.0,73095569.0,mouselab-mdp,0
"[8815, 10182]","[u'up', u'left']",train_inspect_cost,,,"[u'0', u'1', u'3']","{u'mouseover': {u'state': {u'target': [], u'time': []}, u'edge': {u'target': [], u'time': []}}, u'click': {u'state': {u'target': [u'1', u'3'], u'time': [2778, 5478]}, u'edge': {u'target': [], u'time': []}}, u'mouseout': {u'state': {u'target': [], u'time': []}, u'edge': {u'target': [], u'time': []}}}",,"[7, 2]","[8814, 851]",7.0,"[None, None]",,324196,21.0,4726827.0,mouselab-mdp,0
"[8079, 8883]","[u'up', u'right']",train_inspect_cost,,,"[u'0', u'1', u'2']","{u'mouseover': {u'state': {u'target': [], u'time': []}, u'edge': {u'target': [], u'time': []}}, u'click': {u'state': {u'target': [u'1', u'3', u'2'], u'time': [2421, 4274, 6047]}, u'edge': {u'target': [], u'time': []}}, u'mouseout': {u'state': {u'target': [], u'time': []}, u'edge': {u'target': [], u'time': []}}}",,"[2, 7]","[8077, 295]",6.0,"[None, None]",,336267,22.0,48241612.0,mouselab-mdp,0
"[8391, 11223]","[u'up', u'left']",train_inspect_cost,,,"[u'0', u'1', u'3']","{u'mouseover': {u'state': {u'target': [], u'time': []}, u'edge': {u'target': [], u'time': []}}, u'click': {u'state': {u'target': [u'4', u'5', u'6'], u'time': [2199, 3464, 4772]}, u'edge': {u'target': [], u'time': []}}, u'mouseout': {u'state': {u'target': [], u'time': []}, u'edge': {u'target': [], u'time': []}}}",,"[-12, -2]","[8388, 2321]",-17.0,"[None, None]",,351061,23.0,5566034.0,mouselab-mdp,0
"[6580, 7970]","[u'down', u'left']",train_inspect_cost,,,"[u'0', u'4', u'6']","{u'mouseover': {u'state': {u'target': [], u'time': []}, u'edge': {u'target': [], u'time': []}}, u'click': {u'state': {u'target': [u'1', u'2'], u'time': [2361, 3685]}, u'edge': {u'target': [], u'time': []}}, u'mouseout': {u'state': {u'target': [], u'time': []}, u'edge': {u'target': [], u'time': []}}}",,"[-7, 7]","[6578, 878]",-2.0,"[None, None]",,362511,24.0,46180832.0,mouselab-mdp,0
"[37875, 39753]","[u'down', u'right']",train_final,,,"[u'0', u'4', u'5']","{u'mouseover': {u'state': {u'target': [], u'time': []}, u'edge': {u'target': [], u'time': []}}, u'click': {u'state': {u'target': [u'4', u'1', u'2', u'6'], u'time': [24420, 26293, 28453, 31733]}, u'edge': {u'target': [], u'time': []}}, u'mouseout': {u'state': {u'target': [], u'time': []}, u'edge': {u'target': [], u'time': []}}}",,"[-2, -12]","[37874, 1364]",-18.0,"[None, None]",,408349,25.0,41662262.0,mouselab-mdp,0
"[14316, 15129]","[u'up', u'right']",train_final,,,"[u'0', u'1', u'2']","{u'mouseover': {u'state': {u'target': [], u'time': []}, u'edge': {u'target': [], u'time': []}}, u'click': {u'state': {u'target': [u'1', u'3', u'2'], u'time': [8294, 10203, 11549]}, u'edge': {u'target': [], u'time': []}}, u'mouseout': {u'state': {u'target': [], u'time': []}, u'edge': {u'target': [], u'time': []}}}",,"[2, 2]","[14313, 289]",1.0,"[None, None]",,426570,26.0,748193.0,mouselab-mdp,0
"[3731, 4573]","[u'down', u'right']",train_final,,,"[u'0', u'4', u'5']","{u'mouseover': {u'state': {u'target': [], u'time': []}, u'edge': {u'target': [], u'time': []}}, u'click': {u'state': {u'target': [u'4'], u'time': [1148]}, u'edge': {u'target': [], u'time': []}}, u'mouseout': {u'state': {u'target': [], u'time': []}, u'edge': {u'target': [], u'time': []}}}",,"[2, -2]","[3730, 323]",-1.0,"[None, None]",,434282,27.0,79271753.0,mouselab-mdp,0
"[11528, 12761]","[u'down', u'right']",train_final,,,"[u'0', u'4', u'5']","{u'mouseover': {u'state': {u'target': [], u'time': []}, u'edge': {u'target': [], u'time': []}}, u'click': {u'state': {u'target': [u'3', u'6', u'5'], u'time': [2169, 4366, 6457]}, u'edge': {u'target': [], u'time': []}}, u'mouseout': {u'state': {u'target': [], u'time': []}, u'edge': {u'target': [], u'time': []}}}",,"[-7, 2]","[11526, 716]",-8.0,"[None, None]",,449632,28.0,50814922.0,mouselab-mdp,0
"[5313, 6386]","[u'up', u'right']",train_final,,,"[u'0', u'1', u'2']","{u'mouseover': {u'state': {u'target': [], u'time': []}, u'edge': {u'target': [], u'time': []}}, u'click': {u'state': {u'target': [], u'time': []}, u'edge': {u'target': [], u'time': []}}, u'mouseout': {u'state': {u'target': [], u'time': []}, u'edge': {u'target': [], u'time': []}}}",,"[2, 2]","[5312, 556]",4.0,"[None, None]",,458903,29.0,84575616.0,mouselab-mdp,0
"[2419, 3611]","[u'up', u'right']",test,,,"[u'0', u'1', u'2']","{u'mouseover': {u'state': {u'target': [], u'time': []}, u'edge': {u'target': [], u'time': []}}, u'click': {u'state': {u'target': [], u'time': []}, u'edge': {u'target': [], u'time': []}}, u'mouseout': {u'state': {u'target': [], u'time': []}, u'edge': {u'target': [], u'time': []}}}",,"[2, 2]","[2418, 680]",4.0,"[None, None]",,473367,30.0,10528850.0,mouselab-mdp,0
"[7750, 9021]","[u'up', u'right']",test,,,"[u'0', u'1', u'2']","{u'mouseover': {u'state': {u'target': [], u'time': []}, u'edge': {u'target': [], u'time': []}}, u'click': {u'state': {u'target': [u'4'], u'time': [5491]}, u'edge': {u'target': [], u'time': []}}, u'mouseout': {u'state': {u'target': [], u'time': []}, u'edge': {u'target': [], u'time': []}}}",,"[2, -7]","[7748, 747]",-6.0,"[None, None]",,485681,31.0,43481056.0,mouselab-mdp,0
"[9727, 10605]","[u'down', u'right']",test,,,"[u'0', u'4', u'5']","{u'mouseover': {u'state': {u'target': [], u'time': []}, u'edge': {u'target': [], u'time': []}}, u'click': {u'state': {u'target': [u'1', u'3', u'4'], u'time': [2144, 4422, 6964]}, u'edge': {u'target': [], u'time': []}}, u'mouseout': {u'state': {u'target': [], u'time': []}, u'edge': {u'target': [], u'time': []}}}",,"[-2, 2]","[9726, 368]",-3.0,"[None, None]",,499588,32.0,93440310.0,mouselab-mdp,0
"[1384, 2692]","[u'down', u'right']",test,,,"[u'0', u'4', u'5']","{u'mouseover': {u'state': {u'target': [], u'time': []}, u'edge': {u'target': [], u'time': []}}, u'click': {u'state': {u'target': [], u'time': []}, u'edge': {u'target': [], u'time': []}}, u'mouseout': {u'state': {u'target': [], u'time': []}, u'edge': {u'target': [], u'time': []}}}",,"[-2, -7]","[1383, 797]",-9.0,"[None, None]",,505973,33.0,35031340.0,mouselab-mdp,0
"[792, 2101]","[u'up', u'right']",test,,,"[u'0', u'1', u'2']","{u'mouseover': {u'state': {u'target': [], u'time': []}, u'edge': {u'target': [], u'time': []}}, u'click': {u'state': {u'target': [], u'time': []}, u'edge': {u'target': [], u'time': []}}, u'mouseout': {u'state': {u'target': [], u'time': []}, u'edge': {u'target': [], u'time': []}}}",,"[7, -7]","[789, 792]",0.0,"[None, None]",,511323,34.0,46499310.0,mouselab-mdp,0
"[11128, 11927]","[u'up', u'right']",test,,,"[u'0', u'1', u'2']","{u'mouseover': {u'state': {u'target': [], u'time': []}, u'edge': {u'target': [], u'time': []}}, u'click': {u'state': {u'target': [u'3', u'6', u'4', u'1'], u'time': [2359, 3947, 6067, 8551]}, u'edge': {u'target': [], u'time': []}}, u'mouseout': {u'state': {u'target': [], u'time': []}, u'edge': {u'target': [], u'time': []}}}",,"[2, -2]","[11127, 281]",-4.0,"[None, None]",,527445,35.0,75972508.0,mouselab-mdp,0
"[1538, 2503]","[u'down', u'right']",test,,,"[u'0', u'4', u'5']","{u'mouseover': {u'state': {u'target': [], u'time': []}, u'edge': {u'target': [], u'time': []}}, u'click': {u'state': {u'target': [], u'time': []}, u'edge': {u'target': [], u'time': []}}, u'mouseout': {u'state': {u'target': [], u'time': []}, u'edge': {u'target': [], u'time': []}}}",,"[7, 12]","[1536, 454]",19.0,"[None, None]",,533731,36.0,31165175.0,mouselab-mdp,0
"[3451, 5807]","[u'up', u'left']",test,,,"[u'0', u'1', u'3']","{u'mouseover': {u'state': {u'target': [], u'time': []}, u'edge': {u'target': [], u'time': []}}, u'click': {u'state': {u'target': [], u'time': []}, u'edge': {u'target': [], u'time': []}}, u'mouseout': {u'state': {u'target': [], u'time': []}, u'edge': {u'target': [], u'time': []}}}",,"[-7, -2]","[3449, 1847]",-9.0,"[None, None]",,543204,37.0,58009131.0,mouselab-mdp,0
"[7365, 8564]","[u'up', u'left']",test,,,"[u'0', u'1', u'3']","{u'mouseover': {u'state': {u'target': [], u'time': []}, u'edge': {u'target': [], u'time': []}}, u'click': {u'state': {u'target': [u'4', u'1'], u'time': [2940, 4225]}, u'edge': {u'target': [], u'time': []}}, u'mouseout': {u'state': {u'target': [], u'time': []}, u'edge': {u'target': [], u'time': []}}}",,"[2, 2]","[7364, 693]",2.0,"[None, None]",,555046,38.0,6269296.0,mouselab-mdp,0
"[1461, 2699]","[u'up', u'left']",test,,,"[u'0', u'1', u'3']","{u'mouseover': {u'state': {u'target': [], u'time': []}, u'edge': {u'target': [], u'time': []}}, u'click': {u'state': {u'target': [], u'time': []}, u'edge': {u'target': [], u'time': []}}, u'mouseout': {u'state': {u'target': [], u'time': []}, u'edge': {u'target': [], u'time': []}}}",,"[-2, 2]","[1460, 727]",0.0,"[None, None]",,560587,39.0,45727853.0,mouselab-mdp,0
"[638, 1608]","[u'up', u'right']",test,,,"[u'0', u'1', u'2']","{u'mouseover': {u'state': {u'target': [], u'time': []}, u'edge': {u'target': [], u'time': []}}, u'click': {u'state': {u'target': [], u'time': []}, u'edge': {u'target': [], u'time': []}}, u'mouseout': {u'state': {u'target': [], u'time': []}, u'edge': {u'target': [], u'time': []}}}",,"[2, 2]","[637, 450]",4.0,"[None, None]",,565049,40.0,26404235.0,mouselab-mdp,0
"[722, 1793]","[u'down', u'right']",test,,,"[u'0', u'4', u'5']","{u'mouseover': {u'state': {u'target': [], u'time': []}, u'edge': {u'target': [], u'time': []}}, u'click': {u'state': {u'target': [], u'time': []}, u'edge': {u'target': [], u'time': []}}, u'mouseout': {u'state': {u'target': [], u'time': []}, u'edge': {u'target': [], u'time': []}}}",,"[7, -2]","[719, 556]",5.0,"[None, None]",,569621,41.0,11229663.0,mouselab-mdp,0
"[1032, 2185]","[u'down', u'left']",test,,,"[u'0', u'4', u'6']","{u'mouseover': {u'state': {u'target': [], u'time': []}, u'edge': {u'target': [], u'time': []}}, u'click': {u'state': {u'target': [], u'time': []}, u'edge': {u'target': [], u'time': []}}, u'mouseout': {u'state': {u'target': [], u'time': []}, u'edge': {u'target': [], u'time': []}}}",,"[-2, -2]","[1031, 648]",-4.0,"[None, None]",,574568,42.0,51511248.0,mouselab-mdp,0
"[481, 3162]","[u'up', u'left']",test,,,"[u'0', u'1', u'3']","{u'mouseover': {u'state': {u'target': [], u'time': []}, u'edge': {u'target': [], u'time': []}}, u'click': {u'state': {u'target': [], u'time': []}, u'edge': {u'target': [], u'time': []}}, u'mouseout': {u'state': {u'target': [], u'time': []}, u'edge': {u'target': [], u'time': []}}}",,"[-7, -2]","[480, 2164]",-9.0,"[None, None]",,581390,43.0,48669740.0,mouselab-mdp,0
"[3835, 5348]","[u'up', u'right']",test,,,"[u'0', u'1', u'2']","{u'mouseover': {u'state': {u'target': [], u'time': []}, u'edge': {u'target': [], u'time': []}}, u'click': {u'state': {u'target': [u'1'], u'time': [1969]}, u'edge': {u'target': [], u'time': []}}, u'mouseout': {u'state': {u'target': [], u'time': []}, u'edge': {u'target': [], u'time': []}}}",,"[7, 2]","[3834, 1003]",8.0,"[None, None]",,589701,44.0,10238530.0,mouselab-mdp,0
"[3884, 5239]","[u'up', u'left']",test,,,"[u'0', u'1', u'3']","{u'mouseover': {u'state': {u'target': [], u'time': []}, u'edge': {u'target': [], u'time': []}}, u'click': {u'state': {u'target': [u'4'], u'time': [1657]}, u'edge': {u'target': [], u'time': []}}, u'mouseout': {u'state': {u'target': [], u'time': []}, u'edge': {u'target': [], u'time': []}}}",,"[7, -7]","[3881, 847]",-1.0,"[None, None]",,598165,45.0,78579163.0,mouselab-mdp,0
"[1004, 2457]","[u'up', u'left']",test,,,"[u'0', u'1', u'3']","{u'mouseover': {u'state': {u'target': [], u'time': []}, u'edge': {u'target': [], u'time': []}}, u'click': {u'state': {u'target': [], u'time': []}, u'edge': {u'target': [], u'time': []}}, u'mouseout': {u'state': {u'target': [], u'time': []}, u'edge': {u'target': [], u'time': []}}}",,"[-2, -2]","[1003, 946]",-4.0,"[None, None]",,603503,46.0,52326492.0,mouselab-mdp,0
"[6470, 7441]","[u'up', u'left']",test,,,"[u'0', u'1', u'3']","{u'mouseover': {u'state': {u'target': [], u'time': []}, u'edge': {u'target': [], u'time': []}}, u'click': {u'state': {u'target': [u'4', u'1', u'2'], u'time': [1293, 2504, 4912]}, u'edge': {u'target': [], u'time': []}}, u'mouseout': {u'state': {u'target': [], u'time': []}, u'edge': {u'target': [], u'time': []}}}",,"[7, 2]","[6469, 449]",6.0,"[None, None]",,613993,47.0,45546927.0,mouselab-mdp,0
"[5744, 6632]","[u'up', u'right']",test,,,"[u'0', u'1', u'2']","{u'mouseover': {u'state': {u'target': [], u'time': []}, u'edge': {u'target': [], u'time': []}}, u'click': {u'state': {u'target': [u'1', u'3'], u'time': [2074, 4060]}, u'edge': {u'target': [], u'time': []}}, u'mouseout': {u'state': {u'target': [], u'time': []}, u'edge': {u'target': [], u'time': []}}}",,"[12, -2]","[5743, 378]",8.0,"[None, None]",,623816,48.0,30566367.0,mouselab-mdp,0
"[11949, 12910]","[u'down', u'left']",test,,,"[u'0', u'4', u'6']","{u'mouseover': {u'state': {u'target': [], u'time': []}, u'edge': {u'target': [], u'time': []}}, u'click': {u'state': {u'target': [u'1', u'4', u'5'], u'time': [4406, 6340, 9742]}, u'edge': {u'target': [], u'time': []}}, u'mouseout': {u'state': {u'target': [], u'time': []}, u'edge': {u'target': [], u'time': []}}}",,"[2, -2]","[11948, 444]",-3.0,"[None, None]",,640325,49.0,3131228.0,mouselab-mdp,0
"[14036, 14775]","[u'up', u'left']",train_basic,,,"[u'0', u'1', u'3']","{u'mouseover': {u'state': {u'target': [], u'time': []}, u'edge': {u'target': [], u'time': []}}, u'click': {u'state': {u'target': [], u'time': []}, u'edge': {u'target': [], u'time': []}}, u'mouseout': {u'state': {u'target': [], u'time': []}, u'edge': {u'target': [], u'time': []}}}",,"[2, 12]","[14032, 233]",14.0,"[None, None]",,17949,0.0,95665132.0,mouselab-mdp,1
"[1837, 2367]","[u'up', u'left']",train_basic,,,"[u'0', u'1', u'3']","{u'mouseover': {u'state': {u'target': [], u'time': []}, u'edge': {u'target': [], u'time': []}}, u'click': {u'state': {u'target': [], u'time': []}, u'edge': {u'target': [], u'time': []}}, u'mouseout': {u'state': {u'target': [], u'time': []}, u'edge': {u'target': [], u'time': []}}}",,"[-2, -7]","[1835, 36]",-9.0,"[None, None]",,25581,1.0,31048224.0,mouselab-mdp,1
"[2258, 3196]","[u'up', u'left']",train_basic,,,"[u'0', u'1', u'3']","{u'mouseover': {u'state': {u'target': [], u'time': []}, u'edge': {u'target': [], u'time': []}}, u'click': {u'state': {u'target': [], u'time': []}, u'edge': {u'target': [], u'time': []}}, u'mouseout': {u'state': {u'target': [], u'time': []}, u'edge': {u'target': [], u'time': []}}}",,"[-7, 2]","[2256, 437]",-5.0,"[None, None]",,31590,2.0,79086055.0,mouselab-mdp,1
"[1571, 10106]","[u'down', u'left']",train_basic,,,"[u'0', u'4', u'6']","{u'mouseover': {u'state': {u'target': [], u'time': []}, u'edge': {u'target': [], u'time': []}}, u'click': {u'state': {u'target': [], u'time': []}, u'edge': {u'target': [], u'time': []}}, u'mouseout': {u'state': {u'target': [], u'time': []}, u'edge': {u'target': [], u'time': []}}}",,"[2, -2]","[1569, 8039]",0.0,"[None, None]",,44324,3.0,5566034.0,mouselab-mdp,1
"[1992, 2543]","[u'up', u'right']",train_basic,,,"[u'0', u'1', u'2']","{u'mouseover': {u'state': {u'target': [], u'time': []}, u'edge': {u'target': [], u'time': []}}, u'click': {u'state': {u'target': [], u'time': []}, u'edge': {u'target': [], u'time': []}}, u'mouseout': {u'state': {u'target': [], u'time': []}, u'edge': {u'target': [], u'time': []}}}",,"[-12, 7]","[1991, 46]",-5.0,"[None, None]",,49930,4.0,84817331.0,mouselab-mdp,1
"[2972, 3710]","[u'down', u'left']",train_basic,,,"[u'0', u'4', u'6']","{u'mouseover': {u'state': {u'target': [], u'time': []}, u'edge': {u'target': [], u'time': []}}, u'click': {u'state': {u'target': [], u'time': []}, u'edge': {u'target': [], u'time': []}}, u'mouseout': {u'state': {u'target': [], u'time': []}, u'edge': {u'target': [], u'time': []}}}",,"[2, 12]","[2969, 232]",14.0,"[None, None]",,56189,5.0,8949889.0,mouselab-mdp,1
"[1508, 2429]","[u'up', u'right']",train_basic,,,"[u'0', u'1', u'2']","{u'mouseover': {u'state': {u'target': [], u'time': []}, u'edge': {u'target': [], u'time': []}}, u'click': {u'state': {u'target': [], u'time': []}, u'edge': {u'target': [], u'time': []}}, u'mouseout': {u'state': {u'target': [], u'time': []}, u'edge': {u'target': [], u'time': []}}}",,"[7, 2]","[1506, 426]",9.0,"[None, None]",,62376,6.0,42172239.0,mouselab-mdp,1
"[2011, 2705]","[u'down', u'right']",train_basic,,,"[u'0', u'4', u'5']","{u'mouseover': {u'state': {u'target': [], u'time': []}, u'edge': {u'target': [], u'time': []}}, u'click': {u'state': {u'target': [], u'time': []}, u'edge': {u'target': [], u'time': []}}, u'mouseout': {u'state': {u'target': [], u'time': []}, u'edge': {u'target': [], u'time': []}}}",,"[-7, 7]","[2008, 196]",0.0,"[None, None]",,67901,7.0,87976537.0,mouselab-mdp,1
"[3392, 4302]","[u'up', u'right']",train_basic,,,"[u'0', u'1', u'2']","{u'mouseover': {u'state': {u'target': [], u'time': []}, u'edge': {u'target': [], u'time': []}}, u'click': {u'state': {u'target': [], u'time': []}, u'edge': {u'target': [], u'time': []}}, u'mouseout': {u'state': {u'target': [], u'time': []}, u'edge': {u'target': [], u'time': []}}}",,"[2, 2]","[3389, 410]",4.0,"[None, None]",,74756,8.0,97465198.0,mouselab-mdp,1
"[1596, 2224]","[u'down', u'right']",train_basic,,,"[u'0', u'4', u'5']","{u'mouseover': {u'state': {u'target': [], u'time': []}, u'edge': {u'target': [], u'time': []}}, u'click': {u'state': {u'target': [], u'time': []}, u'edge': {u'target': [], u'time': []}}, u'mouseout': {u'state': {u'target': [], u'time': []}, u'edge': {u'target': [], u'time': []}}}",,"[-2, 7]","[1594, 123]",5.0,"[None, None]",,79404,9.0,19265559.0,mouselab-mdp,1
"[11566, 12411]","[u'up', u'right']",train_hidden,,,"[u'0', u'1', u'2']","{u'mouseover': {u'state': {u'target': [], u'time': []}, u'edge': {u'target': [], u'time': []}}, u'click': {u'state': {u'target': [], u'time': []}, u'edge': {u'target': [], u'time': []}}, u'mouseout': {u'state': {u'target': [], u'time': []}, u'edge': {u'target': [], u'time': []}}}",,"[7, -2]","[11563, 352]",5.0,"[None, None]",,96681,10.0,56130015.0,mouselab-mdp,1
"[2657, 3342]","[u'up', u'left']",train_hidden,,,"[u'0', u'1', u'3']","{u'mouseover': {u'state': {u'target': [], u'time': []}, u'edge': {u'target': [], u'time': []}}, u'click': {u'state': {u'target': [], u'time': []}, u'edge': {u'target': [], u'time': []}}, u'mouseout': {u'state': {u'target': [], u'time': []}, u'edge': {u'target': [], u'time': []}}}",,"[-2, -7]","[2656, 181]",-9.0,"[None, None]",,102386,11.0,16672852.0,mouselab-mdp,1
"[934, 1852]","[u'down', u'right']",train_hidden,,,"[u'0', u'4', u'5']","{u'mouseover': {u'state': {u'target': [], u'time': []}, u'edge': {u'target': [], u'time': []}}, u'click': {u'state': {u'target': [], u'time': []}, u'edge': {u'target': [], u'time': []}}, u'mouseout': {u'state': {u'target': [], u'time': []}, u'edge': {u'target': [], u'time': []}}}",,"[7, -2]","[932, 420]",5.0,"[None, None]",,106469,12.0,52122735.0,mouselab-mdp,1
"[1533, 2164]","[u'up', u'left']",train_hidden,,,"[u'0', u'1', u'3']","{u'mouseover': {u'state': {u'target': [], u'time': []}, u'edge': {u'target': [], u'time': []}}, u'click': {u'state': {u'target': [], u'time': []}, u'edge': {u'target': [], u'time': []}}, u'mouseout': {u'state': {u'target': [], u'time': []}, u'edge': {u'target': [], u'time': []}}}",,"[-2, 7]","[1530, 131]",5.0,"[None, None]",,110929,13.0,19502999.0,mouselab-mdp,1
"[2127, 2891]","[u'up', u'right']",train_hidden,,,"[u'0', u'1', u'2']","{u'mouseover': {u'state': {u'target': [], u'time': []}, u'edge': {u'target': [], u'time': []}}, u'click': {u'state': {u'target': [], u'time': []}, u'edge': {u'target': [], u'time': []}}, u'mouseout': {u'state': {u'target': [], u'time': []}, u'edge': {u'target': [], u'time': []}}}",,"[-2, -7]","[2125, 275]",-9.0,"[None, None]",,116131,14.0,43579519.0,mouselab-mdp,1
"[22046, 22763]","[u'down', u'right']",train_inspector,,,"[u'0', u'4', u'5']","{u'mouseover': {u'state': {u'target': [], u'time': []}, u'edge': {u'target': [], u'time': []}}, u'click': {u'state': {u'target': [u'1', u'2', u'3', u'6', u'4', u'5'], u'time': [12217, 12727, 13591, 14599, 14951, 16111]}, u'edge': {u'target': [], u'time': []}}, u'mouseout': {u'state': {u'target': [], u'time': []}, u'edge': {u'target': [], u'time': []}}}",,"[-2, 7]","[22045, 218]",5.0,"[None, None]",,143253,15.0,82703595.0,mouselab-mdp,1
"[9141, 10224]","[u'up', u'left']",train_inspector,,,"[u'0', u'1', u'3']","{u'mouseover': {u'state': {u'target': [], u'time': []}, u'edge': {u'target': [], u'time': []}}, u'click': {u'state': {u'target': [u'3', u'1', u'2', u'5', u'6', u'4'], u'time': [2650, 3113, 4433, 5128, 5873, 6273]}, u'edge': {u'target': [], u'time': []}}, u'mouseout': {u'state': {u'target': [], u'time': []}, u'edge': {u'target': [], u'time': []}}}",,"[12, -2]","[9140, 578]",10.0,"[None, None]",,155470,16.0,89362368.0,mouselab-mdp,1
"[8979, 11970]","[u'down', u'right']",train_inspector,,,"[u'0', u'4', u'5']","{u'mouseover': {u'state': {u'target': [], u'time': []}, u'edge': {u'target': [], u'time': []}}, u'click': {u'state': {u'target': [u'3', u'1', u'2', u'5', u'4', u'6'], u'time': [3833, 4519, 5109, 5621, 6813, 7565]}, u'edge': {u'target': [], u'time': []}}, u'mouseout': {u'state': {u'target': [], u'time': []}, u'edge': {u'target': [], u'time': []}}}",,"[12, -2]","[8977, 2488]",10.0,"[None, None]",,169736,17.0,5996510.0,mouselab-mdp,1
"[7431, 8073]","[u'up', u'right']",train_inspector,,,"[u'0', u'1', u'2']","{u'mouseover': {u'state': {u'target': [], u'time': []}, u'edge': {u'target': [], u'time': []}}, u'click': {u'state': {u'target': [u'3', u'1', u'2', u'5', u'6', u'4'], u'time': [2462, 3324, 3653, 4324, 5060, 5341]}, u'edge': {u'target': [], u'time': []}}, u'mouseout': {u'state': {u'target': [], u'time': []}, u'edge': {u'target': [], u'time': []}}}",,"[2, 2]","[7428, 145]",4.0,"[None, None]",,180003,18.0,40860678.0,mouselab-mdp,1
"[6211, 7288]","[u'down', u'left']",train_inspector,,,"[u'0', u'4', u'6']","{u'mouseover': {u'state': {u'target': [], u'time': []}, u'edge': {u'target': [], u'time': []}}, u'click': {u'state': {u'target': [u'3', u'2', u'1', u'6', u'4', u'5'], u'time': [1498, 2153, 2689, 3387, 4386, 5115]}, u'edge': {u'target': [], u'time': []}}, u'mouseout': {u'state': {u'target': [], u'time': []}, u'edge': {u'target': [], u'time': []}}}",,"[-2, 12]","[6210, 571]",10.0,"[None, None]",,190479,19.0,71259482.0,mouselab-mdp,1
"[10447, 11944]","[u'up', u'right']",train_inspect_cost,,,"[u'0', u'1', u'2']","{u'mouseover': {u'state': {u'target': [], u'time': []}, u'edge': {u'target': [], u'time': []}}, u'click': {u'state': {u'target': [], u'time': []}, u'edge': {u'target': [], u'time': []}}, u'mouseout': {u'state': {u'target': [], u'time': []}, u'edge': {u'target': [], u'time': []}}}",,"[-7, -2]","[10444, 997]",-9.0,"[None, None]",,206858,20.0,50599799.0,mouselab-mdp,1
"[3129, 10580]","[u'up', u'left']",train_inspect_cost,,,"[u'0', u'1', u'3']","{u'mouseover': {u'state': {u'target': [], u'time': []}, u'edge': {u'target': [], u'time': []}}, u'click': {u'state': {u'target': [], u'time': []}, u'edge': {u'target': [], u'time': []}}, u'mouseout': {u'state': {u'target': [], u'time': []}, u'edge': {u'target': [], u'time': []}}}",,"[-2, 7]","[3128, 6947]",5.0,"[None, None]",,220205,21.0,15076213.0,mouselab-mdp,1
"[1427, 2452]","[u'down', u'right']",train_inspect_cost,,,"[u'0', u'4', u'5']","{u'mouseover': {u'state': {u'target': [], u'time': []}, u'edge': {u'target': [], u'time': []}}, u'click': {u'state': {u'target': [], u'time': []}, u'edge': {u'target': [], u'time': []}}, u'mouseout': {u'state': {u'target': [], u'time': []}, u'edge': {u'target': [], u'time': []}}}",,"[-2, 2]","[1425, 528]",0.0,"[None, None]",,224825,22.0,14366039.0,mouselab-mdp,1
"[2476, 3795]","[u'up', u'right']",train_inspect_cost,,,"[u'0', u'1', u'2']","{u'mouseover': {u'state': {u'target': [], u'time': []}, u'edge': {u'target': [], u'time': []}}, u'click': {u'state': {u'target': [], u'time': []}, u'edge': {u'target': [], u'time': []}}, u'mouseout': {u'state': {u'target': [], u'time': []}, u'edge': {u'target': [], u'time': []}}}",,"[-7, 7]","[2474, 830]",0.0,"[None, None]",,230782,23.0,53288024.0,mouselab-mdp,1
"[990, 2853]","[u'down', u'right']",train_inspect_cost,,,"[u'0', u'4', u'5']","{u'mouseover': {u'state': {u'target': [], u'time': []}, u'edge': {u'target': [], u'time': []}}, u'click': {u'state': {u'target': [], u'time': []}, u'edge': {u'target': [], u'time': []}}, u'mouseout': {u'state': {u'target': [], u'time': []}, u'edge': {u'target': [], u'time': []}}}",,"[7, -2]","[988, 1354]",5.0,"[None, None]",,235836,24.0,38670760.0,mouselab-mdp,1
"[23988, 25114]","[u'up', u'left']",train_final,,,"[u'0', u'1', u'3']","{u'mouseover': {u'state': {u'target': [], u'time': []}, u'edge': {u'target': [], u'time': []}}, u'click': {u'state': {u'target': [], u'time': []}, u'edge': {u'target': [], u'time': []}}, u'mouseout': {u'state': {u'target': [], u'time': []}, u'edge': {u'target': [], u'time': []}}}",,"[-7, -12]","[23987, 630]",-19.0,"[None, None]",,265976,25.0,4073925.0,mouselab-mdp,1
"[1052, 1841]","[u'up', u'right']",train_final,,,"[u'0', u'1', u'2']","{u'mouseover': {u'state': {u'target': [], u'time': []}, u'edge': {u'target': [], u'time': []}}, u'click': {u'state': {u'target': [], u'time': []}, u'edge': {u'target': [], u'time': []}}, u'mouseout': {u'state': {u'target': [], u'time': []}, u'edge': {u'target': [], u'time': []}}}",,"[7, 2]","[1050, 294]",9.0,"[None, None]",,270017,26.0,1454005.0,mouselab-mdp,1
"[851, 1905]","[u'down', u'right']",train_final,,,"[u'0', u'4', u'5']","{u'mouseover': {u'state': {u'target': [], u'time': []}, u'edge': {u'target': [], u'time': []}}, u'click': {u'state': {u'target': [], u'time': []}, u'edge': {u'target': [], u'time': []}}, u'mouseout': {u'state': {u'target': [], u'time': []}, u'edge': {u'target': [], u'time': []}}}",,"[-12, -7]","[850, 557]",-19.0,"[None, None]",,274100,27.0,8971288.0,mouselab-mdp,1
"[868, 1922]","[u'up', u'right']",train_final,,,"[u'0', u'1', u'2']","{u'mouseover': {u'state': {u'target': [], u'time': []}, u'edge': {u'target': [], u'time': []}}, u'click': {u'state': {u'target': [], u'time': []}, u'edge': {u'target': [], u'time': []}}, u'mouseout': {u'state': {u'target': [], u'time': []}, u'edge': {u'target': [], u'time': []}}}",,"[2, -2]","[867, 548]",0.0,"[None, None]",,278102,28.0,11119444.0,mouselab-mdp,1
"[800, 1615]","[u'up', u'left']",train_final,,,"[u'0', u'1', u'3']","{u'mouseover': {u'state': {u'target': [], u'time': []}, u'edge': {u'target': [], u'time': []}}, u'click': {u'state': {u'target': [], u'time': []}, u'edge': {u'target': [], u'time': []}}, u'mouseout': {u'state': {u'target': [], u'time': []}, u'edge': {u'target': [], u'time': []}}}",,"[-7, -2]","[798, 310]",-9.0,"[None, None]",,281663,29.0,95520423.0,mouselab-mdp,1
"[12328, 14843]","[u'down', u'left']",test,,,"[u'0', u'4', u'6']","{u'mouseover': {u'state': {u'target': [], u'time': []}, u'edge': {u'target': [], u'time': []}}, u'click': {u'state': {u'target': [], u'time': []}, u'edge': {u'target': [], u'time': []}}, u'mouseout': {u'state': {u'target': [], u'time': []}, u'edge': {u'target': [], u'time': []}}}",,"[-7, 2]","[12325, 2008]",-5.0,"[None, None]",,303672,30.0,26305913.0,mouselab-mdp,1
"[833, 1775]","[u'up', u'left']",test,,,"[u'0', u'1', u'3']","{u'mouseover': {u'state': {u'target': [], u'time': []}, u'edge': {u'target': [], u'time': []}}, u'click': {u'state': {u'target': [], u'time': []}, u'edge': {u'target': [], u'time': []}}, u'mouseout': {u'state': {u'target': [], u'time': []}, u'edge': {u'target': [], u'time': []}}}",,"[-7, 7]","[831, 445]",0.0,"[None, None]",,308190,31.0,92431391.0,mouselab-mdp,1
"[1683, 2876]","[u'up', u'left']",test,,,"[u'0', u'1', u'3']","{u'mouseover': {u'state': {u'target': [], u'time': []}, u'edge': {u'target': [], u'time': []}}, u'click': {u'state': {u'target': [], u'time': []}, u'edge': {u'target': [], u'time': []}}, u'mouseout': {u'state': {u'target': [], u'time': []}, u'edge': {u'target': [], u'time': []}}}",,"[2, 2]","[1681, 703]",4.0,"[None, None]",,314520,32.0,52722522.0,mouselab-mdp,1
"[642, 1876]","[u'down', u'right']",test,,,"[u'0', u'4', u'5']","{u'mouseover': {u'state': {u'target': [], u'time': []}, u'edge': {u'target': [], u'time': []}}, u'click': {u'state': {u'target': [], u'time': []}, u'edge': {u'target': [], u'time': []}}, u'mouseout': {u'state': {u'target': [], u'time': []}, u'edge': {u'target': [], u'time': []}}}",,"[2, -12]","[639, 732]",-10.0,"[None, None]",,319933,33.0,49810276.0,mouselab-mdp,1
"[392, 2018]","[u'up', u'left']",test,,,"[u'0', u'1', u'3']","{u'mouseover': {u'state': {u'target': [], u'time': []}, u'edge': {u'target': [], u'time': []}}, u'click': {u'state': {u'target': [], u'time': []}, u'edge': {u'target': [], u'time': []}}, u'mouseout': {u'state': {u'target': [], u'time': []}, u'edge': {u'target': [], u'time': []}}}",,"[7, -2]","[390, 1121]",5.0,"[None, None]",,324595,34.0,42968954.0,mouselab-mdp,1
"[1169, 2468]","[u'down', u'right']",test,,,"[u'0', u'4', u'5']","{u'mouseover': {u'state': {u'target': [], u'time': []}, u'edge': {u'target': [], u'time': []}}, u'click': {u'state': {u'target': [], u'time': []}, u'edge': {u'target': [], u'time': []}}, u'mouseout': {u'state': {u'target': [], u'time': []}, u'edge': {u'target': [], u'time': []}}}",,"[-7, 7]","[1167, 803]",0.0,"[None, None]",,329883,35.0,12461508.0,mouselab-mdp,1
"[425, 1991]","[u'up', u'left']",test,,,"[u'0', u'1', u'3']","{u'mouseover': {u'state': {u'target': [], u'time': []}, u'edge': {u'target': [], u'time': []}}, u'click': {u'state': {u'target': [], u'time': []}, u'edge': {u'target': [], u'time': []}}, u'mouseout': {u'state': {u'target': [], u'time': []}, u'edge': {u'target': [], u'time': []}}}",,"[12, -7]","[423, 1072]",5.0,"[None, None]",,335052,36.0,14829546.0,mouselab-mdp,1
"[1733, 3121]","[u'down', u'right']",test,,,"[u'0', u'4', u'5']","{u'mouseover': {u'state': {u'target': [], u'time': []}, u'edge': {u'target': [], u'time': []}}, u'click': {u'state': {u'target': [], u'time': []}, u'edge': {u'target': [], u'time': []}}, u'mouseout': {u'state': {u'target': [], u'time': []}, u'edge': {u'target': [], u'time': []}}}",,"[-2, -7]","[1730, 896]",-9.0,"[None, None]",,340613,37.0,93153135.0,mouselab-mdp,1
"[998, 1802]","[u'up', u'right']",test,,,"[u'0', u'1', u'2']","{u'mouseover': {u'state': {u'target': [], u'time': []}, u'edge': {u'target': [], u'time': []}}, u'click': {u'state': {u'target': [], u'time': []}, u'edge': {u'target': [], u'time': []}}, u'mouseout': {u'state': {u'target': [], u'time': []}, u'edge': {u'target': [], u'time': []}}}",,"[-7, 7]","[996, 301]",0.0,"[None, None]",,344812,38.0,35960627.0,mouselab-mdp,1
"[1351, 2382]","[u'down', u'left']",test,,,"[u'0', u'4', u'6']","{u'mouseover': {u'state': {u'target': [], u'time': []}, u'edge': {u'target': [], u'time': []}}, u'click': {u'state': {u'target': [], u'time': []}, u'edge': {u'target': [], u'time': []}}, u'mouseout': {u'state': {u'target': [], u'time': []}, u'edge': {u'target': [], u'time': []}}}",,"[-7, -7]","[1348, 527]",-14.0,"[None, None]",,349297,39.0,91649087.0,mouselab-mdp,1
"[475, 1224]","[u'up', u'right']",test,,,"[u'0', u'1', u'2']","{u'mouseover': {u'state': {u'target': [], u'time': []}, u'edge': {u'target': [], u'time': []}}, u'click': {u'state': {u'target': [], u'time': []}, u'edge': {u'target': [], u'time': []}}, u'mouseout': {u'state': {u'target': [], u'time': []}, u'edge': {u'target': [], u'time': []}}}",,"[-7, 2]","[473, 241]",-5.0,"[None, None]",,352429,40.0,2618860.0,mouselab-mdp,1
"[458, 1352]","[u'down', u'left']",test,,,"[u'0', u'4', u'6']","{u'mouseover': {u'state': {u'target': [], u'time': []}, u'edge': {u'target': [], u'time': []}}, u'click': {u'state': {u'target': [], u'time': []}, u'edge': {u'target': [], u'time': []}}, u'mouseout': {u'state': {u'target': [], u'time': []}, u'edge': {u'target': [], u'time': []}}}",,"[7, -2]","[456, 395]",5.0,"[None, None]",,356010,41.0,33178650.0,mouselab-mdp,1
"[1061, 1969]","[u'up', u'left']",test,,,"[u'0', u'1', u'3']","{u'mouseover': {u'state': {u'target': [], u'time': []}, u'edge': {u'target': [], u'time': []}}, u'click': {u'state': {u'target': [], u'time': []}, u'edge': {u'target': [], u'time': []}}, u'mouseout': {u'state': {u'target': [], u'time': []}, u'edge': {u'target': [], u'time': []}}}",,"[2, 7]","[1058, 403]",9.0,"[None, None]",,360556,42.0,43445367.0,mouselab-mdp,1
"[812, 1562]","[u'down', u'right']",test,,,"[u'0', u'4', u'5']","{u'mouseover': {u'state': {u'target': [], u'time': []}, u'edge': {u'target': [], u'time': []}}, u'click': {u'state': {u'target': [], u'time': []}, u'edge': {u'target': [], u'time': []}}, u'mouseout': {u'state': {u'target': [], u'time': []}, u'edge': {u'target': [], u'time': []}}}",,"[-2, -7]","[809, 256]",-9.0,"[None, None]",,364264,43.0,79179252.0,mouselab-mdp,1
"[278, 963]","[u'up', u'right']",test,,,"[u'0', u'1', u'2']","{u'mouseover': {u'state': {u'target': [], u'time': []}, u'edge': {u'target': [], u'time': []}}, u'click': {u'state': {u'target': [], u'time': []}, u'edge': {u'target': [], u'time': []}}, u'mouseout': {u'state': {u'target': [], u'time': []}, u'edge': {u'target': [], u'time': []}}}",,"[-7, 2]","[276, 182]",-5.0,"[None, None]",,367380,44.0,98730897.0,mouselab-mdp,1
"[642, 1376]","[u'up', u'left']",test,,,"[u'0', u'1', u'3']","{u'mouseover': {u'state': {u'target': [], u'time': []}, u'edge': {u'target': [], u'time': []}}, u'click': {u'state': {u'target': [], u'time': []}, u'edge': {u'target': [], u'time': []}}, u'mouseout': {u'state': {u'target': [], u'time': []}, u'edge': {u'target': [], u'time': []}}}",,"[-2, -7]","[640, 231]",-9.0,"[None, None]",,370924,45.0,95632997.0,mouselab-mdp,1
"[650, 1495]","[u'down', u'right']",test,,,"[u'0', u'4', u'5']","{u'mouseover': {u'state': {u'target': [], u'time': []}, u'edge': {u'target': [], u'time': []}}, u'click': {u'state': {u'target': [], u'time': []}, u'edge': {u'target': [], u'time': []}}, u'mouseout': {u'state': {u'target': [], u'time': []}, u'edge': {u'target': [], u'time': []}}}",,"[-7, -2]","[648, 339]",-9.0,"[None, None]",,374646,46.0,67379800.0,mouselab-mdp,1
"[284, 1047]","[u'down', u'left']",test,,,"[u'0', u'4', u'6']","{u'mouseover': {u'state': {u'target': [], u'time': []}, u'edge': {u'target': [], u'time': []}}, u'click': {u'state': {u'target': [], u'time': []}, u'edge': {u'target': [], u'time': []}}, u'mouseout': {u'state': {u'target': [], u'time': []}, u'edge': {u'target': [], u'time': []}}}",,"[2, 7]","[282, 270]",9.0,"[None, None]",,378412,47.0,25069755.0,mouselab-mdp,1
"[325, 869]","[u'up', u'right']",test,,,"[u'0', u'1', u'2']","{u'mouseover': {u'state': {u'target': [], u'time': []}, u'edge': {u'target': [], u'time': []}}, u'click': {u'state': {u'target': [], u'time': []}, u'edge': {u'target': [], u'time': []}}, u'mouseout': {u'state': {u'target': [], u'time': []}, u'edge': {u'target': [], u'time': []}}}",,"[-2, -7]","[323, 37]",-9.0,"[None, None]",,381525,48.0,94188102.0,mouselab-mdp,1
"[274, 880]","[u'up', u'left']",test,,,"[u'0', u'1', u'3']","{u'mouseover': {u'state': {u'target': [], u'time': []}, u'edge': {u'target': [], u'time': []}}, u'click': {u'state': {u'target': [], u'time': []}, u'edge': {u'target': [], u'time': []}}, u'mouseout': {u'state': {u'target': [], u'time': []}, u'edge': {u'target': [], u'time': []}}}",,"[12, -2]","[272, 110]",10.0,"[None, None]",,384517,49.0,14012390.0,mouselab-mdp,1
