action_times,actions,block,path,queries,rewards,rt,score,simulation_mode,time_elapsed,trial_index,trial_id,trial_type,pid
"[4499, 5152, 5833]","[u'up', u'up', u'right']",train_basic,"[u'0', u'1', u'2', u'3']","{u'mouseover': {u'state': {u'target': [], u'time': []}, u'edge': {u'target': [], u'time': []}}, u'click': {u'state': {u'target': [], u'time': []}, u'edge': {u'target': [], u'time': []}}, u'mouseout': {u'state': {u'target': [], u'time': []}, u'edge': {u'target': [], u'time': []}}}","[10, -10, 10]","[4490, 132, 164]",10.0,"[None, None, None]",8888,0.0,3.812331254939213e+18,mouselab-mdp,0
"[3687, 4375, 4943]","[u'left', u'left', u'down']",train_basic,"[u'0', u'9', u'10', u'12']","{u'mouseover': {u'state': {u'target': [], u'time': []}, u'edge': {u'target': [], u'time': []}}, u'click': {u'state': {u'target': [], u'time': []}, u'edge': {u'target': [], u'time': []}}, u'mouseout': {u'state': {u'target': [], u'time': []}, u'edge': {u'target': [], u'time': []}}}","[-10, 10, 10]","[3682, 171, 56]",10.0,"[None, None, None]",17816,1.0,-5.559450979544907e+18,mouselab-mdp,0
"[2020, 2543, 3284]","[u'up', u'up', u'left']",train_basic,"[u'0', u'1', u'2', u'4']","{u'mouseover': {u'state': {u'target': [], u'time': []}, u'edge': {u'target': [], u'time': []}}, u'click': {u'state': {u'target': [], u'time': []}, u'edge': {u'target': [], u'time': []}}, u'mouseout': {u'state': {u'target': [], u'time': []}, u'edge': {u'target': [], u'time': []}}}","[5, 5, 10]","[2014, 4, 213]",20.0,"[None, None, None]",24390,2.0,-8.208271881207171e+18,mouselab-mdp,0
"[2716, 3276, 3932]","[u'up', u'up', u'left']",train_basic,"[u'0', u'1', u'2', u'4']","{u'mouseover': {u'state': {u'target': [], u'time': []}, u'edge': {u'target': [], u'time': []}}, u'click': {u'state': {u'target': [], u'time': []}, u'edge': {u'target': [], u'time': []}}, u'mouseout': {u'state': {u'target': [], u'time': []}, u'edge': {u'target': [], u'time': []}}}","[10, -10, 10]","[2711, 45, 137]",10.0,"[None, None, None]",30550,3.0,7.434111409514572e+18,mouselab-mdp,0
"[1558, 2093, 2781]","[u'right', u'right', u'up']",train_basic,"[u'0', u'5', u'6', u'7']","{u'mouseover': {u'state': {u'target': [], u'time': []}, u'edge': {u'target': [], u'time': []}}, u'click': {u'state': {u'target': [], u'time': []}, u'edge': {u'target': [], u'time': []}}, u'mouseout': {u'state': {u'target': [], u'time': []}, u'edge': {u'target': [], u'time': []}}}","[10, 10, 10]","[1554, 24, 161]",30.0,"[None, None, None]",35630,4.0,4.0767595266326287e+18,mouselab-mdp,0
"[1923, 2442, 2994]","[u'right', u'right', u'up']",train_basic,"[u'0', u'5', u'6', u'7']","{u'mouseover': {u'state': {u'target': [], u'time': []}, u'edge': {u'target': [], u'time': []}}, u'click': {u'state': {u'target': [], u'time': []}, u'edge': {u'target': [], u'time': []}}, u'mouseout': {u'state': {u'target': [], u'time': []}, u'edge': {u'target': [], u'time': []}}}","[5, 10, -10]","[1918, 6, 25]",5.0,"[None, None, None]",40670,5.0,4.709696185255814e+18,mouselab-mdp,0
"[3300, 4332, 4859]","[u'up', u'up', u'right']",train_basic,"[u'0', u'1', u'2', u'3']","{u'mouseover': {u'state': {u'target': [], u'time': []}, u'edge': {u'target': [], u'time': []}}, u'click': {u'state': {u'target': [], u'time': []}, u'edge': {u'target': [], u'time': []}}, u'mouseout': {u'state': {u'target': [], u'time': []}, u'edge': {u'target': [], u'time': []}}}","[-10, 10, 10]","[3296, 509, 4]",10.0,"[None, None, None]",47783,6.0,-3.06599297092415e+18,mouselab-mdp,0
"[5409, 6024, 6568]","[u'left', u'left', u'up']",train_basic,"[u'0', u'9', u'10', u'11']","{u'mouseover': {u'state': {u'target': [], u'time': []}, u'edge': {u'target': [], u'time': []}}, u'click': {u'state': {u'target': [], u'time': []}, u'edge': {u'target': [], u'time': []}}, u'mouseout': {u'state': {u'target': [], u'time': []}, u'edge': {u'target': [], u'time': []}}}","[10, -5, 10]","[5405, 102, 28]",15.0,"[None, None, None]",57399,7.0,-3.8790525829275725e+17,mouselab-mdp,0
"[3422, 4285, 4813]","[u'up', u'up', u'left']",train_basic,"[u'0', u'1', u'2', u'4']","{u'mouseover': {u'state': {u'target': [], u'time': []}, u'edge': {u'target': [], u'time': []}}, u'click': {u'state': {u'target': [], u'time': []}, u'edge': {u'target': [], u'time': []}}, u'mouseout': {u'state': {u'target': [], u'time': []}, u'edge': {u'target': [], u'time': []}}}","[5, 5, 5]","[3417, 348, 10]",15.0,"[None, None, None]",65063,8.0,-7.701717791270176e+18,mouselab-mdp,0
"[15917, 16604, 17204]","[u'up', u'up', u'left']",train_basic,"[u'0', u'1', u'2', u'4']","{u'mouseover': {u'state': {u'target': [], u'time': []}, u'edge': {u'target': [], u'time': []}}, u'click': {u'state': {u'target': [], u'time': []}, u'edge': {u'target': [], u'time': []}}, u'mouseout': {u'state': {u'target': [], u'time': []}, u'edge': {u'target': [], u'time': []}}}","[10, 10, 10]","[15912, 174, 90]",30.0,"[None, None, None]",85158,9.0,-1.4141965748565614e+17,mouselab-mdp,0
"[5263, 5830, 6942]","[u'up', u'up', u'left']",train_hidden,"[u'0', u'1', u'2', u'4']","{u'mouseover': {u'state': {u'target': [], u'time': []}, u'edge': {u'target': [], u'time': []}}, u'click': {u'state': {u'target': [], u'time': []}, u'edge': {u'target': [], u'time': []}}, u'mouseout': {u'state': {u'target': [], u'time': []}, u'edge': {u'target': [], u'time': []}}}","[10, 10, 10]","[5258, 48, 593]",30.0,"[None, None, None]",97222,10.0,-5.630369455004455e+18,mouselab-mdp,0
"[693, 1269, 1789]","[u'right', u'right', u'up']",train_hidden,"[u'0', u'5', u'6', u'7']","{u'mouseover': {u'state': {u'target': [], u'time': []}, u'edge': {u'target': [], u'time': []}}, u'click': {u'state': {u'target': [], u'time': []}, u'edge': {u'target': [], u'time': []}}, u'mouseout': {u'state': {u'target': [], u'time': []}, u'edge': {u'target': [], u'time': []}}}","[-5, 10, 10]","[689, 55, 9]",15.0,"[None, None, None]",101342,11.0,2.702860947760116e+18,mouselab-mdp,0
"[436, 1211, 2179]","[u'up', u'up', u'right']",train_hidden,"[u'0', u'1', u'2', u'3']","{u'mouseover': {u'state': {u'target': [], u'time': []}, u'edge': {u'target': [], u'time': []}}, u'click': {u'state': {u'target': [], u'time': []}, u'edge': {u'target': [], u'time': []}}, u'mouseout': {u'state': {u'target': [], u'time': []}, u'edge': {u'target': [], u'time': []}}}","[10, -5, 5]","[431, 254, 455]",10.0,"[None, None, None]",105655,12.0,3.0262455045681644e+18,mouselab-mdp,0
"[514, 1306, 2346]","[u'up', u'up', u'left']",train_hidden,"[u'0', u'1', u'2', u'4']","{u'mouseover': {u'state': {u'target': [], u'time': []}, u'edge': {u'target': [], u'time': []}}, u'click': {u'state': {u'target': [], u'time': []}, u'edge': {u'target': [], u'time': []}}, u'mouseout': {u'state': {u'target': [], u'time': []}, u'edge': {u'target': [], u'time': []}}}","[10, -10, -10]","[510, 270, 527]",-10.0,"[None, None, None]",110207,13.0,3.6695183518116547e+18,mouselab-mdp,0
"[265, 834, 1401]","[u'up', u'up', u'left']",train_hidden,"[u'0', u'1', u'2', u'4']","{u'mouseover': {u'state': {u'target': [], u'time': []}, u'edge': {u'target': [], u'time': []}}, u'click': {u'state': {u'target': [], u'time': []}, u'edge': {u'target': [], u'time': []}}, u'mouseout': {u'state': {u'target': [], u'time': []}, u'edge': {u'target': [], u'time': []}}}","[5, -10, -5]","[260, 42, 43]",-10.0,"[None, None, None]",113855,14.0,-5.149457503050632e+18,mouselab-mdp,0
"[11449, 12385, 12961]","[u'up', u'up', u'left']",train_inspector,"[u'0', u'1', u'2', u'4']","{u'mouseover': {u'state': {u'target': [], u'time': []}, u'edge': {u'target': [], u'time': []}}, u'click': {u'state': {u'target': [u'1', u'2', u'4', u'3', u'5', u'7', u'6', u'8', u'9', u'10', u'11', u'12'], u'time': [4245, 4719, 5639, 6193, 6670, 7345, 7787, 8142, 8741, 9636, 9930, 10469]}, u'edge': {u'target': [], u'time': []}}, u'mouseout': {u'state': {u'target': [], u'time': []}, u'edge': {u'target': [], u'time': []}}}","[10, 10, 10]","[11444, 422, 66]",30.0,"[None, None, None]",131302,15.0,7.502188167921001e+17,mouselab-mdp,0
"[12128, 12647, 13179]","[u'up', u'up', u'left']",train_inspector,"[u'0', u'1', u'2', u'4']","{u'mouseover': {u'state': {u'target': [], u'time': []}, u'edge': {u'target': [], u'time': []}}, u'click': {u'state': {u'target': [u'1', u'2', u'4', u'3', u'6', u'7', u'5', u'8', u'9', u'10', u'12', u'11'], u'time': [483, 997, 1338, 2210, 3603, 3983, 4552, 5270, 5979, 6453, 6747, 7839]}, u'edge': {u'target': [], u'time': []}}, u'mouseout': {u'state': {u'target': [], u'time': []}, u'edge': {u'target': [], u'time': []}}}","[10, 10, -10]","[12122, 3, 3]",10.0,"[None, None, None]",192062,16.0,-5.833452680797874e+18,mouselab-mdp,0
"[7948, 8804, 9484]","[u'left', u'left', u'down']",train_inspector,"[u'0', u'9', u'10', u'12']","{u'mouseover': {u'state': {u'target': [], u'time': []}, u'edge': {u'target': [], u'time': []}}, u'click': {u'state': {u'target': [u'4', u'2', u'1', u'3', u'7', u'6', u'8', u'5', u'9', u'10', u'11', u'12'], u'time': [350, 1196, 1561, 1931, 2314, 2895, 3203, 4064, 4543, 5117, 5386, 5734]}, u'edge': {u'target': [], u'time': []}}, u'mouseout': {u'state': {u'target': [], u'time': []}, u'edge': {u'target': [], u'time': []}}}","[10, 5, 10]","[7943, 342, 153]",25.0,"[None, None, None]",204774,17.0,8.845312654804484e+18,mouselab-mdp,0
"[102055, 102791, 103463]","[u'up', u'up', u'right']",train_inspector,"[u'0', u'1', u'2', u'3']","{u'mouseover': {u'state': {u'target': [], u'time': []}, u'edge': {u'target': [], u'time': []}}, u'click': {u'state': {u'target': [u'11', u'12', u'10', u'9', u'1', u'4', u'3', u'2', u'5', u'6', u'7', u'8'], u'time': [92825, 94333, 94660, 95013, 95869, 96607, 97282, 97709, 98446, 98880, 99234, 100750]}, u'edge': {u'target': [], u'time': []}}, u'mouseout': {u'state': {u'target': [], u'time': []}, u'edge': {u'target': [], u'time': []}}}","[5, 10, 5]","[102050, 213, 151]",20.0,"[None, None, None]",311076,18.0,6.142163930824438e+17,mouselab-mdp,0
"[7770, 8721, 9633]","[u'up', u'up', u'right']",train_inspector,"[u'0', u'1', u'2', u'3']","{u'mouseover': {u'state': {u'target': [], u'time': []}, u'edge': {u'target': [], u'time': []}}, u'click': {u'state': {u'target': [u'11', u'10', u'12', u'9', u'4', u'2', u'3', u'1', u'5', u'6', u'7', u'8'], u'time': [566, 836, 1188, 1505, 2320, 2628, 2918, 3233, 3832, 4162, 4761, 5345]}, u'edge': {u'target': [], u'time': []}}, u'mouseout': {u'state': {u'target': [], u'time': []}, u'edge': {u'target': [], u'time': []}}}","[10, -10, 10]","[7764, 436, 398]",10.0,"[None, None, None]",322756,19.0,-5.0462050224693914e+17,mouselab-mdp,0
"[15237, 15764, 16453]","[u'left', u'left', u'up']",train_inspect_cost,"[u'0', u'9', u'10', u'11']","{u'mouseover': {u'state': {u'target': [], u'time': []}, u'edge': {u'target': [], u'time': []}}, u'click': {u'state': {u'target': [u'2', u'1', u'3', u'4', u'7', u'6', u'5', u'9', u'10', u'11', u'12'], u'time': [5353, 6159, 7171, 7850, 8577, 8952, 9399, 10457, 11135, 11487, 12304]}, u'edge': {u'target': [], u'time': []}}, u'mouseout': {u'state': {u'target': [], u'time': []}, u'edge': {u'target': [], u'time': []}}}","[-10, 10, 10]","[15234, 15, 153]",-1.0,"[None, None, None]",343772,20.0,-6.72824086845133e+18,mouselab-mdp,0
"[11473, 12385, 13025]","[u'up', u'up', u'left']",train_inspect_cost,"[u'0', u'1', u'2', u'4']","{u'mouseover': {u'state': {u'target': [], u'time': []}, u'edge': {u'target': [], u'time': []}}, u'click': {u'state': {u'target': [u'1', u'9', u'5', u'6', u'7', u'8', u'4', u'2'], u'time': [629, 2342, 2917, 4428, 4971, 5948, 6790, 7477]}, u'edge': {u'target': [], u'time': []}}, u'mouseout': {u'state': {u'target': [], u'time': []}, u'edge': {u'target': [], u'time': []}}}","[-10, 10, 5]","[11468, 390, 130]",-3.0,"[None, None, None]",359381,21.0,1.159689721296071e+18,mouselab-mdp,0
"[3509, 4373, 4948]","[u'right', u'right', u'up']",train_inspect_cost,"[u'0', u'5', u'6', u'7']","{u'mouseover': {u'state': {u'target': [], u'time': []}, u'edge': {u'target': [], u'time': []}}, u'click': {u'state': {u'target': [u'1', u'5', u'7', u'6'], u'time': [919, 1444, 2627, 3077]}, u'edge': {u'target': [], u'time': []}}, u'mouseout': {u'state': {u'target': [], u'time': []}, u'edge': {u'target': [], u'time': []}}}","[10, 10, 5]","[3505, 348, 57]",21.0,"[None, None, None]",366372,22.0,-3.081449241277774e+18,mouselab-mdp,0
"[3372, 3909, 4844]","[u'right', u'right', u'up']",train_inspect_cost,"[u'0', u'5', u'6', u'7']","{u'mouseover': {u'state': {u'target': [], u'time': []}, u'edge': {u'target': [], u'time': []}}, u'click': {u'state': {u'target': [u'5', u'1', u'9', u'6', u'7'], u'time': [369, 849, 1368, 2326, 2764]}, u'edge': {u'target': [], u'time': []}}, u'mouseout': {u'state': {u'target': [], u'time': []}, u'edge': {u'target': [], u'time': []}}}","[5, 10, 5]","[3367, 11, 412]",15.0,"[None, None, None]",373660,23.0,-3.810609463936167e+18,mouselab-mdp,0
"[9890, 10450, 11009]","[u'left', u'left', u'down']",train_inspect_cost,"[u'0', u'9', u'10', u'12']","{u'mouseover': {u'state': {u'target': [], u'time': []}, u'edge': {u'target': [], u'time': []}}, u'click': {u'state': {u'target': [u'9', u'5', u'1', u'2', u'3', u'6', u'10', u'11', u'12'], u'time': [701, 2456, 2887, 3647, 4109, 4722, 6204, 6761, 7973]}, u'edge': {u'target': [], u'time': []}}, u'mouseout': {u'state': {u'target': [], u'time': []}, u'edge': {u'target': [], u'time': []}}}","[5, 10, -5]","[9885, 25, 35]",1.0,"[None, None, None]",386996,24.0,4.517249616187461e+18,mouselab-mdp,0
"[12940, 13524, 14348]","[u'up', u'up', u'left']",train_final,"[u'0', u'1', u'2', u'4']","{u'mouseover': {u'state': {u'target': [], u'time': []}, u'edge': {u'target': [], u'time': []}}, u'click': {u'state': {u'target': [u'1', u'5', u'2', u'4'], u'time': [9490, 10164, 11432, 11857]}, u'edge': {u'target': [], u'time': []}}, u'mouseout': {u'state': {u'target': [], u'time': []}, u'edge': {u'target': [], u'time': []}}}","[10, 5, 5]","[12936, 64, 306]",16.0,"[None, None, None]",411133,25.0,-3.8748518639778094e+18,mouselab-mdp,0
"[7713, 8681, 9361]","[u'right', u'right', u'up']",train_final,"[u'0', u'5', u'6', u'7']","{u'mouseover': {u'state': {u'target': [], u'time': []}, u'edge': {u'target': [], u'time': []}}, u'click': {u'state': {u'target': [u'1', u'5', u'9', u'2', u'3', u'4', u'7', u'12', u'11', u'8'], u'time': [829, 1224, 2058, 2561, 2982, 3749, 4396, 5862, 6341, 6941]}, u'edge': {u'target': [], u'time': []}}, u'mouseout': {u'state': {u'target': [], u'time': []}, u'edge': {u'target': [], u'time': []}}}","[5, 10, 5]","[7709, 429, 158]",10.0,"[None, None, None]",423388,26.0,7.199021816796713e+18,mouselab-mdp,0
"[4434, 5258, 5794]","[u'right', u'right', u'up']",train_final,"[u'0', u'5', u'6', u'7']","{u'mouseover': {u'state': {u'target': [], u'time': []}, u'edge': {u'target': [], u'time': []}}, u'click': {u'state': {u'target': [u'1', u'5', u'9', u'7', u'6'], u'time': [881, 1419, 2180, 3235, 3929]}, u'edge': {u'target': [], u'time': []}}, u'mouseout': {u'state': {u'target': [], u'time': []}, u'edge': {u'target': [], u'time': []}}}","[5, 5, 10]","[4429, 303, 6]",15.0,"[None, None, None]",431461,27.0,9.10621497278211e+18,mouselab-mdp,0
"[4851, 5715, 6339]","[u'right', u'right', u'up']",train_final,"[u'0', u'5', u'6', u'7']","{u'mouseover': {u'state': {u'target': [], u'time': []}, u'edge': {u'target': [], u'time': []}}, u'click': {u'state': {u'target': [u'5', u'1', u'9', u'7', u'6'], u'time': [614, 1975, 2538, 3636, 4099]}, u'edge': {u'target': [], u'time': []}}, u'mouseout': {u'state': {u'target': [], u'time': []}, u'edge': {u'target': [], u'time': []}}}","[-5, 5, 5]","[4847, 332, 88]",0.0,"[None, None, None]",440012,28.0,5.015924348765825e+18,mouselab-mdp,0
"[7242, 7825, 8713]","[u'right', u'right', u'down']",train_final,"[u'0', u'5', u'6', u'8']","{u'mouseover': {u'state': {u'target': [], u'time': []}, u'edge': {u'target': [], u'time': []}}, u'click': {u'state': {u'target': [u'5', u'7', u'6', u'8', u'2', u'10', u'1'], u'time': [733, 1693, 2210, 2653, 3992, 5056, 6580]}, u'edge': {u'target': [], u'time': []}}, u'mouseout': {u'state': {u'target': [], u'time': []}, u'edge': {u'target': [], u'time': []}}}","[10, -10, 10]","[7238, 53, 358]",3.0,"[None, None, None]",451012,29.0,6.186837397190105e+18,mouselab-mdp,0
"[14257, 15121, 15801]","[u'left', u'left', u'down']",test,"[u'0', u'9', u'10', u'12']","{u'mouseover': {u'state': {u'target': [], u'time': []}, u'edge': {u'target': [], u'time': []}}, u'click': {u'state': {u'target': [u'1', u'5', u'9', u'11', u'10', u'12', u'2', u'4'], u'time': [7477, 8021, 8604, 9490, 9872, 10383, 12786, 13295]}, u'edge': {u'target': [], u'time': []}}, u'mouseout': {u'state': {u'target': [], u'time': []}, u'edge': {u'target': [], u'time': []}}}","[-5, -5, 5]","[14252, 337, 168]",-13.0,"[None, None, None]",525940,30.0,7.839838664789078e+18,mouselab-mdp,0
"[5340, 7957, 8772]","[u'left', u'left', u'up']",test,"[u'0', u'9', u'10', u'11']","{u'mouseover': {u'state': {u'target': [], u'time': []}, u'edge': {u'target': [], u'time': []}}, u'click': {u'state': {u'target': [u'1', u'4', u'2', u'5', u'9'], u'time': [766, 1862, 2292, 3317, 4677]}, u'edge': {u'target': [], u'time': []}}, u'mouseout': {u'state': {u'target': [], u'time': []}, u'edge': {u'target': [], u'time': []}}}","[10, -10, 5]","[5335, 2085, 284]",0.0,"[None, None, None]",537092,31.0,7.91556335598923e+18,mouselab-mdp,0
"[5476, 6331, 6916]","[u'up', u'up', u'left']",test,"[u'0', u'1', u'2', u'4']","{u'mouseover': {u'state': {u'target': [], u'time': []}, u'edge': {u'target': [], u'time': []}}, u'click': {u'state': {u'target': [u'5', u'1', u'9', u'4', u'2', u'3', u'7', u'6'], u'time': [521, 978, 1815, 2363, 2757, 3247, 4070, 4538]}, u'edge': {u'target': [], u'time': []}}, u'mouseout': {u'state': {u'target': [], u'time': []}, u'edge': {u'target': [], u'time': []}}}","[5, -10, 5]","[5469, 321, 73]",-8.0,"[None, None, None]",545995,32.0,-3.3393520083480607e+18,mouselab-mdp,0
"[10644, 11159, 11691]","[u'up', u'up', u'left']",test,"[u'0', u'1', u'2', u'4']","{u'mouseover': {u'state': {u'target': [], u'time': []}, u'edge': {u'target': [], u'time': []}}, u'click': {u'state': {u'target': [u'10', u'9', u'1', u'5', u'7', u'6', u'8', u'12', u'3', u'2', u'4'], u'time': [554, 965, 1947, 2470, 3322, 4475, 4986, 6543, 7287, 7857, 8436]}, u'edge': {u'target': [], u'time': []}}, u'mouseout': {u'state': {u'target': [], u'time': []}, u'edge': {u'target': [], u'time': []}}}","[-5, 10, -5]","[10639, 4, 4]",-11.0,"[None, None, None]",559700,33.0,2.9612134047696353e+18,mouselab-mdp,0
"[6524, 7220, 7740]","[u'up', u'up', u'right']",test,"[u'0', u'1', u'2', u'3']","{u'mouseover': {u'state': {u'target': [], u'time': []}, u'edge': {u'target': [], u'time': []}}, u'click': {u'state': {u'target': [u'5', u'6', u'7', u'8', u'1', u'2', u'4', u'3'], u'time': [535, 2432, 2887, 3537, 4596, 5101, 5571, 6150]}, u'edge': {u'target': [], u'time': []}}, u'mouseout': {u'state': {u'target': [], u'time': []}, u'edge': {u'target': [], u'time': []}}}","[10, 10, 5]","[6521, 184, 3]",17.0,"[None, None, None]",569493,34.0,2.0031782822548767e+18,mouselab-mdp,0
"[4025, 4849, 5401]","[u'up', u'up', u'left']",test,"[u'0', u'1', u'2', u'4']","{u'mouseover': {u'state': {u'target': [], u'time': []}, u'edge': {u'target': [], u'time': []}}, u'click': {u'state': {u'target': [u'5', u'1', u'2', u'4'], u'time': [595, 1286, 2920, 3602]}, u'edge': {u'target': [], u'time': []}}, u'mouseout': {u'state': {u'target': [], u'time': []}, u'edge': {u'target': [], u'time': []}}}","[10, 10, 10]","[4021, 302, 37]",26.0,"[None, None, None]",577043,35.0,6.300325444535346e+18,mouselab-mdp,0
"[5231, 6143, 6727]","[u'left', u'left', u'up']",test,"[u'0', u'9', u'10', u'11']","{u'mouseover': {u'state': {u'target': [], u'time': []}, u'edge': {u'target': [], u'time': []}}, u'click': {u'state': {u'target': [u'5', u'1', u'9', u'11'], u'time': [792, 1602, 2778, 4625]}, u'edge': {u'target': [], u'time': []}}, u'mouseout': {u'state': {u'target': [], u'time': []}, u'edge': {u'target': [], u'time': []}}}","[5, 10, 10]","[5226, 372, 74]",21.0,"[None, None, None]",586340,36.0,-2.406626739250812e+18,mouselab-mdp,0
"[3025, 3568, 4473]","[u'right', u'right', u'up']",test,"[u'0', u'5', u'6', u'7']","{u'mouseover': {u'state': {u'target': [], u'time': []}, u'edge': {u'target': [], u'time': []}}, u'click': {u'state': {u'target': [u'5', u'7'], u'time': [706, 1807]}, u'edge': {u'target': [], u'time': []}}, u'mouseout': {u'state': {u'target': [], u'time': []}, u'edge': {u'target': [], u'time': []}}}","[10, 5, 5]","[3021, 11, 365]",18.0,"[None, None, None]",592868,37.0,7.211868466475451e+18,mouselab-mdp,0
"[3405, 3948, 4724]","[u'right', u'right', u'up']",test,"[u'0', u'5', u'6', u'7']","{u'mouseover': {u'state': {u'target': [], u'time': []}, u'edge': {u'target': [], u'time': []}}, u'click': {u'state': {u'target': [u'5', u'7', u'6', u'8'], u'time': [621, 1501, 1942, 2874]}, u'edge': {u'target': [], u'time': []}}, u'mouseout': {u'state': {u'target': [], u'time': []}, u'edge': {u'target': [], u'time': []}}}","[10, -5, 5]","[3400, 13, 240]",6.0,"[None, None, None]",599595,38.0,-7.325569627557755e+18,mouselab-mdp,0
"[5077, 5684, 6210]","[u'left', u'left', u'up']",test,"[u'0', u'9', u'10', u'11']","{u'mouseover': {u'state': {u'target': [], u'time': []}, u'edge': {u'target': [], u'time': []}}, u'click': {u'state': {u'target': [u'5', u'1', u'9', u'10', u'11'], u'time': [1126, 1668, 2211, 3255, 4354]}, u'edge': {u'target': [], u'time': []}}, u'mouseout': {u'state': {u'target': [], u'time': []}, u'edge': {u'target': [], u'time': []}}}","[5, -5, 10]","[5072, 79, 3]",5.0,"[None, None, None]",608091,39.0,-6.467484867280245e+18,mouselab-mdp,0
"[4788, 5372, 5996]","[u'up', u'up', u'left']",test,"[u'0', u'1', u'2', u'4']","{u'mouseover': {u'state': {u'target': [], u'time': []}, u'edge': {u'target': [], u'time': []}}, u'click': {u'state': {u'target': [u'5', u'1', u'9', u'7', u'4'], u'time': [419, 804, 1439, 2982, 4180]}, u'edge': {u'target': [], u'time': []}}, u'mouseout': {u'state': {u'target': [], u'time': []}, u'edge': {u'target': [], u'time': []}}}","[-5, -10, 10]","[4783, 64, 105]",-10.0,"[None, None, None]",616275,40.0,-8.661724116053019e+18,mouselab-mdp,0
"[3933, 5020, 6124]","[u'left', u'left', u'up']",test,"[u'0', u'9', u'10', u'11']","{u'mouseover': {u'state': {u'target': [], u'time': []}, u'edge': {u'target': [], u'time': []}}, u'click': {u'state': {u'target': [u'1', u'5', u'9'], u'time': [1990, 2505, 3175]}, u'edge': {u'target': [], u'time': []}}, u'mouseout': {u'state': {u'target': [], u'time': []}, u'edge': {u'target': [], u'time': []}}}","[10, 5, -10]","[3929, 554, 593]",2.0,"[None, None, None]",624714,41.0,1.0328961532146797e+17,mouselab-mdp,0
"[3457, 3992, 4881]","[u'left', u'left', u'down']",test,"[u'0', u'9', u'10', u'12']","{u'mouseover': {u'state': {u'target': [], u'time': []}, u'edge': {u'target': [], u'time': []}}, u'click': {u'state': {u'target': [u'5', u'1', u'9', u'12', u'10'], u'time': [679, 1077, 1571, 2346, 2846]}, u'edge': {u'target': [], u'time': []}}, u'mouseout': {u'state': {u'target': [], u'time': []}, u'edge': {u'target': [], u'time': []}}}","[10, 5, 5]","[3452, 11, 350]",15.0,"[None, None, None]",631579,42.0,-2.6765330699051464e+18,mouselab-mdp,0
"[9005, 9556, 10220]","[u'right', u'right', u'up']",test,"[u'0', u'5', u'6', u'7']","{u'mouseover': {u'state': {u'target': [], u'time': []}, u'edge': {u'target': [], u'time': []}}, u'click': {u'state': {u'target': [u'9', u'1', u'5', u'7', u'8', u'4'], u'time': [923, 3257, 4049, 4871, 5525, 8252]}, u'edge': {u'target': [], u'time': []}}, u'mouseout': {u'state': {u'target': [], u'time': []}, u'edge': {u'target': [], u'time': []}}}","[5, 10, -5]","[9000, 26, 123]",4.0,"[None, None, None]",643923,43.0,5.439632916575948e+18,mouselab-mdp,0
"[4733, 5340, 6251]","[u'up', u'up', u'right']",test,"[u'0', u'1', u'2', u'3']","{u'mouseover': {u'state': {u'target': [], u'time': []}, u'edge': {u'target': [], u'time': []}}, u'click': {u'state': {u'target': [u'9', u'1', u'4', u'3'], u'time': [1533, 2140, 3472, 4205]}, u'edge': {u'target': [], u'time': []}}, u'mouseout': {u'state': {u'target': [], u'time': []}, u'edge': {u'target': [], u'time': []}}}","[10, 10, 10]","[4727, 80, 392]",26.0,"[None, None, None]",652235,44.0,7.553211965372142e+18,mouselab-mdp,0
"[3754, 4287, 4903]","[u'up', u'up', u'right']",test,"[u'0', u'1', u'2', u'3']","{u'mouseover': {u'state': {u'target': [], u'time': []}, u'edge': {u'target': [], u'time': []}}, u'click': {u'state': {u'target': [u'1', u'9', u'5', u'3'], u'time': [401, 1008, 1607, 3040]}, u'edge': {u'target': [], u'time': []}}, u'mouseout': {u'state': {u'target': [], u'time': []}, u'edge': {u'target': [], u'time': []}}}","[5, -10, 10]","[3749, 11, 76]",1.0,"[None, None, None]",659387,45.0,8.892810546696874e+17,mouselab-mdp,0
"[7190, 7765, 8757]","[u'left', u'left', u'up']",test,"[u'0', u'9', u'10', u'11']","{u'mouseover': {u'state': {u'target': [], u'time': []}, u'edge': {u'target': [], u'time': []}}, u'click': {u'state': {u'target': [u'1', u'5', u'9', u'12', u'11', u'10'], u'time': [881, 1954, 2561, 3966, 4597, 6683]}, u'edge': {u'target': [], u'time': []}}, u'mouseout': {u'state': {u'target': [], u'time': []}, u'edge': {u'target': [], u'time': []}}}","[5, 5, -5]","[7184, 53, 477]",-1.0,"[None, None, None]",670306,46.0,2.5857685737037445e+18,mouselab-mdp,0
"[7455, 8390, 9006]","[u'up', u'up', u'right']",test,"[u'0', u'1', u'2', u'3']","{u'mouseover': {u'state': {u'target': [], u'time': []}, u'edge': {u'target': [], u'time': []}}, u'click': {u'state': {u'target': [u'9', u'5', u'1', u'3', u'4', u'2'], u'time': [1610, 2686, 3257, 3780, 4423, 6996]}, u'edge': {u'target': [], u'time': []}}, u'mouseout': {u'state': {u'target': [], u'time': []}, u'edge': {u'target': [], u'time': []}}}","[10, 10, -5]","[7450, 403, 102]",9.0,"[None, None, None]",681498,47.0,-2.113118043168124e+18,mouselab-mdp,0
"[7150, 7821, 8637]","[u'right', u'right', u'up']",test,"[u'0', u'5', u'6', u'7']","{u'mouseover': {u'state': {u'target': [], u'time': []}, u'edge': {u'target': [], u'time': []}}, u'click': {u'state': {u'target': [u'5', u'7', u'8', u'1', u'9', u'4', u'3'], u'time': [775, 2108, 2788, 4220, 5488, 6231, 6723]}, u'edge': {u'target': [], u'time': []}}, u'mouseout': {u'state': {u'target': [], u'time': []}, u'edge': {u'target': [], u'time': []}}}","[10, -10, -10]","[7145, 145, 295]",-17.0,"[None, None, None]",692201,48.0,-8.604426228927178e+18,mouselab-mdp,0
"[3130, 3680, 4288]","[u'up', u'up', u'right']",test,"[u'0', u'1', u'2', u'3']","{u'mouseover': {u'state': {u'target': [], u'time': []}, u'edge': {u'target': [], u'time': []}}, u'click': {u'state': {u'target': [u'9', u'1', u'5', u'3'], u'time': [486, 1014, 1425, 2594]}, u'edge': {u'target': [], u'time': []}}, u'mouseout': {u'state': {u'target': [], u'time': []}, u'edge': {u'target': [], u'time': []}}}","[5, 10, 5]","[3125, 23, 80]",16.0,"[None, None, None]",698633,49.0,-2.401185042585887e+18,mouselab-mdp,0
"[19935, 22541, 23597]","[u'right', u'right', u'up']",train_basic,"[u'0', u'5', u'6', u'7']","{u'mouseover': {u'state': {u'target': [], u'time': []}, u'edge': {u'target': [], u'time': []}}, u'click': {u'state': {u'target': [], u'time': []}, u'edge': {u'target': [], u'time': []}}, u'mouseout': {u'state': {u'target': [], u'time': []}, u'edge': {u'target': [], u'time': []}}}","[10, -10, 5]","[19929, 2080, 533]",5.0,"[None, None, None]",39124,0.0,3.0262455045681644e+18,mouselab-mdp,1
"[61701, 62771, 63635]","[u'left', u'left', u'up']",train_basic,"[u'0', u'9', u'10', u'11']","{u'mouseover': {u'state': {u'target': [], u'time': []}, u'edge': {u'target': [], u'time': []}}, u'click': {u'state': {u'target': [], u'time': []}, u'edge': {u'target': [], u'time': []}}, u'mouseout': {u'state': {u'target': [], u'time': []}, u'edge': {u'target': [], u'time': []}}}","[10, 5, 10]","[61697, 546, 343]",25.0,"[None, None, None]",105995,1.0,-2.6765330699051464e+18,mouselab-mdp,1
"[3770, 4594, 6602]","[u'up', u'up', u'right']",train_basic,"[u'0', u'1', u'2', u'3']","{u'mouseover': {u'state': {u'target': [], u'time': []}, u'edge': {u'target': [], u'time': []}}, u'click': {u'state': {u'target': [], u'time': []}, u'edge': {u'target': [], u'time': []}}, u'mouseout': {u'state': {u'target': [], u'time': []}, u'edge': {u'target': [], u'time': []}}}","[-5, 10, -10]","[3766, 299, 1469]",-5.0,"[None, None, None]",115932,2.0,2.9612134047696353e+18,mouselab-mdp,1
"[4468, 5364, 6292]","[u'left', u'left', u'down']",train_basic,"[u'0', u'9', u'10', u'12']","{u'mouseover': {u'state': {u'target': [], u'time': []}, u'edge': {u'target': [], u'time': []}}, u'click': {u'state': {u'target': [], u'time': []}, u'edge': {u'target': [], u'time': []}}, u'mouseout': {u'state': {u'target': [], u'time': []}, u'edge': {u'target': [], u'time': []}}}","[-10, 10, 5]","[4465, 363, 410]",5.0,"[None, None, None]",124611,3.0,5.724401768725425e+18,mouselab-mdp,1
"[1301, 7654, 9074]","[u'up', u'up', u'right']",train_basic,"[u'0', u'1', u'2', u'3']","{u'mouseover': {u'state': {u'target': [], u'time': []}, u'edge': {u'target': [], u'time': []}}, u'click': {u'state': {u'target': [], u'time': []}, u'edge': {u'target': [], u'time': []}}, u'mouseout': {u'state': {u'target': [], u'time': []}, u'edge': {u'target': [], u'time': []}}}","[-5, 10, -10]","[1299, 5831, 888]",-5.0,"[None, None, None]",136812,4.0,7.645296890765741e+18,mouselab-mdp,1
"[8069, 8662, 9782]","[u'up', u'up', u'right']",train_basic,"[u'0', u'1', u'2', u'3']","{u'mouseover': {u'state': {u'target': [], u'time': []}, u'edge': {u'target': [], u'time': []}}, u'click': {u'state': {u'target': [], u'time': []}, u'edge': {u'target': [], u'time': []}}, u'mouseout': {u'state': {u'target': [], u'time': []}, u'edge': {u'target': [], u'time': []}}}","[10, -10, 10]","[8065, 61, 600]",10.0,"[None, None, None]",149427,5.0,3.812331254939213e+18,mouselab-mdp,1
"[1357, 2101, 3036]","[u'right', u'right', u'down']",train_basic,"[u'0', u'5', u'6', u'8']","{u'mouseover': {u'state': {u'target': [], u'time': []}, u'edge': {u'target': [], u'time': []}}, u'click': {u'state': {u'target': [], u'time': []}, u'edge': {u'target': [], u'time': []}}, u'mouseout': {u'state': {u'target': [], u'time': []}, u'edge': {u'target': [], u'time': []}}}","[5, 10, -10]","[1355, 222, 410]",5.0,"[None, None, None]",154492,6.0,4.126289696711771e+18,mouselab-mdp,1
"[486, 1118, 2151]","[u'left', u'left', u'up']",train_basic,"[u'0', u'9', u'10', u'11']","{u'mouseover': {u'state': {u'target': [], u'time': []}, u'edge': {u'target': [], u'time': []}}, u'click': {u'state': {u'target': [], u'time': []}, u'edge': {u'target': [], u'time': []}}, u'mouseout': {u'state': {u'target': [], u'time': []}, u'edge': {u'target': [], u'time': []}}}","[-5, 10, 10]","[484, 103, 501]",15.0,"[None, None, None]",159116,7.0,7.03335331080147e+17,mouselab-mdp,1
"[2079, 2630, 3233]","[u'right', u'right', u'down']",train_basic,"[u'0', u'5', u'6', u'8']","{u'mouseover': {u'state': {u'target': [], u'time': []}, u'edge': {u'target': [], u'time': []}}, u'click': {u'state': {u'target': [], u'time': []}, u'edge': {u'target': [], u'time': []}}, u'mouseout': {u'state': {u'target': [], u'time': []}, u'edge': {u'target': [], u'time': []}}}","[10, -10, 10]","[2076, 23, 75]",10.0,"[None, None, None]",164442,8.0,6.186837397190105e+18,mouselab-mdp,1
"[973, 2158, 2893]","[u'up', u'up', u'left']",train_basic,"[u'0', u'1', u'2', u'4']","{u'mouseover': {u'state': {u'target': [], u'time': []}, u'edge': {u'target': [], u'time': []}}, u'click': {u'state': {u'target': [], u'time': []}, u'edge': {u'target': [], u'time': []}}, u'mouseout': {u'state': {u'target': [], u'time': []}, u'edge': {u'target': [], u'time': []}}}","[5, -10, 10]","[971, 663, 217]",5.0,"[None, None, None]",169604,9.0,-8.485306912601427e+16,mouselab-mdp,1
"[4637, 5876, 7021]","[u'left', u'left', u'up']",train_hidden,"[u'0', u'9', u'10', u'11']","{u'mouseover': {u'state': {u'target': [], u'time': []}, u'edge': {u'target': [], u'time': []}}, u'click': {u'state': {u'target': [], u'time': []}, u'edge': {u'target': [], u'time': []}}, u'mouseout': {u'state': {u'target': [], u'time': []}, u'edge': {u'target': [], u'time': []}}}","[5, -10, -5]","[4635, 708, 620]",-10.0,"[None, None, None]",181434,10.0,9.10621497278211e+18,mouselab-mdp,1
"[1704, 2575, 3551]","[u'right', u'right', u'up']",train_hidden,"[u'0', u'5', u'6', u'7']","{u'mouseover': {u'state': {u'target': [], u'time': []}, u'edge': {u'target': [], u'time': []}}, u'click': {u'state': {u'target': [], u'time': []}, u'edge': {u'target': [], u'time': []}}, u'mouseout': {u'state': {u'target': [], u'time': []}, u'edge': {u'target': [], u'time': []}}}","[-5, 5, 5]","[1701, 355, 445]",5.0,"[None, None, None]",187484,11.0,5.015924348765825e+18,mouselab-mdp,1
"[1227, 2004, 2908]","[u'up', u'up', u'right']",train_hidden,"[u'0', u'1', u'2', u'3']","{u'mouseover': {u'state': {u'target': [], u'time': []}, u'edge': {u'target': [], u'time': []}}, u'click': {u'state': {u'target': [], u'time': []}, u'edge': {u'target': [], u'time': []}}, u'mouseout': {u'state': {u'target': [], u'time': []}, u'edge': {u'target': [], u'time': []}}}","[10, 10, 10]","[1226, 237, 378]",30.0,"[None, None, None]",192988,12.0,7.553211965372142e+18,mouselab-mdp,1
"[1396, 2100, 2875]","[u'left', u'left', u'up']",train_hidden,"[u'0', u'9', u'10', u'11']","{u'mouseover': {u'state': {u'target': [], u'time': []}, u'edge': {u'target': [], u'time': []}}, u'click': {u'state': {u'target': [], u'time': []}, u'edge': {u'target': [], u'time': []}}, u'mouseout': {u'state': {u'target': [], u'time': []}, u'edge': {u'target': [], u'time': []}}}","[5, 5, 5]","[1393, 168, 243]",15.0,"[None, None, None]",198309,13.0,3.583064541232826e+18,mouselab-mdp,1
"[1857, 2433, 3128]","[u'up', u'up', u'left']",train_hidden,"[u'0', u'1', u'2', u'4']","{u'mouseover': {u'state': {u'target': [], u'time': []}, u'edge': {u'target': [], u'time': []}}, u'click': {u'state': {u'target': [], u'time': []}, u'edge': {u'target': [], u'time': []}}, u'mouseout': {u'state': {u'target': [], u'time': []}, u'edge': {u'target': [], u'time': []}}}","[10, -10, -10]","[1852, 49, 163]",-10.0,"[None, None, None]",203611,14.0,3.6695183518116547e+18,mouselab-mdp,1
"[6299, 14298, 15114]","[u'right', u'right', u'up']",train_inspector,"[u'0', u'5', u'6', u'7']","{u'mouseover': {u'state': {u'target': [], u'time': []}, u'edge': {u'target': [], u'time': []}}, u'click': {u'state': {u'target': [], u'time': []}, u'edge': {u'target': [], u'time': []}}, u'mouseout': {u'state': {u'target': [], u'time': []}, u'edge': {u'target': [], u'time': []}}}","[10, 5, -10]","[6294, 7469, 283]",5.0,"[None, None, None]",223060,15.0,2.0031782822548767e+18,mouselab-mdp,1
"[7643, 8348, 9242]","[u'right', u'right', u'down']",train_inspector,"[u'0', u'5', u'6', u'8']","{u'mouseover': {u'state': {u'target': [], u'time': []}, u'edge': {u'target': [], u'time': []}}, u'click': {u'state': {u'target': [u'5'], u'time': [5948]}, u'edge': {u'target': [], u'time': []}}, u'mouseout': {u'state': {u'target': [], u'time': []}, u'edge': {u'target': [], u'time': []}}}","[5, -5, -10]","[7641, 174, 367]",-10.0,"[None, None, None]",234588,16.0,-3.06599297092415e+18,mouselab-mdp,1
"[2315, 2923, 3708]","[u'left', u'left', u'up']",train_inspector,"[u'0', u'9', u'10', u'11']","{u'mouseover': {u'state': {u'target': [], u'time': []}, u'edge': {u'target': [], u'time': []}}, u'click': {u'state': {u'target': [u'9'], u'time': [1044]}, u'edge': {u'target': [], u'time': []}}, u'mouseout': {u'state': {u'target': [], u'time': []}, u'edge': {u'target': [], u'time': []}}}","[10, 5, 10]","[2314, 78, 259]",25.0,"[None, None, None]",240619,17.0,-9.103368144950199e+18,mouselab-mdp,1
"[1801, 2410, 3066]","[u'up', u'up', u'right']",train_inspector,"[u'0', u'1', u'2', u'3']","{u'mouseover': {u'state': {u'target': [], u'time': []}, u'edge': {u'target': [], u'time': []}}, u'click': {u'state': {u'target': [u'1'], u'time': [1262]}, u'edge': {u'target': [], u'time': []}}, u'mouseout': {u'state': {u'target': [], u'time': []}, u'edge': {u'target': [], u'time': []}}}","[10, 5, 5]","[1799, 90, 130]",20.0,"[None, None, None]",245931,18.0,-3.8748518639778094e+18,mouselab-mdp,1
"[1155, 1723, 2628]","[u'right', u'right', u'down']",train_inspector,"[u'0', u'5', u'6', u'8']","{u'mouseover': {u'state': {u'target': [], u'time': []}, u'edge': {u'target': [], u'time': []}}, u'click': {u'state': {u'target': [u'5'], u'time': [644]}, u'edge': {u'target': [], u'time': []}}, u'mouseout': {u'state': {u'target': [], u'time': []}, u'edge': {u'target': [], u'time': []}}}","[10, -10, -5]","[1153, 44, 385]",-5.0,"[None, None, None]",250996,19.0,-4.4291516051404616e+18,mouselab-mdp,1
"[49089, 49924, 50772]","[u'left', u'left', u'up']",train_inspect_cost,"[u'0', u'9', u'10', u'11']","{u'mouseover': {u'state': {u'target': [], u'time': []}, u'edge': {u'target': [], u'time': []}}, u'click': {u'state': {u'target': [u'5'], u'time': [47212]}, u'edge': {u'target': [], u'time': []}}, u'mouseout': {u'state': {u'target': [], u'time': []}, u'edge': {u'target': [], u'time': []}}}","[-10, 5, 10]","[49083, 304, 316]",4.0,"[None, None, None]",307236,20.0,-5.833452680797874e+18,mouselab-mdp,1
"[2965, 3765, 4581]","[u'right', u'right', u'up']",train_inspect_cost,"[u'0', u'5', u'6', u'7']","{u'mouseover': {u'state': {u'target': [], u'time': []}, u'edge': {u'target': [], u'time': []}}, u'click': {u'state': {u'target': [], u'time': []}, u'edge': {u'target': [], u'time': []}}, u'mouseout': {u'state': {u'target': [], u'time': []}, u'edge': {u'target': [], u'time': []}}}","[-5, -10, 10]","[2960, 276, 294]",-5.0,"[None, None, None]",314740,21.0,-5.149457503050632e+18,mouselab-mdp,1
"[2236, 2820, 3781]","[u'up', u'up', u'right']",train_inspect_cost,"[u'0', u'1', u'2', u'3']","{u'mouseover': {u'state': {u'target': [], u'time': []}, u'edge': {u'target': [], u'time': []}}, u'click': {u'state': {u'target': [u'1'], u'time': [1664]}, u'edge': {u'target': [], u'time': []}}, u'mouseout': {u'state': {u'target': [], u'time': []}, u'edge': {u'target': [], u'time': []}}}","[5, -10, 10]","[2233, 54, 430]",4.0,"[None, None, None]",321291,22.0,5.309248044539889e+18,mouselab-mdp,1
"[2875, 3650, 4506]","[u'left', u'left', u'up']",train_inspect_cost,"[u'0', u'9', u'10', u'11']","{u'mouseover': {u'state': {u'target': [], u'time': []}, u'edge': {u'target': [], u'time': []}}, u'click': {u'state': {u'target': [], u'time': []}, u'edge': {u'target': [], u'time': []}}, u'mouseout': {u'state': {u'target': [], u'time': []}, u'edge': {u'target': [], u'time': []}}}","[5, 10, -5]","[2871, 246, 334]",10.0,"[None, None, None]",328259,23.0,4.517249616187461e+18,mouselab-mdp,1
"[1941, 2492, 3068]","[u'up', u'up', u'right']",train_inspect_cost,"[u'0', u'1', u'2', u'3']","{u'mouseover': {u'state': {u'target': [], u'time': []}, u'edge': {u'target': [], u'time': []}}, u'click': {u'state': {u'target': [u'1'], u'time': [1428]}, u'edge': {u'target': [], u'time': []}}, u'mouseout': {u'state': {u'target': [], u'time': []}, u'edge': {u'target': [], u'time': []}}}","[10, 10, 5]","[1938, 27, 53]",24.0,"[None, None, None]",333644,24.0,-1.4141965748565614e+17,mouselab-mdp,1
"[16663, 17687, 18335]","[u'up', u'up', u'right']",train_final,"[u'0', u'1', u'2', u'3']","{u'mouseover': {u'state': {u'target': [], u'time': []}, u'edge': {u'target': [], u'time': []}}, u'click': {u'state': {u'target': [u'1'], u'time': [16227]}, u'edge': {u'target': [], u'time': []}}, u'mouseout': {u'state': {u'target': [], u'time': []}, u'edge': {u'target': [], u'time': []}}}","[-5, -10, 10]","[16661, 504, 117]",-6.0,"[None, None, None]",356666,25.0,-3.5260456632436096e+17,mouselab-mdp,1
"[521, 1057, 1912]","[u'right', u'right', u'down']",train_final,"[u'0', u'5', u'6', u'8']","{u'mouseover': {u'state': {u'target': [], u'time': []}, u'edge': {u'target': [], u'time': []}}, u'click': {u'state': {u'target': [], u'time': []}, u'edge': {u'target': [], u'time': []}}, u'mouseout': {u'state': {u'target': [], u'time': []}, u'edge': {u'target': [], u'time': []}}}","[10, 10, 10]","[519, 8, 330]",30.0,"[None, None, None]",361011,26.0,-3.650836633176822e+16,mouselab-mdp,1
"[422, 948, 1846]","[u'up', u'up', u'left']",train_final,"[u'0', u'1', u'2', u'4']","{u'mouseover': {u'state': {u'target': [], u'time': []}, u'edge': {u'target': [], u'time': []}}, u'click': {u'state': {u'target': [], u'time': []}, u'edge': {u'target': [], u'time': []}}, u'mouseout': {u'state': {u'target': [], u'time': []}, u'edge': {u'target': [], u'time': []}}}","[-5, 10, 5]","[420, 2, 352]",10.0,"[None, None, None]",365724,27.0,-6.72824086845133e+18,mouselab-mdp,1
"[790, 1374, 1942]","[u'left', u'left', u'up']",train_final,"[u'0', u'9', u'10', u'11']","{u'mouseover': {u'state': {u'target': [], u'time': []}, u'edge': {u'target': [], u'time': []}}, u'click': {u'state': {u'target': [], u'time': []}, u'edge': {u'target': [], u'time': []}}, u'mouseout': {u'state': {u'target': [], u'time': []}, u'edge': {u'target': [], u'time': []}}}","[10, -5, 10]","[786, 56, 43]",15.0,"[None, None, None]",369964,28.0,-3.8790525829275725e+17,mouselab-mdp,1
"[327, 1432, 2311]","[u'right', u'right', u'up']",train_final,"[u'0', u'5', u'6', u'7']","{u'mouseover': {u'state': {u'target': [], u'time': []}, u'edge': {u'target': [], u'time': []}}, u'click': {u'state': {u'target': [], u'time': []}, u'edge': {u'target': [], u'time': []}}, u'mouseout': {u'state': {u'target': [], u'time': []}, u'edge': {u'target': [], u'time': []}}}","[-10, -5, -10]","[324, 572, 351]",-25.0,"[None, None, None]",374452,29.0,-2.7782514449718523e+18,mouselab-mdp,1
"[14398, 15147, 16212]","[u'right', u'right', u'down']",test,"[u'0', u'5', u'6', u'8']","{u'mouseover': {u'state': {u'target': [], u'time': []}, u'edge': {u'target': [], u'time': []}}, u'click': {u'state': {u'target': [], u'time': []}, u'edge': {u'target': [], u'time': []}}, u'mouseout': {u'state': {u'target': [], u'time': []}, u'edge': {u'target': [], u'time': []}}}","[10, -5, -10]","[14393, 233, 530]",-5.0,"[None, None, None]",533051,30.0,-3.506160317620679e+18,mouselab-mdp,1
"[770, 1410, 2131]","[u'up', u'up', u'left']",test,"[u'0', u'1', u'2', u'4']","{u'mouseover': {u'state': {u'target': [], u'time': []}, u'edge': {u'target': [], u'time': []}}, u'click': {u'state': {u'target': [], u'time': []}, u'edge': {u'target': [], u'time': []}}, u'mouseout': {u'state': {u'target': [], u'time': []}, u'edge': {u'target': [], u'time': []}}}","[-5, 5, 10]","[768, 107, 196]",10.0,"[None, None, None]",537907,31.0,-6.467484867280245e+18,mouselab-mdp,1
"[599, 1719, 2528]","[u'left', u'left', u'up']",test,"[u'0', u'9', u'10', u'11']","{u'mouseover': {u'state': {u'target': [], u'time': []}, u'edge': {u'target': [], u'time': []}}, u'click': {u'state': {u'target': [], u'time': []}, u'edge': {u'target': [], u'time': []}}, u'mouseout': {u'state': {u'target': [], u'time': []}, u'edge': {u'target': [], u'time': []}}}","[5, 10, -5]","[596, 585, 276]",10.0,"[None, None, None]",543307,32.0,-7.125102216625555e+18,mouselab-mdp,1
"[849, 1833, 2728]","[u'up', u'up', u'right']",test,"[u'0', u'1', u'2', u'3']","{u'mouseover': {u'state': {u'target': [], u'time': []}, u'edge': {u'target': [], u'time': []}}, u'click': {u'state': {u'target': [], u'time': []}, u'edge': {u'target': [], u'time': []}}, u'mouseout': {u'state': {u'target': [], u'time': []}, u'edge': {u'target': [], u'time': []}}}","[5, 5, -10]","[846, 446, 376]",0.0,"[None, None, None]",548668,33.0,1.3765381945531668e+18,mouselab-mdp,1
"[659, 1351, 2111]","[u'left', u'left', u'up']",test,"[u'0', u'9', u'10', u'11']","{u'mouseover': {u'state': {u'target': [], u'time': []}, u'edge': {u'target': [], u'time': []}}, u'click': {u'state': {u'target': [], u'time': []}, u'edge': {u'target': [], u'time': []}}, u'mouseout': {u'state': {u'target': [], u'time': []}, u'edge': {u'target': [], u'time': []}}}","[-10, -10, 10]","[656, 171, 231]",-10.0,"[None, None, None]",553108,34.0,2.102736855806764e+18,mouselab-mdp,1
"[1338, 2201, 3058]","[u'right', u'right', u'down']",test,"[u'0', u'5', u'6', u'8']","{u'mouseover': {u'state': {u'target': [], u'time': []}, u'edge': {u'target': [], u'time': []}}, u'click': {u'state': {u'target': [], u'time': []}, u'edge': {u'target': [], u'time': []}}, u'mouseout': {u'state': {u'target': [], u'time': []}, u'edge': {u'target': [], u'time': []}}}","[-5, -5, -5]","[1337, 340, 333]",-15.0,"[None, None, None]",559547,35.0,2.64561491402998e+18,mouselab-mdp,1
"[570, 1370, 2170]","[u'up', u'up', u'left']",test,"[u'0', u'1', u'2', u'4']","{u'mouseover': {u'state': {u'target': [], u'time': []}, u'edge': {u'target': [], u'time': []}}, u'click': {u'state': {u'target': [], u'time': []}, u'edge': {u'target': [], u'time': []}}, u'mouseout': {u'state': {u'target': [], u'time': []}, u'edge': {u'target': [], u'time': []}}}","[10, -5, -5]","[566, 288, 272]",0.0,"[None, None, None]",564019,36.0,7.91556335598923e+18,mouselab-mdp,1
"[376, 1048, 1664]","[u'right', u'right', u'down']",test,"[u'0', u'5', u'6', u'8']","{u'mouseover': {u'state': {u'target': [], u'time': []}, u'edge': {u'target': [], u'time': []}}, u'click': {u'state': {u'target': [], u'time': []}, u'edge': {u'target': [], u'time': []}}, u'mouseout': {u'state': {u'target': [], u'time': []}, u'edge': {u'target': [], u'time': []}}}","[-10, 5, -10]","[372, 142, 91]",-15.0,"[None, None, None]",567844,37.0,7.839838664789078e+18,mouselab-mdp,1
"[340, 1012, 1595]","[u'up', u'up', u'left']",test,"[u'0', u'1', u'2', u'4']","{u'mouseover': {u'state': {u'target': [], u'time': []}, u'edge': {u'target': [], u'time': []}}, u'click': {u'state': {u'target': [], u'time': []}, u'edge': {u'target': [], u'time': []}}, u'mouseout': {u'state': {u'target': [], u'time': []}, u'edge': {u'target': [], u'time': []}}}","[5, -10, 5]","[338, 144, 60]",0.0,"[None, None, None]",571604,38.0,-8.965170723769651e+18,mouselab-mdp,1
"[424, 1192, 1975]","[u'left', u'left', u'up']",test,"[u'0', u'9', u'10', u'11']","{u'mouseover': {u'state': {u'target': [], u'time': []}, u'edge': {u'target': [], u'time': []}}, u'click': {u'state': {u'target': [], u'time': []}, u'edge': {u'target': [], u'time': []}}, u'mouseout': {u'state': {u'target': [], u'time': []}, u'edge': {u'target': [], u'time': []}}}","[5, -10, -10]","[421, 246, 263]",-15.0,"[None, None, None]",576020,39.0,7.434111409514572e+18,mouselab-mdp,1
"[848, 1381, 1948]","[u'up', u'up', u'right']",test,"[u'0', u'1', u'2', u'3']","{u'mouseover': {u'state': {u'target': [], u'time': []}, u'edge': {u'target': [], u'time': []}}, u'click': {u'state': {u'target': [], u'time': []}, u'edge': {u'target': [], u'time': []}}, u'mouseout': {u'state': {u'target': [], u'time': []}, u'edge': {u'target': [], u'time': []}}}","[5, 10, 10]","[845, 5, 39]",25.0,"[None, None, None]",580244,40.0,-7.824465990977061e+18,mouselab-mdp,1
"[3679, 4406, 5079]","[u'up', u'up', u'right']",test,"[u'0', u'1', u'2', u'3']","{u'mouseover': {u'state': {u'target': [], u'time': []}, u'edge': {u'target': [], u'time': []}}, u'click': {u'state': {u'target': [u'5', u'9'], u'time': [1098, 3152]}, u'edge': {u'target': [], u'time': []}}, u'mouseout': {u'state': {u'target': [], u'time': []}, u'edge': {u'target': [], u'time': []}}}","[10, 10, 10]","[3676, 198, 140]",28.0,"[None, None, None]",588124,41.0,-5.799413076952947e+18,mouselab-mdp,1
"[2766, 3405, 4452]","[u'right', u'right', u'up']",test,"[u'0', u'5', u'6', u'7']","{u'mouseover': {u'state': {u'target': [], u'time': []}, u'edge': {u'target': [], u'time': []}}, u'click': {u'state': {u'target': [u'5'], u'time': [2155]}, u'edge': {u'target': [], u'time': []}}, u'mouseout': {u'state': {u'target': [], u'time': []}, u'edge': {u'target': [], u'time': []}}}","[10, 10, 5]","[2762, 104, 524]",24.0,"[None, None, None]",594788,42.0,-3.081449241277774e+18,mouselab-mdp,1
"[3742, 4325, 5662]","[u'right', u'right', u'down']",test,"[u'0', u'5', u'6', u'8']","{u'mouseover': {u'state': {u'target': [], u'time': []}, u'edge': {u'target': [], u'time': []}}, u'click': {u'state': {u'target': [u'9', u'5'], u'time': [964, 3197]}, u'edge': {u'target': [], u'time': []}}, u'mouseout': {u'state': {u'target': [], u'time': []}, u'edge': {u'target': [], u'time': []}}}","[5, 10, 5]","[3739, 57, 811]",18.0,"[None, None, None]",602916,43.0,-3.810609463936167e+18,mouselab-mdp,1
"[4941, 5717, 6463]","[u'left', u'left', u'up']",test,"[u'0', u'9', u'10', u'11']","{u'mouseover': {u'state': {u'target': [], u'time': []}, u'edge': {u'target': [], u'time': []}}, u'click': {u'state': {u'target': [], u'time': []}, u'edge': {u'target': [], u'time': []}}, u'mouseout': {u'state': {u'target': [], u'time': []}, u'edge': {u'target': [], u'time': []}}}","[-10, -10, -5]","[4940, 246, 224]",-25.0,"[None, None, None]",611635,44.0,4.79729195570316e+18,mouselab-mdp,1
"[1947, 2468, 3315]","[u'right', u'right', u'down']",test,"[u'0', u'5', u'6', u'8']","{u'mouseover': {u'state': {u'target': [], u'time': []}, u'edge': {u'target': [], u'time': []}}, u'click': {u'state': {u'target': [u'5'], u'time': [956]}, u'edge': {u'target': [], u'time': []}}, u'mouseout': {u'state': {u'target': [], u'time': []}, u'edge': {u'target': [], u'time': []}}}","[5, 10, -10]","[1945, 2, 317]",4.0,"[None, None, None]",617460,45.0,5.439632916575948e+18,mouselab-mdp,1
"[1774, 2357, 3469]","[u'up', u'up', u'left']",test,"[u'0', u'1', u'2', u'4']","{u'mouseover': {u'state': {u'target': [], u'time': []}, u'edge': {u'target': [], u'time': []}}, u'click': {u'state': {u'target': [u'1'], u'time': [1130]}, u'edge': {u'target': [], u'time': []}}, u'mouseout': {u'state': {u'target': [], u'time': []}, u'edge': {u'target': [], u'time': []}}}","[5, 5, -10]","[1771, 49, 582]",-1.0,"[None, None, None]",623877,46.0,-3.214860887015687e+18,mouselab-mdp,1
"[3437, 4051, 4932]","[u'left', u'left', u'up']",test,"[u'0', u'9', u'10', u'11']","{u'mouseover': {u'state': {u'target': [], u'time': []}, u'edge': {u'target': [], u'time': []}}, u'click': {u'state': {u'target': [u'1', u'5', u'9'], u'time': [979, 2158, 2935]}, u'edge': {u'target': [], u'time': []}}, u'mouseout': {u'state': {u'target': [], u'time': []}, u'edge': {u'target': [], u'time': []}}}","[5, 10, 10]","[3434, 71, 347]",22.0,"[None, None, None]",631252,47.0,4.842692465290208e+18,mouselab-mdp,1
"[1514, 2075, 3074]","[u'right', u'right', u'up']",test,"[u'0', u'5', u'6', u'7']","{u'mouseover': {u'state': {u'target': [], u'time': []}, u'edge': {u'target': [], u'time': []}}, u'click': {u'state': {u'target': [u'5'], u'time': [741]}, u'edge': {u'target': [], u'time': []}}, u'mouseout': {u'state': {u'target': [], u'time': []}, u'edge': {u'target': [], u'time': []}}}","[10, -10, -10]","[1511, 28, 476]",-11.0,"[None, None, None]",636477,48.0,8.845312654804484e+18,mouselab-mdp,1
"[4556, 5125, 5821]","[u'left', u'left', u'up']",test,"[u'0', u'9', u'10', u'11']","{u'mouseover': {u'state': {u'target': [], u'time': []}, u'edge': {u'target': [], u'time': []}}, u'click': {u'state': {u'target': [u'1', u'5', u'9'], u'time': [1060, 2319, 3706]}, u'edge': {u'target': [], u'time': []}}, u'mouseout': {u'state': {u'target': [], u'time': []}, u'edge': {u'target': [], u'time': []}}}","[5, -5, 10]","[4555, 48, 177]",7.0,"[None, None, None]",644620,49.0,-8.430627562648791e+18,mouselab-mdp,1
"[26201, 27385, 31994]","[u'up', u'up', u'left']",train_basic,"[u'0', u'1', u'2', u'4']","{u'mouseover': {u'state': {u'target': [], u'time': []}, u'edge': {u'target': [], u'time': []}}, u'click': {u'state': {u'target': [], u'time': []}, u'edge': {u'target': [], u'time': []}}, u'mouseout': {u'state': {u'target': [], u'time': []}, u'edge': {u'target': [], u'time': []}}}","[10, 10, -10]","[26198, 679, 4091]",10.0,"[None, None, None]",47328,0.0,-5.833452680797874e+18,mouselab-mdp,2
"[40456, 41255, 41920]","[u'up', u'up', u'left']",train_basic,"[u'0', u'1', u'2', u'4']","{u'mouseover': {u'state': {u'target': [], u'time': []}, u'edge': {u'target': [], u'time': []}}, u'click': {u'state': {u'target': [], u'time': []}, u'edge': {u'target': [], u'time': []}}, u'mouseout': {u'state': {u'target': [], u'time': []}, u'edge': {u'target': [], u'time': []}}}","[5, -10, 10]","[40455, 302, 166]",5.0,"[None, None, None]",94167,1.0,-8.485306912601427e+16,mouselab-mdp,2
"[2836, 3630, 4620]","[u'left', u'left', u'down']",train_basic,"[u'0', u'9', u'10', u'12']","{u'mouseover': {u'state': {u'target': [], u'time': []}, u'edge': {u'target': [], u'time': []}}, u'click': {u'state': {u'target': [], u'time': []}, u'edge': {u'target': [], u'time': []}}, u'mouseout': {u'state': {u'target': [], u'time': []}, u'edge': {u'target': [], u'time': []}}}","[10, 5, 10]","[2834, 300, 475]",25.0,"[None, None, None]",101222,2.0,8.845312654804484e+18,mouselab-mdp,2
"[4257, 5690, 6703]","[u'left', u'left', u'down']",train_basic,"[u'0', u'9', u'10', u'12']","{u'mouseover': {u'state': {u'target': [], u'time': []}, u'edge': {u'target': [], u'time': []}}, u'click': {u'state': {u'target': [], u'time': []}, u'edge': {u'target': [], u'time': []}}, u'mouseout': {u'state': {u'target': [], u'time': []}, u'edge': {u'target': [], u'time': []}}}","[-5, 10, 10]","[4255, 924, 502]",15.0,"[None, None, None]",110304,3.0,7.03335331080147e+17,mouselab-mdp,2
"[2813, 3470, 4062]","[u'up', u'up', u'left']",train_basic,"[u'0', u'1', u'2', u'4']","{u'mouseover': {u'state': {u'target': [], u'time': []}, u'edge': {u'target': [], u'time': []}}, u'click': {u'state': {u'target': [], u'time': []}, u'edge': {u'target': [], u'time': []}}, u'mouseout': {u'state': {u'target': [], u'time': []}, u'edge': {u'target': [], u'time': []}}}","[10, 10, 10]","[2812, 161, 100]",30.0,"[None, None, None]",116808,4.0,7.502188167921001e+17,mouselab-mdp,2
"[11794, 12385, 13441]","[u'up', u'up', u'left']",train_basic,"[u'0', u'1', u'2', u'4']","{u'mouseover': {u'state': {u'target': [], u'time': []}, u'edge': {u'target': [], u'time': []}}, u'click': {u'state': {u'target': [], u'time': []}, u'edge': {u'target': [], u'time': []}}, u'mouseout': {u'state': {u'target': [], u'time': []}, u'edge': {u'target': [], u'time': []}}}","[-5, 10, 5]","[11794, 100, 553]",10.0,"[None, None, None]",133399,5.0,-6.72824086845133e+18,mouselab-mdp,2
"[6653, 7349, 7885]","[u'up', u'up', u'left']",train_basic,"[u'0', u'1', u'2', u'4']","{u'mouseover': {u'state': {u'target': [], u'time': []}, u'edge': {u'target': [], u'time': []}}, u'click': {u'state': {u'target': [], u'time': []}, u'edge': {u'target': [], u'time': []}}, u'mouseout': {u'state': {u'target': [], u'time': []}, u'edge': {u'target': [], u'time': []}}}","[-10, -5, 10]","[6651, 203, 39]",-5.0,"[None, None, None]",144422,6.0,6.301694736193464e+17,mouselab-mdp,2
"[2751, 3448, 4103]","[u'left', u'left', u'up']",train_basic,"[u'0', u'9', u'10', u'11']","{u'mouseover': {u'state': {u'target': [], u'time': []}, u'edge': {u'target': [], u'time': []}}, u'click': {u'state': {u'target': [], u'time': []}, u'edge': {u'target': [], u'time': []}}, u'mouseout': {u'state': {u'target': [], u'time': []}, u'edge': {u'target': [], u'time': []}}}","[10, 10, 10]","[2750, 204, 161]",30.0,"[None, None, None]",151214,7.0,6.995680039972448e+17,mouselab-mdp,2
"[10011, 10635, 11242]","[u'up', u'up', u'right']",train_basic,"[u'0', u'1', u'2', u'3']","{u'mouseover': {u'state': {u'target': [], u'time': []}, u'edge': {u'target': [], u'time': []}}, u'click': {u'state': {u'target': [], u'time': []}, u'edge': {u'target': [], u'time': []}}, u'mouseout': {u'state': {u'target': [], u'time': []}, u'edge': {u'target': [], u'time': []}}}","[-10, 5, 10]","[10010, 122, 97]",5.0,"[None, None, None]",172390,8.0,-4.063481521815622e+18,mouselab-mdp,2
"[2489, 9243, 9777]","[u'up', u'up', u'right']",train_basic,"[u'0', u'1', u'2', u'3']","{u'mouseover': {u'state': {u'target': [], u'time': []}, u'edge': {u'target': [], u'time': []}}, u'click': {u'state': {u'target': [], u'time': []}, u'edge': {u'target': [], u'time': []}}, u'mouseout': {u'state': {u'target': [], u'time': []}, u'edge': {u'target': [], u'time': []}}}","[5, -5, 10]","[2485, 6252, 41]",10.0,"[None, None, None]",184725,9.0,-4.167587722078449e+18,mouselab-mdp,2
"[8100, 9243, 10091]","[u'up', u'up', u'left']",train_hidden,"[u'0', u'1', u'2', u'4']","{u'mouseover': {u'state': {u'target': [], u'time': []}, u'edge': {u'target': [], u'time': []}}, u'click': {u'state': {u'target': [], u'time': []}, u'edge': {u'target': [], u'time': []}}, u'mouseout': {u'state': {u'target': [], u'time': []}, u'edge': {u'target': [], u'time': []}}}","[-5, 10, -5]","[8098, 644, 358]",0.0,"[None, None, None]",200175,10.0,2.9612134047696353e+18,mouselab-mdp,2
"[736, 1655, 2687]","[u'left', u'left', u'up']",train_hidden,"[u'0', u'9', u'10', u'11']","{u'mouseover': {u'state': {u'target': [], u'time': []}, u'edge': {u'target': [], u'time': []}}, u'click': {u'state': {u'target': [], u'time': []}, u'edge': {u'target': [], u'time': []}}, u'mouseout': {u'state': {u'target': [], u'time': []}, u'edge': {u'target': [], u'time': []}}}","[5, -5, -5]","[734, 420, 518]",-5.0,"[None, None, None]",205823,11.0,9.182422570892963e+18,mouselab-mdp,2
"[461, 1349, 2300]","[u'right', u'right', u'up']",train_hidden,"[u'0', u'5', u'6', u'7']","{u'mouseover': {u'state': {u'target': [], u'time': []}, u'edge': {u'target': [], u'time': []}}, u'click': {u'state': {u'target': [], u'time': []}, u'edge': {u'target': [], u'time': []}}, u'mouseout': {u'state': {u'target': [], u'time': []}, u'edge': {u'target': [], u'time': []}}}","[-5, 10, 10]","[460, 389, 459]",15.0,"[None, None, None]",210933,12.0,-2.113118043168124e+18,mouselab-mdp,2
"[1096, 1945, 3424]","[u'up', u'up', u'right']",train_hidden,"[u'0', u'1', u'2', u'3']","{u'mouseover': {u'state': {u'target': [], u'time': []}, u'edge': {u'target': [], u'time': []}}, u'click': {u'state': {u'target': [], u'time': []}, u'edge': {u'target': [], u'time': []}}, u'mouseout': {u'state': {u'target': [], u'time': []}, u'edge': {u'target': [], u'time': []}}}","[-10, 10, 5]","[1095, 344, 991]",5.0,"[None, None, None]",216870,13.0,-5.559450979544907e+18,mouselab-mdp,2
"[717, 1549, 2468]","[u'left', u'left', u'down']",train_hidden,"[u'0', u'9', u'10', u'12']","{u'mouseover': {u'state': {u'target': [], u'time': []}, u'edge': {u'target': [], u'time': []}}, u'click': {u'state': {u'target': [], u'time': []}, u'edge': {u'target': [], u'time': []}}, u'mouseout': {u'state': {u'target': [], u'time': []}, u'edge': {u'target': [], u'time': []}}}","[5, -5, 10]","[716, 329, 431]",10.0,"[None, None, None]",221750,14.0,4.49272063618337e+18,mouselab-mdp,2
"[27136, 27744, 28392]","[u'right', u'right', u'up']",train_inspector,"[u'0', u'5', u'6', u'7']","{u'mouseover': {u'state': {u'target': [], u'time': []}, u'edge': {u'target': [], u'time': []}}, u'click': {u'state': {u'target': [u'9', u'1', u'5', u'6', u'8', u'7', u'4', u'2', u'3', u'11', u'10', u'12'], u'time': [13077, 14042, 15071, 18589, 19240, 19820, 21538, 22463, 23082, 23858, 24328, 25106]}, u'edge': {u'target': [], u'time': []}}, u'mouseout': {u'state': {u'target': [], u'time': []}, u'edge': {u'target': [], u'time': []}}}","[10, -5, 10]","[27135, 113, 145]",15.0,"[None, None, None]",255526,15.0,4.79729195570316e+18,mouselab-mdp,2
"[10047, 10687, 11294]","[u'left', u'left', u'up']",train_inspector,"[u'0', u'9', u'10', u'11']","{u'mouseover': {u'state': {u'target': [], u'time': []}, u'edge': {u'target': [], u'time': []}}, u'click': {u'state': {u'target': [u'1', u'2', u'4', u'3', u'5', u'6', u'8', u'7', u'9', u'10', u'12', u'11'], u'time': [2001, 2374, 3042, 4083, 4663, 5136, 5512, 5982, 6928, 7509, 7988, 8827]}, u'edge': {u'target': [], u'time': []}}, u'mouseout': {u'state': {u'target': [], u'time': []}, u'edge': {u'target': [], u'time': []}}}","[10, 5, 10]","[10045, 146, 119]",25.0,"[None, None, None]",269381,16.0,-2.6765330699051464e+18,mouselab-mdp,2
"[12728, 13287, 13877]","[u'left', u'left', u'down']",train_inspector,"[u'0', u'9', u'10', u'12']","{u'mouseover': {u'state': {u'target': [], u'time': []}, u'edge': {u'target': [], u'time': []}}, u'click': {u'state': {u'target': [u'1', u'2', u'4', u'3', u'5', u'6', u'8', u'7', u'9', u'10', u'12', u'11'], u'time': [1355, 2703, 3251, 3818, 5361, 6680, 7086, 7761, 9196, 9753, 10202, 10857]}, u'edge': {u'target': [], u'time': []}}, u'mouseout': {u'state': {u'target': [], u'time': []}, u'edge': {u'target': [], u'time': []}}}","[10, 5, 10]","[12726, 63, 89]",25.0,"[None, None, None]",286142,17.0,1.0328961532146797e+17,mouselab-mdp,2
"[13305, 13929, 14561]","[u'up', u'up', u'left']",train_inspector,"[u'0', u'1', u'2', u'4']","{u'mouseover': {u'state': {u'target': [], u'time': []}, u'edge': {u'target': [], u'time': []}}, u'click': {u'state': {u'target': [u'1', u'2', u'4', u'3', u'5', u'6', u'9', u'10', u'11', u'12', u'7', u'8'], u'time': [2339, 3548, 4618, 5348, 6010, 6569, 7899, 8270, 8819, 9243, 10780, 11195]}, u'edge': {u'target': [], u'time': []}}, u'mouseout': {u'state': {u'target': [], u'time': []}, u'edge': {u'target': [], u'time': []}}}","[10, 5, 10]","[13304, 131, 130]",25.0,"[None, None, None]",303879,18.0,-8.685761292807083e+18,mouselab-mdp,2
"[13410, 14226, 15019]","[u'right', u'right', u'down']",train_inspector,"[u'0', u'5', u'6', u'8']","{u'mouseover': {u'state': {u'target': [], u'time': []}, u'edge': {u'target': [], u'time': []}}, u'click': {u'state': {u'target': [u'1', u'2', u'4', u'3', u'6', u'5', u'8', u'7', u'9', u'10', u'11', u'12'], u'time': [1081, 1451, 1843, 2705, 4249, 4609, 5473, 7511, 9377, 9949, 10521, 11260]}, u'edge': {u'target': [], u'time': []}}, u'mouseout': {u'state': {u'target': [], u'time': []}, u'edge': {u'target': [], u'time': []}}}","[10, -5, 5]","[13409, 312, 274]",10.0,"[None, None, None]",321749,19.0,-7.325569627557755e+18,mouselab-mdp,2
"[19836, 20452, 21100]","[u'right', u'right', u'up']",train_inspect_cost,"[u'0', u'5', u'6', u'7']","{u'mouseover': {u'state': {u'target': [], u'time': []}, u'edge': {u'target': [], u'time': []}}, u'click': {u'state': {u'target': [u'5', u'6', u'7'], u'time': [13256, 16000, 18007]}, u'edge': {u'target': [], u'time': []}}, u'mouseout': {u'state': {u'target': [], u'time': []}, u'edge': {u'target': [], u'time': []}}}","[10, 10, 10]","[19834, 121, 151]",27.0,"[None, None, None]",350045,20.0,4.0767595266326287e+18,mouselab-mdp,2
"[17523, 18158, 18829]","[u'right', u'right', u'down']",train_inspect_cost,"[u'0', u'5', u'6', u'8']","{u'mouseover': {u'state': {u'target': [], u'time': []}, u'edge': {u'target': [], u'time': []}}, u'click': {u'state': {u'target': [u'1', u'9', u'5', u'6', u'7', u'8', u'2', u'3', u'4', u'10', u'12', u'11'], u'time': [1642, 2807, 3806, 4780, 5908, 7374, 8340, 8904, 9610, 13027, 13514, 15169]}, u'edge': {u'target': [], u'time': []}}, u'mouseout': {u'state': {u'target': [], u'time': []}, u'edge': {u'target': [], u'time': []}}}","[10, -10, -5]","[17522, 118, 153]",-17.0,"[None, None, None]",371254,21.0,-8.604426228927178e+18,mouselab-mdp,2
"[7024, 7616, 8199]","[u'up', u'up', u'right']",train_inspect_cost,"[u'0', u'1', u'2', u'3']","{u'mouseover': {u'state': {u'target': [], u'time': []}, u'edge': {u'target': [], u'time': []}}, u'click': {u'state': {u'target': [u'1', u'9', u'5', u'2', u'4', u'3'], u'time': [1297, 2014, 2696, 3741, 4382, 5200]}, u'edge': {u'target': [], u'time': []}}, u'mouseout': {u'state': {u'target': [], u'time': []}, u'edge': {u'target': [], u'time': []}}}","[10, 10, 10]","[7022, 103, 86]",24.0,"[None, None, None]",381542,22.0,-5.799413076952947e+18,mouselab-mdp,2
"[7415, 8006, 8567]","[u'left', u'left', u'up']",train_inspect_cost,"[u'0', u'9', u'10', u'11']","{u'mouseover': {u'state': {u'target': [], u'time': []}, u'edge': {u'target': [], u'time': []}}, u'click': {u'state': {u'target': [u'1', u'9', u'5', u'10', u'11', u'12'], u'time': [807, 1537, 2258, 3239, 4470, 5694]}, u'edge': {u'target': [], u'time': []}}, u'mouseout': {u'state': {u'target': [], u'time': []}, u'edge': {u'target': [], u'time': []}}}","[5, 10, -5]","[7412, 101, 62]",4.0,"[None, None, None]",393078,23.0,-7.125102216625555e+18,mouselab-mdp,2
"[7454, 8037, 8605]","[u'right', u'right', u'down']",train_inspect_cost,"[u'0', u'5', u'6', u'8']","{u'mouseover': {u'state': {u'target': [], u'time': []}, u'edge': {u'target': [], u'time': []}}, u'click': {u'state': {u'target': [u'1', u'9', u'5', u'6', u'7'], u'time': [1049, 1646, 2915, 4185, 5503]}, u'edge': {u'target': [], u'time': []}}, u'mouseout': {u'state': {u'target': [], u'time': []}, u'edge': {u'target': [], u'time': []}}}","[10, 10, 10]","[7453, 93, 77]",25.0,"[None, None, None]",404190,24.0,-3.650836633176822e+16,mouselab-mdp,2
"[20803, 21396, 21987]","[u'left', u'left', u'up']",train_final,"[u'0', u'9', u'10', u'11']","{u'mouseover': {u'state': {u'target': [], u'time': []}, u'edge': {u'target': [], u'time': []}}, u'click': {u'state': {u'target': [u'1', u'9', u'5', u'2', u'10', u'4', u'11'], u'time': [12459, 13069, 14991, 16035, 16975, 18277, 19085]}, u'edge': {u'target': [], u'time': []}}, u'mouseout': {u'state': {u'target': [], u'time': []}, u'edge': {u'target': [], u'time': []}}}","[10, 5, 10]","[20802, 80, 88]",18.0,"[None, None, None]",431463,25.0,-3.8748518639778094e+18,mouselab-mdp,2
"[6386, 6976, 7585]","[u'right', u'right', u'up']",train_final,"[u'0', u'5', u'6', u'7']","{u'mouseover': {u'state': {u'target': [], u'time': []}, u'edge': {u'target': [], u'time': []}}, u'click': {u'state': {u'target': [u'1', u'9', u'5', u'6', u'8', u'7'], u'time': [1057, 1946, 2625, 3423, 4067, 4970]}, u'edge': {u'target': [], u'time': []}}, u'mouseout': {u'state': {u'target': [], u'time': []}, u'edge': {u'target': [], u'time': []}}}","[5, -10, 10]","[6385, 96, 121]",-1.0,"[None, None, None]",441381,26.0,3.6370751421926886e+18,mouselab-mdp,2
"[8652, 9228, 9756]","[u'left', u'left', u'down']",train_final,"[u'0', u'9', u'10', u'12']","{u'mouseover': {u'state': {u'target': [], u'time': []}, u'edge': {u'target': [], u'time': []}}, u'click': {u'state': {u'target': [u'1', u'9', u'5', u'6', u'10', u'11', u'12'], u'time': [758, 1459, 2074, 3306, 4024, 4884, 5707]}, u'edge': {u'target': [], u'time': []}}, u'mouseout': {u'state': {u'target': [], u'time': []}, u'edge': {u'target': [], u'time': []}}}","[5, 5, -5]","[8651, 69, 33]",-2.0,"[None, None, None]",454041,27.0,3.079720304695456e+18,mouselab-mdp,2
"[10711, 11259, 11764]","[u'up', u'up', u'left']",train_final,"[u'0', u'1', u'2', u'4']","{u'mouseover': {u'state': {u'target': [], u'time': []}, u'edge': {u'target': [], u'time': []}}, u'click': {u'state': {u'target': [u'9', u'1', u'5', u'2', u'4', u'3', u'6', u'10'], u'time': [602, 1323, 2031, 2955, 3693, 5160, 6599, 7622]}, u'edge': {u'target': [], u'time': []}}, u'mouseout': {u'state': {u'target': [], u'time': []}, u'edge': {u'target': [], u'time': []}}}","[5, -10, 5]","[10709, 56, 9]",-8.0,"[None, None, None]",467989,28.0,-3.3393520083480607e+18,mouselab-mdp,2
"[9689, 10240, 10761]","[u'up', u'up', u'left']",train_final,"[u'0', u'1', u'2', u'4']","{u'mouseover': {u'state': {u'target': [], u'time': []}, u'edge': {u'target': [], u'time': []}}, u'click': {u'state': {u'target': [u'1', u'2', u'4', u'9', u'5'], u'time': [2280, 3732, 5245, 6221, 7062]}, u'edge': {u'target': [], u'time': []}}, u'mouseout': {u'state': {u'target': [], u'time': []}, u'edge': {u'target': [], u'time': []}}}","[10, -10, 5]","[9688, 61, 30]",0.0,"[None, None, None]",480933,29.0,-5.0462050224693914e+17,mouselab-mdp,2
"[8521, 9201, 10362]","[u'right', u'right', u'down']",test,"[u'0', u'5', u'6', u'8']","{u'mouseover': {u'state': {u'target': [], u'time': []}, u'edge': {u'target': [], u'time': []}}, u'click': {u'state': {u'target': [u'1', u'5', u'6', u'7'], u'time': [2266, 3112, 4257, 6007]}, u'edge': {u'target': [], u'time': []}}, u'mouseout': {u'state': {u'target': [], u'time': []}, u'edge': {u'target': [], u'time': []}}}","[10, 5, 10]","[8520, 176, 670]",21.0,"[None, None, None]",522629,30.0,-1.5846922163129664e+18,mouselab-mdp,2
"[10482, 11066, 11659]","[u'right', u'right', u'down']",test,"[u'0', u'5', u'6', u'8']","{u'mouseover': {u'state': {u'target': [], u'time': []}, u'edge': {u'target': [], u'time': []}}, u'click': {u'state': {u'target': [u'1', u'2', u'4', u'9', u'5', u'6', u'8'], u'time': [1370, 2592, 4127, 5542, 6262, 7311, 8654]}, u'edge': {u'target': [], u'time': []}}, u'mouseout': {u'state': {u'target': [], u'time': []}, u'edge': {u'target': [], u'time': []}}}","[10, -5, 5]","[10480, 74, 99]",3.0,"[None, None, None]",537253,31.0,3.6695183518116547e+18,mouselab-mdp,2
"[6855, 7487, 8199]","[u'up', u'up', u'right']",test,"[u'0', u'1', u'2', u'3']","{u'mouseover': {u'state': {u'target': [], u'time': []}, u'edge': {u'target': [], u'time': []}}, u'click': {u'state': {u'target': [u'1', u'2'], u'time': [1093, 2583]}, u'edge': {u'target': [], u'time': []}}, u'mouseout': {u'state': {u'target': [], u'time': []}, u'edge': {u'target': [], u'time': []}}}","[10, 10, 5]","[6854, 131, 207]",23.0,"[None, None, None]",548773,32.0,-1.4141965748565614e+17,mouselab-mdp,2
"[2027, 6356, 7266]","[u'up', u'up', u'left']",test,"[u'0', u'1', u'2', u'4']","{u'mouseover': {u'state': {u'target': [], u'time': []}, u'edge': {u'target': [], u'time': []}}, u'click': {u'state': {u'target': [], u'time': []}, u'edge': {u'target': [], u'time': []}}, u'mouseout': {u'state': {u'target': [], u'time': []}, u'edge': {u'target': [], u'time': []}}}","[-10, 5, -5]","[2025, 3835, 396]",-10.0,"[None, None, None]",560069,33.0,5.724401768725425e+18,mouselab-mdp,2
"[7770, 9098, 10051]","[u'up', u'up', u'right']",test,"[u'0', u'1', u'2', u'3']","{u'mouseover': {u'state': {u'target': [], u'time': []}, u'edge': {u'target': [], u'time': []}}, u'click': {u'state': {u'target': [u'9', u'1', u'5', u'2', u'4'], u'time': [1024, 1815, 2803, 4060, 6390]}, u'edge': {u'target': [], u'time': []}}, u'mouseout': {u'state': {u'target': [], u'time': []}, u'edge': {u'target': [], u'time': []}}}","[5, 10, 5]","[7768, 827, 464]",15.0,"[None, None, None]",573200,34.0,-2.401185042585887e+18,mouselab-mdp,2
"[7416, 8033, 8650]","[u'left', u'left', u'up']",test,"[u'0', u'9', u'10', u'11']","{u'mouseover': {u'state': {u'target': [], u'time': []}, u'edge': {u'target': [], u'time': []}}, u'click': {u'state': {u'target': [u'9', u'10', u'5', u'1', u'11'], u'time': [829, 1781, 3049, 3909, 6032]}, u'edge': {u'target': [], u'time': []}}, u'mouseout': {u'state': {u'target': [], u'time': []}, u'edge': {u'target': [], u'time': []}}}","[5, -5, 10]","[7414, 115, 115]",5.0,"[None, None, None]",584271,35.0,-6.467484867280245e+18,mouselab-mdp,2
"[5471, 6006, 6599]","[u'right', u'right', u'up']",test,"[u'0', u'5', u'6', u'7']","{u'mouseover': {u'state': {u'target': [], u'time': []}, u'edge': {u'target': [], u'time': []}}, u'click': {u'state': {u'target': [u'9', u'1', u'5', u'6', u'7'], u'time': [882, 1572, 2337, 3146, 4385]}, u'edge': {u'target': [], u'time': []}}, u'mouseout': {u'state': {u'target': [], u'time': []}, u'edge': {u'target': [], u'time': []}}}","[10, 5, 10]","[5469, 22, 96]",20.0,"[None, None, None]",592708,36.0,2.7573167158284186e+18,mouselab-mdp,2
"[4661, 5222, 5829]","[u'left', u'left', u'up']",test,"[u'0', u'9', u'10', u'11']","{u'mouseover': {u'state': {u'target': [], u'time': []}, u'edge': {u'target': [], u'time': []}}, u'click': {u'state': {u'target': [u'1', u'9', u'10', u'11'], u'time': [744, 1684, 2468, 3465]}, u'edge': {u'target': [], u'time': []}}, u'mouseout': {u'state': {u'target': [], u'time': []}, u'edge': {u'target': [], u'time': []}}}","[5, 10, 10]","[4660, 61, 103]",21.0,"[None, None, None]",604766,37.0,4.842692465290208e+18,mouselab-mdp,2
"[8148, 8692, 9340]","[u'left', u'left', u'up']",test,"[u'0', u'9', u'10', u'11']","{u'mouseover': {u'state': {u'target': [], u'time': []}, u'edge': {u'target': [], u'time': []}}, u'click': {u'state': {u'target': [u'9', u'10', u'11'], u'time': [3967, 5151, 5945]}, u'edge': {u'target': [], u'time': []}}, u'mouseout': {u'state': {u'target': [], u'time': []}, u'edge': {u'target': [], u'time': []}}}","[10, 10, 5]","[8146, 47, 128]",22.0,"[None, None, None]",616741,38.0,8.829151516447664e+18,mouselab-mdp,2
"[9838, 10382, 10942]","[u'up', u'up', u'right']",test,"[u'0', u'1', u'2', u'3']","{u'mouseover': {u'state': {u'target': [], u'time': []}, u'edge': {u'target': [], u'time': []}}, u'click': {u'state': {u'target': [u'9', u'5', u'6', u'1', u'2', u'4'], u'time': [710, 2188, 3776, 5055, 5995, 8696]}, u'edge': {u'target': [], u'time': []}}, u'mouseout': {u'state': {u'target': [], u'time': []}, u'edge': {u'target': [], u'time': []}}}","[10, 10, 10]","[9837, 35, 61]",24.0,"[None, None, None]",630508,39.0,7.553211965372142e+18,mouselab-mdp,2
"[5663, 6192, 6752]","[u'right', u'right', u'up']",test,"[u'0', u'5', u'6', u'7']","{u'mouseover': {u'state': {u'target': [], u'time': []}, u'edge': {u'target': [], u'time': []}}, u'click': {u'state': {u'target': [u'1', u'9', u'5', u'6', u'7'], u'time': [601, 1286, 2065, 3090, 4479]}, u'edge': {u'target': [], u'time': []}}, u'mouseout': {u'state': {u'target': [], u'time': []}, u'edge': {u'target': [], u'time': []}}}","[-5, 5, 5]","[5662, 37, 62]",0.0,"[None, None, None]",639380,40.0,9.041022091974375e+18,mouselab-mdp,2
"[11285, 11846, 12366]","[u'left', u'left', u'up']",test,"[u'0', u'9', u'10', u'11']","{u'mouseover': {u'state': {u'target': [], u'time': []}, u'edge': {u'target': [], u'time': []}}, u'click': {u'state': {u'target': [u'1', u'2', u'9', u'5', u'4', u'10', u'12', u'11'], u'time': [994, 1865, 2944, 3697, 4679, 7334, 8831, 9947]}, u'edge': {u'target': [], u'time': []}}, u'mouseout': {u'state': {u'target': [], u'time': []}, u'edge': {u'target': [], u'time': []}}}","[-5, 5, 10]","[11284, 59, 15]",2.0,"[None, None, None]",654101,41.0,-5.149457503050632e+18,mouselab-mdp,2
"[4467, 5043, 5651]","[u'left', u'left', u'up']",test,"[u'0', u'9', u'10', u'11']","{u'mouseover': {u'state': {u'target': [], u'time': []}, u'edge': {u'target': [], u'time': []}}, u'click': {u'state': {u'target': [u'1', u'9', u'10', u'12'], u'time': [713, 1379, 2203, 2917]}, u'edge': {u'target': [], u'time': []}}, u'mouseout': {u'state': {u'target': [], u'time': []}, u'edge': {u'target': [], u'time': []}}}","[10, -5, 10]","[4466, 74, 117]",11.0,"[None, None, None]",662372,42.0,-3.8790525829275725e+17,mouselab-mdp,2
"[7715, 8251, 8876]","[u'right', u'right', u'down']",test,"[u'0', u'5', u'6', u'8']","{u'mouseover': {u'state': {u'target': [], u'time': []}, u'edge': {u'target': [], u'time': []}}, u'click': {u'state': {u'target': [u'9', u'1', u'5', u'6', u'8'], u'time': [881, 2054, 2747, 3733, 6119]}, u'edge': {u'target': [], u'time': []}}, u'mouseout': {u'state': {u'target': [], u'time': []}, u'edge': {u'target': [], u'time': []}}}","[10, 10, 5]","[7714, 20, 129]",20.0,"[None, None, None]",673412,43.0,-3.081449241277774e+18,mouselab-mdp,2
"[5683, 6227, 6811]","[u'right', u'right', u'up']",test,"[u'0', u'5', u'6', u'7']","{u'mouseover': {u'state': {u'target': [], u'time': []}, u'edge': {u'target': [], u'time': []}}, u'click': {u'state': {u'target': [u'5', u'6', u'8'], u'time': [1897, 2950, 3745]}, u'edge': {u'target': [], u'time': []}}, u'mouseout': {u'state': {u'target': [], u'time': []}, u'edge': {u'target': [], u'time': []}}}","[5, 5, 5]","[5681, 27, 97]",12.0,"[None, None, None]",683316,44.0,1.3765381945531668e+18,mouselab-mdp,2
"[5343, 5841, 6407]","[u'up', u'up', u'left']",test,"[u'0', u'1', u'2', u'4']","{u'mouseover': {u'state': {u'target': [], u'time': []}, u'edge': {u'target': [], u'time': []}}, u'click': {u'state': {u'target': [u'9', u'1', u'2', u'4'], u'time': [989, 1867, 2792, 4368]}, u'edge': {u'target': [], u'time': []}}, u'mouseout': {u'state': {u'target': [], u'time': []}, u'edge': {u'target': [], u'time': []}}}","[10, 10, 10]","[5342, 1, 34]",26.0,"[None, None, None]",691939,45.0,-5.630369455004455e+18,mouselab-mdp,2
"[4493, 5734, 6301]","[u'up', u'up', u'left']",test,"[u'0', u'1', u'2', u'4']","{u'mouseover': {u'state': {u'target': [], u'time': []}, u'edge': {u'target': [], u'time': []}}, u'click': {u'state': {u'target': [u'1', u'2', u'4'], u'time': [995, 1924, 2992]}, u'edge': {u'target': [], u'time': []}}, u'mouseout': {u'state': {u'target': [], u'time': []}, u'edge': {u'target': [], u'time': []}}}","[10, -5, 5]","[4491, 725, 77]",7.0,"[None, None, None]",700461,46.0,3.0262455045681644e+18,mouselab-mdp,2
"[14796, 15354, 15945]","[u'up', u'up', u'right']",test,"[u'0', u'1', u'2', u'3']","{u'mouseover': {u'state': {u'target': [], u'time': []}, u'edge': {u'target': [], u'time': []}}, u'click': {u'state': {u'target': [u'1', u'2', u'3'], u'time': [10177, 11791, 13147]}, u'edge': {u'target': [], u'time': []}}, u'mouseout': {u'state': {u'target': [], u'time': []}, u'edge': {u'target': [], u'time': []}}}","[10, -10, 10]","[14789, 60, 86]",7.0,"[None, None, None]",718948,47.0,7.211868466475451e+18,mouselab-mdp,2
"[8584, 9930, 10505]","[u'up', u'up', u'right']",test,"[u'0', u'1', u'2', u'3']","{u'mouseover': {u'state': {u'target': [], u'time': []}, u'edge': {u'target': [], u'time': []}}, u'click': {u'state': {u'target': [u'1', u'2', u'9', u'5', u'4', u'3'], u'time': [856, 2234, 4453, 5340, 6377, 7297]}, u'edge': {u'target': [], u'time': []}}, u'mouseout': {u'state': {u'target': [], u'time': []}, u'edge': {u'target': [], u'time': []}}}","[5, -10, 10]","[8583, 851, 74]",-1.0,"[None, None, None]",731605,48.0,8.892810546696874e+17,mouselab-mdp,2
"[9139, 9645, 10226]","[u'up', u'up', u'right']",test,"[u'0', u'1', u'2', u'3']","{u'mouseover': {u'state': {u'target': [], u'time': []}, u'edge': {u'target': [], u'time': []}}, u'click': {u'state': {u'target': [u'1', u'9', u'5', u'6', u'8', u'7', u'2', u'3'], u'time': [548, 1400, 2696, 3533, 4427, 5280, 6523, 8051]}, u'edge': {u'target': [], u'time': []}}, u'mouseout': {u'state': {u'target': [], u'time': []}, u'edge': {u'target': [], u'time': []}}}","[-10, 10, 10]","[9133, 2, 50]",2.0,"[None, None, None]",744478,49.0,4.339880646647608e+18,mouselab-mdp,2
"[12697, 15561, 17422]","[u'right', u'right', u'up']",train_basic,"[u'0', u'5', u'6', u'7']","{u'mouseover': {u'state': {u'target': [], u'time': []}, u'edge': {u'target': [], u'time': []}}, u'click': {u'state': {u'target': [], u'time': []}, u'edge': {u'target': [], u'time': []}}, u'mouseout': {u'state': {u'target': [], u'time': []}, u'edge': {u'target': [], u'time': []}}}","[-10, -5, -5]","[12694, 2359, 1354]",-20.0,"[None, None, None]",20149,0.0,6.300325444535346e+18,mouselab-mdp,3
"[2917, 3429, 4022]","[u'up', u'up', u'left']",train_basic,"[u'0', u'1', u'2', u'4']","{u'mouseover': {u'state': {u'target': [], u'time': []}, u'edge': {u'target': [], u'time': []}}, u'click': {u'state': {u'target': [], u'time': []}, u'edge': {u'target': [], u'time': []}}, u'mouseout': {u'state': {u'target': [], u'time': []}, u'edge': {u'target': [], u'time': []}}}","[10, 10, 10]","[2915, 8, 94]",30.0,"[None, None, None]",27268,1.0,-1.4141965748565614e+17,mouselab-mdp,3
"[2261, 2860, 3560]","[u'right', u'right', u'down']",train_basic,"[u'0', u'5', u'6', u'8']","{u'mouseover': {u'state': {u'target': [], u'time': []}, u'edge': {u'target': [], u'time': []}}, u'click': {u'state': {u'target': [], u'time': []}, u'edge': {u'target': [], u'time': []}}, u'mouseout': {u'state': {u'target': [], u'time': []}, u'edge': {u'target': [], u'time': []}}}","[5, 10, 5]","[2260, 98, 198]",20.0,"[None, None, None]",33813,2.0,-3.810609463936167e+18,mouselab-mdp,3
"[4189, 4736, 5338]","[u'right', u'right', u'down']",train_basic,"[u'0', u'5', u'6', u'8']","{u'mouseover': {u'state': {u'target': [], u'time': []}, u'edge': {u'target': [], u'time': []}}, u'click': {u'state': {u'target': [], u'time': []}, u'edge': {u'target': [], u'time': []}}, u'mouseout': {u'state': {u'target': [], u'time': []}, u'edge': {u'target': [], u'time': []}}}","[5, 10, 10]","[4187, 42, 103]",25.0,"[None, None, None]",41241,3.0,1.532043097573411e+18,mouselab-mdp,3
"[3709, 4505, 5185]","[u'left', u'left', u'down']",train_basic,"[u'0', u'9', u'10', u'12']","{u'mouseover': {u'state': {u'target': [], u'time': []}, u'edge': {u'target': [], u'time': []}}, u'click': {u'state': {u'target': [], u'time': []}, u'edge': {u'target': [], u'time': []}}, u'mouseout': {u'state': {u'target': [], u'time': []}, u'edge': {u'target': [], u'time': []}}}","[-5, 10, 10]","[3708, 290, 180]",15.0,"[None, None, None]",49036,4.0,-1.7794280299741353e+18,mouselab-mdp,3
"[4596, 5288, 5939]","[u'up', u'up', u'right']",train_basic,"[u'0', u'1', u'2', u'3']","{u'mouseover': {u'state': {u'target': [], u'time': []}, u'edge': {u'target': [], u'time': []}}, u'click': {u'state': {u'target': [], u'time': []}, u'edge': {u'target': [], u'time': []}}, u'mouseout': {u'state': {u'target': [], u'time': []}, u'edge': {u'target': [], u'time': []}}}","[-10, 10, 5]","[4594, 180, 147]",5.0,"[None, None, None]",57277,5.0,-5.559450979544907e+18,mouselab-mdp,3
"[675, 1185, 1840]","[u'left', u'left', u'down']",train_basic,"[u'0', u'9', u'10', u'12']","{u'mouseover': {u'state': {u'target': [], u'time': []}, u'edge': {u'target': [], u'time': []}}, u'click': {u'state': {u'target': [], u'time': []}, u'edge': {u'target': [], u'time': []}}, u'mouseout': {u'state': {u'target': [], u'time': []}, u'edge': {u'target': [], u'time': []}}}","[5, 10, 5]","[673, 7, 153]",20.0,"[None, None, None]",61214,6.0,4.842692465290208e+18,mouselab-mdp,3
"[720, 1266, 1938]","[u'up', u'up', u'right']",train_basic,"[u'0', u'1', u'2', u'3']","{u'mouseover': {u'state': {u'target': [], u'time': []}, u'edge': {u'target': [], u'time': []}}, u'click': {u'state': {u'target': [], u'time': []}, u'edge': {u'target': [], u'time': []}}, u'mouseout': {u'state': {u'target': [], u'time': []}, u'edge': {u'target': [], u'time': []}}}","[5, 5, 10]","[719, 44, 174]",20.0,"[None, None, None]",64902,7.0,-8.208271881207171e+18,mouselab-mdp,3
"[629, 2256, 2851]","[u'up', u'up', u'right']",train_basic,"[u'0', u'1', u'2', u'3']","{u'mouseover': {u'state': {u'target': [], u'time': []}, u'edge': {u'target': [], u'time': []}}, u'click': {u'state': {u'target': [], u'time': []}, u'edge': {u'target': [], u'time': []}}, u'mouseout': {u'state': {u'target': [], u'time': []}, u'edge': {u'target': [], u'time': []}}}","[10, 10, 5]","[627, 1122, 92]",25.0,"[None, None, None]",69975,8.0,2.0031782822548767e+18,mouselab-mdp,3
"[756, 1369, 1949]","[u'up', u'up', u'right']",train_basic,"[u'0', u'1', u'2', u'3']","{u'mouseover': {u'state': {u'target': [], u'time': []}, u'edge': {u'target': [], u'time': []}}, u'click': {u'state': {u'target': [], u'time': []}, u'edge': {u'target': [], u'time': []}}, u'mouseout': {u'state': {u'target': [], u'time': []}, u'edge': {u'target': [], u'time': []}}}","[-10, 5, 10]","[755, 108, 83]",5.0,"[None, None, None]",73840,9.0,-4.063481521815622e+18,mouselab-mdp,3
"[10576, 11581, 12249]","[u'up', u'up', u'right']",train_hidden,"[u'0', u'1', u'2', u'3']","{u'mouseover': {u'state': {u'target': [], u'time': []}, u'edge': {u'target': [], u'time': []}}, u'click': {u'state': {u'target': [], u'time': []}, u'edge': {u'target': [], u'time': []}}, u'mouseout': {u'state': {u'target': [], u'time': []}, u'edge': {u'target': [], u'time': []}}}","[5, 5, -10]","[10575, 504, 165]",0.0,"[None, None, None]",90250,10.0,2.702860947760116e+18,mouselab-mdp,3
"[1183, 1788, 2390]","[u'right', u'right', u'down']",train_hidden,"[u'0', u'5', u'6', u'8']","{u'mouseover': {u'state': {u'target': [], u'time': []}, u'edge': {u'target': [], u'time': []}}, u'click': {u'state': {u'target': [], u'time': []}, u'edge': {u'target': [], u'time': []}}, u'mouseout': {u'state': {u'target': [], u'time': []}, u'edge': {u'target': [], u'time': []}}}","[10, 10, 5]","[1182, 105, 104]",25.0,"[None, None, None]",94879,11.0,7.868762594467914e+18,mouselab-mdp,3
"[175, 679, 1369]","[u'right', u'right', u'down']",train_hidden,"[u'0', u'5', u'6', u'8']","{u'mouseover': {u'state': {u'target': [], u'time': []}, u'edge': {u'target': [], u'time': []}}, u'click': {u'state': {u'target': [], u'time': []}, u'edge': {u'target': [], u'time': []}}, u'mouseout': {u'state': {u'target': [], u'time': []}, u'edge': {u'target': [], u'time': []}}}","[10, 5, -10]","[174, 5, 189]",5.0,"[None, None, None]",98036,12.0,-7.299700932651748e+18,mouselab-mdp,3
"[160, 684, 1566]","[u'right', u'right', u'up']",train_hidden,"[u'0', u'5', u'6', u'7']","{u'mouseover': {u'state': {u'target': [], u'time': []}, u'edge': {u'target': [], u'time': []}}, u'click': {u'state': {u'target': [], u'time': []}, u'edge': {u'target': [], u'time': []}}, u'mouseout': {u'state': {u'target': [], u'time': []}, u'edge': {u'target': [], u'time': []}}}","[-10, -10, -5]","[158, 24, 379]",-25.0,"[None, None, None]",101269,13.0,6.301694736193464e+17,mouselab-mdp,3
"[56, 651, 1332]","[u'right', u'right', u'up']",train_hidden,"[u'0', u'5', u'6', u'7']","{u'mouseover': {u'state': {u'target': [], u'time': []}, u'edge': {u'target': [], u'time': []}}, u'click': {u'state': {u'target': [], u'time': []}, u'edge': {u'target': [], u'time': []}}, u'mouseout': {u'state': {u'target': [], u'time': []}, u'edge': {u'target': [], u'time': []}}}","[-10, 5, -5]","[55, 93, 177]",-10.0,"[None, None, None]",104401,14.0,-3.5260456632436096e+17,mouselab-mdp,3
"[512, 1136, 1898]","[u'up', u'up', u'left']",train_inspector,"[u'0', u'1', u'2', u'4']","{u'mouseover': {u'state': {u'target': [], u'time': []}, u'edge': {u'target': [], u'time': []}}, u'click': {u'state': {u'target': [], u'time': []}, u'edge': {u'target': [], u'time': []}}, u'mouseout': {u'state': {u'target': [], u'time': []}, u'edge': {u'target': [], u'time': []}}}","[-10, -10, -5]","[511, 122, 263]",-25.0,"[None, None, None]",109568,15.0,2.7573167158284186e+18,mouselab-mdp,3
"[12357, 12893, 13431]","[u'up', u'up', u'left']",train_inspector,"[u'0', u'1', u'2', u'4']","{u'mouseover': {u'state': {u'target': [], u'time': []}, u'edge': {u'target': [], u'time': []}}, u'click': {u'state': {u'target': [u'1', u'2', u'3', u'4', u'5', u'6', u'7', u'8', u'9', u'10', u'11', u'12'], u'time': [5232, 5642, 6378, 7235, 7921, 8271, 8520, 8903, 9504, 9759, 10041, 11113]}, u'edge': {u'target': [], u'time': []}}, u'mouseout': {u'state': {u'target': [], u'time': []}, u'edge': {u'target': [], u'time': []}}}","[-10, 5, 10]","[12355, 35, 38]",5.0,"[None, None, None]",126074,16.0,2.5857685737037445e+18,mouselab-mdp,3
"[2552, 3059, 3797]","[u'up', u'up', u'left']",train_inspector,"[u'0', u'1', u'2', u'4']","{u'mouseover': {u'state': {u'target': [], u'time': []}, u'edge': {u'target': [], u'time': []}}, u'click': {u'state': {u'target': [u'1', u'2', u'3', u'4'], u'time': [968, 1222, 1459, 1783]}, u'edge': {u'target': [], u'time': []}}, u'mouseout': {u'state': {u'target': [], u'time': []}, u'edge': {u'target': [], u'time': []}}}","[5, 10, 5]","[2550, 7, 237]",20.0,"[None, None, None]",131905,17.0,1.660935089319862e+18,mouselab-mdp,3
"[5747, 6306, 6931]","[u'right', u'right', u'down']",train_inspector,"[u'0', u'5', u'6', u'8']","{u'mouseover': {u'state': {u'target': [], u'time': []}, u'edge': {u'target': [], u'time': []}}, u'click': {u'state': {u'target': [u'6', u'5', u'8', u'7', u'1', u'2', u'10', u'9'], u'time': [741, 1127, 1770, 2390, 3207, 3452, 4701, 5109]}, u'edge': {u'target': [], u'time': []}}, u'mouseout': {u'state': {u'target': [], u'time': []}, u'edge': {u'target': [], u'time': []}}}","[-5, 5, 10]","[5746, 60, 121]",10.0,"[None, None, None]",140813,18.0,5.015924348765825e+18,mouselab-mdp,3
"[6023, 6601, 7263]","[u'up', u'up', u'right']",train_inspector,"[u'0', u'1', u'2', u'3']","{u'mouseover': {u'state': {u'target': [], u'time': []}, u'edge': {u'target': [], u'time': []}}, u'click': {u'state': {u'target': [u'1', u'2', u'3', u'5', u'6', u'10', u'9'], u'time': [1535, 1777, 2086, 2825, 3058, 4664, 4989]}, u'edge': {u'target': [], u'time': []}}, u'mouseout': {u'state': {u'target': [], u'time': []}, u'edge': {u'target': [], u'time': []}}}","[10, -5, 10]","[6022, 75, 161]",15.0,"[None, None, None]",150216,19.0,7.91556335598923e+18,mouselab-mdp,3
"[1301, 3009, 3616]","[u'up', u'up', u'right']",train_inspect_cost,"[u'0', u'1', u'2', u'3']","{u'mouseover': {u'state': {u'target': [], u'time': []}, u'edge': {u'target': [], u'time': []}}, u'click': {u'state': {u'target': [], u'time': []}, u'edge': {u'target': [], u'time': []}}, u'mouseout': {u'state': {u'target': [], u'time': []}, u'edge': {u'target': [], u'time': []}}}","[5, -10, 10]","[1299, 1203, 107]",5.0,"[None, None, None]",157232,20.0,-8.965170723769651e+18,mouselab-mdp,3
"[364, 950, 1840]","[u'right', u'right', u'down']",train_inspect_cost,"[u'0', u'5', u'6', u'8']","{u'mouseover': {u'state': {u'target': [], u'time': []}, u'edge': {u'target': [], u'time': []}}, u'click': {u'state': {u'target': [], u'time': []}, u'edge': {u'target': [], u'time': []}}, u'mouseout': {u'state': {u'target': [], u'time': []}, u'edge': {u'target': [], u'time': []}}}","[-5, -5, -5]","[363, 85, 393]",-15.0,"[None, None, None]",160849,21.0,6.995680039972448e+17,mouselab-mdp,3
"[132, 696, 1292]","[u'up', u'up', u'left']",train_inspect_cost,"[u'0', u'1', u'2', u'4']","{u'mouseover': {u'state': {u'target': [], u'time': []}, u'edge': {u'target': [], u'time': []}}, u'click': {u'state': {u'target': [], u'time': []}, u'edge': {u'target': [], u'time': []}}, u'mouseout': {u'state': {u'target': [], u'time': []}, u'edge': {u'target': [], u'time': []}}}","[5, 10, 5]","[130, 61, 94]",20.0,"[None, None, None]",163944,22.0,-7.824465990977061e+18,mouselab-mdp,3
"[122, 800, 1459]","[u'up', u'up', u'right']",train_inspect_cost,"[u'0', u'1', u'2', u'3']","{u'mouseover': {u'state': {u'target': [], u'time': []}, u'edge': {u'target': [], u'time': []}}, u'click': {u'state': {u'target': [], u'time': []}, u'edge': {u'target': [], u'time': []}}, u'mouseout': {u'state': {u'target': [], u'time': []}, u'edge': {u'target': [], u'time': []}}}","[5, -10, 10]","[120, 174, 157]",5.0,"[None, None, None]",167239,23.0,5.309248044539889e+18,mouselab-mdp,3
"[664, 1397, 2009]","[u'left', u'left', u'down']",train_inspect_cost,"[u'0', u'9', u'10', u'12']","{u'mouseover': {u'state': {u'target': [], u'time': []}, u'edge': {u'target': [], u'time': []}}, u'click': {u'state': {u'target': [], u'time': []}, u'edge': {u'target': [], u'time': []}}, u'mouseout': {u'state': {u'target': [], u'time': []}, u'edge': {u'target': [], u'time': []}}}","[10, 5, -5]","[661, 233, 108]",10.0,"[None, None, None]",171012,24.0,-6.909700207174625e+18,mouselab-mdp,3
"[7383, 7998, 8640]","[u'up', u'up', u'right']",train_final,"[u'0', u'1', u'2', u'3']","{u'mouseover': {u'state': {u'target': [], u'time': []}, u'edge': {u'target': [], u'time': []}}, u'click': {u'state': {u'target': [], u'time': []}, u'edge': {u'target': [], u'time': []}}, u'mouseout': {u'state': {u'target': [], u'time': []}, u'edge': {u'target': [], u'time': []}}}","[10, -10, 10]","[7382, 110, 142]",10.0,"[None, None, None]",183037,25.0,-5.0462050224693914e+17,mouselab-mdp,3
"[269, 923, 1720]","[u'right', u'right', u'down']",train_final,"[u'0', u'5', u'6', u'8']","{u'mouseover': {u'state': {u'target': [], u'time': []}, u'edge': {u'target': [], u'time': []}}, u'click': {u'state': {u'target': [], u'time': []}, u'edge': {u'target': [], u'time': []}}, u'mouseout': {u'state': {u'target': [], u'time': []}, u'edge': {u'target': [], u'time': []}}}","[-5, 5, -10]","[268, 150, 294]",-10.0,"[None, None, None]",186424,26.0,8.829151516447664e+18,mouselab-mdp,3
"[99, 842, 1546]","[u'left', u'left', u'down']",train_final,"[u'0', u'9', u'10', u'12']","{u'mouseover': {u'state': {u'target': [], u'time': []}, u'edge': {u'target': [], u'time': []}}, u'click': {u'state': {u'target': [], u'time': []}, u'edge': {u'target': [], u'time': []}}, u'mouseout': {u'state': {u'target': [], u'time': []}, u'edge': {u'target': [], u'time': []}}}","[10, 5, 5]","[98, 243, 204]",20.0,"[None, None, None]",189646,27.0,-2.6765330699051464e+18,mouselab-mdp,3
"[269, 1043, 1749]","[u'left', u'left', u'down']",train_final,"[u'0', u'9', u'10', u'12']","{u'mouseover': {u'state': {u'target': [], u'time': []}, u'edge': {u'target': [], u'time': []}}, u'click': {u'state': {u'target': [], u'time': []}, u'edge': {u'target': [], u'time': []}}, u'mouseout': {u'state': {u'target': [], u'time': []}, u'edge': {u'target': [], u'time': []}}}","[-10, -5, -5]","[268, 275, 203]",-20.0,"[None, None, None]",193303,28.0,4.126289696711771e+18,mouselab-mdp,3
"[141, 823, 1385]","[u'up', u'up', u'right']",train_final,"[u'0', u'1', u'2', u'3']","{u'mouseover': {u'state': {u'target': [], u'time': []}, u'edge': {u'target': [], u'time': []}}, u'click': {u'state': {u'target': [], u'time': []}, u'edge': {u'target': [], u'time': []}}, u'mouseout': {u'state': {u'target': [], u'time': []}, u'edge': {u'target': [], u'time': []}}}","[10, -10, -5]","[139, 181, 61]",-5.0,"[None, None, None]",196316,29.0,8.845312654804484e+18,mouselab-mdp,3
"[3866, 4412, 4937]","[u'right', u'right', u'down']",test,"[u'0', u'5', u'6', u'8']","{u'mouseover': {u'state': {u'target': [], u'time': []}, u'edge': {u'target': [], u'time': []}}, u'click': {u'state': {u'target': [u'5', u'6', u'8'], u'time': [2051, 2470, 2879]}, u'edge': {u'target': [], u'time': []}}, u'mouseout': {u'state': {u'target': [], u'time': []}, u'edge': {u'target': [], u'time': []}}}","[-5, 10, 10]","[3863, 47, 21]",12.0,"[None, None, None]",234190,30.0,-4.167587722078449e+18,mouselab-mdp,3
"[3832, 4471, 5176]","[u'left', u'left', u'up']",test,"[u'0', u'9', u'10', u'11']","{u'mouseover': {u'state': {u'target': [], u'time': []}, u'edge': {u'target': [], u'time': []}}, u'click': {u'state': {u'target': [u'9', u'10', u'11'], u'time': [1054, 2500, 3082]}, u'edge': {u'target': [], u'time': []}}, u'mouseout': {u'state': {u'target': [], u'time': []}, u'edge': {u'target': [], u'time': []}}}","[10, 10, 5]","[3831, 134, 208]",22.0,"[None, None, None]",241801,31.0,-1.5846922163129664e+18,mouselab-mdp,3
"[4908, 5414, 5989]","[u'left', u'left', u'down']",test,"[u'0', u'9', u'10', u'12']","{u'mouseover': {u'state': {u'target': [], u'time': []}, u'edge': {u'target': [], u'time': []}}, u'click': {u'state': {u'target': [u'5', u'9', u'12', u'10'], u'time': [1939, 2666, 3786, 4235]}, u'edge': {u'target': [], u'time': []}}, u'mouseout': {u'state': {u'target': [], u'time': []}, u'edge': {u'target': [], u'time': []}}}","[5, 5, 10]","[4907, 6, 73]",16.0,"[None, None, None]",249890,32.0,-2.7782514449718523e+18,mouselab-mdp,3
"[2867, 3372, 4015]","[u'left', u'left', u'down']",test,"[u'0', u'9', u'10', u'12']","{u'mouseover': {u'state': {u'target': [], u'time': []}, u'edge': {u'target': [], u'time': []}}, u'click': {u'state': {u'target': [u'9', u'10', u'12'], u'time': [846, 1318, 2071]}, u'edge': {u'target': [], u'time': []}}, u'mouseout': {u'state': {u'target': [], u'time': []}, u'edge': {u'target': [], u'time': []}}}","[10, 5, 10]","[2865, 2, 136]",22.0,"[None, None, None]",255639,33.0,1.0328961532146797e+17,mouselab-mdp,3
"[3261, 4496, 5141]","[u'right', u'right', u'up']",test,"[u'0', u'5', u'6', u'7']","{u'mouseover': {u'state': {u'target': [], u'time': []}, u'edge': {u'target': [], u'time': []}}, u'click': {u'state': {u'target': [u'5', u'6', u'8', u'7'], u'time': [1135, 1506, 1838, 2603]}, u'edge': {u'target': [], u'time': []}}, u'mouseout': {u'state': {u'target': [], u'time': []}, u'edge': {u'target': [], u'time': []}}}","[5, 5, 10]","[3259, 733, 140]",16.0,"[None, None, None]",262874,34.0,4.621247487711653e+18,mouselab-mdp,3
"[9051, 9559, 10586]","[u'right', u'right', u'down']",test,"[u'0', u'5', u'6', u'8']","{u'mouseover': {u'state': {u'target': [], u'time': []}, u'edge': {u'target': [], u'time': []}}, u'click': {u'state': {u'target': [u'9', u'10', u'1', u'2', u'4', u'5', u'6', u'8'], u'time': [945, 1224, 4277, 4796, 5594, 6410, 7382, 7734]}, u'edge': {u'target': [], u'time': []}}, u'mouseout': {u'state': {u'target': [], u'time': []}, u'edge': {u'target': [], u'time': []}}}","[5, -10, 10]","[9050, 2, 523]",-3.0,"[None, None, None]",275432,35.0,3.812331254939213e+18,mouselab-mdp,3
"[2136, 2769, 3668]","[u'right', u'right', u'down']",test,"[u'0', u'5', u'6', u'8']","{u'mouseover': {u'state': {u'target': [], u'time': []}, u'edge': {u'target': [], u'time': []}}, u'click': {u'state': {u'target': [u'5', u'6', u'8'], u'time': [552, 1058, 1443]}, u'edge': {u'target': [], u'time': []}}, u'mouseout': {u'state': {u'target': [], u'time': []}, u'edge': {u'target': [], u'time': []}}}","[5, 5, 10]","[2135, 134, 399]",17.0,"[None, None, None]",281508,36.0,2.102736855806764e+18,mouselab-mdp,3
"[3498, 4004, 4841]","[u'right', u'right', u'up']",test,"[u'0', u'5', u'6', u'7']","{u'mouseover': {u'state': {u'target': [], u'time': []}, u'edge': {u'target': [], u'time': []}}, u'click': {u'state': {u'target': [u'5', u'6', u'8', u'7'], u'time': [717, 1035, 1350, 2884]}, u'edge': {u'target': [], u'time': []}}, u'mouseout': {u'state': {u'target': [], u'time': []}, u'edge': {u'target': [], u'time': []}}}","[10, 10, 5]","[3497, 4, 333]",21.0,"[None, None, None]",288501,37.0,-5.630369455004455e+18,mouselab-mdp,3
"[484, 1346, 1984]","[u'right', u'right', u'down']",test,"[u'0', u'5', u'6', u'8']","{u'mouseover': {u'state': {u'target': [], u'time': []}, u'edge': {u'target': [], u'time': []}}, u'click': {u'state': {u'target': [], u'time': []}, u'edge': {u'target': [], u'time': []}}, u'mouseout': {u'state': {u'target': [], u'time': []}, u'edge': {u'target': [], u'time': []}}}","[-5, -5, 5]","[483, 360, 137]",-5.0,"[None, None, None]",292450,38.0,-8.685761292807083e+18,mouselab-mdp,3
"[6136, 6723, 7347]","[u'left', u'left', u'down']",test,"[u'0', u'9', u'10', u'12']","{u'mouseover': {u'state': {u'target': [], u'time': []}, u'edge': {u'target': [], u'time': []}}, u'click': {u'state': {u'target': [u'9', u'5', u'1', u'2', u'3', u'4', u'10', u'12'], u'time': [1082, 1783, 2504, 3091, 3778, 4489, 5051, 5494]}, u'edge': {u'target': [], u'time': []}}, u'mouseout': {u'state': {u'target': [], u'time': []}, u'edge': {u'target': [], u'time': []}}}","[-10, 10, 5]","[6135, 86, 120]",-3.0,"[None, None, None]",301684,39.0,5.724401768725425e+18,mouselab-mdp,3
"[76, 749, 1442]","[u'left', u'left', u'down']",test,"[u'0', u'9', u'10', u'12']","{u'mouseover': {u'state': {u'target': [], u'time': []}, u'edge': {u'target': [], u'time': []}}, u'click': {u'state': {u'target': [], u'time': []}, u'edge': {u'target': [], u'time': []}}, u'mouseout': {u'state': {u'target': [], u'time': []}, u'edge': {u'target': [], u'time': []}}}","[-5, 5, -10]","[74, 172, 189]",-10.0,"[None, None, None]",304767,40.0,-3.650836633176822e+16,mouselab-mdp,3
"[263, 1644, 2613]","[u'right', u'right', u'down']",test,"[u'0', u'5', u'6', u'8']","{u'mouseover': {u'state': {u'target': [], u'time': []}, u'edge': {u'target': [], u'time': []}}, u'click': {u'state': {u'target': [], u'time': []}, u'edge': {u'target': [], u'time': []}}, u'mouseout': {u'state': {u'target': [], u'time': []}, u'edge': {u'target': [], u'time': []}}}","[5, -10, 5]","[262, 881, 466]",0.0,"[None, None, None]",309223,41.0,3.6370751421926886e+18,mouselab-mdp,3
"[4911, 5764, 8470]","[u'left', u'left', u'up']",test,"[u'0', u'9', u'10', u'11']","{u'mouseover': {u'state': {u'target': [], u'time': []}, u'edge': {u'target': [], u'time': []}}, u'click': {u'state': {u'target': [u'1', u'9', u'5'], u'time': [1928, 2924, 3959]}, u'edge': {u'target': [], u'time': []}}, u'mouseout': {u'state': {u'target': [], u'time': []}, u'edge': {u'target': [], u'time': []}}}","[10, -5, 10]","[4910, 348, 2205]",12.0,"[None, None, None]",320036,42.0,-3.06599297092415e+18,mouselab-mdp,3
"[6692, 7346, 7943]","[u'up', u'up', u'right']",test,"[u'0', u'1', u'2', u'3']","{u'mouseover': {u'state': {u'target': [], u'time': []}, u'edge': {u'target': [], u'time': []}}, u'click': {u'state': {u'target': [u'10', u'6', u'5', u'9', u'1', u'2', u'3'], u'time': [839, 1880, 3182, 4037, 4456, 4855, 5958]}, u'edge': {u'target': [], u'time': []}}, u'mouseout': {u'state': {u'target': [], u'time': []}, u'edge': {u'target': [], u'time': []}}}","[-5, 5, 10]","[6690, 156, 98]",3.0,"[None, None, None]",329839,43.0,9.182422570892963e+18,mouselab-mdp,3
"[3702, 4337, 5015]","[u'left', u'left', u'up']",test,"[u'0', u'9', u'10', u'11']","{u'mouseover': {u'state': {u'target': [], u'time': []}, u'edge': {u'target': [], u'time': []}}, u'click': {u'state': {u'target': [u'10', u'9', u'11', u'12'], u'time': [1397, 2020, 2519, 2973]}, u'edge': {u'target': [], u'time': []}}, u'mouseout': {u'state': {u'target': [], u'time': []}, u'edge': {u'target': [], u'time': []}}}","[-5, 5, 10]","[3701, 136, 174]",6.0,"[None, None, None]",336588,44.0,-5.149457503050632e+18,mouselab-mdp,3
