action_times,actions,block,path,queries,rewards,rt,score,simulation_mode,state_rewards,time_elapsed,trial_index,trial_time,trial_id,trial_type,pid
"[10481, 19842, 21842]","[u'up', u'up', u'left']",train_basic,"[u'0', u'1', u'2', u'4']","{u'mouseover': {u'state': {u'target': [], u'time': []}, u'edge': {u'target': [], u'time': []}}, u'click': {u'state': {u'target': [], u'time': []}, u'edge': {u'target': [], u'time': []}}, u'mouseout': {u'state': {u'target': [], u'time': []}, u'edge': {u'target': [], u'time': []}}}","[4, -4, -24]","[10477, 8852, 1487]",-24.0,"[None, None, None]","[u'', 4, -4, -48, -24, 2, 4, 48, -48, -4, 4, 48, -48]",28913,0.0,28761.0,2.61402596453e+18,mouselab-mdp,0
"[2460, 3435, 4644]","[u'up', u'up', u'left']",train_basic,"[u'0', u'1', u'2', u'4']","{u'mouseover': {u'state': {u'target': [], u'time': []}, u'edge': {u'target': [], u'time': []}}, u'click': {u'state': {u'target': [], u'time': []}, u'edge': {u'target': [], u'time': []}}, u'mouseout': {u'state': {u'target': [], u'time': []}, u'edge': {u'target': [], u'time': []}}}","[2, 8, 48]","[2457, 467, 692]",58.0,"[None, None, None]","[u'', 2, 8, 48, 48, -4, -8, 24, 48, 4, 4, 48, 24]",37368,1.0,7348.0,4.61011171886e+17,mouselab-mdp,0
"[5526, 6734, 7958]","[u'left', u'left', u'up']",train_basic,"[u'0', u'9', u'10', u'11']","{u'mouseover': {u'state': {u'target': [], u'time': []}, u'edge': {u'target': [], u'time': []}}, u'click': {u'state': {u'target': [], u'time': []}, u'edge': {u'target': [], u'time': []}}, u'mouseout': {u'state': {u'target': [], u'time': []}, u'edge': {u'target': [], u'time': []}}}","[4, -8, 48]","[5525, 529, 710]",44.0,"[None, None, None]","[u'', 2, 4, -48, 24, -4, 8, 24, -48, 4, -8, 48, 24]",48608,2.0,10134.0,8.56308195224e+18,mouselab-mdp,0
"[2942, 3920, 4712]","[u'left', u'left', u'down']",train_basic,"[u'0', u'9', u'10', u'12']","{u'mouseover': {u'state': {u'target': [], u'time': []}, u'edge': {u'target': [], u'time': []}}, u'click': {u'state': {u'target': [], u'time': []}, u'edge': {u'target': [], u'time': []}}, u'mouseout': {u'state': {u'target': [], u'time': []}, u'edge': {u'target': [], u'time': []}}}","[-2, 8, 48]","[2941, 469, 276]",54.0,"[None, None, None]","[u'', 2, 8, -48, -48, -4, 8, 24, 24, -2, 8, -24, 48]",57247,3.0,7543.0,-3.23598444488e+18,mouselab-mdp,0
"[1797, 2645, 3580]","[u'left', u'left', u'down']",train_basic,"[u'0', u'9', u'10', u'12']","{u'mouseover': {u'state': {u'target': [], u'time': []}, u'edge': {u'target': [], u'time': []}}, u'click': {u'state': {u'target': [], u'time': []}, u'edge': {u'target': [], u'time': []}}, u'mouseout': {u'state': {u'target': [], u'time': []}, u'edge': {u'target': [], u'time': []}}}","[2, 4, 48]","[1796, 330, 411]",54.0,"[None, None, None]","[u'', 4, -4, -48, 48, -4, 8, 48, -24, 2, 4, 24, 48]",65231,4.0,6908.0,-8.59112577635e+18,mouselab-mdp,0
"[5976, 6690, 7746]","[u'right', u'right', u'down']",train_basic2,"[u'0', u'5', u'6', u'8']","{u'mouseover': {u'state': {u'target': [], u'time': []}, u'edge': {u'target': [], u'time': []}}, u'click': {u'state': {u'target': [], u'time': []}, u'edge': {u'target': [], u'time': []}}, u'mouseout': {u'state': {u'target': [], u'time': []}, u'edge': {u'target': [], u'time': []}}}","[4, 8, 24]","[5974, 199, 536]",36.0,"[None, None, None]","[u'', -2, 4, 24, 24, 4, 8, -48, 24, -2, 8, -48, -24]",78287,5.0,9538.0,-9.08425462157e+18,mouselab-mdp,0
"[5298, 5967, 6870]","[u'up', u'up', u'right']",train_basic2,"[u'0', u'1', u'2', u'3']","{u'mouseover': {u'state': {u'target': [], u'time': []}, u'edge': {u'target': [], u'time': []}}, u'click': {u'state': {u'target': [], u'time': []}, u'edge': {u'target': [], u'time': []}}, u'mouseout': {u'state': {u'target': [], u'time': []}, u'edge': {u'target': [], u'time': []}}}","[-4, 4, 24]","[5297, 159, 395]",24.0,"[None, None, None]","[u'', -4, 4, 24, -24, 4, 4, -48, -48, -4, -4, -48, 24]",87951,6.0,8574.0,3.64738318725e+18,mouselab-mdp,0
"[2766, 3637, 4633]","[u'left', u'left', u'up']",train_basic2,"[u'0', u'9', u'10', u'11']","{u'mouseover': {u'state': {u'target': [], u'time': []}, u'edge': {u'target': [], u'time': []}}, u'click': {u'state': {u'target': [], u'time': []}, u'edge': {u'target': [], u'time': []}}, u'mouseout': {u'state': {u'target': [], u'time': []}, u'edge': {u'target': [], u'time': []}}}","[4, -4, 48]","[2765, 362, 490]",48.0,"[None, None, None]","[u'', 4, -8, 24, 24, 2, 4, -24, 24, 4, -4, 48, -48]",95335,7.0,6326.0,-7.87683644611e+18,mouselab-mdp,0
"[2096, 2821, 3773]","[u'right', u'right', u'up']",train_basic2,"[u'0', u'5', u'6', u'7']","{u'mouseover': {u'state': {u'target': [], u'time': []}, u'edge': {u'target': [], u'time': []}}, u'click': {u'state': {u'target': [], u'time': []}, u'edge': {u'target': [], u'time': []}}, u'mouseout': {u'state': {u'target': [], u'time': []}, u'edge': {u'target': [], u'time': []}}}","[4, 4, 48]","[2084, 203, 435]",56.0,"[None, None, None]","[u'', -4, -4, -48, 24, 4, 4, 48, -24, 4, -4, 48, 24]",101446,8.0,5028.0,1.51884547362e+18,mouselab-mdp,0
"[1383, 2110, 3126]","[u'right', u'right', u'up']",train_basic2,"[u'0', u'5', u'6', u'7']","{u'mouseover': {u'state': {u'target': [], u'time': []}, u'edge': {u'target': [], u'time': []}}, u'click': {u'state': {u'target': [], u'time': []}, u'edge': {u'target': [], u'time': []}}, u'mouseout': {u'state': {u'target': [], u'time': []}, u'edge': {u'target': [], u'time': []}}}","[4, 8, 48]","[1382, 212, 490]",60.0,"[None, None, None]","[u'', -2, -4, 48, -48, 4, 8, 48, 24, 2, -4, -48, -24]",106782,9.0,4278.0,-6.80295122046e+18,mouselab-mdp,0
"[5597, 6685, 7982]","[u'right', u'right', u'up']",train_hidden,"[u'0', u'5', u'6', u'7']","{u'mouseover': {u'state': {u'target': [], u'time': []}, u'edge': {u'target': [], u'time': []}}, u'click': {u'state': {u'target': [], u'time': []}, u'edge': {u'target': [], u'time': []}}, u'mouseout': {u'state': {u'target': [], u'time': []}, u'edge': {u'target': [], u'time': []}}}","[4, -8, 24]","[5596, 464, 679]",20.0,"[None, None, None]","[u'', -2, 4, 24, -24, 4, -8, 24, -24, 4, -4, 48, -24]",120295,10.0,9862.0,6.24243419021e+17,mouselab-mdp,0
"[1877, 3005, 4372]","[u'right', u'right', u'up']",train_hidden,"[u'0', u'5', u'6', u'7']","{u'mouseover': {u'state': {u'target': [], u'time': []}, u'edge': {u'target': [], u'time': []}}, u'click': {u'state': {u'target': [], u'time': []}, u'edge': {u'target': [], u'time': []}}, u'mouseout': {u'state': {u'target': [], u'time': []}, u'edge': {u'target': [], u'time': []}}}","[2, -4, 24]","[1873, 603, 857]",22.0,"[None, None, None]","[u'', 2, 4, -24, 48, 2, -4, 24, 24, 2, -4, -48, -24]",128022,11.0,6669.0,7.34135041139e+18,mouselab-mdp,0
"[1754, 2857, 3914]","[u'left', u'left', u'up']",train_hidden,"[u'0', u'9', u'10', u'11']","{u'mouseover': {u'state': {u'target': [], u'time': []}, u'edge': {u'target': [], u'time': []}}, u'click': {u'state': {u'target': [], u'time': []}, u'edge': {u'target': [], u'time': []}}, u'mouseout': {u'state': {u'target': [], u'time': []}, u'edge': {u'target': [], u'time': []}}}","[-2, -8, -24]","[1753, 583, 535]",-34.0,"[None, None, None]","[u'', 4, 4, 48, 24, 4, -4, 24, -48, -2, -8, -24, -48]",134734,12.0,5658.0,5.66248321882e+17,mouselab-mdp,0
"[1656, 2879, 4109]","[u'left', u'left', u'down']",train_hidden,"[u'0', u'9', u'10', u'12']","{u'mouseover': {u'state': {u'target': [], u'time': []}, u'edge': {u'target': [], u'time': []}}, u'click': {u'state': {u'target': [], u'time': []}, u'edge': {u'target': [], u'time': []}}, u'mouseout': {u'state': {u'target': [], u'time': []}, u'edge': {u'target': [], u'time': []}}}","[-2, -4, -48]","[1655, 711, 726]",-54.0,"[None, None, None]","[u'', -2, -8, 24, 24, 2, -4, 24, -48, -2, -4, -24, -48]",141734,13.0,5951.0,7.03712829593e+18,mouselab-mdp,0
"[852, 1850, 2995]","[u'right', u'right', u'up']",train_hidden,"[u'0', u'5', u'6', u'7']","{u'mouseover': {u'state': {u'target': [], u'time': []}, u'edge': {u'target': [], u'time': []}}, u'click': {u'state': {u'target': [], u'time': []}, u'edge': {u'target': [], u'time': []}}, u'mouseout': {u'state': {u'target': [], u'time': []}, u'edge': {u'target': [], u'time': []}}}","[4, 4, 24]","[851, 445, 640]",32.0,"[None, None, None]","[u'', -4, -8, -48, -48, 4, 4, 24, 48, -4, -4, 24, 48]",147310,14.0,4498.0,7.07260772545e+18,mouselab-mdp,0
"[4151, 4879, 5718]","[u'right', u'right', u'down']",train_inspector,"[u'0', u'5', u'6', u'8']","{u'mouseover': {u'state': {u'target': [], u'time': []}, u'edge': {u'target': [], u'time': []}}, u'click': {u'state': {u'target': [], u'time': []}, u'edge': {u'target': [], u'time': []}}, u'mouseout': {u'state': {u'target': [], u'time': []}, u'edge': {u'target': [], u'time': []}}}","[-4, 4, -48]","[4150, 212, 268]",-48.0,"[None, None, None]","[u'', -2, 8, 24, -48, -4, 4, -48, -48, -4, 8, 24, 48]",158126,15.0,7407.0,6.73604779987e+18,mouselab-mdp,0
"[739, 1563, 2683]","[u'right', u'right', u'up']",train_inspector,"[u'0', u'5', u'6', u'7']","{u'mouseover': {u'state': {u'target': [], u'time': []}, u'edge': {u'target': [], u'time': []}}, u'click': {u'state': {u'target': [], u'time': []}, u'edge': {u'target': [], u'time': []}}, u'mouseout': {u'state': {u'target': [], u'time': []}, u'edge': {u'target': [], u'time': []}}}","[4, -4, -48]","[738, 309, 598]",-48.0,"[None, None, None]","[u'', 4, 4, 48, -24, 4, -4, -48, 48, 2, -8, 48, 24]",166094,16.0,6899.0,-8.5802004347e+18,mouselab-mdp,0
"[776, 1768, 2944]","[u'up', u'up', u'left']",train_inspector,"[u'0', u'1', u'2', u'4']","{u'mouseover': {u'state': {u'target': [], u'time': []}, u'edge': {u'target': [], u'time': []}}, u'click': {u'state': {u'target': [], u'time': []}, u'edge': {u'target': [], u'time': []}}, u'mouseout': {u'state': {u'target': [], u'time': []}, u'edge': {u'target': [], u'time': []}}}","[-2, -8, 24]","[775, 485, 659]",14.0,"[None, None, None]","[u'', -2, -8, 48, 24, 4, 4, 48, 24, 2, -8, -24, -48]",171766,17.0,4616.0,-6.48073159306e+18,mouselab-mdp,0
"[1473, 2584, 3889]","[u'left', u'left', u'down']",train_inspector,"[u'0', u'9', u'10', u'12']","{u'mouseover': {u'state': {u'target': [], u'time': []}, u'edge': {u'target': [], u'time': []}}, u'click': {u'state': {u'target': [], u'time': []}, u'edge': {u'target': [], u'time': []}}, u'mouseout': {u'state': {u'target': [], u'time': []}, u'edge': {u'target': [], u'time': []}}}","[-2, -8, -24]","[1472, 605, 794]",-34.0,"[None, None, None]","[u'', 4, -8, -48, -24, -2, 8, 24, 48, -2, -8, -48, -24]",178924,18.0,6103.0,6.5627706739e+18,mouselab-mdp,0
"[1391, 2303, 3375]","[u'up', u'up', u'right']",train_inspector,"[u'0', u'1', u'2', u'3']","{u'mouseover': {u'state': {u'target': [], u'time': []}, u'edge': {u'target': [], u'time': []}}, u'click': {u'state': {u'target': [], u'time': []}, u'edge': {u'target': [], u'time': []}}, u'mouseout': {u'state': {u'target': [], u'time': []}, u'edge': {u'target': [], u'time': []}}}","[-4, 8, 48]","[1390, 403, 556]",52.0,"[None, None, None]","[u'', -4, 8, 48, -24, -2, 8, -24, -48, 4, 8, -24, 48]",185388,19.0,5406.0,-3.25400642005e+18,mouselab-mdp,0
"[927, 2023, 3007]","[u'up', u'up', u'right']",train_inspect_cost,"[u'0', u'1', u'2', u'3']","{u'mouseover': {u'state': {u'target': [], u'time': []}, u'edge': {u'target': [], u'time': []}}, u'click': {u'state': {u'target': [], u'time': []}, u'edge': {u'target': [], u'time': []}}, u'mouseout': {u'state': {u'target': [], u'time': []}, u'edge': {u'target': [], u'time': []}}}","[2, -8, 48]","[927, 591, 473]",42.0,"[None, None, None]","[u'', 2, -8, 48, -48, 4, -4, 48, 24, 2, -8, -48, -48]",193364,20.0,4599.0,8.63855716523e+17,mouselab-mdp,0
"[885, 1723, 2830]","[u'up', u'up', u'right']",train_inspect_cost,"[u'0', u'1', u'2', u'3']","{u'mouseover': {u'state': {u'target': [], u'time': []}, u'edge': {u'target': [], u'time': []}}, u'click': {u'state': {u'target': [], u'time': []}, u'edge': {u'target': [], u'time': []}}, u'mouseout': {u'state': {u'target': [], u'time': []}, u'edge': {u'target': [], u'time': []}}}","[-4, -8, -48]","[884, 227, 588]",-60.0,"[None, None, None]","[u'', -4, -8, -48, -48, -2, -8, -48, 48, -2, 4, -24, -24]",199460,21.0,5039.0,5.13027503751e+18,mouselab-mdp,0
"[928, 2233, 3273]","[u'right', u'right', u'down']",train_inspect_cost,"[u'0', u'5', u'6', u'8']","{u'mouseover': {u'state': {u'target': [], u'time': []}, u'edge': {u'target': [], u'time': []}}, u'click': {u'state': {u'target': [], u'time': []}, u'edge': {u'target': [], u'time': []}}, u'mouseout': {u'state': {u'target': [], u'time': []}, u'edge': {u'target': [], u'time': []}}}","[4, -8, 48]","[925, 785, 526]",44.0,"[None, None, None]","[u'', 2, 4, -24, 24, 4, -8, -48, 48, 2, 4, -48, -24]",205572,22.0,4889.0,-6.74953611422e+18,mouselab-mdp,0
"[1568, 2097, 2854]","[u'left', u'left', u'down']",train_inspect_cost,"[u'0', u'9', u'10', u'12']","{u'mouseover': {u'state': {u'target': [], u'time': []}, u'edge': {u'target': [], u'time': []}}, u'click': {u'state': {u'target': [], u'time': []}, u'edge': {u'target': [], u'time': []}}, u'mouseout': {u'state': {u'target': [], u'time': []}, u'edge': {u'target': [], u'time': []}}}","[2, 8, -48]","[1568, 7, 239]",-38.0,"[None, None, None]","[u'', 2, -8, 48, -48, -2, 8, -48, 24, 2, 8, -24, -48]",211322,23.0,4607.0,-5.29843985126e+18,mouselab-mdp,0
"[1203, 1918, 2861]","[u'right', u'right', u'up']",train_inspect_cost,"[u'0', u'5', u'6', u'7']","{u'mouseover': {u'state': {u'target': [], u'time': []}, u'edge': {u'target': [], u'time': []}}, u'click': {u'state': {u'target': [], u'time': []}, u'edge': {u'target': [], u'time': []}}, u'mouseout': {u'state': {u'target': [], u'time': []}, u'edge': {u'target': [], u'time': []}}}","[-2, -8, 48]","[1201, 194, 437]",38.0,"[None, None, None]","[u'', 2, 4, -24, 48, -2, -8, 48, 24, 4, 8, -48, -48]",216899,24.0,4509.0,-2.59753903185e+18,mouselab-mdp,0
"[750, 1529, 2170]","[u'up', u'up', u'left']",train_final,"[u'0', u'1', u'2', u'4']","{u'mouseover': {u'state': {u'target': [], u'time': []}, u'edge': {u'target': [], u'time': []}}, u'click': {u'state': {u'target': [], u'time': []}, u'edge': {u'target': [], u'time': []}}, u'mouseout': {u'state': {u'target': [], u'time': []}, u'edge': {u'target': [], u'time': []}}}","[-2, 4, -48]","[749, 267, 78]",-46.0,"[None, None, None]","[u'', -2, 4, 24, -48, 4, 8, 48, -24, 2, -4, 24, 48]",224380,25.0,3842.0,2.91138569029e+18,mouselab-mdp,0
"[1491, 2338, 3067]","[u'right', u'right', u'down']",train_final,"[u'0', u'5', u'6', u'8']","{u'mouseover': {u'state': {u'target': [], u'time': []}, u'edge': {u'target': [], u'time': []}}, u'click': {u'state': {u'target': [], u'time': []}, u'edge': {u'target': [], u'time': []}}, u'mouseout': {u'state': {u'target': [], u'time': []}, u'edge': {u'target': [], u'time': []}}}","[4, 8, 48]","[1490, 333, 209]",60.0,"[None, None, None]","[u'', -2, -4, 24, 24, 4, 8, -24, 48, -4, -8, -48, 24]",230275,26.0,4834.0,-1.75349825635e+18,mouselab-mdp,0
"[1854, 3126, 4348]","[u'right', u'right', u'down']",train_final,"[u'0', u'5', u'6', u'8']","{u'mouseover': {u'state': {u'target': [], u'time': []}, u'edge': {u'target': [], u'time': []}}, u'click': {u'state': {u'target': [], u'time': []}, u'edge': {u'target': [], u'time': []}}, u'mouseout': {u'state': {u'target': [], u'time': []}, u'edge': {u'target': [], u'time': []}}}","[-4, 8, -48]","[1853, 765, 703]",-44.0,"[None, None, None]","[u'', 4, 8, 24, 48, -4, 8, -48, -48, -2, -8, 24, -48]",237251,27.0,5918.0,-2.59634084751e+18,mouselab-mdp,0
"[1983, 2998, 4446]","[u'left', u'left', u'down']",train_final,"[u'0', u'9', u'10', u'12']","{u'mouseover': {u'state': {u'target': [], u'time': []}, u'edge': {u'target': [], u'time': []}}, u'click': {u'state': {u'target': [], u'time': []}, u'edge': {u'target': [], u'time': []}}, u'mouseout': {u'state': {u'target': [], u'time': []}, u'edge': {u'target': [], u'time': []}}}","[4, -8, 24]","[1982, 504, 934]",20.0,"[None, None, None]","[u'', -2, 4, -24, -24, -4, -8, 48, -24, 4, -8, -24, 24]",244403,28.0,6102.0,-5.12343493776e+16,mouselab-mdp,0
"[685, 1669, 2597]","[u'up', u'up', u'left']",train_final,"[u'0', u'1', u'2', u'4']","{u'mouseover': {u'state': {u'target': [], u'time': []}, u'edge': {u'target': [], u'time': []}}, u'click': {u'state': {u'target': [], u'time': []}, u'edge': {u'target': [], u'time': []}}, u'mouseout': {u'state': {u'target': [], u'time': []}, u'edge': {u'target': [], u'time': []}}}","[4, 4, 24]","[684, 466, 411]",32.0,"[None, None, None]","[u'', 4, 4, 48, 24, 4, 8, -24, -48, 2, -4, -48, 24]",250018,29.0,4292.0,-4.31551439298e+18,mouselab-mdp,0
"[2638, 3558, 4566]","[u'right', u'right', u'up']",test,"[u'0', u'5', u'6', u'7']","{u'mouseover': {u'state': {u'target': [], u'time': []}, u'edge': {u'target': [], u'time': []}}, u'click': {u'state': {u'target': [], u'time': []}, u'edge': {u'target': [], u'time': []}}, u'mouseout': {u'state': {u'target': [], u'time': []}, u'edge': {u'target': [], u'time': []}}}","[2, 4, -48]","[2636, 413, 486]",-42.0,"[None, None, None]","[u'', -2, 8, -24, 48, 2, 4, -48, 48, -2, 4, -24, -48]",305362,30.0,11197.0,-6.59366688781e+18,mouselab-mdp,0
"[691, 1544, 3355]","[u'right', u'right', u'up']",test,"[u'0', u'5', u'6', u'7']","{u'mouseover': {u'state': {u'target': [], u'time': []}, u'edge': {u'target': [], u'time': []}}, u'click': {u'state': {u'target': [], u'time': []}, u'edge': {u'target': [], u'time': []}}, u'mouseout': {u'state': {u'target': [], u'time': []}, u'edge': {u'target': [], u'time': []}}}","[-4, -4, 24]","[689, 230, 1290]",16.0,"[None, None, None]","[u'', -4, 4, 48, 48, -4, -4, 24, 48, -4, -8, -48, -24]",316106,31.0,9674.0,1.01062465419e+17,mouselab-mdp,0
"[779, 1492, 2292]","[u'right', u'right', u'up']",test,"[u'0', u'5', u'6', u'7']","{u'mouseover': {u'state': {u'target': [], u'time': []}, u'edge': {u'target': [], u'time': []}}, u'click': {u'state': {u'target': [], u'time': []}, u'edge': {u'target': [], u'time': []}}, u'mouseout': {u'state': {u'target': [], u'time': []}, u'edge': {u'target': [], u'time': []}}}","[-2, -8, 48]","[777, 207, 291]",38.0,"[None, None, None]","[u'', -4, -4, 48, -48, -2, -8, 48, 48, -4, -4, -48, 48]",326746,32.0,9589.0,7.16068933233e+18,mouselab-mdp,0
"[628, 1435, 2459]","[u'right', u'right', u'up']",test,"[u'0', u'5', u'6', u'7']","{u'mouseover': {u'state': {u'target': [], u'time': []}, u'edge': {u'target': [], u'time': []}}, u'click': {u'state': {u'target': [], u'time': []}, u'edge': {u'target': [], u'time': []}}, u'mouseout': {u'state': {u'target': [], u'time': []}, u'edge': {u'target': [], u'time': []}}}","[2, 4, -24]","[626, 285, 514]",-18.0,"[None, None, None]","[u'', -2, 8, 24, 48, 2, 4, -24, 24, 4, 8, 48, 24]",336225,33.0,8411.0,2.79012568045e+18,mouselab-mdp,0
"[696, 1384, 2360]","[u'right', u'right', u'up']",test,"[u'0', u'5', u'6', u'7']","{u'mouseover': {u'state': {u'target': [], u'time': []}, u'edge': {u'target': [], u'time': []}}, u'click': {u'state': {u'target': [], u'time': []}, u'edge': {u'target': [], u'time': []}}, u'mouseout': {u'state': {u'target': [], u'time': []}, u'edge': {u'target': [], u'time': []}}}","[2, -4, 48]","[695, 174, 462]",46.0,"[None, None, None]","[u'', -2, 8, 24, 48, 2, -4, 48, -48, 2, 8, 24, -48]",347217,34.0,9936.0,4.4604977699e+18,mouselab-mdp,0
"[2350, 4099, 4875]","[u'right', u'right', u'up']",test,"[u'0', u'5', u'6', u'7']","{u'mouseover': {u'state': {u'target': [], u'time': []}, u'edge': {u'target': [], u'time': []}}, u'click': {u'state': {u'target': [], u'time': []}, u'edge': {u'target': [], u'time': []}}, u'mouseout': {u'state': {u'target': [], u'time': []}, u'edge': {u'target': [], u'time': []}}}","[-4, -8, -24]","[2349, 1244, 270]",-36.0,"[None, None, None]","[u'', -4, 4, -24, 48, -4, -8, -24, 48, -4, 8, -24, -48]",356875,35.0,8589.0,-5.43332865612e+18,mouselab-mdp,0
"[672, 1439, 2352]","[u'right', u'right', u'up']",test,"[u'0', u'5', u'6', u'7']","{u'mouseover': {u'state': {u'target': [], u'time': []}, u'edge': {u'target': [], u'time': []}}, u'click': {u'state': {u'target': [], u'time': []}, u'edge': {u'target': [], u'time': []}}, u'mouseout': {u'state': {u'target': [], u'time': []}, u'edge': {u'target': [], u'time': []}}}","[-4, 8, -48]","[672, 254, 405]",-44.0,"[None, None, None]","[u'', 4, 8, -48, -48, -4, 8, -48, -24, 4, 4, 24, -24]",366618,36.0,8625.0,5.67377080633e+18,mouselab-mdp,0
"[13, 885, 1645]","[u'right', u'right', u'up']",test,"[u'0', u'5', u'6', u'7']","{u'mouseover': {u'state': {u'target': [], u'time': []}, u'edge': {u'target': [], u'time': []}}, u'click': {u'state': {u'target': [], u'time': []}, u'edge': {u'target': [], u'time': []}}, u'mouseout': {u'state': {u'target': [], u'time': []}, u'edge': {u'target': [], u'time': []}}}","[-4, -8, -24]","[11, 346, 240]",-36.0,"[None, None, None]","[u'', 2, -4, -48, 48, -4, -8, -24, -24, -4, 4, -48, 24]",377505,37.0,9669.0,-6.15791772037e+18,mouselab-mdp,0
"[685, 1421, 2429]","[u'right', u'right', u'up']",test,"[u'0', u'5', u'6', u'7']","{u'mouseover': {u'state': {u'target': [], u'time': []}, u'edge': {u'target': [], u'time': []}}, u'click': {u'state': {u'target': [], u'time': []}, u'edge': {u'target': [], u'time': []}}, u'mouseout': {u'state': {u'target': [], u'time': []}, u'edge': {u'target': [], u'time': []}}}","[2, -8, -48]","[683, 224, 463]",-54.0,"[None, None, None]","[u'', -4, 8, -24, 24, 2, -8, -48, -48, -4, -4, -48, -48]",387233,38.0,8573.0,1.54464188344e+18,mouselab-mdp,0
"[1327, 1903, 2848]","[u'right', u'right', u'up']",test,"[u'0', u'5', u'6', u'7']","{u'mouseover': {u'state': {u'target': [], u'time': []}, u'edge': {u'target': [], u'time': []}}, u'click': {u'state': {u'target': [], u'time': []}, u'edge': {u'target': [], u'time': []}}, u'mouseout': {u'state': {u'target': [], u'time': []}, u'edge': {u'target': [], u'time': []}}}","[-4, 8, -24]","[1325, 68, 429]",-20.0,"[None, None, None]","[u'', 4, -8, -24, -24, -4, 8, -24, 24, -2, -8, -48, -48]",397865,39.0,9576.0,3.45729407456e+18,mouselab-mdp,0
"[752, 1384, 2305]","[u'right', u'right', u'up']",test,"[u'0', u'5', u'6', u'7']","{u'mouseover': {u'state': {u'target': [], u'time': []}, u'edge': {u'target': [], u'time': []}}, u'click': {u'state': {u'target': [], u'time': []}, u'edge': {u'target': [], u'time': []}}, u'mouseout': {u'state': {u'target': [], u'time': []}, u'edge': {u'target': [], u'time': []}}}","[-2, 4, 48]","[751, 123, 411]",50.0,"[None, None, None]","[u'', -2, 4, -48, -24, -2, 4, 48, -24, 4, -4, 24, -48]",408193,40.0,9281.0,6.47501706979e+18,mouselab-mdp,0
"[562, 1394, 2344]","[u'right', u'right', u'up']",test,"[u'0', u'5', u'6', u'7']","{u'mouseover': {u'state': {u'target': [], u'time': []}, u'edge': {u'target': [], u'time': []}}, u'click': {u'state': {u'target': [], u'time': []}, u'edge': {u'target': [], u'time': []}}, u'mouseout': {u'state': {u'target': [], u'time': []}, u'edge': {u'target': [], u'time': []}}}","[-4, 4, 24]","[561, 318, 434]",24.0,"[None, None, None]","[u'', -4, -4, 24, -24, -4, 4, 24, 24, 4, 4, 48, -48]",417789,41.0,8527.0,-7.89014416469e+18,mouselab-mdp,0
"[593, 1344, 2201]","[u'right', u'right', u'up']",test,"[u'0', u'5', u'6', u'7']","{u'mouseover': {u'state': {u'target': [], u'time': []}, u'edge': {u'target': [], u'time': []}}, u'click': {u'state': {u'target': [], u'time': []}, u'edge': {u'target': [], u'time': []}}, u'mouseout': {u'state': {u'target': [], u'time': []}, u'edge': {u'target': [], u'time': []}}}","[4, 4, 48]","[592, 246, 334]",56.0,"[None, None, None]","[u'', 4, -4, 24, 24, 4, 4, 48, -48, 4, -8, -24, 48]",427724,42.0,8885.0,8.69559053241e+18,mouselab-mdp,0
"[886, 2104, 3244]","[u'left', u'left', u'down']",test,"[u'0', u'9', u'10', u'12']","{u'mouseover': {u'state': {u'target': [], u'time': []}, u'edge': {u'target': [], u'time': []}}, u'click': {u'state': {u'target': [], u'time': []}, u'edge': {u'target': [], u'time': []}}, u'mouseout': {u'state': {u'target': [], u'time': []}, u'edge': {u'target': [], u'time': []}}}","[2, -4, 24]","[884, 704, 627]",22.0,"[None, None, None]","[u'', 4, -4, 24, -24, -2, -4, -24, -24, 2, -4, 48, 24]",438295,43.0,9508.0,1.59857491246e+18,mouselab-mdp,0
"[768, 1679, 2375]","[u'up', u'up', u'right']",test,"[u'0', u'1', u'2', u'3']","{u'mouseover': {u'state': {u'target': [], u'time': []}, u'edge': {u'target': [], u'time': []}}, u'click': {u'state': {u'target': [], u'time': []}, u'edge': {u'target': [], u'time': []}}, u'mouseout': {u'state': {u'target': [], u'time': []}, u'edge': {u'target': [], u'time': []}}}","[-4, -8, 48]","[766, 343, 123]",36.0,"[None, None, None]","[u'', -4, -8, 48, -48, -2, -8, 48, 24, -2, 8, 24, -24]",449662,44.0,10311.0,6.22141105441e+18,mouselab-mdp,0
"[639, 1334, 2239]","[u'right', u'right', u'up']",test,"[u'0', u'5', u'6', u'7']","{u'mouseover': {u'state': {u'target': [], u'time': []}, u'edge': {u'target': [], u'time': []}}, u'click': {u'state': {u'target': [], u'time': []}, u'edge': {u'target': [], u'time': []}}, u'mouseout': {u'state': {u'target': [], u'time': []}, u'edge': {u'target': [], u'time': []}}}","[4, 4, -24]","[637, 172, 377]",-16.0,"[None, None, None]","[u'', 2, 8, -48, 48, 4, 4, -24, 48, -4, -4, 48, -24]",459270,45.0,8462.0,-9.09463966077e+18,mouselab-mdp,0
"[797, 1662, 2429]","[u'right', u'right', u'down']",test,"[u'0', u'5', u'6', u'8']","{u'mouseover': {u'state': {u'target': [], u'time': []}, u'edge': {u'target': [], u'time': []}}, u'click': {u'state': {u'target': [], u'time': []}, u'edge': {u'target': [], u'time': []}}, u'mouseout': {u'state': {u'target': [], u'time': []}, u'edge': {u'target': [], u'time': []}}}","[2, 4, 24]","[796, 334, 253]",30.0,"[None, None, None]","[u'', -2, 8, -24, 48, 2, 4, -48, 24, 4, -4, 48, 48]",470101,46.0,9772.0,3.76135431666e+18,mouselab-mdp,0
"[1504, 2976, 4779]","[u'right', u'right', u'up']",test,"[u'0', u'5', u'6', u'7']","{u'mouseover': {u'state': {u'target': [], u'time': []}, u'edge': {u'target': [], u'time': []}}, u'click': {u'state': {u'target': [], u'time': []}, u'edge': {u'target': [], u'time': []}}, u'mouseout': {u'state': {u'target': [], u'time': []}, u'edge': {u'target': [], u'time': []}}}","[4, -4, 24]","[1503, 962, 1280]",24.0,"[None, None, None]","[u'', -4, -4, -24, 48, 4, -4, 24, -48, 2, -4, 48, 24]",481935,47.0,10777.0,6.16152731316e+18,mouselab-mdp,0
"[736, 1528, 2656]","[u'up', u'up', u'left']",test,"[u'0', u'1', u'2', u'4']","{u'mouseover': {u'state': {u'target': [], u'time': []}, u'edge': {u'target': [], u'time': []}}, u'click': {u'state': {u'target': [], u'time': []}, u'edge': {u'target': [], u'time': []}}, u'mouseout': {u'state': {u'target': [], u'time': []}, u'edge': {u'target': [], u'time': []}}}","[-4, -4, 48]","[734, 274, 621]",40.0,"[None, None, None]","[u'', -4, -4, -24, 48, 4, 8, 24, -24, -2, 8, 24, 48]",493629,48.0,10647.0,-2.85119094507e+17,mouselab-mdp,0
"[734, 1685, 2661]","[u'left', u'left', u'down']",test,"[u'0', u'9', u'10', u'12']","{u'mouseover': {u'state': {u'target': [], u'time': []}, u'edge': {u'target': [], u'time': []}}, u'click': {u'state': {u'target': [], u'time': []}, u'edge': {u'target': [], u'time': []}}, u'mouseout': {u'state': {u'target': [], u'time': []}, u'edge': {u'target': [], u'time': []}}}","[4, -8, 48]","[732, 429, 457]",44.0,"[None, None, None]","[u'', -2, 4, -24, 48, -2, 4, -24, 48, 4, -8, 24, 48]",505318,49.0,10621.0,3.36485828046e+17,mouselab-mdp,0
"[1597, 2788, 4198]","[u'left', u'left', u'down']",test,"[u'0', u'9', u'10', u'12']","{u'mouseover': {u'state': {u'target': [], u'time': []}, u'edge': {u'target': [], u'time': []}}, u'click': {u'state': {u'target': [], u'time': []}, u'edge': {u'target': [], u'time': []}}, u'mouseout': {u'state': {u'target': [], u'time': []}, u'edge': {u'target': [], u'time': []}}}","[-4, -8, -48]","[1595, 682, 893]",-60.0,"[None, None, None]","[u'', -2, 8, -24, -24, -2, 4, -48, 24, -4, -8, 48, -48]",516006,50.0,9628.0,5.44134319392e+18,mouselab-mdp,0
"[1042, 2009, 2921]","[u'right', u'right', u'down']",test,"[u'0', u'5', u'6', u'8']","{u'mouseover': {u'state': {u'target': [], u'time': []}, u'edge': {u'target': [], u'time': []}}, u'click': {u'state': {u'target': [], u'time': []}, u'edge': {u'target': [], u'time': []}}, u'mouseout': {u'state': {u'target': [], u'time': []}, u'edge': {u'target': [], u'time': []}}}","[-2, -8, -24]","[1041, 444, 374]",-34.0,"[None, None, None]","[u'', -4, 8, 24, 24, -2, -8, -48, -24, -4, -8, 24, 24]",526600,51.0,9531.0,5.78229284889e+18,mouselab-mdp,0
"[2073, 3127, 4344]","[u'up', u'up', u'left']",test,"[u'0', u'1', u'2', u'4']","{u'mouseover': {u'state': {u'target': [], u'time': []}, u'edge': {u'target': [], u'time': []}}, u'click': {u'state': {u'target': [], u'time': []}, u'edge': {u'target': [], u'time': []}}, u'mouseout': {u'state': {u'target': [], u'time': []}, u'edge': {u'target': [], u'time': []}}}","[2, -8, 48]","[2071, 548, 698]",42.0,"[None, None, None]","[u'', 2, -8, 24, 48, 4, 4, 48, 48, 2, -8, -48, -48]",535927,52.0,8241.0,7.00715418359e+18,mouselab-mdp,0
"[1596, 2353, 3345]","[u'up', u'up', u'right']",test,"[u'0', u'1', u'2', u'3']","{u'mouseover': {u'state': {u'target': [], u'time': []}, u'edge': {u'target': [], u'time': []}}, u'click': {u'state': {u'target': [], u'time': []}, u'edge': {u'target': [], u'time': []}}, u'mouseout': {u'state': {u'target': [], u'time': []}, u'edge': {u'target': [], u'time': []}}}","[4, 8, 24]","[1595, 238, 484]",36.0,"[None, None, None]","[u'', 4, 8, 24, 24, -4, -4, -24, -48, 2, -4, 48, 48]",545054,53.0,8065.0,2.06077812078e+18,mouselab-mdp,0
"[1202, 1914, 2758]","[u'left', u'left', u'up']",test,"[u'0', u'9', u'10', u'11']","{u'mouseover': {u'state': {u'target': [], u'time': []}, u'edge': {u'target': [], u'time': []}}, u'click': {u'state': {u'target': [], u'time': []}, u'edge': {u'target': [], u'time': []}}, u'mouseout': {u'state': {u'target': [], u'time': []}, u'edge': {u'target': [], u'time': []}}}","[-2, -4, 48]","[1200, 195, 222]",42.0,"[None, None, None]","[u'', -2, 8, 24, -24, -4, -4, 24, -24, -2, -4, 48, -24]",557165,54.0,11033.0,1.16491454107e+17,mouselab-mdp,0
"[706, 1422, 2357]","[u'left', u'left', u'down']",test,"[u'0', u'9', u'10', u'12']","{u'mouseover': {u'state': {u'target': [], u'time': []}, u'edge': {u'target': [], u'time': []}}, u'click': {u'state': {u'target': [], u'time': []}, u'edge': {u'target': [], u'time': []}}, u'mouseout': {u'state': {u'target': [], u'time': []}, u'edge': {u'target': [], u'time': []}}}","[4, -4, -24]","[705, 197, 415]",-24.0,"[None, None, None]","[u'', 4, -4, -48, -48, -4, 8, -48, -24, 4, -4, 48, -24]",567004,55.0,8782.0,-6.3406539033e+18,mouselab-mdp,0
"[853, 2269, 3514]","[u'right', u'right', u'up']",test,"[u'0', u'5', u'6', u'7']","{u'mouseover': {u'state': {u'target': [], u'time': []}, u'edge': {u'target': [], u'time': []}}, u'click': {u'state': {u'target': [], u'time': []}, u'edge': {u'target': [], u'time': []}}, u'mouseout': {u'state': {u'target': [], u'time': []}, u'edge': {u'target': [], u'time': []}}}","[-2, -4, 48]","[852, 898, 729]",42.0,"[None, None, None]","[u'', 2, -4, -48, -24, -2, -4, 48, -24, 4, 4, 48, -24]",578236,56.0,10173.0,7.5208296533e+18,mouselab-mdp,0
"[2823, 3406, 5734]","[u'up', u'up', u'right']",test,"[u'0', u'1', u'2', u'3']","{u'mouseover': {u'state': {u'target': [], u'time': []}, u'edge': {u'target': [], u'time': []}}, u'click': {u'state': {u'target': [], u'time': []}, u'edge': {u'target': [], u'time': []}}, u'mouseout': {u'state': {u'target': [], u'time': []}, u'edge': {u'target': [], u'time': []}}}","[2, -4, -24]","[2820, 34, 1798]",-26.0,"[None, None, None]","[u'', 2, -4, -24, -24, -4, 4, 24, -48, 4, 8, 48, 48]",589212,57.0,9902.0,-4.25047531215e+18,mouselab-mdp,0
"[1332, 1933, 3092]","[u'up', u'up', u'right']",test,"[u'0', u'1', u'2', u'3']","{u'mouseover': {u'state': {u'target': [], u'time': []}, u'edge': {u'target': [], u'time': []}}, u'click': {u'state': {u'target': [], u'time': []}, u'edge': {u'target': [], u'time': []}}, u'mouseout': {u'state': {u'target': [], u'time': []}, u'edge': {u'target': [], u'time': []}}}","[-2, 8, -24]","[1330, 92, 650]",-18.0,"[None, None, None]","[u'', -2, 8, -24, 48, 2, -4, 48, 24, -2, 8, -24, -24]",599604,58.0,9333.0,7.53059734346e+17,mouselab-mdp,0
"[2796, 3467, 4364]","[u'left', u'left', u'up']",test,"[u'0', u'9', u'10', u'11']","{u'mouseover': {u'state': {u'target': [], u'time': []}, u'edge': {u'target': [], u'time': []}}, u'click': {u'state': {u'target': [], u'time': []}, u'edge': {u'target': [], u'time': []}}, u'mouseout': {u'state': {u'target': [], u'time': []}, u'edge': {u'target': [], u'time': []}}}","[4, 8, 24]","[2795, 159, 389]",36.0,"[None, None, None]","[u'', 4, 8, 48, 48, -4, -8, -48, 24, 4, 8, 24, 24]",609899,59.0,9227.0,-5.73655695109e+18,mouselab-mdp,0
"[12067, 15733, 16836]","[u'left', u'left', u'down']",train_basic,"[u'0', u'9', u'10', u'12']","{u'mouseover': {u'state': {u'target': [], u'time': []}, u'edge': {u'target': [], u'time': []}}, u'click': {u'state': {u'target': [], u'time': []}, u'edge': {u'target': [], u'time': []}}, u'mouseout': {u'state': {u'target': [], u'time': []}, u'edge': {u'target': [], u'time': []}}}","[-4, -4, 24]","[12065, 3164, 598]",16.0,"[None, None, None]","[u'', -4, 4, 24, -24, 4, 4, -48, -48, -4, -4, -48, 24]",33447,0.0,33361.0,3.64738318725e+18,mouselab-mdp,1
"[6209, 7289, 7904]","[u'left', u'left', u'up']",train_basic,"[u'0', u'9', u'10', u'11']","{u'mouseover': {u'state': {u'target': [], u'time': []}, u'edge': {u'target': [], u'time': []}}, u'click': {u'state': {u'target': [], u'time': []}, u'edge': {u'target': [], u'time': []}}, u'mouseout': {u'state': {u'target': [], u'time': []}, u'edge': {u'target': [], u'time': []}}}","[2, -4, 48]","[6208, 581, 92]",46.0,"[None, None, None]","[u'', -4, -4, -24, 48, 4, -4, 24, -48, 2, -4, 48, 24]",44217,1.0,9721.0,6.16152731316e+18,mouselab-mdp,1
"[4978, 5592, 6232]","[u'right', u'right', u'up']",train_basic,"[u'0', u'5', u'6', u'7']","{u'mouseover': {u'state': {u'target': [], u'time': []}, u'edge': {u'target': [], u'time': []}}, u'click': {u'state': {u'target': [], u'time': []}, u'edge': {u'target': [], u'time': []}}, u'mouseout': {u'state': {u'target': [], u'time': []}, u'edge': {u'target': [], u'time': []}}}","[4, 8, 48]","[4977, 111, 133]",60.0,"[None, None, None]","[u'', -2, 4, 24, -48, 4, 8, 48, -24, 2, -4, 24, 48]",52745,2.0,7490.0,2.91138569029e+18,mouselab-mdp,1
"[4273, 4886, 5456]","[u'left', u'left', u'up']",train_basic,"[u'0', u'9', u'10', u'11']","{u'mouseover': {u'state': {u'target': [], u'time': []}, u'edge': {u'target': [], u'time': []}}, u'click': {u'state': {u'target': [], u'time': []}, u'edge': {u'target': [], u'time': []}}, u'mouseout': {u'state': {u'target': [], u'time': []}, u'edge': {u'target': [], u'time': []}}}","[4, -4, 48]","[4272, 126, 62]",48.0,"[None, None, None]","[u'', 4, -8, 24, 24, 2, 4, -24, 24, 4, -4, 48, -48]",60661,3.0,6869.0,-7.87683644611e+18,mouselab-mdp,1
"[6715, 7278, 7863]","[u'up', u'up', u'left']",train_basic,"[u'0', u'1', u'2', u'4']","{u'mouseover': {u'state': {u'target': [], u'time': []}, u'edge': {u'target': [], u'time': []}}, u'click': {u'state': {u'target': [], u'time': []}, u'edge': {u'target': [], u'time': []}}, u'mouseout': {u'state': {u'target': [], u'time': []}, u'edge': {u'target': [], u'time': []}}}","[-2, 8, 48]","[6714, 68, 73]",54.0,"[None, None, None]","[u'', -2, 8, -24, 48, 2, 4, -48, 24, 4, -4, 48, 48]",71072,4.0,9343.0,3.76135431666e+18,mouselab-mdp,1
"[22015, 22591, 23228]","[u'right', u'right', u'up']",train_basic2,"[u'0', u'5', u'6', u'7']","{u'mouseover': {u'state': {u'target': [], u'time': []}, u'edge': {u'target': [], u'time': []}}, u'click': {u'state': {u'target': [], u'time': []}, u'edge': {u'target': [], u'time': []}}, u'mouseout': {u'state': {u'target': [], u'time': []}, u'edge': {u'target': [], u'time': []}}}","[4, -4, 48]","[22014, 73, 142]",48.0,"[None, None, None]","[u'', 2, -8, 48, -48, 4, -4, 48, 24, 2, -8, -48, -48]",99498,5.0,24746.0,8.63855716523e+17,mouselab-mdp,1
"[3655, 4207, 4790]","[u'right', u'right', u'up']",train_basic2,"[u'0', u'5', u'6', u'7']","{u'mouseover': {u'state': {u'target': [], u'time': []}, u'edge': {u'target': [], u'time': []}}, u'click': {u'state': {u'target': [], u'time': []}, u'edge': {u'target': [], u'time': []}}, u'mouseout': {u'state': {u'target': [], u'time': []}, u'edge': {u'target': [], u'time': []}}}","[2, 4, 48]","[3654, 61, 80]",54.0,"[None, None, None]","[u'', 4, -4, -48, -24, 2, 4, 48, -48, -4, 4, 48, -48]",106275,6.0,5717.0,2.61402596453e+18,mouselab-mdp,1
"[2728, 4981, 5924]","[u'left', u'left', u'up']",train_basic2,"[u'0', u'9', u'10', u'11']","{u'mouseover': {u'state': {u'target': [], u'time': []}, u'edge': {u'target': [], u'time': []}}, u'click': {u'state': {u'target': [], u'time': []}, u'edge': {u'target': [], u'time': []}}, u'mouseout': {u'state': {u'target': [], u'time': []}, u'edge': {u'target': [], u'time': []}}}","[4, 8, 48]","[2727, 1756, 448]",60.0,"[None, None, None]","[u'', -2, 8, 24, 48, 2, 4, -24, 24, 4, 8, 48, 24]",114444,7.0,7130.0,2.79012568045e+18,mouselab-mdp,1
"[4142, 4801, 5496]","[u'right', u'right', u'up']",train_basic2,"[u'0', u'5', u'6', u'7']","{u'mouseover': {u'state': {u'target': [], u'time': []}, u'edge': {u'target': [], u'time': []}}, u'click': {u'state': {u'target': [], u'time': []}, u'edge': {u'target': [], u'time': []}}, u'mouseout': {u'state': {u'target': [], u'time': []}, u'edge': {u'target': [], u'time': []}}}","[4, 4, 48]","[4141, 166, 179]",56.0,"[None, None, None]","[u'', -4, -4, -48, 24, 4, 4, 48, -24, 4, -4, 48, 24]",122448,8.0,6961.0,1.51884547362e+18,mouselab-mdp,1
"[38703, 39325, 39958]","[u'right', u'right', u'up']",train_basic2,"[u'0', u'5', u'6', u'7']","{u'mouseover': {u'state': {u'target': [], u'time': []}, u'edge': {u'target': [], u'time': []}}, u'click': {u'state': {u'target': [], u'time': []}, u'edge': {u'target': [], u'time': []}}, u'mouseout': {u'state': {u'target': [], u'time': []}, u'edge': {u'target': [], u'time': []}}}","[-2, 4, 48]","[38703, 118, 118]",50.0,"[None, None, None]","[u'', 2, -4, 48, -24, -2, 4, 48, -48, 2, 8, -48, 24]",165865,9.0,42369.0,-3.02495073278e+17,mouselab-mdp,1
"[8253, 11371, 13754]","[u'right', u'right', u'down']",train_hidden,"[u'0', u'5', u'6', u'8']","{u'mouseover': {u'state': {u'target': [], u'time': []}, u'edge': {u'target': [], u'time': []}}, u'click': {u'state': {u'target': [], u'time': []}, u'edge': {u'target': [], u'time': []}}, u'mouseout': {u'state': {u'target': [], u'time': []}, u'edge': {u'target': [], u'time': []}}}","[2, 8, 24]","[8252, 2627, 1895]",34.0,"[None, None, None]","[u'', 2, 8, 48, -24, 2, 8, -24, 24, -4, -4, -48, 24]",190649,10.0,21306.0,-2.41028578503e+18,mouselab-mdp,1
"[6966, 10297, 19634]","[u'right', u'right', u'up']",train_hidden,"[u'0', u'5', u'6', u'7']","{u'mouseover': {u'state': {u'target': [], u'time': []}, u'edge': {u'target': [], u'time': []}}, u'click': {u'state': {u'target': [], u'time': []}, u'edge': {u'target': [], u'time': []}}, u'mouseout': {u'state': {u'target': [], u'time': []}, u'edge': {u'target': [], u'time': []}}}","[-4, -8, -24]","[6965, 2836, 8838]",-36.0,"[None, None, None]","[u'', 2, -4, -48, 48, -4, -8, -24, -24, -4, 4, -48, 24]",235999,11.0,44291.0,-6.15791772037e+18,mouselab-mdp,1
"[668, 8585, 13407]","[u'right', u'right', u'down']",train_hidden,"[u'0', u'5', u'6', u'8']","{u'mouseover': {u'state': {u'target': [], u'time': []}, u'edge': {u'target': [], u'time': []}}, u'click': {u'state': {u'target': [], u'time': []}, u'edge': {u'target': [], u'time': []}}, u'mouseout': {u'state': {u'target': [], u'time': []}, u'edge': {u'target': [], u'time': []}}}","[2, 4, 48]","[664, 7407, 4325]",54.0,"[None, None, None]","[u'', -2, 8, -24, 48, 2, 4, -48, 48, -2, 4, -24, -48]",298916,12.0,61876.0,-6.59366688781e+18,mouselab-mdp,1
"[949, 3720, 9143]","[u'right', u'right', u'down']",train_hidden,"[u'0', u'5', u'6', u'8']","{u'mouseover': {u'state': {u'target': [], u'time': []}, u'edge': {u'target': [], u'time': []}}, u'click': {u'state': {u'target': [], u'time': []}, u'edge': {u'target': [], u'time': []}}, u'mouseout': {u'state': {u'target': [], u'time': []}, u'edge': {u'target': [], u'time': []}}}","[4, 4, 24]","[949, 2253, 4925]",32.0,"[None, None, None]","[u'', -2, -8, 48, 24, 4, 4, 48, 24, 2, -8, -24, -48]",330747,13.0,30794.0,-6.48073159306e+18,mouselab-mdp,1
"[11881, 14054, 25092]","[u'right', u'right', u'down']",train_hidden,"[u'0', u'5', u'6', u'8']","{u'mouseover': {u'state': {u'target': [], u'time': []}, u'edge': {u'target': [], u'time': []}}, u'click': {u'state': {u'target': [], u'time': []}, u'edge': {u'target': [], u'time': []}}, u'mouseout': {u'state': {u'target': [], u'time': []}, u'edge': {u'target': [], u'time': []}}}","[4, -8, -24]","[11881, 1670, 10527]",-28.0,"[None, None, None]","[u'', -2, 4, 24, -24, 4, -8, 24, -24, 4, -4, 48, -24]",391498,14.0,59712.0,6.24243419021e+17,mouselab-mdp,1
"[51022, 51683, 52284]","[u'up', u'up', u'right']",train_inspector,"[u'0', u'1', u'2', u'3']","{u'mouseover': {u'state': {u'target': [], u'time': []}, u'edge': {u'target': [], u'time': []}}, u'click': {u'state': {u'target': [u'7', u'3', u'12', u'8', u'11', u'4', u'2', u'1', u'5', u'6', u'10', u'9'], u'time': [30950, 34528, 41603, 42626, 43445, 43955, 44311, 44591, 45119, 45443, 46477, 46827]}, u'edge': {u'target': [], u'time': []}}, u'mouseout': {u'state': {u'target': [], u'time': []}, u'edge': {u'target': [], u'time': []}}}","[4, 4, 48]","[51021, 171, 107]",56.0,"[None, None, None]","[u'', 4, 4, 48, -24, 4, -4, -48, 48, 2, -8, 48, 24]",461108,15.0,66301.0,-8.5802004347e+18,mouselab-mdp,1
"[12604, 13171, 14157]","[u'up', u'up', u'left']",train_inspector,"[u'0', u'1', u'2', u'4']","{u'mouseover': {u'state': {u'target': [], u'time': []}, u'edge': {u'target': [], u'time': []}}, u'click': {u'state': {u'target': [u'3', u'2', u'4', u'11', u'9', u'10', u'12', u'1', u'5', u'6', u'7', u'8'], u'time': [2633, 3506, 4119, 4670, 5427, 5928, 6244, 6727, 7254, 7565, 7873, 8370]}, u'edge': {u'target': [], u'time': []}}, u'mouseout': {u'state': {u'target': [], u'time': []}, u'edge': {u'target': [], u'time': []}}}","[-4, 4, 48]","[12603, 71, 488]",48.0,"[None, None, None]","[u'', -4, 4, -24, 48, -4, -8, -24, 48, -4, 8, -24, -48]",492149,16.0,29998.0,-5.43332865612e+18,mouselab-mdp,1
"[11377, 11998, 12594]","[u'left', u'left', u'down']",train_inspector,"[u'0', u'9', u'10', u'12']","{u'mouseover': {u'state': {u'target': [], u'time': []}, u'edge': {u'target': [], u'time': []}}, u'click': {u'state': {u'target': [u'5', u'6', u'7', u'8', u'1', u'2', u'3', u'4', u'9', u'10', u'11', u'12'], u'time': [2785, 3198, 3521, 4224, 4705, 5038, 5289, 5727, 7618, 8055, 8637, 9092]}, u'edge': {u'target': [], u'time': []}}, u'mouseout': {u'state': {u'target': [], u'time': []}, u'edge': {u'target': [], u'time': []}}}","[4, 8, 48]","[11376, 118, 85]",60.0,"[None, None, None]","[u'', 2, -4, -24, -24, -4, 4, 24, -48, 4, 8, 48, 48]",520440,17.0,27249.0,-4.25047531215e+18,mouselab-mdp,1
"[13840, 14346, 15204]","[u'up', u'up', u'right']",train_inspector,"[u'0', u'1', u'2', u'3']","{u'mouseover': {u'state': {u'target': [], u'time': []}, u'edge': {u'target': [], u'time': []}}, u'click': {u'state': {u'target': [u'4', u'2', u'1', u'3', u'7', u'6', u'8', u'5', u'9', u'11', u'10', u'12'], u'time': [4982, 5233, 5477, 6239, 6720, 6976, 7348, 7819, 8503, 8913, 9197, 10005]}, u'edge': {u'target': [], u'time': []}}, u'mouseout': {u'state': {u'target': [], u'time': []}, u'edge': {u'target': [], u'time': []}}}","[-4, 8, 24]","[13840, 4, 330]",28.0,"[None, None, None]","[u'', -4, 8, 24, 24, -2, -8, -48, -24, -4, -8, 24, 24]",541777,18.0,20300.0,5.78229284889e+18,mouselab-mdp,1
"[12703, 13470, 14034]","[u'right', u'right', u'down']",train_inspector,"[u'0', u'5', u'6', u'8']","{u'mouseover': {u'state': {u'target': [], u'time': []}, u'edge': {u'target': [], u'time': []}}, u'click': {u'state': {u'target': [u'4', u'2', u'1', u'3', u'5', u'7', u'6', u'8', u'9', u'11', u'10', u'12'], u'time': [957, 1262, 1629, 3047, 3370, 3708, 3974, 5276, 6145, 6789, 7223, 7547]}, u'edge': {u'target': [], u'time': []}}, u'mouseout': {u'state': {u'target': [], u'time': []}, u'edge': {u'target': [], u'time': []}}}","[4, 8, 24]","[12702, 271, 65]",36.0,"[None, None, None]","[u'', -2, 4, 24, 24, 4, 8, -48, 24, -2, 8, -48, -24]",558958,19.0,16141.0,-9.08425462157e+18,mouselab-mdp,1
"[17291, 17977, 18809]","[u'left', u'left', u'up']",train_inspect_cost,"[u'0', u'9', u'10', u'11']","{u'mouseover': {u'state': {u'target': [], u'time': []}, u'edge': {u'target': [], u'time': []}}, u'click': {u'state': {u'target': [u'7', u'8', u'3', u'4', u'11', u'12'], u'time': [9347, 10208, 11704, 12850, 13724, 14305]}, u'edge': {u'target': [], u'time': []}}, u'mouseout': {u'state': {u'target': [], u'time': []}, u'edge': {u'target': [], u'time': []}}}","[4, -4, 48]","[17290, 181, 329]",42.0,"[None, None, None]","[u'', -2, 8, -24, 24, 2, -8, -48, -24, 4, -4, 48, -48]",583241,20.0,20551.0,-6.37305172053e+18,mouselab-mdp,1
"[8456, 9055, 9617]","[u'up', u'up', u'right']",train_inspect_cost,"[u'0', u'1', u'2', u'3']","{u'mouseover': {u'state': {u'target': [], u'time': []}, u'edge': {u'target': [], u'time': []}}, u'click': {u'state': {u'target': [u'4', u'3'], u'time': [1267, 1848]}, u'edge': {u'target': [], u'time': []}}, u'mouseout': {u'state': {u'target': [], u'time': []}, u'edge': {u'target': [], u'time': []}}}","[-4, -8, 48]","[8455, 112, 56]",34.0,"[None, None, None]","[u'', -4, -8, 48, -48, -2, -8, 48, 24, -2, 8, 24, -24]",597643,21.0,13370.0,6.22141105441e+18,mouselab-mdp,1
"[3165, 4234, 4924]","[u'up', u'up', u'left']",train_inspect_cost,"[u'0', u'1', u'2', u'4']","{u'mouseover': {u'state': {u'target': [], u'time': []}, u'edge': {u'target': [], u'time': []}}, u'click': {u'state': {u'target': [u'4'], u'time': [1382]}, u'edge': {u'target': [], u'time': []}}, u'mouseout': {u'state': {u'target': [], u'time': []}, u'edge': {u'target': [], u'time': []}}}","[4, -4, 48]","[3164, 560, 171]",47.0,"[None, None, None]","[u'', 4, -4, -48, 48, -4, 8, 48, -24, 2, 4, 24, 48]",604829,22.0,6147.0,-8.59112577635e+18,mouselab-mdp,1
"[10693, 11926, 12735]","[u'up', u'up', u'right']",train_inspect_cost,"[u'0', u'1', u'2', u'3']","{u'mouseover': {u'state': {u'target': [], u'time': []}, u'edge': {u'target': [], u'time': []}}, u'click': {u'state': {u'target': [u'4', u'7', u'8', u'6', u'3', u'2', u'1', u'11', u'10', u'12', u'9'], u'time': [648, 1914, 2551, 2810, 3631, 4076, 4574, 5267, 5731, 6144, 7660]}, u'edge': {u'target': [], u'time': []}}, u'mouseout': {u'state': {u'target': [], u'time': []}, u'edge': {u'target': [], u'time': []}}}","[-2, -4, 48]","[10692, 731, 288]",31.0,"[None, None, None]","[u'', -2, -4, 48, 24, -2, -4, -48, -24, -4, -4, 24, 48]",620282,23.0,14393.0,-3.17734272016e+18,mouselab-mdp,1
"[5381, 5927, 6466]","[u'up', u'up', u'left']",train_inspect_cost,"[u'0', u'1', u'2', u'4']","{u'mouseover': {u'state': {u'target': [], u'time': []}, u'edge': {u'target': [], u'time': []}}, u'click': {u'state': {u'target': [u'4'], u'time': [3470]}, u'edge': {u'target': [], u'time': []}}, u'mouseout': {u'state': {u'target': [], u'time': []}, u'edge': {u'target': [], u'time': []}}}","[-2, 4, 48]","[5380, 48, 20]",49.0,"[None, None, None]","[u'', -2, 4, -24, 48, -2, 4, -24, 48, 4, -8, 24, 48]",630082,24.0,8745.0,3.36485828046e+17,mouselab-mdp,1
"[15788, 16321, 16968]","[u'up', u'up', u'left']",train_final,"[u'0', u'1', u'2', u'4']","{u'mouseover': {u'state': {u'target': [], u'time': []}, u'edge': {u'target': [], u'time': []}}, u'click': {u'state': {u'target': [u'4'], u'time': [13833]}, u'edge': {u'target': [], u'time': []}}, u'mouseout': {u'state': {u'target': [], u'time': []}, u'edge': {u'target': [], u'time': []}}}","[2, 8, 48]","[15787, 35, 130]",57.0,"[None, None, None]","[u'', 2, 8, 48, 48, -4, -8, 24, 48, 4, 4, 48, 24]",652708,25.0,19110.0,4.61011171886e+17,mouselab-mdp,1
"[5429, 6028, 6628]","[u'left', u'left', u'up']",train_final,"[u'0', u'9', u'10', u'11']","{u'mouseover': {u'state': {u'target': [], u'time': []}, u'edge': {u'target': [], u'time': []}}, u'click': {u'state': {u'target': [u'4', u'3', u'7', u'8', u'11', u'12'], u'time': [775, 1538, 2074, 2591, 3276, 3860]}, u'edge': {u'target': [], u'time': []}}, u'mouseout': {u'state': {u'target': [], u'time': []}, u'edge': {u'target': [], u'time': []}}}","[2, -4, 48]","[5429, 103, 90]",40.0,"[None, None, None]","[u'', 4, -4, 24, -24, -2, -4, -24, -24, 2, -4, 48, 24]",661982,26.0,8238.0,1.59857491246e+18,mouselab-mdp,1
"[2791, 3360, 3961]","[u'up', u'up', u'right']",train_final,"[u'0', u'1', u'2', u'3']","{u'mouseover': {u'state': {u'target': [], u'time': []}, u'edge': {u'target': [], u'time': []}}, u'click': {u'state': {u'target': [u'4', u'3'], u'time': [690, 1180]}, u'edge': {u'target': [], u'time': []}}, u'mouseout': {u'state': {u'target': [], u'time': []}, u'edge': {u'target': [], u'time': []}}}","[-2, 8, 48]","[2790, 62, 93]",52.0,"[None, None, None]","[u'', -2, 8, 48, 24, -2, 4, -48, 48, 4, -8, -48, -48]",668789,27.0,5771.0,-7.38363829218e+18,mouselab-mdp,1
"[13301, 13821, 14386]","[u'left', u'left', u'down']",train_final,"[u'0', u'9', u'10', u'12']","{u'mouseover': {u'state': {u'target': [], u'time': []}, u'edge': {u'target': [], u'time': []}}, u'click': {u'state': {u'target': [u'3', u'7', u'8', u'4', u'11', u'12', u'1', u'2', u'9', u'10'], u'time': [766, 1303, 1808, 2406, 3502, 4046, 9354, 11055, 11658, 12040]}, u'edge': {u'target': [], u'time': []}}, u'mouseout': {u'state': {u'target': [], u'time': []}, u'edge': {u'target': [], u'time': []}}}","[4, 8, 24]","[13300, 27, 75]",26.0,"[None, None, None]","[u'', -4, 8, -48, 24, -2, 4, -48, -48, 4, 8, -24, 24]",685346,28.0,15522.0,6.40648062811e+18,mouselab-mdp,1
"[7013, 7576, 8193]","[u'left', u'left', u'up']",train_final,"[u'0', u'9', u'10', u'11']","{u'mouseover': {u'state': {u'target': [], u'time': []}, u'edge': {u'target': [], u'time': []}}, u'click': {u'state': {u'target': [u'4', u'3', u'7', u'8', u'11', u'12'], u'time': [978, 2109, 3772, 4354, 5258, 5813]}, u'edge': {u'target': [], u'time': []}}, u'mouseout': {u'state': {u'target': [], u'time': []}, u'edge': {u'target': [], u'time': []}}}","[-2, 4, 48]","[7013, 65, 103]",44.0,"[None, None, None]","[u'', -4, 4, -48, -24, 4, 4, 24, -48, -2, 4, 48, -48]",704629,29.0,18221.0,-3.24188981823e+18,mouselab-mdp,1
"[64339, 65016, 65859]","[u'left', u'left', u'down']",test,"[u'0', u'9', u'10', u'12']","{u'mouseover': {u'state': {u'target': [], u'time': []}, u'edge': {u'target': [], u'time': []}}, u'click': {u'state': {u'target': [u'3', u'11', u'7', u'8', u'12'], u'time': [2613, 26049, 31239, 33160, 35148]}, u'edge': {u'target': [], u'time': []}}, u'mouseout': {u'state': {u'target': [], u'time': []}, u'edge': {u'target': [], u'time': []}}}","[4, -4, 48]","[64337, 188, 347]",43.0,"[None, None, None]","[u'', 4, 8, 24, 48, -4, -8, -24, -24, 4, -4, 24, 48]",951718,30.0,68231.0,-6.51926773257e+18,mouselab-mdp,1
"[10756, 11348, 12036]","[u'left', u'left', u'up']",test,"[u'0', u'9', u'10', u'11']","{u'mouseover': {u'state': {u'target': [], u'time': []}, u'edge': {u'target': [], u'time': []}}, u'click': {u'state': {u'target': [u'4', u'3', u'7', u'8', u'11', u'12'], u'time': [1249, 2409, 3149, 6302, 7204, 8060]}, u'edge': {u'target': [], u'time': []}}, u'mouseout': {u'state': {u'target': [], u'time': []}, u'edge': {u'target': [], u'time': []}}}","[4, 4, 24]","[10754, 101, 187]",26.0,"[None, None, None]","[u'', 4, 8, -48, -48, -4, 8, -48, -24, 4, 4, 24, -24]",966576,31.0,13823.0,5.67377080633e+18,mouselab-mdp,1
"[18425, 19104, 19708]","[u'right', u'right', u'up']",test,"[u'0', u'5', u'6', u'7']","{u'mouseover': {u'state': {u'target': [], u'time': []}, u'edge': {u'target': [], u'time': []}}, u'click': {u'state': {u'target': [u'4', u'3', u'7', u'8', u'11', u'12', u'5', u'6', u'9', u'10'], u'time': [697, 1325, 2078, 2783, 3656, 4328, 8084, 8793, 10048, 12857]}, u'edge': {u'target': [], u'time': []}}, u'mouseout': {u'state': {u'target': [], u'time': []}, u'edge': {u'target': [], u'time': []}}}","[4, -8, 48]","[18424, 190, 112]",34.0,"[None, None, None]","[u'', 2, -4, -24, -48, 4, -8, 48, -48, 2, -8, 48, -48]",989255,32.0,21621.0,2.73528446727e+18,mouselab-mdp,1
"[13441, 13981, 14575]","[u'right', u'right', u'down']",test,"[u'0', u'5', u'6', u'8']","{u'mouseover': {u'state': {u'target': [], u'time': []}, u'edge': {u'target': [], u'time': []}}, u'click': {u'state': {u'target': [u'4', u'11', u'7', u'12', u'3', u'8'], u'time': [987, 1976, 3219, 8476, 10966, 11693]}, u'edge': {u'target': [], u'time': []}}, u'mouseout': {u'state': {u'target': [], u'time': []}, u'edge': {u'target': [], u'time': []}}}","[4, 4, 48]","[13440, 36, 95]",50.0,"[None, None, None]","[u'', 2, 8, -48, -48, 4, 4, -48, 48, 4, 8, 24, -48]",1006330,33.0,16044.0,2.59484151302e+18,mouselab-mdp,1
"[8144, 8694, 9254]","[u'right', u'right', u'down']",test,"[u'0', u'5', u'6', u'8']","{u'mouseover': {u'state': {u'target': [], u'time': []}, u'edge': {u'target': [], u'time': []}}, u'click': {u'state': {u'target': [u'4', u'12', u'7', u'3', u'8', u'11'], u'time': [1331, 2254, 3094, 4521, 5489, 6689]}, u'edge': {u'target': [], u'time': []}}, u'mouseout': {u'state': {u'target': [], u'time': []}, u'edge': {u'target': [], u'time': []}}}","[4, 8, 48]","[8143, 59, 54]",54.0,"[None, None, None]","[u'', -2, -4, 24, 24, 4, 8, -24, 48, -4, -8, -48, 24]",1018077,34.0,10713.0,-1.75349825635e+18,mouselab-mdp,1
"[5167, 5726, 6262]","[u'up', u'up', u'left']",test,"[u'0', u'1', u'2', u'4']","{u'mouseover': {u'state': {u'target': [], u'time': []}, u'edge': {u'target': [], u'time': []}}, u'click': {u'state': {u'target': [u'4'], u'time': [984]}, u'edge': {u'target': [], u'time': []}}, u'mouseout': {u'state': {u'target': [], u'time': []}, u'edge': {u'target': [], u'time': []}}}","[-2, 8, 48]","[5165, 65, 18]",53.0,"[None, None, None]","[u'', -2, 8, 24, 48, 2, -4, 48, -48, 2, 8, 24, -48]",1028183,35.0,9061.0,4.4604977699e+18,mouselab-mdp,1
"[10311, 10896, 11431]","[u'up', u'up', u'left']",test,"[u'0', u'1', u'2', u'4']","{u'mouseover': {u'state': {u'target': [], u'time': []}, u'edge': {u'target': [], u'time': []}}, u'click': {u'state': {u'target': [u'7', u'12', u'3', u'11', u'8', u'4'], u'time': [1638, 2874, 3690, 4689, 8164, 9004]}, u'edge': {u'target': [], u'time': []}}, u'mouseout': {u'state': {u'target': [], u'time': []}, u'edge': {u'target': [], u'time': []}}}","[4, 8, 48]","[10308, 94, 45]",54.0,"[None, None, None]","[u'', 4, 8, 24, 48, -4, 8, -48, -48, -2, -8, 24, -48]",1042109,36.0,12895.0,-2.59634084751e+18,mouselab-mdp,1
"[21526, 22116, 22702]","[u'right', u'right', u'up']",test,"[u'0', u'5', u'6', u'7']","{u'mouseover': {u'state': {u'target': [], u'time': []}, u'edge': {u'target': [], u'time': []}}, u'click': {u'state': {u'target': [u'4', u'7', u'11', u'12', u'8', u'3', u'2', u'6'], u'time': [1167, 2120, 13023, 13855, 14521, 15667, 19476, 20246]}, u'edge': {u'target': [], u'time': []}}, u'mouseout': {u'state': {u'target': [], u'time': []}, u'edge': {u'target': [], u'time': []}}}","[4, 8, 48]","[21525, 94, 95]",52.0,"[None, None, None]","[u'', -2, -4, 48, -48, 4, 8, 48, 24, 2, -4, -48, -24]",1067099,37.0,23956.0,-6.80295122046e+18,mouselab-mdp,1
"[7635, 8139, 8702]","[u'left', u'left', u'up']",test,"[u'0', u'9', u'10', u'11']","{u'mouseover': {u'state': {u'target': [], u'time': []}, u'edge': {u'target': [], u'time': []}}, u'click': {u'state': {u'target': [u'3', u'11', u'8', u'7', u'4'], u'time': [1270, 2303, 3546, 4674, 5695]}, u'edge': {u'target': [], u'time': []}}, u'mouseout': {u'state': {u'target': [], u'time': []}, u'edge': {u'target': [], u'time': []}}}","[2, -4, 48]","[7634, 10, 36]",41.0,"[None, None, None]","[u'', 4, 8, 24, 24, -4, -4, -24, -48, 2, -4, 48, 48]",1077826,38.0,9692.0,2.06077812078e+18,mouselab-mdp,1
"[7870, 8503, 9110]","[u'right', u'right', u'down']",test,"[u'0', u'5', u'6', u'8']","{u'mouseover': {u'state': {u'target': [], u'time': []}, u'edge': {u'target': [], u'time': []}}, u'click': {u'state': {u'target': [u'11', u'7', u'4', u'3', u'12'], u'time': [1225, 2130, 2959, 5109, 6061]}, u'edge': {u'target': [], u'time': []}}, u'mouseout': {u'state': {u'target': [], u'time': []}, u'edge': {u'target': [], u'time': []}}}","[2, -8, 48]","[7869, 130, 117]",37.0,"[None, None, None]","[u'', -4, -8, -48, 24, 2, -8, -48, 48, 2, -8, -24, 24]",1089320,39.0,10463.0,-3.53733836395e+18,mouselab-mdp,1
"[4640, 5177, 5723]","[u'up', u'up', u'right']",test,"[u'0', u'1', u'2', u'3']","{u'mouseover': {u'state': {u'target': [], u'time': []}, u'edge': {u'target': [], u'time': []}}, u'click': {u'state': {u'target': [u'3'], u'time': [1006]}, u'edge': {u'target': [], u'time': []}}, u'mouseout': {u'state': {u'target': [], u'time': []}, u'edge': {u'target': [], u'time': []}}}","[-4, 8, 48]","[4639, 30, 27]",51.0,"[None, None, None]","[u'', -4, 8, 48, -48, -4, -4, -48, 48, -2, 8, 24, 48]",1099720,40.0,9349.0,-4.68931019568e+18,mouselab-mdp,1
"[3204, 3790, 4397]","[u'left', u'left', u'up']",test,"[u'0', u'9', u'10', u'11']","{u'mouseover': {u'state': {u'target': [], u'time': []}, u'edge': {u'target': [], u'time': []}}, u'click': {u'state': {u'target': [u'3', u'11'], u'time': [870, 1695]}, u'edge': {u'target': [], u'time': []}}, u'mouseout': {u'state': {u'target': [], u'time': []}, u'edge': {u'target': [], u'time': []}}}","[2, -8, 48]","[3202, 97, 102]",40.0,"[None, None, None]","[u'', -4, -4, -24, 24, -2, 4, 24, 24, 2, -8, 48, 48]",1109701,41.0,8947.0,-3.85844803044e+18,mouselab-mdp,1
"[10109, 10720, 11334]","[u'left', u'left', u'down']",test,"[u'0', u'9', u'10', u'12']","{u'mouseover': {u'state': {u'target': [], u'time': []}, u'edge': {u'target': [], u'time': []}}, u'click': {u'state': {u'target': [u'7', u'11', u'3', u'4', u'8'], u'time': [1645, 3058, 5525, 7355, 8750]}, u'edge': {u'target': [], u'time': []}}, u'mouseout': {u'state': {u'target': [], u'time': []}, u'edge': {u'target': [], u'time': []}}}","[-4, 4, 48]","[10109, 108, 119]",43.0,"[None, None, None]","[u'', 4, 8, -24, 24, 4, -4, -24, 24, -4, 4, -24, 48]",1123175,42.0,12440.0,2.94833653142e+18,mouselab-mdp,1
"[5027, 5587, 6133]","[u'left', u'left', u'up']",test,"[u'0', u'9', u'10', u'11']","{u'mouseover': {u'state': {u'target': [], u'time': []}, u'edge': {u'target': [], u'time': []}}, u'click': {u'state': {u'target': [u'8', u'3', u'11'], u'time': [779, 2318, 3594]}, u'edge': {u'target': [], u'time': []}}, u'mouseout': {u'state': {u'target': [], u'time': []}, u'edge': {u'target': [], u'time': []}}}","[4, 4, 48]","[5026, 65, 47]",53.0,"[None, None, None]","[u'', 2, -4, -48, -24, -2, -4, 48, -24, 4, 4, 48, -24]",1132936,43.0,8724.0,7.5208296533e+18,mouselab-mdp,1
"[7748, 8394, 9133]","[u'up', u'up', u'left']",test,"[u'0', u'1', u'2', u'4']","{u'mouseover': {u'state': {u'target': [], u'time': []}, u'edge': {u'target': [], u'time': []}}, u'click': {u'state': {u'target': [u'3', u'11', u'8', u'4'], u'time': [1111, 2576, 3735, 5162]}, u'edge': {u'target': [], u'time': []}}, u'mouseout': {u'state': {u'target': [], u'time': []}, u'edge': {u'target': [], u'time': []}}}","[2, 4, 48]","[7748, 150, 238]",50.0,"[None, None, None]","[u'', 2, 4, -24, 48, 2, -4, 24, 24, 2, -4, -48, -24]",1144421,44.0,10451.0,7.34135041139e+18,mouselab-mdp,1
"[3329, 3900, 4425]","[u'left', u'left', u'up']",test,"[u'0', u'9', u'10', u'11']","{u'mouseover': {u'state': {u'target': [], u'time': []}, u'edge': {u'target': [], u'time': []}}, u'click': {u'state': {u'target': [u'3', u'11'], u'time': [928, 1884]}, u'edge': {u'target': [], u'time': []}}, u'mouseout': {u'state': {u'target': [], u'time': []}, u'edge': {u'target': [], u'time': []}}}","[-2, -8, 48]","[3328, 77, 34]",36.0,"[None, None, None]","[u'', 2, 4, 24, 48, 2, -4, -24, -48, -2, -8, 48, -48]",1154221,45.0,8764.0,-7.08236592099e+18,mouselab-mdp,1
"[2525, 3057, 4279]","[u'right', u'right', u'up']",test,"[u'0', u'5', u'6', u'7']","{u'mouseover': {u'state': {u'target': [], u'time': []}, u'edge': {u'target': [], u'time': []}}, u'click': {u'state': {u'target': [u'7'], u'time': [958]}, u'edge': {u'target': [], u'time': []}}, u'mouseout': {u'state': {u'target': [], u'time': []}, u'edge': {u'target': [], u'time': []}}}","[-2, -8, 48]","[2523, 27, 719]",37.0,"[None, None, None]","[u'', -4, -4, 48, -48, -2, -8, 48, 48, -4, -4, -48, 48]",1167105,46.0,11852.0,7.16068933233e+18,mouselab-mdp,1
"[12721, 13308, 13856]","[u'up', u'up', u'right']",test,"[u'0', u'1', u'2', u'3']","{u'mouseover': {u'state': {u'target': [], u'time': []}, u'edge': {u'target': [], u'time': []}}, u'click': {u'state': {u'target': [u'4', u'3', u'2', u'7', u'8', u'11', u'12'], u'time': [2765, 3773, 5113, 7532, 8083, 10218, 10904]}, u'edge': {u'target': [], u'time': []}}, u'mouseout': {u'state': {u'target': [], u'time': []}, u'edge': {u'target': [], u'time': []}}}","[2, -8, 48]","[12720, 84, 43]",35.0,"[None, None, None]","[u'', 2, -8, 48, -48, -2, 8, -48, 24, 2, 8, -24, -48]",1182987,47.0,14848.0,-5.29843985126e+18,mouselab-mdp,1
"[8307, 9615, 10148]","[u'up', u'up', u'right']",test,"[u'0', u'1', u'2', u'3']","{u'mouseover': {u'state': {u'target': [], u'time': []}, u'edge': {u'target': [], u'time': []}}, u'click': {u'state': {u'target': [u'3', u'11', u'8', u'7', u'12'], u'time': [1013, 2331, 4681, 5599, 6501]}, u'edge': {u'target': [], u'time': []}}, u'mouseout': {u'state': {u'target': [], u'time': []}, u'edge': {u'target': [], u'time': []}}}","[4, 8, 48]","[8305, 802, 32]",55.0,"[None, None, None]","[u'', 4, 8, 48, 48, -4, -8, -48, 24, 4, 8, 24, 24]",1195359,48.0,11341.0,-5.73655695109e+18,mouselab-mdp,1
"[7621, 8123, 8781]","[u'left', u'left', u'down']",test,"[u'0', u'9', u'10', u'12']","{u'mouseover': {u'state': {u'target': [], u'time': []}, u'edge': {u'target': [], u'time': []}}, u'click': {u'state': {u'target': [u'3', u'7', u'8', u'11', u'12'], u'time': [851, 2709, 3402, 5403, 6270]}, u'edge': {u'target': [], u'time': []}}, u'mouseout': {u'state': {u'target': [], u'time': []}, u'edge': {u'target': [], u'time': []}}}","[2, -4, 48]","[7620, 15, 156]",41.0,"[None, None, None]","[u'', -2, 8, 24, 24, -2, 4, -24, -48, 2, -4, 24, 48]",1206728,49.0,10340.0,6.61021981156e+18,mouselab-mdp,1
"[8914, 9521, 10109]","[u'left', u'left', u'up']",test,"[u'0', u'9', u'10', u'11']","{u'mouseover': {u'state': {u'target': [], u'time': []}, u'edge': {u'target': [], u'time': []}}, u'click': {u'state': {u'target': [u'4', u'7', u'12', u'11', u'6', u'10'], u'time': [2310, 3888, 5167, 5806, 7184, 7812]}, u'edge': {u'target': [], u'time': []}}, u'mouseout': {u'state': {u'target': [], u'time': []}, u'edge': {u'target': [], u'time': []}}}","[4, 4, 48]","[8913, 106, 94]",50.0,"[None, None, None]","[u'', -4, 8, -24, -48, 4, -4, 48, 24, 4, 4, 48, -24]",1218797,50.0,11015.0,7.11229992246e+18,mouselab-mdp,1
"[11026, 11514, 12076]","[u'up', u'up', u'left']",test,"[u'0', u'1', u'2', u'4']","{u'mouseover': {u'state': {u'target': [], u'time': []}, u'edge': {u'target': [], u'time': []}}, u'click': {u'state': {u'target': [u'3', u'4', u'7', u'8', u'12', u'11'], u'time': [1537, 2549, 3846, 4764, 8261, 9036]}, u'edge': {u'target': [], u'time': []}}, u'mouseout': {u'state': {u'target': [], u'time': []}, u'edge': {u'target': [], u'time': []}}}","[2, -8, 48]","[11025, 1, 42]",36.0,"[None, None, None]","[u'', 2, -8, -24, 48, 4, 4, -48, 24, 2, -4, -24, 24]",1232797,51.0,12948.0,1.46664567646e+18,mouselab-mdp,1
"[5521, 6030, 6614]","[u'up', u'up', u'left']",test,"[u'0', u'1', u'2', u'4']","{u'mouseover': {u'state': {u'target': [], u'time': []}, u'edge': {u'target': [], u'time': []}}, u'click': {u'state': {u'target': [u'4', u'7', u'2'], u'time': [1246, 2413, 3884]}, u'edge': {u'target': [], u'time': []}}, u'mouseout': {u'state': {u'target': [], u'time': []}, u'edge': {u'target': [], u'time': []}}}","[-4, 8, 48]","[5521, 10, 60]",49.0,"[None, None, None]","[u'', -4, 8, -48, 48, 2, -4, 48, -48, 2, -8, 24, -48]",1243225,52.0,9397.0,5.25859295006e+18,mouselab-mdp,1
"[10264, 10827, 11462]","[u'right', u'right', u'down']",test,"[u'0', u'5', u'6', u'8']","{u'mouseover': {u'state': {u'target': [], u'time': []}, u'edge': {u'target': [], u'time': []}}, u'click': {u'state': {u'target': [u'4', u'7', u'11', u'3', u'12'], u'time': [1112, 2014, 3154, 7576, 8937]}, u'edge': {u'target': [], u'time': []}}, u'mouseout': {u'state': {u'target': [], u'time': []}, u'edge': {u'target': [], u'time': []}}}","[4, -8, 48]","[10264, 62, 118]",39.0,"[None, None, None]","[u'', 2, 4, -24, 24, 4, -8, -48, 48, 2, 4, -48, -24]",1256609,53.0,12357.0,-6.74953611422e+18,mouselab-mdp,1
"[6893, 7408, 8070]","[u'right', u'right', u'up']",test,"[u'0', u'5', u'6', u'7']","{u'mouseover': {u'state': {u'target': [], u'time': []}, u'edge': {u'target': [], u'time': []}}, u'click': {u'state': {u'target': [u'7', u'4', u'12', u'3', u'11'], u'time': [1044, 2090, 3004, 3886, 5242]}, u'edge': {u'target': [], u'time': []}}, u'mouseout': {u'state': {u'target': [], u'time': []}, u'edge': {u'target': [], u'time': []}}}","[-2, 4, 48]","[6892, 3, 149]",45.0,"[None, None, None]","[u'', -2, 4, -48, -24, -2, 4, 48, -24, 4, -4, 24, -48]",1266690,54.0,9029.0,6.47501706979e+18,mouselab-mdp,1
"[6675, 7215, 7825]","[u'left', u'left', u'up']",test,"[u'0', u'9', u'10', u'11']","{u'mouseover': {u'state': {u'target': [], u'time': []}, u'edge': {u'target': [], u'time': []}}, u'click': {u'state': {u'target': [u'3', u'8', u'11', u'7', u'4'], u'time': [812, 1872, 3286, 4368, 5291]}, u'edge': {u'target': [], u'time': []}}, u'mouseout': {u'state': {u'target': [], u'time': []}, u'edge': {u'target': [], u'time': []}}}","[4, -8, 48]","[6675, 41, 98]",39.0,"[None, None, None]","[u'', 2, 4, -48, 24, -4, 8, 24, -48, 4, -8, 48, 24]",1277677,55.0,9937.0,8.56308195224e+18,mouselab-mdp,1
"[18976, 19726, 20268]","[u'right', u'right', u'down']",test,"[u'0', u'5', u'6', u'8']","{u'mouseover': {u'state': {u'target': [], u'time': []}, u'edge': {u'target': [], u'time': []}}, u'click': {u'state': {u'target': [u'4', u'7', u'3', u'11', u'8', u'6', u'10', u'9'], u'time': [752, 1465, 2195, 3545, 5016, 8699, 10858, 16442]}, u'edge': {u'target': [], u'time': []}}, u'mouseout': {u'state': {u'target': [], u'time': []}, u'edge': {u'target': [], u'time': []}}}","[2, 4, 48]","[18975, 251, 47]",46.0,"[None, None, None]","[u'', 2, -4, -48, 24, 2, 4, -48, 48, -4, 4, 48, -48]",1300002,56.0,21294.0,5.29721708418e+18,mouselab-mdp,1
"[8483, 9069, 9600]","[u'up', u'up', u'left']",test,"[u'0', u'1', u'2', u'4']","{u'mouseover': {u'state': {u'target': [], u'time': []}, u'edge': {u'target': [], u'time': []}}, u'click': {u'state': {u'target': [u'7', u'4', u'12', u'8', u'2', u'6'], u'time': [984, 1738, 2641, 3519, 4735, 7054]}, u'edge': {u'target': [], u'time': []}}, u'mouseout': {u'state': {u'target': [], u'time': []}, u'edge': {u'target': [], u'time': []}}}","[2, 4, 48]","[8483, 90, 22]",48.0,"[None, None, None]","[u'', 2, 4, -24, 48, 2, -8, -24, 48, 4, 4, 24, 24]",1311629,57.0,10595.0,-1.66167139289e+18,mouselab-mdp,1
"[9985, 10538, 11563]","[u'up', u'up', u'right']",test,"[u'0', u'1', u'2', u'3']","{u'mouseover': {u'state': {u'target': [], u'time': []}, u'edge': {u'target': [], u'time': []}}, u'click': {u'state': {u'target': [u'4', u'7', u'11', u'8', u'12'], u'time': [883, 1744, 2612, 3503, 8505]}, u'edge': {u'target': [], u'time': []}}, u'mouseout': {u'state': {u'target': [], u'time': []}, u'edge': {u'target': [], u'time': []}}}","[4, 4, 48]","[9984, 49, 521]",51.0,"[None, None, None]","[u'', 4, 4, 48, 24, 4, 8, -24, -48, 2, -4, -48, 24]",1325096,58.0,12438.0,-4.31551439298e+18,mouselab-mdp,1
"[7554, 8156, 8787]","[u'left', u'left', u'down']",test,"[u'0', u'9', u'10', u'12']","{u'mouseover': {u'state': {u'target': [], u'time': []}, u'edge': {u'target': [], u'time': []}}, u'click': {u'state': {u'target': [u'3', u'11', u'7', u'4', u'8'], u'time': [928, 1818, 2792, 4236, 5536]}, u'edge': {u'target': [], u'time': []}}, u'mouseout': {u'state': {u'target': [], u'time': []}, u'edge': {u'target': [], u'time': []}}}","[2, 8, 48]","[7553, 103, 132]",53.0,"[None, None, None]","[u'', -2, 8, 24, -48, 4, 4, -48, -24, 2, 8, -48, 48]",1336068,59.0,9942.0,5.18817082972e+18,mouselab-mdp,1
"[79073, 79877, 80659]","[u'up', u'up', u'right']",train_basic,"[u'0', u'1', u'2', u'3']","{u'mouseover': {u'state': {u'target': [], u'time': []}, u'edge': {u'target': [], u'time': []}}, u'click': {u'state': {u'target': [], u'time': []}, u'edge': {u'target': [], u'time': []}}, u'mouseout': {u'state': {u'target': [], u'time': []}, u'edge': {u'target': [], u'time': []}}}","[4, 4, 48]","[79068, 306, 289]",56.0,"[None, None, None]","[u'', 4, 4, 48, -24, 4, -4, -48, 48, 2, -8, 48, 24]",95525,0.0,95346.0,-8.5802004347e+18,mouselab-mdp,2
"[12483, 13749, 14272]","[u'left', u'left', u'up']",train_basic,"[u'0', u'9', u'10', u'11']","{u'mouseover': {u'state': {u'target': [], u'time': []}, u'edge': {u'target': [], u'time': []}}, u'click': {u'state': {u'target': [], u'time': []}, u'edge': {u'target': [], u'time': []}}, u'mouseout': {u'state': {u'target': [], u'time': []}, u'edge': {u'target': [], u'time': []}}}","[2, -4, 48]","[12482, 774, 30]",46.0,"[None, None, None]","[u'', -4, -4, -24, 48, 4, -4, 24, -48, 2, -4, 48, 24]",113530,1.0,16926.0,6.16152731316e+18,mouselab-mdp,2
"[3115, 4612, 5209]","[u'right', u'right', u'up']",train_basic,"[u'0', u'5', u'6', u'7']","{u'mouseover': {u'state': {u'target': [], u'time': []}, u'edge': {u'target': [], u'time': []}}, u'click': {u'state': {u'target': [], u'time': []}, u'edge': {u'target': [], u'time': []}}, u'mouseout': {u'state': {u'target': [], u'time': []}, u'edge': {u'target': [], u'time': []}}}","[4, 4, 48]","[3113, 994, 107]",56.0,"[None, None, None]","[u'', -4, -4, -48, 24, 4, 4, 48, -24, 4, -4, 48, 24]",121830,2.0,7232.0,1.51884547362e+18,mouselab-mdp,2
"[5280, 5964, 6492]","[u'left', u'left', u'up']",train_basic,"[u'0', u'9', u'10', u'11']","{u'mouseover': {u'state': {u'target': [], u'time': []}, u'edge': {u'target': [], u'time': []}}, u'click': {u'state': {u'target': [], u'time': []}, u'edge': {u'target': [], u'time': []}}, u'mouseout': {u'state': {u'target': [], u'time': []}, u'edge': {u'target': [], u'time': []}}}","[4, -4, 48]","[5278, 194, 39]",48.0,"[None, None, None]","[u'', 4, -4, -48, -48, -4, 8, -48, -24, 4, -4, 48, -24]",131199,3.0,8297.0,-6.3406539033e+18,mouselab-mdp,2
"[3789, 4372, 4912]","[u'right', u'right', u'up']",train_basic,"[u'0', u'5', u'6', u'7']","{u'mouseover': {u'state': {u'target': [], u'time': []}, u'edge': {u'target': [], u'time': []}}, u'click': {u'state': {u'target': [], u'time': []}, u'edge': {u'target': [], u'time': []}}, u'mouseout': {u'state': {u'target': [], u'time': []}, u'edge': {u'target': [], u'time': []}}}","[4, -4, 48]","[3787, 84, 41]",48.0,"[None, None, None]","[u'', 2, -8, 48, -48, 4, -4, 48, 24, 2, -8, -48, -48]",139190,4.0,6919.0,8.63855716523e+17,mouselab-mdp,2
"[22410, 23908, 24488]","[u'up', u'up', u'left']",train_basic2,"[u'0', u'1', u'2', u'4']","{u'mouseover': {u'state': {u'target': [], u'time': []}, u'edge': {u'target': [], u'time': []}}, u'click': {u'state': {u'target': [], u'time': []}, u'edge': {u'target': [], u'time': []}}, u'mouseout': {u'state': {u'target': [], u'time': []}, u'edge': {u'target': [], u'time': []}}}","[-4, 8, 24]","[22408, 1006, 85]",28.0,"[None, None, None]","[u'', -4, 8, -24, 24, 2, -8, -48, -48, -4, -4, -48, -48]",169399,5.0,26846.0,1.54464188344e+18,mouselab-mdp,2
"[3882, 4421, 4988]","[u'right', u'right', u'up']",train_basic2,"[u'0', u'5', u'6', u'7']","{u'mouseover': {u'state': {u'target': [], u'time': []}, u'edge': {u'target': [], u'time': []}}, u'click': {u'state': {u'target': [], u'time': []}, u'edge': {u'target': [], u'time': []}}, u'mouseout': {u'state': {u'target': [], u'time': []}, u'edge': {u'target': [], u'time': []}}}","[4, -8, 48]","[3880, 45, 78]",44.0,"[None, None, None]","[u'', -2, -4, 48, -24, 4, -8, 48, -48, 2, -8, 24, -48]",177182,6.0,6715.0,-8.86721219229e+18,mouselab-mdp,2
"[1235, 2628, 3204]","[u'up', u'up', u'left']",train_basic2,"[u'0', u'1', u'2', u'4']","{u'mouseover': {u'state': {u'target': [], u'time': []}, u'edge': {u'target': [], u'time': []}}, u'click': {u'state': {u'target': [], u'time': []}, u'edge': {u'target': [], u'time': []}}, u'mouseout': {u'state': {u'target': [], u'time': []}, u'edge': {u'target': [], u'time': []}}}","[2, 8, 48]","[1233, 899, 76]",58.0,"[None, None, None]","[u'', 2, 8, -48, 48, 4, 4, -24, 48, -4, -4, 48, -24]",183729,7.0,5479.0,-9.09463966077e+18,mouselab-mdp,2
"[1668, 2857, 3471]","[u'right', u'right', u'down']",train_basic2,"[u'0', u'5', u'6', u'8']","{u'mouseover': {u'state': {u'target': [], u'time': []}, u'edge': {u'target': [], u'time': []}}, u'click': {u'state': {u'target': [], u'time': []}, u'edge': {u'target': [], u'time': []}}, u'mouseout': {u'state': {u'target': [], u'time': []}, u'edge': {u'target': [], u'time': []}}}","[-4, 8, 24]","[1666, 698, 113]",28.0,"[None, None, None]","[u'', 4, -8, -24, -24, -4, 8, -24, 24, -2, -8, -48, -48]",189709,8.0,4919.0,3.45729407456e+18,mouselab-mdp,2
"[2834, 3372, 3952]","[u'right', u'right', u'up']",train_basic2,"[u'0', u'5', u'6', u'7']","{u'mouseover': {u'state': {u'target': [], u'time': []}, u'edge': {u'target': [], u'time': []}}, u'click': {u'state': {u'target': [], u'time': []}, u'edge': {u'target': [], u'time': []}}, u'mouseout': {u'state': {u'target': [], u'time': []}, u'edge': {u'target': [], u'time': []}}}","[4, 4, 48]","[2833, 39, 68]",56.0,"[None, None, None]","[u'', -2, -8, 48, 24, 4, 4, 48, 24, 2, -8, -24, -48]",196134,9.0,5349.0,-6.48073159306e+18,mouselab-mdp,2
"[15737, 17361, 19814]","[u'right', u'right', u'up']",train_hidden,"[u'0', u'5', u'6', u'7']","{u'mouseover': {u'state': {u'target': [], u'time': []}, u'edge': {u'target': [], u'time': []}}, u'click': {u'state': {u'target': [], u'time': []}, u'edge': {u'target': [], u'time': []}}, u'mouseout': {u'state': {u'target': [], u'time': []}, u'edge': {u'target': [], u'time': []}}}","[-2, 4, -48]","[15735, 1122, 1958]",-46.0,"[None, None, None]","[u'', -4, 8, -48, 24, -2, 4, -48, -48, 4, 8, -24, 24]",222461,10.0,23088.0,6.40648062811e+18,mouselab-mdp,2
"[4590, 8917, 10757]","[u'left', u'left', u'down']",train_hidden,"[u'0', u'9', u'10', u'12']","{u'mouseover': {u'state': {u'target': [], u'time': []}, u'edge': {u'target': [], u'time': []}}, u'click': {u'state': {u'target': [], u'time': []}, u'edge': {u'target': [], u'time': []}}, u'mouseout': {u'state': {u'target': [], u'time': []}, u'edge': {u'target': [], u'time': []}}}","[-4, -8, -48]","[4588, 3824, 1345]",-60.0,"[None, None, None]","[u'', -2, -8, -24, 48, 4, 8, 48, -48, -4, -8, -24, -48]",236809,11.0,13284.0,-1.96643223462e+18,mouselab-mdp,2
"[4868, 6602, 7627]","[u'up', u'up', u'right']",train_hidden,"[u'0', u'1', u'2', u'3']","{u'mouseover': {u'state': {u'target': [], u'time': []}, u'edge': {u'target': [], u'time': []}}, u'click': {u'state': {u'target': [], u'time': []}, u'edge': {u'target': [], u'time': []}}, u'mouseout': {u'state': {u'target': [], u'time': []}, u'edge': {u'target': [], u'time': []}}}","[-4, -4, -24]","[4866, 1237, 528]",-32.0,"[None, None, None]","[u'', -4, -4, -24, 24, -4, -8, -48, -48, 2, -4, -24, 24]",247394,12.0,9500.0,-5.7125146387e+18,mouselab-mdp,2
"[4348, 6902, 8188]","[u'right', u'right', u'down']",train_hidden,"[u'0', u'5', u'6', u'8']","{u'mouseover': {u'state': {u'target': [], u'time': []}, u'edge': {u'target': [], u'time': []}}, u'click': {u'state': {u'target': [], u'time': []}, u'edge': {u'target': [], u'time': []}}, u'mouseout': {u'state': {u'target': [], u'time': []}, u'edge': {u'target': [], u'time': []}}}","[-2, -8, -24]","[4346, 2065, 782]",-34.0,"[None, None, None]","[u'', -2, -8, 24, 24, -2, -8, 24, -24, 4, -4, 24, -48]",260953,13.0,12495.0,7.41923508503e+18,mouselab-mdp,2
"[1425, 2456, 4166]","[u'left', u'left', u'up']",train_hidden,"[u'0', u'9', u'10', u'11']","{u'mouseover': {u'state': {u'target': [], u'time': []}, u'edge': {u'target': [], u'time': []}}, u'click': {u'state': {u'target': [], u'time': []}, u'edge': {u'target': [], u'time': []}}, u'mouseout': {u'state': {u'target': [], u'time': []}, u'edge': {u'target': [], u'time': []}}}","[4, 4, 48]","[1423, 531, 1209]",56.0,"[None, None, None]","[u'', 2, 8, 48, 48, -4, -8, 24, 48, 4, 4, 48, 24]",268822,14.0,6812.0,4.61011171886e+17,mouselab-mdp,2
"[120546, 121070, 122099]","[u'right', u'right', u'up']",train_inspector,"[u'0', u'5', u'6', u'7']","{u'mouseover': {u'state': {u'target': [], u'time': []}, u'edge': {u'target': [], u'time': []}}, u'click': {u'state': {u'target': [u'6', u'5', u'7', u'8', u'9', u'10', u'12', u'11', u'1', u'2', u'4', u'3'], u'time': [33821, 36084, 37701, 38621, 40934, 41603, 43401, 44835, 45585, 46460, 47064, 47784]}, u'edge': {u'target': [], u'time': []}}, u'mouseout': {u'state': {u'target': [], u'time': []}, u'edge': {u'target': [], u'time': []}}}","[2, -4, 24]","[120543, 24, 536]",22.0,"[None, None, None]","[u'', -2, -8, 24, 24, 2, -4, 24, -48, -2, -4, -24, -48]",396508,15.0,124377.0,7.03712829593e+18,mouselab-mdp,2
"[24078, 24630, 25163]","[u'right', u'right', u'up']",train_inspector,"[u'0', u'5', u'6', u'7']","{u'mouseover': {u'state': {u'target': [], u'time': []}, u'edge': {u'target': [], u'time': []}}, u'click': {u'state': {u'target': [u'7', u'6'], u'time': [17551, 22772]}, u'edge': {u'target': [], u'time': []}}, u'mouseout': {u'state': {u'target': [], u'time': []}, u'edge': {u'target': [], u'time': []}}}","[-2, 4, 48]","[24075, 49, 32]",50.0,"[None, None, None]","[u'', 2, -4, 48, -24, -2, 4, 48, -48, 2, 8, -48, 24]",424941,16.0,27365.0,-3.02495073278e+17,mouselab-mdp,2
"[16162, 16673, 17237]","[u'left', u'left', u'up']",train_inspector,"[u'0', u'9', u'10', u'11']","{u'mouseover': {u'state': {u'target': [], u'time': []}, u'edge': {u'target': [], u'time': []}}, u'click': {u'state': {u'target': [u'7', u'4', u'3', u'12', u'11', u'10', u'9'], u'time': [4151, 5711, 10426, 11282, 12477, 14348, 15108]}, u'edge': {u'target': [], u'time': []}}, u'mouseout': {u'state': {u'target': [], u'time': []}, u'edge': {u'target': [], u'time': []}}}","[4, -4, 48]","[16159, 22, 70]",48.0,"[None, None, None]","[u'', -2, 8, -24, 24, 2, -8, -48, -24, 4, -4, 48, -48]",457632,17.0,31599.0,-6.37305172053e+18,mouselab-mdp,2
"[23360, 24309, 24862]","[u'left', u'left', u'down']",train_inspector,"[u'0', u'9', u'10', u'12']","{u'mouseover': {u'state': {u'target': [], u'time': []}, u'edge': {u'target': [], u'time': []}}, u'click': {u'state': {u'target': [u'7', u'8', u'12', u'11', u'4', u'3', u'10', u'9', u'1', u'2', u'5', u'6'], u'time': [5896, 7904, 9197, 9786, 10385, 10901, 12178, 12618, 13028, 13374, 13973, 14476]}, u'edge': {u'target': [], u'time': []}}, u'mouseout': {u'state': {u'target': [], u'time': []}, u'edge': {u'target': [], u'time': []}}}","[-4, -4, 48]","[23358, 458, 61]",40.0,"[None, None, None]","[u'', -4, -4, 48, -48, -2, -8, 48, 48, -4, -4, -48, 48]",485279,18.0,26578.0,7.16068933233e+18,mouselab-mdp,2
"[10387, 11090, 11675]","[u'right', u'right', u'down']",train_inspector,"[u'0', u'5', u'6', u'8']","{u'mouseover': {u'state': {u'target': [], u'time': []}, u'edge': {u'target': [], u'time': []}}, u'click': {u'state': {u'target': [u'7', u'3', u'4', u'11', u'12', u'8', u'5', u'6'], u'time': [1909, 3164, 3948, 4809, 5525, 6316, 7275, 8293]}, u'edge': {u'target': [], u'time': []}}, u'mouseout': {u'state': {u'target': [], u'time': []}, u'edge': {u'target': [], u'time': []}}}","[-2, 8, 48]","[10385, 201, 87]",54.0,"[None, None, None]","[u'', 4, -8, -48, -24, -2, 8, 24, 48, -2, -8, -48, -24]",499461,19.0,13124.0,6.5627706739e+18,mouselab-mdp,2
"[34559, 35446, 36061]","[u'right', u'right', u'up']",train_inspect_cost,"[u'0', u'5', u'6', u'7']","{u'mouseover': {u'state': {u'target': [], u'time': []}, u'edge': {u'target': [], u'time': []}}, u'click': {u'state': {u'target': [u'7', u'6'], u'time': [30781, 33388]}, u'edge': {u'target': [], u'time': []}}, u'mouseout': {u'state': {u'target': [], u'time': []}, u'edge': {u'target': [], u'time': []}}}","[4, 8, 48]","[34558, 369, 118]",58.0,"[None, None, None]","[u'', -2, 8, 48, 24, 4, 8, 48, 48, -4, 4, 24, 24]",540818,20.0,38067.0,8.06716957541e+17,mouselab-mdp,2
"[4241, 5138, 5784]","[u'right', u'right', u'up']",train_inspect_cost,"[u'0', u'5', u'6', u'7']","{u'mouseover': {u'state': {u'target': [], u'time': []}, u'edge': {u'target': [], u'time': []}}, u'click': {u'state': {u'target': [u'7', u'6'], u'time': [1436, 3131]}, u'edge': {u'target': [], u'time': []}}, u'mouseout': {u'state': {u'target': [], u'time': []}, u'edge': {u'target': [], u'time': []}}}","[4, 4, 48]","[4239, 407, 152]",54.0,"[None, None, None]","[u'', 4, -4, 24, 24, 4, 4, 48, -48, 4, -8, -24, 48]",549609,21.0,7725.0,8.69559053241e+18,mouselab-mdp,2
"[6296, 6904, 7586]","[u'right', u'right', u'down']",train_inspect_cost,"[u'0', u'5', u'6', u'8']","{u'mouseover': {u'state': {u'target': [], u'time': []}, u'edge': {u'target': [], u'time': []}}, u'click': {u'state': {u'target': [u'7', u'8'], u'time': [1853, 4373]}, u'edge': {u'target': [], u'time': []}}, u'mouseout': {u'state': {u'target': [], u'time': []}, u'edge': {u'target': [], u'time': []}}}","[2, 4, 48]","[6294, 109, 191]",52.0,"[None, None, None]","[u'', 2, -4, -48, 24, 2, 4, -48, 48, -4, 4, 48, -48]",559856,22.0,9181.0,5.29721708418e+18,mouselab-mdp,2
"[2661, 3462, 4127]","[u'right', u'right', u'up']",train_inspect_cost,"[u'0', u'5', u'6', u'7']","{u'mouseover': {u'state': {u'target': [], u'time': []}, u'edge': {u'target': [], u'time': []}}, u'click': {u'state': {u'target': [u'7'], u'time': [776]}, u'edge': {u'target': [], u'time': []}}, u'mouseout': {u'state': {u'target': [], u'time': []}, u'edge': {u'target': [], u'time': []}}}","[-4, -8, 48]","[2658, 302, 166]",35.0,"[None, None, None]","[u'', -2, 4, -24, -24, -4, -8, 48, -24, 4, -8, -24, 24]",567460,23.0,6547.0,-5.12343493776e+16,mouselab-mdp,2
"[8423, 9127, 10101]","[u'left', u'left', u'down']",train_inspect_cost,"[u'0', u'9', u'10', u'12']","{u'mouseover': {u'state': {u'target': [], u'time': []}, u'edge': {u'target': [], u'time': []}}, u'click': {u'state': {u'target': [u'7', u'8', u'11', u'12'], u'time': [724, 3637, 4725, 5759]}, u'edge': {u'target': [], u'time': []}}, u'mouseout': {u'state': {u'target': [], u'time': []}, u'edge': {u'target': [], u'time': []}}}","[2, -8, 48]","[8422, 209, 483]",38.0,"[None, None, None]","[u'', -4, -4, -24, 24, -2, 4, 24, 24, 2, -8, 48, 48]",580603,24.0,12075.0,-3.85844803044e+18,mouselab-mdp,2
"[69743, 70261, 70812]","[u'right', u'right', u'up']",train_final,"[u'0', u'5', u'6', u'7']","{u'mouseover': {u'state': {u'target': [], u'time': []}, u'edge': {u'target': [], u'time': []}}, u'click': {u'state': {u'target': [u'7', u'6', u'11', u'12', u'3', u'2'], u'time': [46339, 49847, 55628, 57489, 58806, 59944]}, u'edge': {u'target': [], u'time': []}}, u'mouseout': {u'state': {u'target': [], u'time': []}, u'edge': {u'target': [], u'time': []}}}","[-2, -8, 48]","[69742, 26, 60]",32.0,"[None, None, None]","[u'', -4, -8, 48, -48, -2, -8, 48, 24, -2, 8, 24, -24]",656736,25.0,72823.0,6.22141105441e+18,mouselab-mdp,2
"[14012, 14540, 15064]","[u'right', u'right', u'down']",train_final,"[u'0', u'5', u'6', u'8']","{u'mouseover': {u'state': {u'target': [], u'time': []}, u'edge': {u'target': [], u'time': []}}, u'click': {u'state': {u'target': [u'7', u'8', u'6'], u'time': [1171, 3469, 9508]}, u'edge': {u'target': [], u'time': []}}, u'mouseout': {u'state': {u'target': [], u'time': []}, u'edge': {u'target': [], u'time': []}}}","[4, -8, 48]","[14010, 28, 35]",41.0,"[None, None, None]","[u'', 2, 4, -24, 24, 4, -8, -48, 48, 2, 4, -48, -24]",674682,26.0,16871.0,-6.74953611422e+18,mouselab-mdp,2
"[9584, 10109, 10694]","[u'left', u'left', u'down']",train_final,"[u'0', u'9', u'10', u'12']","{u'mouseover': {u'state': {u'target': [], u'time': []}, u'edge': {u'target': [], u'time': []}}, u'click': {u'state': {u'target': [u'7', u'8', u'11', u'12', u'4', u'3'], u'time': [936, 1889, 3067, 5214, 6213, 7521]}, u'edge': {u'target': [], u'time': []}}, u'mouseout': {u'state': {u'target': [], u'time': []}, u'edge': {u'target': [], u'time': []}}}","[-2, 4, 24]","[9581, 20, 88]",20.0,"[None, None, None]","[u'', -2, 4, -48, -24, -4, -8, -48, -24, -2, 4, -24, 24]",688181,27.0,12440.0,4.50698344638e+18,mouselab-mdp,2
"[7326, 7868, 8477]","[u'left', u'left', u'up']",train_final,"[u'0', u'9', u'10', u'11']","{u'mouseover': {u'state': {u'target': [], u'time': []}, u'edge': {u'target': [], u'time': []}}, u'click': {u'state': {u'target': [u'7', u'8', u'11'], u'time': [775, 1543, 3037]}, u'edge': {u'target': [], u'time': []}}, u'mouseout': {u'state': {u'target': [], u'time': []}, u'edge': {u'target': [], u'time': []}}}","[-2, -4, 48]","[7324, 45, 104]",39.0,"[None, None, None]","[u'', -2, 8, 24, -24, -4, -4, 24, -24, -2, -4, 48, -24]",699552,28.0,10308.0,1.16491454107e+17,mouselab-mdp,2
"[3568, 4118, 4698]","[u'right', u'right', u'down']",train_final,"[u'0', u'5', u'6', u'8']","{u'mouseover': {u'state': {u'target': [], u'time': []}, u'edge': {u'target': [], u'time': []}}, u'click': {u'state': {u'target': [u'11', u'8'], u'time': [655, 2333]}, u'edge': {u'target': [], u'time': []}}, u'mouseout': {u'state': {u'target': [], u'time': []}, u'edge': {u'target': [], u'time': []}}}","[4, 4, 48]","[3566, 60, 90]",54.0,"[None, None, None]","[u'', 2, 8, -48, -48, 4, 4, -48, 48, 4, 8, 24, -48]",706678,29.0,6065.0,2.59484151302e+18,mouselab-mdp,2
"[3300, 3867, 4452]","[u'right', u'right', u'up']",test,"[u'0', u'5', u'6', u'7']","{u'mouseover': {u'state': {u'target': [], u'time': []}, u'edge': {u'target': [], u'time': []}}, u'click': {u'state': {u'target': [u'7'], u'time': [1669]}, u'edge': {u'target': [], u'time': []}}, u'mouseout': {u'state': {u'target': [], u'time': []}, u'edge': {u'target': [], u'time': []}}}","[4, 8, 48]","[3299, 57, 93]",59.0,"[None, None, None]","[u'', -2, 4, 24, -48, 4, 8, 48, -24, 2, -4, 24, 48]",765455,30.0,9367.0,2.91138569029e+18,mouselab-mdp,2
"[6360, 7210, 7800]","[u'left', u'left', u'down']",test,"[u'0', u'9', u'10', u'12']","{u'mouseover': {u'state': {u'target': [], u'time': []}, u'edge': {u'target': [], u'time': []}}, u'click': {u'state': {u'target': [u'7', u'8', u'11', u'12'], u'time': [836, 1740, 4294, 5313]}, u'edge': {u'target': [], u'time': []}}, u'mouseout': {u'state': {u'target': [], u'time': []}, u'edge': {u'target': [], u'time': []}}}","[2, 8, 48]","[6359, 344, 101]",54.0,"[None, None, None]","[u'', -2, 8, 24, -48, 4, 4, -48, -24, 2, 8, -48, 48]",775490,31.0,8953.0,5.18817082972e+18,mouselab-mdp,2
"[2338, 2917, 3517]","[u'left', u'left', u'down']",test,"[u'0', u'9', u'10', u'12']","{u'mouseover': {u'state': {u'target': [], u'time': []}, u'edge': {u'target': [], u'time': []}}, u'click': {u'state': {u'target': [u'11', u'12'], u'time': [545, 1207]}, u'edge': {u'target': [], u'time': []}}, u'mouseout': {u'state': {u'target': [], u'time': []}, u'edge': {u'target': [], u'time': []}}}","[-4, 4, 48]","[2336, 61, 110]",46.0,"[None, None, None]","[u'', 4, 8, -24, 24, 4, -4, -24, 24, -4, 4, -24, 48]",786632,32.0,10082.0,2.94833653142e+18,mouselab-mdp,2
"[4039, 4618, 5193]","[u'right', u'right', u'down']",test,"[u'0', u'5', u'6', u'8']","{u'mouseover': {u'state': {u'target': [], u'time': []}, u'edge': {u'target': [], u'time': []}}, u'click': {u'state': {u'target': [u'11', u'12', u'7', u'8'], u'time': [798, 1515, 2237, 2894]}, u'edge': {u'target': [], u'time': []}}, u'mouseout': {u'state': {u'target': [], u'time': []}, u'edge': {u'target': [], u'time': []}}}","[2, 4, 48]","[4037, 62, 86]",50.0,"[None, None, None]","[u'', -2, 8, -24, 48, 2, 4, -48, 48, -2, 4, -24, -48]",796087,33.0,8399.0,-6.59366688781e+18,mouselab-mdp,2
"[5561, 6139, 6705]","[u'up', u'up', u'right']",test,"[u'0', u'1', u'2', u'3']","{u'mouseover': {u'state': {u'target': [], u'time': []}, u'edge': {u'target': [], u'time': []}}, u'click': {u'state': {u'target': [u'7', u'8', u'11', u'12', u'4', u'3'], u'time': [1079, 1700, 2555, 3115, 3867, 4547]}, u'edge': {u'target': [], u'time': []}}, u'mouseout': {u'state': {u'target': [], u'time': []}, u'edge': {u'target': [], u'time': []}}}","[2, -8, 48]","[5559, 64, 64]",36.0,"[None, None, None]","[u'', 2, -8, 48, -48, -2, 8, -48, 24, 2, 8, -24, -48]",806700,34.0,9558.0,-5.29843985126e+18,mouselab-mdp,2
"[2939, 3443, 4000]","[u'right', u'right', u'down']",test,"[u'0', u'5', u'6', u'8']","{u'mouseover': {u'state': {u'target': [], u'time': []}, u'edge': {u'target': [], u'time': []}}, u'click': {u'state': {u'target': [u'7', u'8'], u'time': [1200, 1919]}, u'edge': {u'target': [], u'time': []}}, u'mouseout': {u'state': {u'target': [], u'time': []}, u'edge': {u'target': [], u'time': []}}}","[2, -8, 48]","[2937, 11, 52]",40.0,"[None, None, None]","[u'', -2, -8, -48, -24, 2, -8, -48, 48, -2, 4, -48, -48]",816356,35.0,8601.0,-9.74285796851e+17,mouselab-mdp,2
"[4222, 5040, 5640]","[u'left', u'left', u'down']",test,"[u'0', u'9', u'10', u'12']","{u'mouseover': {u'state': {u'target': [], u'time': []}, u'edge': {u'target': [], u'time': []}}, u'click': {u'state': {u'target': [u'7', u'8', u'11', u'12'], u'time': [1161, 1789, 2557, 3235]}, u'edge': {u'target': [], u'time': []}}, u'mouseout': {u'state': {u'target': [], u'time': []}, u'edge': {u'target': [], u'time': []}}}","[-4, -4, 48]","[4221, 328, 111]",36.0,"[None, None, None]","[u'', -2, -4, 48, 24, -2, -4, -48, -24, -4, -4, 24, 48]",826763,36.0,9350.0,-3.17734272016e+18,mouselab-mdp,2
"[5137, 5691, 6347]","[u'left', u'left', u'up']",test,"[u'0', u'9', u'10', u'11']","{u'mouseover': {u'state': {u'target': [], u'time': []}, u'edge': {u'target': [], u'time': []}}, u'click': {u'state': {u'target': [u'7', u'8', u'11'], u'time': [2839, 3415, 4100]}, u'edge': {u'target': [], u'time': []}}, u'mouseout': {u'state': {u'target': [], u'time': []}, u'edge': {u'target': [], u'time': []}}}","[-2, -8, 48]","[5133, 67, 156]",35.0,"[None, None, None]","[u'', 2, 4, 24, 48, 2, -4, -24, -48, -2, -8, 48, -48]",836763,37.0,8940.0,-7.08236592099e+18,mouselab-mdp,2
"[5366, 5934, 6519]","[u'left', u'left', u'down']",test,"[u'0', u'9', u'10', u'12']","{u'mouseover': {u'state': {u'target': [], u'time': []}, u'edge': {u'target': [], u'time': []}}, u'click': {u'state': {u'target': [u'7', u'8', u'11', u'12'], u'time': [1669, 2759, 3631, 4219]}, u'edge': {u'target': [], u'time': []}}, u'mouseout': {u'state': {u'target': [], u'time': []}, u'edge': {u'target': [], u'time': []}}}","[-4, 8, 48]","[5362, 48, 84]",48.0,"[None, None, None]","[u'', -2, 8, 24, -48, -4, 4, -48, -48, -4, 8, 24, 48]",848732,38.0,10915.0,6.73604779987e+18,mouselab-mdp,2
"[4178, 4954, 5702]","[u'right', u'right', u'down']",test,"[u'0', u'5', u'6', u'8']","{u'mouseover': {u'state': {u'target': [], u'time': []}, u'edge': {u'target': [], u'time': []}}, u'click': {u'state': {u'target': [u'7', u'8'], u'time': [2381, 3084]}, u'edge': {u'target': [], u'time': []}}, u'mouseout': {u'state': {u'target': [], u'time': []}, u'edge': {u'target': [], u'time': []}}}","[-4, -8, 48]","[4175, 270, 251]",34.0,"[None, None, None]","[u'', 2, 4, 24, 24, -4, -8, 24, 48, -4, -4, -24, -24]",859802,39.0,10012.0,7.79405771341e+17,mouselab-mdp,2
"[10633, 11176, 12196]","[u'left', u'left', u'down']",test,"[u'0', u'9', u'10', u'12']","{u'mouseover': {u'state': {u'target': [], u'time': []}, u'edge': {u'target': [], u'time': []}}, u'click': {u'state': {u'target': [u'7', u'8', u'11', u'12', u'4', u'3'], u'time': [1429, 2023, 2825, 3360, 4207, 7810]}, u'edge': {u'target': [], u'time': []}}, u'mouseout': {u'state': {u'target': [], u'time': []}, u'edge': {u'target': [], u'time': []}}}","[-4, -8, 24]","[10629, 51, 521]",6.0,"[None, None, None]","[u'', -2, 4, -24, 24, -4, 8, -24, -48, -4, -8, 24, 24]",874920,40.0,14063.0,3.02358967478e+18,mouselab-mdp,2
"[6878, 7488, 8080]","[u'up', u'up', u'right']",test,"[u'0', u'1', u'2', u'3']","{u'mouseover': {u'state': {u'target': [], u'time': []}, u'edge': {u'target': [], u'time': []}}, u'click': {u'state': {u'target': [u'7', u'8', u'11', u'12', u'4', u'3'], u'time': [1954, 2622, 3428, 4135, 4895, 5811]}, u'edge': {u'target': [], u'time': []}}, u'mouseout': {u'state': {u'target': [], u'time': []}, u'edge': {u'target': [], u'time': []}}}","[4, 4, 48]","[6875, 106, 98]",50.0,"[None, None, None]","[u'', 4, 4, 48, 24, 4, 8, -24, -48, 2, -4, -48, 24]",885697,41.0,9692.0,-4.31551439298e+18,mouselab-mdp,2
"[4322, 4895, 5491]","[u'right', u'right', u'up']",test,"[u'0', u'5', u'6', u'7']","{u'mouseover': {u'state': {u'target': [], u'time': []}, u'edge': {u'target': [], u'time': []}}, u'click': {u'state': {u'target': [u'3', u'4', u'7'], u'time': [1671, 2403, 3108]}, u'edge': {u'target': [], u'time': []}}, u'mouseout': {u'state': {u'target': [], u'time': []}, u'edge': {u'target': [], u'time': []}}}","[-2, -4, 48]","[4320, 54, 101]",39.0,"[None, None, None]","[u'', 2, -4, -48, -24, -2, -4, 48, -24, 4, 4, 48, -24]",895196,42.0,8445.0,7.5208296533e+18,mouselab-mdp,2
"[3331, 3897, 4482]","[u'right', u'right', u'down']",test,"[u'0', u'5', u'6', u'8']","{u'mouseover': {u'state': {u'target': [], u'time': []}, u'edge': {u'target': [], u'time': []}}, u'click': {u'state': {u'target': [u'7', u'8'], u'time': [808, 2085]}, u'edge': {u'target': [], u'time': []}}, u'mouseout': {u'state': {u'target': [], u'time': []}, u'edge': {u'target': [], u'time': []}}}","[2, -8, 48]","[3330, 51, 87]",40.0,"[None, None, None]","[u'', 2, 4, -24, 48, 2, -8, -24, 48, 4, 4, 24, 24]",904954,43.0,8704.0,-1.66167139289e+18,mouselab-mdp,2
"[4042, 4617, 5152]","[u'up', u'up', u'left']",test,"[u'0', u'1', u'2', u'4']","{u'mouseover': {u'state': {u'target': [], u'time': []}, u'edge': {u'target': [], u'time': []}}, u'click': {u'state': {u'target': [u'7', u'8', u'3', u'4'], u'time': [767, 1441, 2241, 2937]}, u'edge': {u'target': [], u'time': []}}, u'mouseout': {u'state': {u'target': [], u'time': []}, u'edge': {u'target': [], u'time': []}}}","[-2, 8, 48]","[4040, 61, 45]",50.0,"[None, None, None]","[u'', -2, 8, 24, 48, 2, 4, -24, 24, 4, 8, 48, 24]",914693,44.0,8683.0,2.79012568045e+18,mouselab-mdp,2
"[5975, 6557, 7117]","[u'up', u'up', u'right']",test,"[u'0', u'1', u'2', u'3']","{u'mouseover': {u'state': {u'target': [], u'time': []}, u'edge': {u'target': [], u'time': []}}, u'click': {u'state': {u'target': [u'7', u'8', u'11', u'12', u'4', u'3'], u'time': [1497, 2161, 2851, 3516, 4250, 4968]}, u'edge': {u'target': [], u'time': []}}, u'mouseout': {u'state': {u'target': [], u'time': []}, u'edge': {u'target': [], u'time': []}}}","[2, 8, 48]","[5973, 63, 73]",52.0,"[None, None, None]","[u'', 2, 8, 48, -24, 2, 8, -24, 24, -4, -4, -48, 24]",925623,45.0,9879.0,-2.41028578503e+18,mouselab-mdp,2
"[6349, 6944, 7486]","[u'up', u'up', u'left']",test,"[u'0', u'1', u'2', u'4']","{u'mouseover': {u'state': {u'target': [], u'time': []}, u'edge': {u'target': [], u'time': []}}, u'click': {u'state': {u'target': [u'7', u'8', u'3', u'4'], u'time': [598, 1700, 2576, 5233]}, u'edge': {u'target': [], u'time': []}}, u'mouseout': {u'state': {u'target': [], u'time': []}, u'edge': {u'target': [], u'time': []}}}","[-2, 8, 48]","[6348, 77, 53]",50.0,"[None, None, None]","[u'', -2, 8, -24, 48, 2, 4, -48, 24, 4, -4, 48, 48]",936032,46.0,9354.0,3.76135431666e+18,mouselab-mdp,2
"[1752, 2303, 2880]","[u'right', u'right', u'up']",test,"[u'0', u'5', u'6', u'7']","{u'mouseover': {u'state': {u'target': [], u'time': []}, u'edge': {u'target': [], u'time': []}}, u'click': {u'state': {u'target': [u'7'], u'time': [626]}, u'edge': {u'target': [], u'time': []}}, u'mouseout': {u'state': {u'target': [], u'time': []}, u'edge': {u'target': [], u'time': []}}}","[2, -4, 48]","[1750, 61, 88]",45.0,"[None, None, None]","[u'', -2, 8, -24, 48, 2, -4, 48, 24, -2, 8, -24, -24]",946757,47.0,9669.0,7.53059734346e+17,mouselab-mdp,2
"[1963, 2546, 3146]","[u'right', u'right', u'up']",test,"[u'0', u'5', u'6', u'7']","{u'mouseover': {u'state': {u'target': [], u'time': []}, u'edge': {u'target': [], u'time': []}}, u'click': {u'state': {u'target': [u'7'], u'time': [580]}, u'edge': {u'target': [], u'time': []}}, u'mouseout': {u'state': {u'target': [], u'time': []}, u'edge': {u'target': [], u'time': []}}}","[-2, 4, 48]","[1962, 93, 109]",49.0,"[None, None, None]","[u'', -2, 4, -48, -24, -2, 4, 48, -24, 4, -4, 24, -48]",957868,48.0,10053.0,6.47501706979e+18,mouselab-mdp,2
"[4119, 4690, 5263]","[u'right', u'right', u'up']",test,"[u'0', u'5', u'6', u'7']","{u'mouseover': {u'state': {u'target': [], u'time': []}, u'edge': {u'target': [], u'time': []}}, u'click': {u'state': {u'target': [u'7'], u'time': [2984]}, u'edge': {u'target': [], u'time': []}}, u'mouseout': {u'state': {u'target': [], u'time': []}, u'edge': {u'target': [], u'time': []}}}","[4, -8, 48]","[4117, 83, 71]",43.0,"[None, None, None]","[u'', 2, -4, -24, -48, 4, -8, 48, -48, 2, -8, 48, -48]",967906,49.0,8973.0,2.73528446727e+18,mouselab-mdp,2
"[10016, 10678, 11506]","[u'right', u'right', u'down']",test,"[u'0', u'5', u'6', u'8']","{u'mouseover': {u'state': {u'target': [], u'time': []}, u'edge': {u'target': [], u'time': []}}, u'click': {u'state': {u'target': [u'7', u'8', u'11', u'12', u'3', u'4'], u'time': [1067, 2094, 3077, 4423, 5224, 5933]}, u'edge': {u'target': [], u'time': []}}, u'mouseout': {u'state': {u'target': [], u'time': []}, u'edge': {u'target': [], u'time': []}}}","[4, 8, 24]","[10014, 163, 325]",30.0,"[None, None, None]","[u'', -2, 4, 24, 24, 4, 8, -48, 24, -2, 8, -48, -24]",983856,50.0,14873.0,-9.08425462157e+18,mouselab-mdp,2
"[6472, 7042, 7589]","[u'up', u'up', u'left']",test,"[u'0', u'1', u'2', u'4']","{u'mouseover': {u'state': {u'target': [], u'time': []}, u'edge': {u'target': [], u'time': []}}, u'click': {u'state': {u'target': [u'7', u'8', u'11', u'12', u'4'], u'time': [916, 1694, 2434, 3056, 4987]}, u'edge': {u'target': [], u'time': []}}, u'mouseout': {u'state': {u'target': [], u'time': []}, u'edge': {u'target': [], u'time': []}}}","[2, -8, 48]","[6469, 53, 50]",37.0,"[None, None, None]","[u'', 2, -8, -24, 48, 4, 4, -48, 24, 2, -4, -24, 24]",993929,51.0,9014.0,1.46664567646e+18,mouselab-mdp,2
"[9986, 10566, 11424]","[u'up', u'up', u'right']",test,"[u'0', u'1', u'2', u'3']","{u'mouseover': {u'state': {u'target': [], u'time': []}, u'edge': {u'target': [], u'time': []}}, u'click': {u'state': {u'target': [u'3', u'4', u'7', u'8', u'11', u'12'], u'time': [1289, 2774, 3723, 4485, 5318, 5982]}, u'edge': {u'target': [], u'time': []}}, u'mouseout': {u'state': {u'target': [], u'time': []}, u'edge': {u'target': [], u'time': []}}}","[-4, 8, 24]","[9985, 73, 362]",22.0,"[None, None, None]","[u'', -4, 8, 24, 24, -2, -8, -48, -24, -4, -8, 24, 24]",1007995,52.0,13012.0,5.78229284889e+18,mouselab-mdp,2
"[2479, 2998, 3534]","[u'right', u'right', u'up']",test,"[u'0', u'5', u'6', u'7']","{u'mouseover': {u'state': {u'target': [], u'time': []}, u'edge': {u'target': [], u'time': []}}, u'click': {u'state': {u'target': [u'7'], u'time': [1362]}, u'edge': {u'target': [], u'time': []}}, u'mouseout': {u'state': {u'target': [], u'time': []}, u'edge': {u'target': [], u'time': []}}}","[2, -4, 48]","[2478, 30, 33]",45.0,"[None, None, None]","[u'', -4, 8, -48, 48, 2, -4, 48, -48, 2, -8, 24, -48]",1017790,53.0,8728.0,5.25859295006e+18,mouselab-mdp,2
"[3591, 4141, 4761]","[u'left', u'left', u'up']",test,"[u'0', u'9', u'10', u'11']","{u'mouseover': {u'state': {u'target': [], u'time': []}, u'edge': {u'target': [], u'time': []}}, u'click': {u'state': {u'target': [u'7', u'8', u'11'], u'time': [926, 1707, 2557]}, u'edge': {u'target': [], u'time': []}}, u'mouseout': {u'state': {u'target': [], u'time': []}, u'edge': {u'target': [], u'time': []}}}","[2, -4, 48]","[3590, 48, 119]",43.0,"[None, None, None]","[u'', 4, -4, 24, -24, -2, -4, -24, -24, 2, -4, 48, 24]",1028336,54.0,9493.0,1.59857491246e+18,mouselab-mdp,2
"[1582, 2155, 2720]","[u'right', u'right', u'up']",test,"[u'0', u'5', u'6', u'7']","{u'mouseover': {u'state': {u'target': [], u'time': []}, u'edge': {u'target': [], u'time': []}}, u'click': {u'state': {u'target': [u'7'], u'time': [591]}, u'edge': {u'target': [], u'time': []}}, u'mouseout': {u'state': {u'target': [], u'time': []}, u'edge': {u'target': [], u'time': []}}}","[4, 8, 48]","[1580, 79, 78]",59.0,"[None, None, None]","[u'', -2, -4, 48, -48, 4, 8, 48, 24, 2, -4, -48, -24]",1039380,55.0,9983.0,-6.80295122046e+18,mouselab-mdp,2
