p_rdata,action_times,actions,beliefs,correct,delays,information_used_correctly,key_press,meta_actions,path,planned_too_little,planned_too_much,queries,questions,responses,rt,score,time_elapsed,trial_index,trial_id,trial_type,view_history,pid
,,,,,,,,,,,,,,,71696,,71697,,,instructions,"[{""page_index"":0,""viewing_time"":27956},{""page_index"":1,""viewing_time"":16042},{""page_index"":2,""viewing_time"":17429},{""page_index"":3,""viewing_time"":10269}]",0
,,,,,,,,,,,,,,,11751,,112849,,,instructions,"[{""page_index"":0,""viewing_time"":1795},{""page_index"":1,""viewing_time"":2598},{""page_index"":2,""viewing_time"":6053},{""page_index"":3,""viewing_time"":1305}]",0
,,,,,,,,,,,,,,,123043,,123046,,,instructions,"[{""page_index"":0,""viewing_time"":45811},{""page_index"":1,""viewing_time"":45581},{""page_index"":2,""viewing_time"":31588}]",1
,,,,,,,,,,,,,,,12660,,12662,,,instructions,"[{""page_index"":0,""viewing_time"":4258},{""page_index"":1,""viewing_time"":4815},{""page_index"":2,""viewing_time"":1187},{""page_index"":3,""viewing_time"":2399}]",2
,,,,,,,,,,,,,,,141613,,141614,,,instructions,"[{""page_index"":0,""viewing_time"":41965},{""page_index"":1,""viewing_time"":62867},{""page_index"":2,""viewing_time"":7048},{""page_index"":3,""viewing_time"":29732}]",3
,,,,,,,,,,,,,,,69590,,69593,,,instructions,"[{""page_index"":0,""viewing_time"":23149},{""page_index"":1,""viewing_time"":24381},{""page_index"":2,""viewing_time"":14152},{""page_index"":3,""viewing_time"":7907}]",4
,,,,,,,,,,,,,,,33667,,139910,,,instructions,"[{""page_index"":0,""viewing_time"":8619},{""page_index"":1,""viewing_time"":5477},{""page_index"":2,""viewing_time"":17422},{""page_index"":3,""viewing_time"":2148}]",4
,,,,,,,,,,,,,,,177486,,177487,,,instructions,"[{""page_index"":0,""viewing_time"":41238},{""page_index"":1,""viewing_time"":50620},{""page_index"":2,""viewing_time"":66541},{""page_index"":3,""viewing_time"":19086}]",5
,,,,,,,,,,,,,,,55261,,285942,,,instructions,"[{""page_index"":0,""viewing_time"":21287},{""page_index"":1,""viewing_time"":25968},{""page_index"":2,""viewing_time"":6179},{""page_index"":3,""viewing_time"":1826}]",5
,,,,,,,,,,,,,,,46800,,358455,,,instructions,"[{""page_index"":0,""viewing_time"":2767},{""page_index"":1,""viewing_time"":815},{""page_index"":2,""viewing_time"":2180},{""page_index"":3,""viewing_time"":16683},{""page_index"":2,""viewing_time"":5000},{""page_index"":1,""viewing_time"":4169},{""page_index"":0,""viewing_time"":9716},{""page_index"":1,""viewing_time"":2088},{""page_index"":2,""viewing_time"":1987},{""page_index"":3,""viewing_time"":1395}]",5
,,,,,,,,,,,,,,,24124,,432930,,,instructions,"[{""page_index"":0,""viewing_time"":16423},{""page_index"":1,""viewing_time"":634},{""page_index"":0,""viewing_time"":798},{""page_index"":1,""viewing_time"":621},{""page_index"":2,""viewing_time"":4128},{""page_index"":3,""viewing_time"":1520}]",5
,,,,,,,,,,,,,,,31026,,486882,,,instructions,"[{""page_index"":0,""viewing_time"":2220},{""page_index"":1,""viewing_time"":4758},{""page_index"":2,""viewing_time"":6756},{""page_index"":1,""viewing_time"":16191},{""page_index"":2,""viewing_time"":440},{""page_index"":3,""viewing_time"":660}]",5
,,,,,,,,,,,,,,,128649,,644590,,,instructions,"[{""page_index"":0,""viewing_time"":3008},{""page_index"":1,""viewing_time"":14405},{""page_index"":2,""viewing_time"":5011},{""page_index"":1,""viewing_time"":6170},{""page_index"":0,""viewing_time"":20095},{""page_index"":1,""viewing_time"":7860},{""page_index"":2,""viewing_time"":70982},{""page_index"":3,""viewing_time"":1118}]",5
,,,,,,,,,,,,,,,24897,,692444,,,instructions,"[{""page_index"":0,""viewing_time"":3570},{""page_index"":1,""viewing_time"":5489},{""page_index"":2,""viewing_time"":7351},{""page_index"":1,""viewing_time"":1800},{""page_index"":2,""viewing_time"":454},{""page_index"":3,""viewing_time"":6232}]",5
,,,,,,,,,,,,,,,78452,,799369,,,instructions,"[{""page_index"":0,""viewing_time"":9408},{""page_index"":1,""viewing_time"":65950},{""page_index"":2,""viewing_time"":1834},{""page_index"":3,""viewing_time"":1259}]",5
,,,,,,,,,,,,,,,126036,,954523,,,instructions,"[{""page_index"":0,""viewing_time"":4130},{""page_index"":1,""viewing_time"":1872},{""page_index"":2,""viewing_time"":3209},{""page_index"":1,""viewing_time"":1221},{""page_index"":0,""viewing_time"":51601},{""page_index"":1,""viewing_time"":61050},{""page_index"":2,""viewing_time"":2374},{""page_index"":3,""viewing_time"":579}]",5
,,,,,,,,,,,,,,,21688,,1016042,,,instructions,"[{""page_index"":0,""viewing_time"":2209},{""page_index"":1,""viewing_time"":503},{""page_index"":2,""viewing_time"":18454},{""page_index"":3,""viewing_time"":522}]",5
,,,,,,,,,,,,,,,78073,,78074,,,instructions,"[{""page_index"":0,""viewing_time"":24847},{""page_index"":1,""viewing_time"":19759},{""page_index"":2,""viewing_time"":4295},{""page_index"":3,""viewing_time"":29170}]",6
,,,,,,,,,,,,,,,99505,,99506,,,instructions,"[{""page_index"":0,""viewing_time"":30443},{""page_index"":1,""viewing_time"":54316},{""page_index"":2,""viewing_time"":4032},{""page_index"":3,""viewing_time"":10713}]",7
,,,,,,,,,,,,,,,126635,,126638,,,instructions,"[{""page_index"":0,""viewing_time"":62155},{""page_index"":1,""viewing_time"":27301},{""page_index"":2,""viewing_time"":8808},{""page_index"":3,""viewing_time"":28370}]",8
,,,,,,,,,,,,,,,74779,,247009,,,instructions,"[{""page_index"":0,""viewing_time"":23671},{""page_index"":1,""viewing_time"":11333},{""page_index"":2,""viewing_time"":6882},{""page_index"":1,""viewing_time"":17013},{""page_index"":2,""viewing_time"":3193},{""page_index"":3,""viewing_time"":12686}]",8
,,,,,,,,,,,,,,,319000,,319002,,,instructions,"[{""page_index"":0,""viewing_time"":125571},{""page_index"":1,""viewing_time"":72225},{""page_index"":2,""viewing_time"":73023},{""page_index"":3,""viewing_time"":48180}]",9
,,,,,,,,,,,,,,,203499,,606859,,,instructions,"[{""page_index"":0,""viewing_time"":68932},{""page_index"":1,""viewing_time"":17728},{""page_index"":2,""viewing_time"":108200},{""page_index"":3,""viewing_time"":8639}]",9
,,,,,,,,,,,,,,,288543,,288547,,,instructions,"[{""page_index"":0,""viewing_time"":118714},{""page_index"":1,""viewing_time"":74991},{""page_index"":2,""viewing_time"":47564},{""page_index"":3,""viewing_time"":47271}]",10
,,,,,,,,,,,,,,,55258,,392262,,,instructions,"[{""page_index"":0,""viewing_time"":12539},{""page_index"":1,""viewing_time"":8026},{""page_index"":2,""viewing_time"":24001},{""page_index"":3,""viewing_time"":10690}]",10
,,,,,,,,,,,,,,,149257,,149258,,,instructions,"[{""page_index"":0,""viewing_time"":74640},{""page_index"":1,""viewing_time"":49809},{""page_index"":2,""viewing_time"":24807}]",11
,,,,,,,,,,,,,,,339859,,339859,,,instructions,"[{""page_index"":0,""viewing_time"":139491},{""page_index"":1,""viewing_time"":87852},{""page_index"":2,""viewing_time"":72736},{""page_index"":3,""viewing_time"":39776}]",12
,,,,,,,,,,,,,,,100943,,100945,,,instructions,"[{""page_index"":0,""viewing_time"":31359},{""page_index"":1,""viewing_time"":50122},{""page_index"":2,""viewing_time"":19461}]",13
,,,,,,,,,,,,,,,50756,,50757,,,instructions,"[{""page_index"":0,""viewing_time"":21173},{""page_index"":1,""viewing_time"":14792},{""page_index"":2,""viewing_time"":7375},{""page_index"":3,""viewing_time"":7416}]",14
,,,,,,,,,,,,,,,97303,,97306,,,instructions,"[{""page_index"":0,""viewing_time"":43348},{""page_index"":1,""viewing_time"":20466},{""page_index"":2,""viewing_time"":8405},{""page_index"":3,""viewing_time"":25082}]",15
,,,,,,,,,,,,,,,62278,,209371,,,instructions,"[{""page_index"":0,""viewing_time"":21686},{""page_index"":1,""viewing_time"":22936},{""page_index"":2,""viewing_time"":3648},{""page_index"":3,""viewing_time"":14007}]",15
,,,,,,,,,,,,,,,57656,,57660,,,instructions,"[{""page_index"":0,""viewing_time"":27499},{""page_index"":1,""viewing_time"":16261},{""page_index"":2,""viewing_time"":13893}]",16
,,,,,,,,,,,,,,,150045,,150046,,,instructions,"[{""page_index"":0,""viewing_time"":71471},{""page_index"":1,""viewing_time"":44936},{""page_index"":2,""viewing_time"":33636}]",17
,,,,,,,,,,,,,,,195869,,195870,,,instructions,"[{""page_index"":0,""viewing_time"":66757},{""page_index"":1,""viewing_time"":110918},{""page_index"":2,""viewing_time"":18192}]",18
,,,,,,,,,,,,,,,11668,,243746,,,instructions,"[{""page_index"":0,""viewing_time"":7435},{""page_index"":1,""viewing_time"":3010},{""page_index"":2,""viewing_time"":1221}]",18
,,,,,,,,,,,,,,,199375,,199376,,,instructions,"[{""page_index"":0,""viewing_time"":88428},{""page_index"":1,""viewing_time"":40861},{""page_index"":2,""viewing_time"":36937},{""page_index"":3,""viewing_time"":33147}]",19
,,,,,,,,,,,,,,,106658,,106659,,,instructions,"[{""page_index"":0,""viewing_time"":24433},{""page_index"":1,""viewing_time"":18173},{""page_index"":2,""viewing_time"":39821},{""page_index"":3,""viewing_time"":24228}]",20
,,,,,,,,,,,,,,,30591,,181521,,,instructions,"[{""page_index"":0,""viewing_time"":21383},{""page_index"":1,""viewing_time"":3837},{""page_index"":2,""viewing_time"":4487},{""page_index"":3,""viewing_time"":881}]",20
,,,,,,,,,,,,,,,97022,,97023,,,instructions,"[{""page_index"":0,""viewing_time"":46521},{""page_index"":1,""viewing_time"":34134},{""page_index"":2,""viewing_time"":16366}]",21
,,,,,,,,,,,,,,,119051,,119054,,,instructions,"[{""page_index"":0,""viewing_time"":62230},{""page_index"":1,""viewing_time"":31971},{""page_index"":2,""viewing_time"":24848}]",22
,,,,,,,,,,,,,,,157779,,157780,,,instructions,"[{""page_index"":0,""viewing_time"":30862},{""page_index"":1,""viewing_time"":27488},{""page_index"":2,""viewing_time"":35705},{""page_index"":3,""viewing_time"":63723}]",23
,,,,,,,,,,,,,,,94000,,278886,,,instructions,"[{""page_index"":0,""viewing_time"":50837},{""page_index"":1,""viewing_time"":19488},{""page_index"":2,""viewing_time"":14011},{""page_index"":3,""viewing_time"":9663}]",23
,,,,,,,,,,,,,,,12495,,316807,,,instructions,"[{""page_index"":0,""viewing_time"":9102},{""page_index"":1,""viewing_time"":975},{""page_index"":2,""viewing_time"":1680},{""page_index"":3,""viewing_time"":737}]",23
,,,,,,,,,,,,,,,37586,,388315,,,instructions,"[{""page_index"":0,""viewing_time"":19071},{""page_index"":1,""viewing_time"":3192},{""page_index"":2,""viewing_time"":7890},{""page_index"":3,""viewing_time"":7433}]",23
,,,,,,,,,,,,,,,177413,,177414,,,instructions,"[{""page_index"":0,""viewing_time"":44053},{""page_index"":1,""viewing_time"":46958},{""page_index"":2,""viewing_time"":54185},{""page_index"":3,""viewing_time"":32216}]",24
,,,,,,,,,,,,,,,104723,,104725,,,instructions,"[{""page_index"":0,""viewing_time"":59042},{""page_index"":1,""viewing_time"":21223},{""page_index"":2,""viewing_time"":7539},{""page_index"":3,""viewing_time"":16896}]",25
,,,,,,,,,,,,,,,23158,,159675,,,instructions,"[{""page_index"":0,""viewing_time"":15843},{""page_index"":1,""viewing_time"":4124},{""page_index"":2,""viewing_time"":1548},{""page_index"":3,""viewing_time"":1641}]",25
,,,,,,,,,,,,,,,67516,,67516,,,instructions,"[{""page_index"":0,""viewing_time"":25528},{""page_index"":1,""viewing_time"":20144},{""page_index"":2,""viewing_time"":5908},{""page_index"":3,""viewing_time"":15935}]",26
,,,,,,,,,,,,,,,180115,,277814,,,instructions,"[{""page_index"":0,""viewing_time"":27807},{""page_index"":1,""viewing_time"":139130},{""page_index"":2,""viewing_time"":3116},{""page_index"":3,""viewing_time"":10061}]",26
,,,,,,,,,,,,,,,49518,,358955,,,instructions,"[{""page_index"":0,""viewing_time"":24532},{""page_index"":1,""viewing_time"":19334},{""page_index"":2,""viewing_time"":1722},{""page_index"":3,""viewing_time"":3930}]",26
,,,,,,,,,,,,,,,66158,,66159,,,instructions,"[{""page_index"":0,""viewing_time"":12144},{""page_index"":1,""viewing_time"":31340},{""page_index"":2,""viewing_time"":3719},{""page_index"":3,""viewing_time"":18952}]",27
,,,,,,,,,,,,,,,15120,,15121,,,instructions,"[{""page_index"":0,""viewing_time"":6375},{""page_index"":1,""viewing_time"":6272},{""page_index"":2,""viewing_time"":2472}]",28
,,,,,,,,,,,,,,,86187,,86188,,,instructions,"[{""page_index"":0,""viewing_time"":37827},{""page_index"":1,""viewing_time"":15983},{""page_index"":2,""viewing_time"":16623},{""page_index"":3,""viewing_time"":15752}]",29
,,,,,,,,,,,,,,,250075,,250077,,,instructions,"[{""page_index"":0,""viewing_time"":70275},{""page_index"":1,""viewing_time"":77185},{""page_index"":2,""viewing_time"":70050},{""page_index"":3,""viewing_time"":32563}]",30
,,,,,,,,,,,,,,,148884,,148884,,,instructions,"[{""page_index"":0,""viewing_time"":78494},{""page_index"":1,""viewing_time"":43854},{""page_index"":2,""viewing_time"":26536}]",31
,,,,,,,,,,,,,,,67185,,254406,,,instructions,"[{""page_index"":0,""viewing_time"":42376},{""page_index"":1,""viewing_time"":20720},{""page_index"":2,""viewing_time"":4089}]",31
,,,,,,,,,,,,,,,178386,,178389,,,instructions,"[{""page_index"":0,""viewing_time"":86362},{""page_index"":1,""viewing_time"":85928},{""page_index"":2,""viewing_time"":6091}]",32
,,,,,,,,,,,,,,,149415,,149424,,,instructions,"[{""page_index"":0,""viewing_time"":18436},{""page_index"":1,""viewing_time"":16614},{""page_index"":2,""viewing_time"":114363}]",33
,,,,,,,,,,,,,,,71141,,71143,,,instructions,"[{""page_index"":0,""viewing_time"":29458},{""page_index"":1,""viewing_time"":10341},{""page_index"":2,""viewing_time"":18436},{""page_index"":3,""viewing_time"":12904}]",34
,,,,,,,,,,,,,,,37697,,37698,,,instructions,"[{""page_index"":0,""viewing_time"":5261},{""page_index"":1,""viewing_time"":27292},{""page_index"":2,""viewing_time"":5144}]",35
,,,,,,,,,,,,,,,127435,,127435,,,instructions,"[{""page_index"":0,""viewing_time"":41013},{""page_index"":1,""viewing_time"":47204},{""page_index"":2,""viewing_time"":6080},{""page_index"":3,""viewing_time"":33137}]",36
,,,,,,,,,,,,,,,161373,,161374,,,instructions,"[{""page_index"":0,""viewing_time"":57782},{""page_index"":1,""viewing_time"":79719},{""page_index"":2,""viewing_time"":23872}]",37
,,,,,,,,,,,,,,,151198,,151200,,,instructions,"[{""page_index"":0,""viewing_time"":47152},{""page_index"":1,""viewing_time"":35482},{""page_index"":2,""viewing_time"":8924},{""page_index"":3,""viewing_time"":59636}]",38
,,,,,,,,,,,,,,,44178,,241586,,,instructions,"[{""page_index"":0,""viewing_time"":4464},{""page_index"":1,""viewing_time"":6418},{""page_index"":2,""viewing_time"":5478},{""page_index"":1,""viewing_time"":5688},{""page_index"":0,""viewing_time"":11478},{""page_index"":1,""viewing_time"":1410},{""page_index"":2,""viewing_time"":1940},{""page_index"":3,""viewing_time"":7300}]",38
,,,,,,,,,,,,,,,102519,,102520,,,instructions,"[{""page_index"":0,""viewing_time"":44320},{""page_index"":1,""viewing_time"":34766},{""page_index"":2,""viewing_time"":23432}]",39
,,,,,,,,,,,,,,,67740,,67740,,,instructions,"[{""page_index"":0,""viewing_time"":12172},{""page_index"":1,""viewing_time"":12418},{""page_index"":2,""viewing_time"":26681},{""page_index"":3,""viewing_time"":16468}]",40
,,,,,,,,,,,,,,,130295,,130295,,,instructions,"[{""page_index"":0,""viewing_time"":14704},{""page_index"":1,""viewing_time"":12254},{""page_index"":2,""viewing_time"":103337}]",41
,,,,,,,,,,,,,,,23866,,167835,,,instructions,"[{""page_index"":0,""viewing_time"":12285},{""page_index"":1,""viewing_time"":5929},{""page_index"":2,""viewing_time"":5652}]",41
,,,,,,,,,,,,,,,292763,,292767,,,instructions,"[{""page_index"":0,""viewing_time"":33491},{""page_index"":1,""viewing_time"":24889},{""page_index"":2,""viewing_time"":2888},{""page_index"":3,""viewing_time"":231495}]",42
,,,,,,,,,,,,,,,128929,,128932,,,instructions,"[{""page_index"":0,""viewing_time"":55184},{""page_index"":1,""viewing_time"":39338},{""page_index"":2,""viewing_time"":34405}]",43
,,,,,,,,,,,,,,,54286,,213700,,,instructions,"[{""page_index"":0,""viewing_time"":39989},{""page_index"":1,""viewing_time"":12551},{""page_index"":2,""viewing_time"":1744}]",43
,,,,,,,,,,,,,,,158718,,158722,,,instructions,"[{""page_index"":0,""viewing_time"":48005},{""page_index"":1,""viewing_time"":35239},{""page_index"":2,""viewing_time"":53988},{""page_index"":3,""viewing_time"":21484}]",44
,,,,,,,,,,,,,,,36880,,36880,,,instructions,"[{""page_index"":0,""viewing_time"":13888},{""page_index"":1,""viewing_time"":4816},{""page_index"":2,""viewing_time"":8911},{""page_index"":3,""viewing_time"":9264}]",45
,,,,,,,,,,,,,,,68203,,221738,,,instructions,"[{""page_index"":0,""viewing_time"":24426},{""page_index"":1,""viewing_time"":16727},{""page_index"":2,""viewing_time"":1848},{""page_index"":3,""viewing_time"":25200}]",45
,,,,,,,,,,,,,,,175044,,436697,,,instructions,"[{""page_index"":0,""viewing_time"":79890},{""page_index"":1,""viewing_time"":63857},{""page_index"":2,""viewing_time"":1776},{""page_index"":3,""viewing_time"":29520}]",45
,,,,,,,,,,,,,,,69792,,659301,,,instructions,"[{""page_index"":0,""viewing_time"":17844},{""page_index"":1,""viewing_time"":40774},{""page_index"":2,""viewing_time"":1929},{""page_index"":3,""viewing_time"":9244}]",45
,,,,,,,,,,,,,,,94931,,791144,,,instructions,"[{""page_index"":0,""viewing_time"":26586},{""page_index"":1,""viewing_time"":41367},{""page_index"":2,""viewing_time"":1649},{""page_index"":3,""viewing_time"":25329}]",45
,,,,,,,,,,,,,,,166335,,166337,,,instructions,"[{""page_index"":0,""viewing_time"":35741},{""page_index"":1,""viewing_time"":36044},{""page_index"":2,""viewing_time"":69946},{""page_index"":3,""viewing_time"":24602}]",46
,,,,,,,,,,,,,,,5585,,205026,,,instructions,"[{""page_index"":0,""viewing_time"":2757},{""page_index"":1,""viewing_time"":744},{""page_index"":2,""viewing_time"":1597},{""page_index"":3,""viewing_time"":486}]",46
,,,,,,,,,,,,,,,21678,,21680,,,instructions,"[{""page_index"":0,""viewing_time"":8885},{""page_index"":1,""viewing_time"":3882},{""page_index"":0,""viewing_time"":2086},{""page_index"":1,""viewing_time"":1239},{""page_index"":2,""viewing_time"":1745},{""page_index"":3,""viewing_time"":3840}]",47
,,,,,,,,,,,,,,,15166,,61183,,,instructions,"[{""page_index"":0,""viewing_time"":2862},{""page_index"":1,""viewing_time"":5271},{""page_index"":2,""viewing_time"":1975},{""page_index"":3,""viewing_time"":5057}]",47
,,,,,,,,,,,,,,,59813,,59814,,,instructions,"[{""page_index"":0,""viewing_time"":39445},{""page_index"":1,""viewing_time"":8944},{""page_index"":2,""viewing_time"":11423}]",48
,,,,,,,,,,,,,,,215581,,215582,,,instructions,"[{""page_index"":0,""viewing_time"":53296},{""page_index"":1,""viewing_time"":70228},{""page_index"":2,""viewing_time"":61844},{""page_index"":3,""viewing_time"":30213}]",49
,,,,,,,,,,,,,,,119492,,119495,,,instructions,"[{""page_index"":0,""viewing_time"":52715},{""page_index"":1,""viewing_time"":30215},{""page_index"":2,""viewing_time"":10392},{""page_index"":3,""viewing_time"":26167}]",50
,,,,,,,,,,,,,,,50755,,195967,,,instructions,"[{""page_index"":0,""viewing_time"":23909},{""page_index"":1,""viewing_time"":20332},{""page_index"":2,""viewing_time"":2200},{""page_index"":3,""viewing_time"":4313}]",50
,,,,,,,,,,,,,,,113938,,113939,,,instructions,"[{""page_index"":0,""viewing_time"":27074},{""page_index"":1,""viewing_time"":75931},{""page_index"":2,""viewing_time"":10931}]",51
,,,,,,,,,,,,,,,27305,,169177,,,instructions,"[{""page_index"":0,""viewing_time"":9395},{""page_index"":1,""viewing_time"":13900},{""page_index"":2,""viewing_time"":4009}]",51
,,,,,,,,,,,,,,,303196,,303198,,,instructions,"[{""page_index"":0,""viewing_time"":93134},{""page_index"":1,""viewing_time"":64448},{""page_index"":2,""viewing_time"":84268},{""page_index"":3,""viewing_time"":61346}]",52
,,,,,,,,,,,,,,,87997,,88001,,,instructions,"[{""page_index"":0,""viewing_time"":34551},{""page_index"":1,""viewing_time"":32845},{""page_index"":2,""viewing_time"":20596}]",53
,,,,,,,,,,,,,,,64853,,197364,,,instructions,"[{""page_index"":0,""viewing_time"":26597},{""page_index"":1,""viewing_time"":31574},{""page_index"":2,""viewing_time"":6680}]",53
,,,,,,,,,,,,,,,130057,,130059,,,instructions,"[{""page_index"":0,""viewing_time"":57911},{""page_index"":1,""viewing_time"":34668},{""page_index"":2,""viewing_time"":5868},{""page_index"":3,""viewing_time"":31608}]",54
,,,,,,,,,,,,,,,241861,,241863,,,instructions,"[{""page_index"":0,""viewing_time"":67027},{""page_index"":1,""viewing_time"":87635},{""page_index"":2,""viewing_time"":87199}]",55
,,,,,,,,,,,,,,,142984,,142986,,,instructions,"[{""page_index"":0,""viewing_time"":41561},{""page_index"":1,""viewing_time"":24728},{""page_index"":2,""viewing_time"":51711},{""page_index"":3,""viewing_time"":24984}]",56
,,,,,,,,,,,,,,,36090,,36092,,,instructions,"[{""page_index"":0,""viewing_time"":16313},{""page_index"":1,""viewing_time"":9920},{""page_index"":2,""viewing_time"":9855}]",57
,,,,,,,,,,,,,,,27359,,89456,,,instructions,"[{""page_index"":0,""viewing_time"":4550},{""page_index"":1,""viewing_time"":7712},{""page_index"":2,""viewing_time"":15096}]",57
,,,,,,,,,,,,,,,33609,,145034,,,instructions,"[{""page_index"":0,""viewing_time"":9337},{""page_index"":1,""viewing_time"":20064},{""page_index"":2,""viewing_time"":4206}]",57
,,,,,,,,,,,,,,,151174,,151175,,,instructions,"[{""page_index"":0,""viewing_time"":46110},{""page_index"":1,""viewing_time"":25089},{""page_index"":2,""viewing_time"":48583},{""page_index"":3,""viewing_time"":31391}]",58
,,,,,,,,,,,,,,,38206,,239174,,,instructions,"[{""page_index"":0,""viewing_time"":6798},{""page_index"":1,""viewing_time"":7864},{""page_index"":2,""viewing_time"":21967},{""page_index"":3,""viewing_time"":1576}]",58
,,,,,,,,,,,,,,,33599,,33600,,,instructions,"[{""page_index"":0,""viewing_time"":11626},{""page_index"":1,""viewing_time"":14392},{""page_index"":2,""viewing_time"":3300},{""page_index"":3,""viewing_time"":4280}]",59
,,,,,,,,,,,,,,,43366,,112716,,,instructions,"[{""page_index"":0,""viewing_time"":9225},{""page_index"":1,""viewing_time"":4356},{""page_index"":2,""viewing_time"":2856},{""page_index"":1,""viewing_time"":2120},{""page_index"":2,""viewing_time"":18344},{""page_index"":3,""viewing_time"":6464}]",59
,,,,,,,,,,,,,,,6646,,142016,,,instructions,"[{""page_index"":0,""viewing_time"":1950},{""page_index"":1,""viewing_time"":951},{""page_index"":2,""viewing_time"":1813},{""page_index"":3,""viewing_time"":1932}]",59
,,,,,,,,,,,,,,,47653,,204247,,,instructions,"[{""page_index"":0,""viewing_time"":5990},{""page_index"":1,""viewing_time"":13739},{""page_index"":2,""viewing_time"":16407},{""page_index"":3,""viewing_time"":11517}]",59
,,,,,,,,,,,,,,,8013,,232347,,,instructions,"[{""page_index"":0,""viewing_time"":2713},{""page_index"":1,""viewing_time"":1712},{""page_index"":2,""viewing_time"":1980},{""page_index"":3,""viewing_time"":1608}]",59
,,,,,,,,,,,,,,,7158,,257868,,,instructions,"[{""page_index"":0,""viewing_time"":1654},{""page_index"":1,""viewing_time"":828},{""page_index"":2,""viewing_time"":3864},{""page_index"":3,""viewing_time"":812}]",59
,,,,,,,,,,,,,,,26271,,307556,,,instructions,"[{""page_index"":0,""viewing_time"":5815},{""page_index"":1,""viewing_time"":5284},{""page_index"":2,""viewing_time"":8516},{""page_index"":3,""viewing_time"":6655}]",59
,,,,,,,,,,,,,,,160291,,160293,,,instructions,"[{""page_index"":0,""viewing_time"":31980},{""page_index"":1,""viewing_time"":112935},{""page_index"":2,""viewing_time"":15374}]",60
,,,,,,,,,,,,,,,182071,,369727,,,instructions,"[{""page_index"":0,""viewing_time"":47241},{""page_index"":1,""viewing_time"":25295},{""page_index"":0,""viewing_time"":71769},{""page_index"":1,""viewing_time"":27644},{""page_index"":2,""viewing_time"":10121}]",60
,,,,,,,,,,,,,,,106456,,106457,,,instructions,"[{""page_index"":0,""viewing_time"":50551},{""page_index"":1,""viewing_time"":15098},{""page_index"":2,""viewing_time"":34158},{""page_index"":3,""viewing_time"":6649}]",61
,,,,,,,,,,,,,,,21897,,185228,,,instructions,"[{""page_index"":0,""viewing_time"":5490},{""page_index"":1,""viewing_time"":3938},{""page_index"":2,""viewing_time"":4189},{""page_index"":3,""viewing_time"":8279}]",61
,,,,,,,,,,,,,,,130634,,130634,,,instructions,"[{""page_index"":0,""viewing_time"":39585},{""page_index"":1,""viewing_time"":28015},{""page_index"":2,""viewing_time"":37010},{""page_index"":3,""viewing_time"":26023}]",62
,,,,,,,,,,,,,,,204125,,204125,,,instructions,"[{""page_index"":0,""viewing_time"":74696},{""page_index"":1,""viewing_time"":80032},{""page_index"":2,""viewing_time"":6045},{""page_index"":3,""viewing_time"":43351}]",63
,,,,,,,,,,,,,,,77622,,77623,,,instructions,"[{""page_index"":0,""viewing_time"":20341},{""page_index"":1,""viewing_time"":24908},{""page_index"":2,""viewing_time"":6071},{""page_index"":3,""viewing_time"":26301}]",64
,,,,,,,,,,,,,,,88426,,198490,,,instructions,"[{""page_index"":0,""viewing_time"":23253},{""page_index"":1,""viewing_time"":57022},{""page_index"":2,""viewing_time"":3441},{""page_index"":3,""viewing_time"":4709}]",64
,,,,,,,,,,,,,,,82061,,82063,,,instructions,"[{""page_index"":0,""viewing_time"":21398},{""page_index"":1,""viewing_time"":37727},{""page_index"":2,""viewing_time"":4625},{""page_index"":3,""viewing_time"":18309}]",65
,,,,,,,,,,,,,,,81356,,81357,,,instructions,"[{""page_index"":0,""viewing_time"":30295},{""page_index"":1,""viewing_time"":34542},{""page_index"":2,""viewing_time"":4355},{""page_index"":3,""viewing_time"":12163}]",66
,,,,,,,,,,,,,,,116186,,116188,,,instructions,"[{""page_index"":0,""viewing_time"":24171},{""page_index"":1,""viewing_time"":48221},{""page_index"":2,""viewing_time"":29208},{""page_index"":3,""viewing_time"":14585}]",67
,,,,,,,,,,,,,,,150218,,150220,,,instructions,"[{""page_index"":0,""viewing_time"":50006},{""page_index"":1,""viewing_time"":28434},{""page_index"":2,""viewing_time"":44880},{""page_index"":3,""viewing_time"":26897}]",68
,,,,,,,,,,,,,,,31003,,222237,,,instructions,"[{""page_index"":0,""viewing_time"":10065},{""page_index"":1,""viewing_time"":4746},{""page_index"":2,""viewing_time"":12826},{""page_index"":3,""viewing_time"":3365}]",68
,,,,,,,,,,,,,,,6411,,252240,,,instructions,"[{""page_index"":0,""viewing_time"":2586},{""page_index"":1,""viewing_time"":1045},{""page_index"":2,""viewing_time"":1918},{""page_index"":3,""viewing_time"":862}]",68
,,,,,,,,,,,,,,,181370,,181371,,,instructions,"[{""page_index"":0,""viewing_time"":37744},{""page_index"":1,""viewing_time"":14023},{""page_index"":2,""viewing_time"":3144},{""page_index"":3,""viewing_time"":126458}]",69
,,,,,,,,,,,,,,,797026,,797027,,,instructions,"[{""page_index"":0,""viewing_time"":89202},{""page_index"":1,""viewing_time"":690321},{""page_index"":2,""viewing_time"":3861},{""page_index"":3,""viewing_time"":13642}]",70
,,,,,,,,,,,,,,,33185,,844509,,,instructions,"[{""page_index"":0,""viewing_time"":16853},{""page_index"":1,""viewing_time"":12707},{""page_index"":2,""viewing_time"":1640},{""page_index"":3,""viewing_time"":1985}]",70
,,,,,,,,,,,,,,,63744,,63744,,,instructions,"[{""page_index"":0,""viewing_time"":20366},{""page_index"":1,""viewing_time"":21397},{""page_index"":2,""viewing_time"":4634},{""page_index"":3,""viewing_time"":17346}]",71
,,,,,,,,,,,,,,,128623,,224527,,,instructions,"[{""page_index"":0,""viewing_time"":66467},{""page_index"":1,""viewing_time"":31405},{""page_index"":2,""viewing_time"":6841},{""page_index"":3,""viewing_time"":23909}]",71
,,,,,,,,,,,,,,,138510,,138510,,,instructions,"[{""page_index"":0,""viewing_time"":52218},{""page_index"":1,""viewing_time"":60840},{""page_index"":2,""viewing_time"":25452}]",72
,,,,,,,,,,,,,,,129249,,129252,,,instructions,"[{""page_index"":0,""viewing_time"":48743},{""page_index"":1,""viewing_time"":47493},{""page_index"":2,""viewing_time"":5016},{""page_index"":3,""viewing_time"":27995}]",73
,,,,,,,,,,,,,,,92082,,92082,,,instructions,"[{""page_index"":0,""viewing_time"":31707},{""page_index"":1,""viewing_time"":33134},{""page_index"":2,""viewing_time"":10642},{""page_index"":3,""viewing_time"":16598}]",74
,,,,,,,,,,,,,,,125294,,125294,,,instructions,"[{""page_index"":0,""viewing_time"":16897},{""page_index"":1,""viewing_time"":11816},{""page_index"":2,""viewing_time"":41121},{""page_index"":3,""viewing_time"":55459}]",75
,,,,,,,,,,,,,,,48656,,250887,,,instructions,"[{""page_index"":0,""viewing_time"":17734},{""page_index"":1,""viewing_time"":24797},{""page_index"":2,""viewing_time"":3654},{""page_index"":3,""viewing_time"":2470}]",75
,,,,,,,,,,,,,,,59939,,59941,,,instructions,"[{""page_index"":0,""viewing_time"":2782},{""page_index"":1,""viewing_time"":27559},{""page_index"":2,""viewing_time"":29595}]",76
,,,,,,,,,,,,,,,212663,,212664,,,instructions,"[{""page_index"":0,""viewing_time"":93509},{""page_index"":1,""viewing_time"":58734},{""page_index"":0,""viewing_time"":959},{""page_index"":1,""viewing_time"":19281},{""page_index"":2,""viewing_time"":40179}]",77
,,,,,,,,,,,,,,,184108,,184112,,,instructions,"[{""page_index"":0,""viewing_time"":28523},{""page_index"":1,""viewing_time"":123271},{""page_index"":2,""viewing_time"":32311}]",78
,,,,,,,,,,,,,,,153411,,153415,,,instructions,"[{""page_index"":0,""viewing_time"":63618},{""page_index"":1,""viewing_time"":58388},{""page_index"":2,""viewing_time"":4142},{""page_index"":3,""viewing_time"":27253}]",79
,,,,,,,,,,,,,,,94121,,94122,,,instructions,"[{""page_index"":0,""viewing_time"":25979},{""page_index"":1,""viewing_time"":18170},{""page_index"":2,""viewing_time"":42751},{""page_index"":3,""viewing_time"":7219}]",80
,,,,,,,,,,,,,,,41037,,162172,,,instructions,"[{""page_index"":0,""viewing_time"":8700},{""page_index"":1,""viewing_time"":6715},{""page_index"":2,""viewing_time"":7382},{""page_index"":3,""viewing_time"":18239}]",80
,,,,,,,,,,,,,,,88890,,275976,,,instructions,"[{""page_index"":0,""viewing_time"":26498},{""page_index"":1,""viewing_time"":20374},{""page_index"":2,""viewing_time"":30044},{""page_index"":3,""viewing_time"":11973}]",80
,,,,,,,,,,,,,,,54425,,362558,,,instructions,"[{""page_index"":0,""viewing_time"":7042},{""page_index"":1,""viewing_time"":27733},{""page_index"":2,""viewing_time"":11496},{""page_index"":3,""viewing_time"":8153}]",80
,,,,,,,,,,,,,,,6639,,399913,,,instructions,"[{""page_index"":0,""viewing_time"":1911},{""page_index"":1,""viewing_time"":2569},{""page_index"":2,""viewing_time"":1514},{""page_index"":3,""viewing_time"":644}]",80
,,,,,,,,,,,,,,,5445,,424971,,,instructions,"[{""page_index"":0,""viewing_time"":2161},{""page_index"":1,""viewing_time"":972},{""page_index"":2,""viewing_time"":1594},{""page_index"":3,""viewing_time"":717}]",80
,,,,,,,,,,,,,,,19624,,469554,,,instructions,"[{""page_index"":0,""viewing_time"":13558},{""page_index"":1,""viewing_time"":2284},{""page_index"":2,""viewing_time"":2939},{""page_index"":3,""viewing_time"":842}]",80
,,,,,,,,,,,,,,,181495,,181496,,,instructions,"[{""page_index"":0,""viewing_time"":37628},{""page_index"":1,""viewing_time"":56470},{""page_index"":2,""viewing_time"":49230},{""page_index"":3,""viewing_time"":38165}]",81
,,,,,,,,,,,,,,,53663,,53665,,,instructions,"[{""page_index"":0,""viewing_time"":17110},{""page_index"":1,""viewing_time"":19187},{""page_index"":2,""viewing_time"":4519},{""page_index"":3,""viewing_time"":12846}]",82
,,,,,,,,,,,,,,,53565,,53567,,,instructions,"[{""page_index"":0,""viewing_time"":25403},{""page_index"":1,""viewing_time"":12466},{""page_index"":2,""viewing_time"":15696}]",83
,,,,,,,,,,,,,,,170664,,170665,,,instructions,"[{""page_index"":0,""viewing_time"":36522},{""page_index"":1,""viewing_time"":30048},{""page_index"":2,""viewing_time"":63065},{""page_index"":3,""viewing_time"":41027}]",84
,,,,,,,,,,,,,,,127956,,127956,,,instructions,"[{""page_index"":0,""viewing_time"":37419},{""page_index"":1,""viewing_time"":47799},{""page_index"":0,""viewing_time"":7857},{""page_index"":1,""viewing_time"":6655},{""page_index"":2,""viewing_time"":28225}]",85
,,,,,,,,,,,,,,,126199,,126199,,,instructions,"[{""page_index"":0,""viewing_time"":49441},{""page_index"":1,""viewing_time"":47720},{""page_index"":2,""viewing_time"":4904},{""page_index"":3,""viewing_time"":24134}]",86
,,,,,,,,,,,,,,,263507,,263509,,,instructions,"[{""page_index"":0,""viewing_time"":91119},{""page_index"":1,""viewing_time"":42309},{""page_index"":2,""viewing_time"":76498},{""page_index"":3,""viewing_time"":53581}]",87
,,,,,,,,,,,,,,,134491,,134493,,,instructions,"[{""page_index"":0,""viewing_time"":60986},{""page_index"":1,""viewing_time"":50792},{""page_index"":2,""viewing_time"":4663},{""page_index"":3,""viewing_time"":18048}]",88
,,,,,,,,,,,,,,,248361,,248370,,,instructions,"[{""page_index"":0,""viewing_time"":114521},{""page_index"":1,""viewing_time"":48317},{""page_index"":2,""viewing_time"":39055},{""page_index"":3,""viewing_time"":46465}]",89
,,,,,,,,,,,,,,,161588,,161589,,,instructions,"[{""page_index"":0,""viewing_time"":66978},{""page_index"":1,""viewing_time"":34017},{""page_index"":2,""viewing_time"":35355},{""page_index"":3,""viewing_time"":25238}]",90
,,,,,,,,,,,,,,,34074,,247107,,,instructions,"[{""page_index"":0,""viewing_time"":19931},{""page_index"":1,""viewing_time"":9712},{""page_index"":2,""viewing_time"":2604},{""page_index"":3,""viewing_time"":1826}]",90
,,,,,,,,,,,,,,,273405,,273405,,,instructions,"[{""page_index"":0,""viewing_time"":173490},{""page_index"":1,""viewing_time"":56149},{""page_index"":2,""viewing_time"":43764}]",91
,,,,,,,,,,,,,,,265952,,265953,,,instructions,"[{""page_index"":0,""viewing_time"":125821},{""page_index"":1,""viewing_time"":78360},{""page_index"":2,""viewing_time"":61771}]",92
,,,,,,,,,,,,,,,91054,,91056,,,instructions,"[{""page_index"":0,""viewing_time"":48264},{""page_index"":1,""viewing_time"":25391},{""page_index"":2,""viewing_time"":17397}]",93
,,,,,,,,,,,,,,,16577,,138945,,,instructions,"[{""page_index"":0,""viewing_time"":8794},{""page_index"":1,""viewing_time"":6130},{""page_index"":2,""viewing_time"":1652}]",93
,,,,,,,,,,,,,,,124513,,124514,,,instructions,"[{""page_index"":0,""viewing_time"":44127},{""page_index"":1,""viewing_time"":47024},{""page_index"":0,""viewing_time"":9008},{""page_index"":1,""viewing_time"":11344},{""page_index"":2,""viewing_time"":13008}]",94
,,,,,,,,,,,,,,,145628,,145630,,,instructions,"[{""page_index"":0,""viewing_time"":30829},{""page_index"":1,""viewing_time"":35119},{""page_index"":2,""viewing_time"":43879},{""page_index"":3,""viewing_time"":35799}]",95
,,,,,,,,,,,,,,,89237,,89239,,,instructions,"[{""page_index"":0,""viewing_time"":28887},{""page_index"":1,""viewing_time"":24236},{""page_index"":2,""viewing_time"":4666},{""page_index"":3,""viewing_time"":15714},{""page_index"":2,""viewing_time"":3140},{""page_index"":1,""viewing_time"":7873},{""page_index"":2,""viewing_time"":1760},{""page_index"":3,""viewing_time"":2960}]",96
,,,,,,,,,,,,,,,176824,,176826,,,instructions,"[{""page_index"":0,""viewing_time"":90584},{""page_index"":1,""viewing_time"":42702},{""page_index"":2,""viewing_time"":5344},{""page_index"":3,""viewing_time"":38191}]",97
,,,,,,,,,,,,,,,244749,,244750,,,instructions,"[{""page_index"":0,""viewing_time"":66349},{""page_index"":1,""viewing_time"":72666},{""page_index"":2,""viewing_time"":62805},{""page_index"":3,""viewing_time"":42928}]",98
,,,,,,,,,,,,,,,112898,,112900,,,instructions,"[{""page_index"":0,""viewing_time"":42435},{""page_index"":1,""viewing_time"":37258},{""page_index"":2,""viewing_time"":5601},{""page_index"":3,""viewing_time"":27604}]",99
,,,,,,,,,,,,,,,7689,,145578,,,instructions,"[{""page_index"":0,""viewing_time"":3581},{""page_index"":1,""viewing_time"":1710},{""page_index"":2,""viewing_time"":1156},{""page_index"":3,""viewing_time"":1242}]",99
,,,,,,,,,,,,,,,371216,,371217,,,instructions,"[{""page_index"":0,""viewing_time"":70915},{""page_index"":1,""viewing_time"":218637},{""page_index"":2,""viewing_time"":47896},{""page_index"":1,""viewing_time"":9174},{""page_index"":2,""viewing_time"":24593}]",100
,,,,,,,,,,,,,,,17787,,17787,,,instructions,"[{""page_index"":0,""viewing_time"":5049},{""page_index"":1,""viewing_time"":6571},{""page_index"":2,""viewing_time"":2750},{""page_index"":3,""viewing_time"":3415}]",101
,,,,,,,,,,,,,,,24928,,60230,,,instructions,"[{""page_index"":0,""viewing_time"":9784},{""page_index"":1,""viewing_time"":6766},{""page_index"":2,""viewing_time"":1627},{""page_index"":3,""viewing_time"":6751}]",101
,,,,,,,,,,,,,,,383015,,383015,,,instructions,"[{""page_index"":0,""viewing_time"":55653},{""page_index"":1,""viewing_time"":127188},{""page_index"":2,""viewing_time"":195082},{""page_index"":3,""viewing_time"":5091}]",102
,,,,,,,,,,,,,,,150930,,150931,,,instructions,"[{""page_index"":0,""viewing_time"":46882},{""page_index"":1,""viewing_time"":37511},{""page_index"":2,""viewing_time"":41792},{""page_index"":3,""viewing_time"":24745}]",103
,,,,,,,,,,,,,,,224380,,224381,,,instructions,"[{""page_index"":0,""viewing_time"":62450},{""page_index"":1,""viewing_time"":120314},{""page_index"":2,""viewing_time"":9184},{""page_index"":3,""viewing_time"":32432}]",104
,,,,,,,,,,,,,,,231315,,231317,,,instructions,"[{""page_index"":0,""viewing_time"":85422},{""page_index"":1,""viewing_time"":54773},{""page_index"":2,""viewing_time"":59194},{""page_index"":3,""viewing_time"":31919}]",105
,,,,,,,,,,,,,,,54211,,54212,,,instructions,"[{""page_index"":0,""viewing_time"":19951},{""page_index"":1,""viewing_time"":2179},{""page_index"":2,""viewing_time"":32079}]",106
,,,,,,,,,,,,,,,26495,,116127,,,instructions,"[{""page_index"":0,""viewing_time"":12532},{""page_index"":1,""viewing_time"":3563},{""page_index"":2,""viewing_time"":10399}]",106
,,,,,,,,,,,,,,,78188,,226745,,,instructions,"[{""page_index"":0,""viewing_time"":43947},{""page_index"":1,""viewing_time"":31823},{""page_index"":2,""viewing_time"":2418}]",106
,,,,,,,,,,,,,,,14623,,263067,,,instructions,"[{""page_index"":0,""viewing_time"":4116},{""page_index"":1,""viewing_time"":8452},{""page_index"":2,""viewing_time"":2055}]",106
,,,,,,,,,,,,,,,9272,,300117,,,instructions,"[{""page_index"":0,""viewing_time"":1722},{""page_index"":1,""viewing_time"":5580},{""page_index"":2,""viewing_time"":1969}]",106
,,,,,,,,,,,,,,,19178,,335881,,,instructions,"[{""page_index"":0,""viewing_time"":1217},{""page_index"":1,""viewing_time"":16551},{""page_index"":2,""viewing_time"":1410}]",106
,,,,,,,,,,,,,,,145544,,145544,,,instructions,"[{""page_index"":0,""viewing_time"":65543},{""page_index"":1,""viewing_time"":21686},{""page_index"":0,""viewing_time"":2888},{""page_index"":1,""viewing_time"":23978},{""page_index"":2,""viewing_time"":31449}]",107
,,,,,,,,,,,,,,,60884,,60884,,,instructions,"[{""page_index"":0,""viewing_time"":31516},{""page_index"":1,""viewing_time"":14310},{""page_index"":2,""viewing_time"":15057}]",108
,,,,,,,,,,,,,,,152893,,152894,,,instructions,"[{""page_index"":0,""viewing_time"":84513},{""page_index"":1,""viewing_time"":34896},{""page_index"":2,""viewing_time"":4223},{""page_index"":3,""viewing_time"":29260}]",109
,,,,,,,,,,,,,,,23034,,201164,,,instructions,"[{""page_index"":0,""viewing_time"":14647},{""page_index"":1,""viewing_time"":4956},{""page_index"":2,""viewing_time"":1324},{""page_index"":3,""viewing_time"":2106}]",109
,,,,,,,,,,,,,,,10881,,235156,,,instructions,"[{""page_index"":0,""viewing_time"":1975},{""page_index"":1,""viewing_time"":778},{""page_index"":2,""viewing_time"":6039},{""page_index"":3,""viewing_time"":2089}]",109
,,,,,,,,,,,,,,,30422,,277984,,,instructions,"[{""page_index"":0,""viewing_time"":9443},{""page_index"":1,""viewing_time"":10196},{""page_index"":2,""viewing_time"":2915},{""page_index"":3,""viewing_time"":7867}]",109
,,,,,,,,,,,,,,,7516,,326607,,,instructions,"[{""page_index"":0,""viewing_time"":1548},{""page_index"":1,""viewing_time"":1741},{""page_index"":2,""viewing_time"":2406},{""page_index"":3,""viewing_time"":1821}]",109
,,,,,,,,,,,,,,,34165,,377699,,,instructions,"[{""page_index"":0,""viewing_time"":11704},{""page_index"":1,""viewing_time"":17990},{""page_index"":2,""viewing_time"":1472},{""page_index"":3,""viewing_time"":2999}]",109
,,,,,,,,,,,,,,,4829,,401370,,,instructions,"[{""page_index"":0,""viewing_time"":1452},{""page_index"":1,""viewing_time"":814},{""page_index"":2,""viewing_time"":1126},{""page_index"":3,""viewing_time"":1437}]",109
,,,,,,,,,,,,,,,8865,,421785,,,instructions,"[{""page_index"":0,""viewing_time"":4128},{""page_index"":1,""viewing_time"":1304},{""page_index"":2,""viewing_time"":1072},{""page_index"":3,""viewing_time"":2360}]",109
,,,,,,,,,,,,,,,7405,,440903,,,instructions,"[{""page_index"":0,""viewing_time"":1744},{""page_index"":1,""viewing_time"":1791},{""page_index"":2,""viewing_time"":2065},{""page_index"":3,""viewing_time"":1805}]",109
,,,,,,,,,,,,,,,5513,,456109,,,instructions,"[{""page_index"":0,""viewing_time"":1341},{""page_index"":1,""viewing_time"":1198},{""page_index"":2,""viewing_time"":1058},{""page_index"":3,""viewing_time"":1915}]",109
,,,,,,,,,,,,,,,64430,,64430,,,instructions,"[{""page_index"":0,""viewing_time"":12680},{""page_index"":1,""viewing_time"":26649},{""page_index"":2,""viewing_time"":9754},{""page_index"":3,""viewing_time"":15346}]",110
,,,,,,,,,,,,,,,360017,,360018,,,instructions,"[{""page_index"":0,""viewing_time"":39771},{""page_index"":1,""viewing_time"":38254},{""page_index"":2,""viewing_time"":281990}]",111
,,,,,,,,,,,,,,,149201,,149208,,,instructions,"[{""page_index"":0,""viewing_time"":92270},{""page_index"":1,""viewing_time"":28752},{""page_index"":2,""viewing_time"":28175}]",112
,,,,,,,,,,,,,,,275720,,486447,,,instructions,"[{""page_index"":0,""viewing_time"":236307},{""page_index"":1,""viewing_time"":5059},{""page_index"":2,""viewing_time"":9060},{""page_index"":1,""viewing_time"":16188},{""page_index"":2,""viewing_time"":9104}]",112
,,,,,,,,,,,,,,,72942,,72942,,,instructions,"[{""page_index"":0,""viewing_time"":32330},{""page_index"":1,""viewing_time"":21171},{""page_index"":2,""viewing_time"":4512},{""page_index"":3,""viewing_time"":14928}]",113
,,,,,,,,,,,,,,,34701,,128113,,,instructions,"[{""page_index"":0,""viewing_time"":23969},{""page_index"":1,""viewing_time"":5726},{""page_index"":2,""viewing_time"":1440},{""page_index"":3,""viewing_time"":3566}]",113
,,,,,,,,,,,,,,,125955,,125957,,,instructions,"[{""page_index"":0,""viewing_time"":46406},{""page_index"":1,""viewing_time"":43063},{""page_index"":2,""viewing_time"":23555},{""page_index"":3,""viewing_time"":12929}]",114
,,,,,,,,,,,,,,,79096,,79096,,,instructions,"[{""page_index"":0,""viewing_time"":37215},{""page_index"":1,""viewing_time"":31551},{""page_index"":2,""viewing_time"":10329}]",115
,,,,,,,,,,,,,,,176316,,176316,,,instructions,"[{""page_index"":0,""viewing_time"":50607},{""page_index"":1,""viewing_time"":106752},{""page_index"":2,""viewing_time"":18956}]",116
,,,,,,,,,,,,,,,161528,,161530,,,instructions,"[{""page_index"":0,""viewing_time"":72418},{""page_index"":1,""viewing_time"":55923},{""page_index"":2,""viewing_time"":33186}]",117
,,,,,,,,,,,,,,,55159,,55160,,,instructions,"[{""page_index"":0,""viewing_time"":25899},{""page_index"":1,""viewing_time"":11926},{""page_index"":2,""viewing_time"":5000},{""page_index"":3,""viewing_time"":12332}]",118
,,,,,,,,,,,,,,,219062,,219063,,,instructions,"[{""page_index"":0,""viewing_time"":63249},{""page_index"":1,""viewing_time"":49364},{""page_index"":2,""viewing_time"":60357},{""page_index"":3,""viewing_time"":46092}]",119
,,,,,,,,,,,,,,,60293,,60298,,,instructions,"[{""page_index"":0,""viewing_time"":10410},{""page_index"":1,""viewing_time"":4135},{""page_index"":2,""viewing_time"":45746}]",120
,,,,,,,,,,,,,,,196161,,196163,,,instructions,"[{""page_index"":0,""viewing_time"":79467},{""page_index"":1,""viewing_time"":43353},{""page_index"":2,""viewing_time"":9022},{""page_index"":3,""viewing_time"":64317}]",121
,,,,,,,,,,,,,,,56535,,296781,,,instructions,"[{""page_index"":0,""viewing_time"":17991},{""page_index"":1,""viewing_time"":18710},{""page_index"":2,""viewing_time"":5310},{""page_index"":3,""viewing_time"":14523}]",121
,,,,,,,,,,,,,,,70750,,399671,,,instructions,"[{""page_index"":0,""viewing_time"":29075},{""page_index"":1,""viewing_time"":26274},{""page_index"":2,""viewing_time"":2678},{""page_index"":3,""viewing_time"":12722}]",121
,,,,,,,,,,,,,,,117878,,117881,,,instructions,"[{""page_index"":0,""viewing_time"":52820},{""page_index"":1,""viewing_time"":36437},{""page_index"":2,""viewing_time"":7147},{""page_index"":3,""viewing_time"":21472}]",122
,,,,,,,,,,,,,,,56149,,212559,,,instructions,"[{""page_index"":0,""viewing_time"":21236},{""page_index"":1,""viewing_time"":21161},{""page_index"":2,""viewing_time"":3520},{""page_index"":3,""viewing_time"":10231}]",122
,,,,,,,,,,,,,,,292241,,292247,,,instructions,"[{""page_index"":0,""viewing_time"":149249},{""page_index"":1,""viewing_time"":22392},{""page_index"":2,""viewing_time"":120598}]",123
,,,,,,,,,,,,,,,18861,,338226,,,instructions,"[{""page_index"":0,""viewing_time"":7113},{""page_index"":1,""viewing_time"":8091},{""page_index"":2,""viewing_time"":3655}]",123
,,,,,,,,,,,,,,,56823,,56825,,,instructions,"[{""page_index"":0,""viewing_time"":25968},{""page_index"":1,""viewing_time"":17080},{""page_index"":2,""viewing_time"":13774}]",124
,,,,,,,,,,,,,,,109218,,109229,,,instructions,"[{""page_index"":0,""viewing_time"":44137},{""page_index"":1,""viewing_time"":26210},{""page_index"":2,""viewing_time"":5692},{""page_index"":3,""viewing_time"":33179}]",125
,,,,,,,,,,,,,,,117830,,117831,,,instructions,"[{""page_index"":0,""viewing_time"":48684},{""page_index"":1,""viewing_time"":38252},{""page_index"":2,""viewing_time"":30894}]",126
,,,,,,,,,,,,,,,256326,,256328,,,instructions,"[{""page_index"":0,""viewing_time"":62028},{""page_index"":1,""viewing_time"":85641},{""page_index"":2,""viewing_time"":69427},{""page_index"":3,""viewing_time"":39228}]",127
,,,,,,,,,,,,,,,28394,,28396,,,instructions,"[{""page_index"":0,""viewing_time"":4485},{""page_index"":1,""viewing_time"":1245},{""page_index"":2,""viewing_time"":3854},{""page_index"":3,""viewing_time"":18808}]",128
,,,,,,,,,,,,,,,84432,,84433,,,instructions,"[{""page_index"":0,""viewing_time"":28041},{""page_index"":1,""viewing_time"":27428},{""page_index"":2,""viewing_time"":5272},{""page_index"":3,""viewing_time"":23690}]",129
,,,,,,,,,,,,,,,643155,,643155,,,instructions,"[{""page_index"":0,""viewing_time"":540201},{""page_index"":1,""viewing_time"":83771},{""page_index"":2,""viewing_time"":3519},{""page_index"":3,""viewing_time"":15663}]",130
,,,,,,,,,,,,,,,113336,,113339,,,instructions,"[{""page_index"":0,""viewing_time"":50461},{""page_index"":1,""viewing_time"":33291},{""page_index"":2,""viewing_time"":29581}]",131
,,,,,,,,,,,,,,,8603,,154685,,,instructions,"[{""page_index"":0,""viewing_time"":3236},{""page_index"":1,""viewing_time"":3055},{""page_index"":2,""viewing_time"":2309}]",131
,,,,,,,,,,,,,,,157556,,157556,,,instructions,"[{""page_index"":0,""viewing_time"":63584},{""page_index"":1,""viewing_time"":62931},{""page_index"":2,""viewing_time"":6744},{""page_index"":3,""viewing_time"":24296}]",132
,,,,,,,,,,,,,,,170324,,170324,,,instructions,"[{""page_index"":0,""viewing_time"":77180},{""page_index"":1,""viewing_time"":45155},{""page_index"":2,""viewing_time"":5917},{""page_index"":3,""viewing_time"":42071}]",133
,,,,,,,,,,,,,,,129964,,129965,,,instructions,"[{""page_index"":0,""viewing_time"":65948},{""page_index"":1,""viewing_time"":32255},{""page_index"":2,""viewing_time"":31760}]",134
,,,,,,,,,,,,,,,50847,,236292,,,instructions,"[{""page_index"":0,""viewing_time"":31479},{""page_index"":1,""viewing_time"":17672},{""page_index"":2,""viewing_time"":1696}]",134
,,,,,,,,,,,,,,,190548,,190549,,,instructions,"[{""page_index"":0,""viewing_time"":95588},{""page_index"":1,""viewing_time"":67228},{""page_index"":2,""viewing_time"":7158},{""page_index"":3,""viewing_time"":20573}]",135
,,,,,,,,,,,,,,,75191,,75192,,,instructions,"[{""page_index"":0,""viewing_time"":26206},{""page_index"":1,""viewing_time"":26409},{""page_index"":2,""viewing_time"":4830},{""page_index"":3,""viewing_time"":17745}]",136
,,,,,,,,,,,,,,,90538,,90540,,,instructions,"[{""page_index"":0,""viewing_time"":21307},{""page_index"":1,""viewing_time"":22239},{""page_index"":2,""viewing_time"":33916},{""page_index"":3,""viewing_time"":13075}]",137
,,,,,,,,,,,,,,,148803,,148805,,,instructions,"[{""page_index"":0,""viewing_time"":75201},{""page_index"":1,""viewing_time"":37500},{""page_index"":2,""viewing_time"":7351},{""page_index"":3,""viewing_time"":28751}]",138
,,,,,,,,,,,,,,,95679,,95681,,,instructions,"[{""page_index"":0,""viewing_time"":31138},{""page_index"":1,""viewing_time"":21392},{""page_index"":2,""viewing_time"":14066},{""page_index"":1,""viewing_time"":13679},{""page_index"":0,""viewing_time"":2890},{""page_index"":1,""viewing_time"":764},{""page_index"":2,""viewing_time"":4053},{""page_index"":3,""viewing_time"":4613},{""page_index"":2,""viewing_time"":656},{""page_index"":3,""viewing_time"":2426}]",139
,,,,,,,,,,,,,,,8443,,163079,,,instructions,"[{""page_index"":0,""viewing_time"":3433},{""page_index"":1,""viewing_time"":999},{""page_index"":2,""viewing_time"":3115},{""page_index"":3,""viewing_time"":895}]",139
,,,,,,,,,,,,,,,38945,,225719,,,instructions,"[{""page_index"":0,""viewing_time"":14244},{""page_index"":1,""viewing_time"":7818},{""page_index"":2,""viewing_time"":4938},{""page_index"":3,""viewing_time"":11944}]",139
,,,,,,,,,,,,,,,5907,,250609,,,instructions,"[{""page_index"":0,""viewing_time"":4792},{""page_index"":1,""viewing_time"":296},{""page_index"":2,""viewing_time"":374},{""page_index"":3,""viewing_time"":444}]",139
,,,,,,,,,,,,,,,1960,,295151,,,instructions,"[{""page_index"":0,""viewing_time"":1247},{""page_index"":1,""viewing_time"":217},{""page_index"":2,""viewing_time"":181},{""page_index"":3,""viewing_time"":314}]",139
,,,,,,,,,,,,,,,135007,,135007,,,instructions,"[{""page_index"":0,""viewing_time"":57192},{""page_index"":1,""viewing_time"":45894},{""page_index"":2,""viewing_time"":31919}]",140
,,,,,,,,,,,,,,,74962,,244267,,,instructions,"[{""page_index"":0,""viewing_time"":34511},{""page_index"":1,""viewing_time"":33852},{""page_index"":2,""viewing_time"":6598}]",140
,,,,,,,,,,,,,,,82223,,82224,,,instructions,"[{""page_index"":0,""viewing_time"":25274},{""page_index"":1,""viewing_time"":42568},{""page_index"":2,""viewing_time"":14379}]",141
,,,,,,,,,,,,,,,180184,,180187,,,instructions,"[{""page_index"":0,""viewing_time"":47975},{""page_index"":1,""viewing_time"":38164},{""page_index"":2,""viewing_time"":61159},{""page_index"":3,""viewing_time"":32884}]",142
,,,,,,,,,,,,,,,164032,,164038,,,instructions,"[{""page_index"":0,""viewing_time"":57608},{""page_index"":1,""viewing_time"":37803},{""page_index"":2,""viewing_time"":40269},{""page_index"":3,""viewing_time"":28352}]",143
,,,,,,,,,,,,,,,53376,,53376,,,instructions,"[{""page_index"":0,""viewing_time"":12016},{""page_index"":1,""viewing_time"":28773},{""page_index"":2,""viewing_time"":4239},{""page_index"":3,""viewing_time"":8347}]",144
,,,,,,,,,,,,,,,24740,,101555,,,instructions,"[{""page_index"":0,""viewing_time"":5830},{""page_index"":1,""viewing_time"":8994},{""page_index"":2,""viewing_time"":2281},{""page_index"":3,""viewing_time"":7635}]",144
,,,,,,,,,,,,,,,42685,,42686,,,instructions,"[{""page_index"":0,""viewing_time"":30787},{""page_index"":1,""viewing_time"":8456},{""page_index"":2,""viewing_time"":3440}]",145
,,,,,,,,,,,,,,,231474,,231475,,,instructions,"[{""page_index"":0,""viewing_time"":142718},{""page_index"":1,""viewing_time"":63770},{""page_index"":2,""viewing_time"":24984}]",146
,,,,,,,,,,,,,,,226842,,524290,,,instructions,"[{""page_index"":0,""viewing_time"":87911},{""page_index"":1,""viewing_time"":74720},{""page_index"":2,""viewing_time"":8712},{""page_index"":1,""viewing_time"":3664},{""page_index"":2,""viewing_time"":51834}]",146
,,,,,,,,,,,,,,,59906,,633950,,,instructions,"[{""page_index"":0,""viewing_time"":12412},{""page_index"":1,""viewing_time"":45641},{""page_index"":2,""viewing_time"":1852}]",146
,,,,,,,,,,,,,,,77773,,77775,,,instructions,"[{""page_index"":0,""viewing_time"":27476},{""page_index"":1,""viewing_time"":32617},{""page_index"":2,""viewing_time"":17680}]",147
,,,,,,,,,,,,,,,145806,,145811,,,instructions,"[{""page_index"":0,""viewing_time"":48868},{""page_index"":1,""viewing_time"":46972},{""page_index"":2,""viewing_time"":28337},{""page_index"":3,""viewing_time"":21625}]",148
,,,,,,,,,,,,,,,53191,,238829,,,instructions,"[{""page_index"":0,""viewing_time"":21275},{""page_index"":1,""viewing_time"":17793},{""page_index"":2,""viewing_time"":8471},{""page_index"":3,""viewing_time"":5649}]",148
,,,,,,,,,,,,,,,67963,,67965,,,instructions,"[{""page_index"":0,""viewing_time"":31450},{""page_index"":1,""viewing_time"":19185},{""page_index"":2,""viewing_time"":3944},{""page_index"":3,""viewing_time"":13383}]",149
,,,,,,,,,,,,,,,151795,,151796,,,instructions,"[{""page_index"":0,""viewing_time"":57673},{""page_index"":1,""viewing_time"":47721},{""page_index"":2,""viewing_time"":6520},{""page_index"":3,""viewing_time"":39880}]",150
,,,,,,,,,,,,,,,105369,,105369,,,instructions,"[{""page_index"":0,""viewing_time"":50148},{""page_index"":1,""viewing_time"":36267},{""page_index"":2,""viewing_time"":18953}]",151
,,,,,,,,,,,,,,,75851,,209152,,,instructions,"[{""page_index"":0,""viewing_time"":33431},{""page_index"":1,""viewing_time"":32925},{""page_index"":2,""viewing_time"":9495}]",151
,,,,,,,,,,,,,,,101557,,101559,,,instructions,"[{""page_index"":0,""viewing_time"":33661},{""page_index"":1,""viewing_time"":2035},{""page_index"":2,""viewing_time"":4921},{""page_index"":1,""viewing_time"":516},{""page_index"":0,""viewing_time"":6170},{""page_index"":1,""viewing_time"":17602},{""page_index"":2,""viewing_time"":30551},{""page_index"":3,""viewing_time"":6099}]",152
,,,,,,,,,,,,,,,30746,,189335,,,instructions,"[{""page_index"":0,""viewing_time"":7133},{""page_index"":1,""viewing_time"":7530},{""page_index"":2,""viewing_time"":10513},{""page_index"":3,""viewing_time"":5569}]",152
,,,,,,,,,,,,,,,89092,,89092,,,instructions,"[{""page_index"":0,""viewing_time"":33844},{""page_index"":1,""viewing_time"":37784},{""page_index"":2,""viewing_time"":17462}]",153
,,,,,,,,,,,,,,,142376,,142377,,,instructions,"[{""page_index"":0,""viewing_time"":76698},{""page_index"":1,""viewing_time"":28327},{""page_index"":2,""viewing_time"":6943},{""page_index"":3,""viewing_time"":30406}]",154
,,,,,,,,,,,,,,,81352,,81352,,,instructions,"[{""page_index"":0,""viewing_time"":35512},{""page_index"":1,""viewing_time"":14213},{""page_index"":2,""viewing_time"":7212},{""page_index"":3,""viewing_time"":24414}]",155
,,,,,,,,,,,,,,,101617,,101618,,,instructions,"[{""page_index"":0,""viewing_time"":27969},{""page_index"":1,""viewing_time"":41603},{""page_index"":2,""viewing_time"":5820},{""page_index"":3,""viewing_time"":26225}]",156
,,,,,,,,,,,,,,,74815,,74818,,,instructions,"[{""page_index"":0,""viewing_time"":19172},{""page_index"":1,""viewing_time"":18268},{""page_index"":2,""viewing_time"":5216},{""page_index"":3,""viewing_time"":32152}]",157
,,,,,,,,,,,,,,,24574,,144550,,,instructions,"[{""page_index"":0,""viewing_time"":13572},{""page_index"":1,""viewing_time"":6327},{""page_index"":2,""viewing_time"":1749},{""page_index"":3,""viewing_time"":2921}]",157
,,,,,,,,,,,,,,,16273,,216344,,,instructions,"[{""page_index"":0,""viewing_time"":12048},{""page_index"":1,""viewing_time"":1072},{""page_index"":2,""viewing_time"":1440},{""page_index"":3,""viewing_time"":1712}]",157
,,,,,,,,,,,,,,,112573,,112576,,,instructions,"[{""page_index"":0,""viewing_time"":42648},{""page_index"":1,""viewing_time"":23957},{""page_index"":0,""viewing_time"":7931},{""page_index"":1,""viewing_time"":13878},{""page_index"":2,""viewing_time"":4897},{""page_index"":3,""viewing_time"":19259}]",158
,,,,,,,,,,,,,,,179077,,179078,,,instructions,"[{""page_index"":0,""viewing_time"":73859},{""page_index"":1,""viewing_time"":36974},{""page_index"":2,""viewing_time"":28868},{""page_index"":3,""viewing_time"":39376}]",159
,,,,,,,,,,,,,,,77030,,314756,,,instructions,"[{""page_index"":0,""viewing_time"":31023},{""page_index"":1,""viewing_time"":19560},{""page_index"":2,""viewing_time"":23543},{""page_index"":3,""viewing_time"":2903}]",159
,,,,,,,,,,,,,,,96755,,96756,,,instructions,"[{""page_index"":0,""viewing_time"":37329},{""page_index"":1,""viewing_time"":11424},{""page_index"":2,""viewing_time"":20212},{""page_index"":3,""viewing_time"":27789}]",160
,,,,,,,,,,,,,,,217643,,217647,,,instructions,"[{""page_index"":0,""viewing_time"":84604},{""page_index"":1,""viewing_time"":68402},{""page_index"":0,""viewing_time"":6344},{""page_index"":1,""viewing_time"":12955},{""page_index"":2,""viewing_time"":45334}]",161
