p_rdata,action_times,actions,beliefs,correct,delays,information_used_correctly,key_press,meta_actions,path,planned_too_little,planned_too_much,queries,questions,responses,rt,score,time_elapsed,trial_index,trial_id,trial_type,view_history,pid
,,,,"[True, True, True, True, False]",,,,,,,,,"[""True or false: The hidden values will change each time I start a new round."",""How much does it cost to observe each hidden value?"",""How many hidden values am I allowed to observe in each round?"",""How is your bonus determined?"",""What does the feedback teach you?""]","[""True"",""$1.25"",""As many or as few as I wish"",""1 cent for every $1 I earn in each round"",""Whether I observed the rewards of relevant locations.""]",26041,,100092,,,survey-multi-choice,,0
,,,,"[True, True, True, True, True]",,,,,,,,,"[""True or false: The hidden values will change each time I start a new round."",""How much does it cost to observe each hidden value?"",""How many hidden values am I allowed to observe in each round?"",""How is your bonus determined?"",""What does the feedback teach you?""]","[""True"",""$1.25"",""As many or as few as I wish"",""1 cent for every $1 I earn in each round"",""All of the above.""]",10938,,124798,,,survey-multi-choice,,0
,,,,"[True, True, True, True]",,,,,,,,,"[""True or false: The hidden values will change each time I start a new round."",""How much does it cost to observe each hidden value?"",""How many hidden values am I allowed to observe in each round?"",""How is your bonus determined?""]","[""True"",""$1.25"",""As many or as few as I wish"",""1 cent for every $1 I earn in each round""]",20677,,144824,,,survey-multi-choice,,1
,,,,"[True, True, True, True]",,,,,,,,,"[""True or false: The hidden values will change each time I start a new round."",""How much does it cost to observe each hidden value?"",""How many hidden values am I allowed to observe in each round?"",""How is your bonus determined?""]","[""True"",""$1.25"",""As many or as few as I wish"",""1 cent for every $1 I earn in each round""]",14670,,28399,,,survey-multi-choice,,2
,,,,"[True, True, True, True]",,,,,,,,,"[""True or false: The hidden values will change each time I start a new round."",""How much does it cost to observe each hidden value?"",""How many hidden values am I allowed to observe in each round?"",""How is your bonus determined?""]","[""True"",""$1.25"",""As many or as few as I wish"",""1 cent for every $1 I earn in each round""]",23487,,166122,,,survey-multi-choice,,3
,,,,"[True, False, True, True, True]",,,,,,,,,"[""True or false: The hidden values will change each time I start a new round."",""How much does it cost to observe each hidden value?"",""How many hidden values am I allowed to observe in each round?"",""How is your bonus determined?"",""What does the feedback teach you?""]","[""True"",""$0.05"",""As many or as few as I wish"",""1 cent for every $1 I earn in each round"",""All of the above.""]",32194,,105241,,,survey-multi-choice,,4
,,,,"[True, True, True, True, True]",,,,,,,,,"[""True or false: The hidden values will change each time I start a new round."",""How much does it cost to observe each hidden value?"",""How many hidden values am I allowed to observe in each round?"",""How is your bonus determined?"",""What does the feedback teach you?""]","[""True"",""$1.25"",""As many or as few as I wish"",""1 cent for every $1 I earn in each round"",""All of the above.""]",16670,,157613,,,survey-multi-choice,,4
,,,,"[True, True, False, True, True]",,,,,,,,,"[""True or false: The hidden values will change each time I start a new round."",""How much does it cost to observe each hidden value?"",""How many hidden values am I allowed to observe in each round?"",""How is your bonus determined?"",""What does the feedback teach you?""]","[""True"",""$1.25"",""At most 5"",""1 cent for every $1 I earn in each round"",""All of the above.""]",46444,,229679,,,survey-multi-choice,,5
,,,,"[True, False, True, True, True]",,,,,,,,,"[""True or false: The hidden values will change each time I start a new round."",""How much does it cost to observe each hidden value?"",""How many hidden values am I allowed to observe in each round?"",""How is your bonus determined?"",""What does the feedback teach you?""]","[""True"",""$1.50"",""As many or as few as I wish"",""1 cent for every $1 I earn in each round"",""All of the above.""]",21492,,310650,,,survey-multi-choice,,5
,,,,"[True, True, True, True, False]",,,,,,,,,"[""True or false: The hidden values will change each time I start a new round."",""How much does it cost to observe each hidden value?"",""How many hidden values am I allowed to observe in each round?"",""How is your bonus determined?"",""What does the feedback teach you?""]","[""True"",""$1.25"",""As many or as few as I wish"",""1 cent for every $1 I earn in each round"",""Whether I observed the rewards of relevant locations.""]",45824,,407806,,,survey-multi-choice,,5
,,,,"[True, True, False, True, False]",,,,,,,,,"[""True or false: The hidden values will change each time I start a new round."",""How much does it cost to observe each hidden value?"",""How many hidden values am I allowed to observe in each round?"",""How is your bonus determined?"",""What does the feedback teach you?""]","[""True"",""$1.25"",""At most 1"",""1 cent for every $1 I earn in each round"",""Whether I chose the move that was best according to the information I had.""]",18709,,454854,,,survey-multi-choice,,5
,,,,"[True, True, False, True, True]",,,,,,,,,"[""True or false: The hidden values will change each time I start a new round."",""How much does it cost to observe each hidden value?"",""How many hidden values am I allowed to observe in each round?"",""How is your bonus determined?"",""What does the feedback teach you?""]","[""True"",""$1.25"",""At most 5"",""1 cent for every $1 I earn in each round"",""All of the above.""]",22506,,514938,,,survey-multi-choice,,5
,,,,"[True, True, True, True, False]",,,,,,,,,"[""True or false: The hidden values will change each time I start a new round."",""How much does it cost to observe each hidden value?"",""How many hidden values am I allowed to observe in each round?"",""How is your bonus determined?"",""What does the feedback teach you?""]","[""True"",""$1.25"",""As many or as few as I wish"",""1 cent for every $1 I earn in each round"",""The length of the delay is based on how much more money I could have earned by planning and deciding better.""]",18361,,666547,,,survey-multi-choice,,5
,,,,"[True, True, False, True, False]",,,,,,,,,"[""True or false: The hidden values will change each time I start a new round."",""How much does it cost to observe each hidden value?"",""How many hidden values am I allowed to observe in each round?"",""How is your bonus determined?"",""What does the feedback teach you?""]","[""True"",""$1.25"",""At most 5"",""1 cent for every $1 I earn in each round"",""The length of the delay is based on how much more money I could have earned by planning and deciding better.""]",24953,,719914,,,survey-multi-choice,,5
,,,,"[True, True, True, True, False]",,,,,,,,,"[""True or false: The hidden values will change each time I start a new round."",""How much does it cost to observe each hidden value?"",""How many hidden values am I allowed to observe in each round?"",""How is your bonus determined?"",""What does the feedback teach you?""]","[""True"",""$1.25"",""As many or as few as I wish"",""1 cent for every $1 I earn in each round"",""The length of the delay is based on how much more money I could have earned by planning and deciding better.""]",14507,,827482,,,survey-multi-choice,,5
,,,,"[True, True, True, True, False]",,,,,,,,,"[""True or false: The hidden values will change each time I start a new round."",""How much does it cost to observe each hidden value?"",""How many hidden values am I allowed to observe in each round?"",""How is your bonus determined?"",""What does the feedback teach you?""]","[""True"",""$1.25"",""As many or as few as I wish"",""1 cent for every $1 I earn in each round"",""Whether I chose the move that was best according to the information I had.""]",33618,,993352,,,survey-multi-choice,,5
,,,,"[True, True, True, True, True]",,,,,,,,,"[""True or false: The hidden values will change each time I start a new round."",""How much does it cost to observe each hidden value?"",""How many hidden values am I allowed to observe in each round?"",""How is your bonus determined?"",""What does the feedback teach you?""]","[""True"",""$1.25"",""As many or as few as I wish"",""1 cent for every $1 I earn in each round"",""All of the above.""]",14173,,1031230,,,survey-multi-choice,,5
,,,,"[True, True, True, True]",,,,,,,,,"[""True or false: The hidden values will change each time I start a new round."",""How much does it cost to observe each hidden value?"",""How many hidden values am I allowed to observe in each round?"",""How is your bonus determined?""]","[""True"",""$1.25"",""As many or as few as I wish"",""1 cent for every $1 I earn in each round""]",13842,,92991,,,survey-multi-choice,,6
,,,,"[True, True, True, True]",,,,,,,,,"[""True or false: The hidden values will change each time I start a new round."",""How much does it cost to observe each hidden value?"",""How many hidden values am I allowed to observe in each round?"",""How is your bonus determined?""]","[""True"",""$1.25"",""As many or as few as I wish"",""1 cent for every $1 I earn in each round""]",15186,,115736,,,survey-multi-choice,,7
,,,,"[True, True, True, False]",,,,,,,,,"[""True or false: The hidden values will change each time I start a new round."",""How much does it cost to observe each hidden value?"",""How many hidden values am I allowed to observe in each round?"",""How is your bonus determined?""]","[""True"",""$1.25"",""As many or as few as I wish"",""10% of my best score on any round""]",35634,,171229,,,survey-multi-choice,,8
,,,,"[True, True, True, True]",,,,,,,,,"[""True or false: The hidden values will change each time I start a new round."",""How much does it cost to observe each hidden value?"",""How many hidden values am I allowed to observe in each round?"",""How is your bonus determined?""]","[""True"",""$1.25"",""As many or as few as I wish"",""1 cent for every $1 I earn in each round""]",17071,,265096,,,survey-multi-choice,,8
,,,,"[True, True, False, True, False]",,,,,,,,,"[""True or false: The hidden values will change each time I start a new round."",""How much does it cost to observe each hidden value?"",""How many hidden values am I allowed to observe in each round?"",""How is your bonus determined?"",""What does the feedback teach you?""]","[""True"",""$1.25"",""At most 10"",""1 cent for every $1 I earn in each round"",""Whether I observed the rewards of relevant locations.""]",72578,,402360,,,survey-multi-choice,,9
,,,,"[True, True, True, True, True]",,,,,,,,,"[""True or false: The hidden values will change each time I start a new round."",""How much does it cost to observe each hidden value?"",""How many hidden values am I allowed to observe in each round?"",""How is your bonus determined?"",""What does the feedback teach you?""]","[""True"",""$1.25"",""As many or as few as I wish"",""1 cent for every $1 I earn in each round"",""All of the above.""]",46193,,654066,,,survey-multi-choice,,9
,,,,"[True, True, True, True, False]",,,,,,,,,"[""True or false: The hidden values will change each time I start a new round."",""How much does it cost to observe each hidden value?"",""How many hidden values am I allowed to observe in each round?"",""How is your bonus determined?"",""What does the feedback teach you?""]","[""True"",""$1.25"",""As many or as few as I wish"",""1 cent for every $1 I earn in each round"",""Whether I chose the move that was best according to the information I had.""]",40930,,335991,,,survey-multi-choice,,10
,,,,"[True, True, True, True, True]",,,,,,,,,"[""True or false: The hidden values will change each time I start a new round."",""How much does it cost to observe each hidden value?"",""How many hidden values am I allowed to observe in each round?"",""How is your bonus determined?"",""What does the feedback teach you?""]","[""True"",""$1.25"",""As many or as few as I wish"",""1 cent for every $1 I earn in each round"",""All of the above.""]",16430,,409812,,,survey-multi-choice,,10
,,,,"[True, True, True, True]",,,,,,,,,"[""True or false: The hidden values will change each time I start a new round."",""How much does it cost to observe each hidden value?"",""How many hidden values am I allowed to observe in each round?"",""How is your bonus determined?""]","[""True"",""$1.25"",""As many or as few as I wish"",""1 cent for every $1 I earn in each round""]",53083,,203360,,,survey-multi-choice,,11
,,,,"[True, True, True, True, True]",,,,,,,,,"[""True or false: The hidden values will change each time I start a new round."",""How much does it cost to observe each hidden value?"",""How many hidden values am I allowed to observe in each round?"",""How is your bonus determined?"",""What does the feedback teach you?""]","[""True"",""$1.25"",""As many or as few as I wish"",""1 cent for every $1 I earn in each round"",""All of the above.""]",36062,,377001,,,survey-multi-choice,,12
,,,,"[True, True, True, True]",,,,,,,,,"[""True or false: The hidden values will change each time I start a new round."",""How much does it cost to observe each hidden value?"",""How many hidden values am I allowed to observe in each round?"",""How is your bonus determined?""]","[""True"",""$1.25"",""As many or as few as I wish"",""1 cent for every $1 I earn in each round""]",13983,,115949,,,survey-multi-choice,,13
,,,,"[True, True, True, True, True]",,,,,,,,,"[""True or false: The hidden values will change each time I start a new round."",""How much does it cost to observe each hidden value?"",""How many hidden values am I allowed to observe in each round?"",""How is your bonus determined?"",""What does the feedback teach you?""]","[""True"",""$1.25"",""As many or as few as I wish"",""1 cent for every $1 I earn in each round"",""All of the above.""]",17739,,69528,,,survey-multi-choice,,14
,,,,"[True, True, False, True]",,,,,,,,,"[""True or false: The hidden values will change each time I start a new round."",""How much does it cost to observe each hidden value?"",""How many hidden values am I allowed to observe in each round?"",""How is your bonus determined?""]","[""True"",""$1.25"",""At most 1"",""1 cent for every $1 I earn in each round""]",35115,,146089,,,survey-multi-choice,,15
,,,,"[True, True, True, True]",,,,,,,,,"[""True or false: The hidden values will change each time I start a new round."",""How much does it cost to observe each hidden value?"",""How many hidden values am I allowed to observe in each round?"",""How is your bonus determined?""]","[""True"",""$1.25"",""As many or as few as I wish"",""1 cent for every $1 I earn in each round""]",16611,,227027,,,survey-multi-choice,,15
,,,,"[True, True, True, True]",,,,,,,,,"[""True or false: The hidden values will change each time I start a new round."",""How much does it cost to observe each hidden value?"",""How many hidden values am I allowed to observe in each round?"",""How is your bonus determined?""]","[""True"",""$1.25"",""As many or as few as I wish"",""1 cent for every $1 I earn in each round""]",13994,,72721,,,survey-multi-choice,,16
,,,,"[True, True, True, True]",,,,,,,,,"[""True or false: The hidden values will change each time I start a new round."",""How much does it cost to observe each hidden value?"",""How many hidden values am I allowed to observe in each round?"",""How is your bonus determined?""]","[""True"",""$1.25"",""As many or as few as I wish"",""1 cent for every $1 I earn in each round""]",26307,,177406,,,survey-multi-choice,,17
,,,,"[True, True, False, True]",,,,,,,,,"[""True or false: The hidden values will change each time I start a new round."",""How much does it cost to observe each hidden value?"",""How many hidden values am I allowed to observe in each round?"",""How is your bonus determined?""]","[""True"",""$1.25"",""At most 1"",""1 cent for every $1 I earn in each round""]",32552,,231071,,,survey-multi-choice,,18
,,,,"[True, True, True, True]",,,,,,,,,"[""True or false: The hidden values will change each time I start a new round."",""How much does it cost to observe each hidden value?"",""How many hidden values am I allowed to observe in each round?"",""How is your bonus determined?""]","[""True"",""$1.25"",""As many or as few as I wish"",""1 cent for every $1 I earn in each round""]",32861,,277650,,,survey-multi-choice,,18
,,,,"[True, True, True, True, True]",,,,,,,,,"[""True or false: The hidden values will change each time I start a new round."",""How much does it cost to observe each hidden value?"",""How many hidden values am I allowed to observe in each round?"",""How is your bonus determined?"",""What does the feedback teach you?""]","[""True"",""$1.25"",""As many or as few as I wish"",""1 cent for every $1 I earn in each round"",""All of the above.""]",132300,,332713,,,survey-multi-choice,,19
,,,,"[True, False, True, True, True]",,,,,,,,,"[""True or false: The hidden values will change each time I start a new round."",""How much does it cost to observe each hidden value?"",""How many hidden values am I allowed to observe in each round?"",""How is your bonus determined?"",""What does the feedback teach you?""]","[""True"",""$1.00"",""As many or as few as I wish"",""1 cent for every $1 I earn in each round"",""All of the above.""]",39431,,149911,,,survey-multi-choice,,20
,,,,"[True, True, True, True, True]",,,,,,,,,"[""True or false: The hidden values will change each time I start a new round."",""How much does it cost to observe each hidden value?"",""How many hidden values am I allowed to observe in each round?"",""How is your bonus determined?"",""What does the feedback teach you?""]","[""True"",""$1.25"",""As many or as few as I wish"",""1 cent for every $1 I earn in each round"",""All of the above.""]",9540,,192132,,,survey-multi-choice,,20
,,,,"[True, True, True, True]",,,,,,,,,"[""True or false: The hidden values will change each time I start a new round."",""How much does it cost to observe each hidden value?"",""How many hidden values am I allowed to observe in each round?"",""How is your bonus determined?""]","[""True"",""$1.25"",""As many or as few as I wish"",""1 cent for every $1 I earn in each round""]",34915,,132960,,,survey-multi-choice,,21
,,,,"[True, True, True, True]",,,,,,,,,"[""True or false: The hidden values will change each time I start a new round."",""How much does it cost to observe each hidden value?"",""How many hidden values am I allowed to observe in each round?"",""How is your bonus determined?""]","[""True"",""$1.25"",""As many or as few as I wish"",""1 cent for every $1 I earn in each round""]",23361,,143453,,,survey-multi-choice,,22
,,,,"[False, True, True, True, True]",,,,,,,,,"[""True or false: The hidden values will change each time I start a new round."",""How much does it cost to observe each hidden value?"",""How many hidden values am I allowed to observe in each round?"",""How is your bonus determined?"",""What does the feedback teach you?""]","[""False"",""$1.25"",""As many or as few as I wish"",""1 cent for every $1 I earn in each round"",""All of the above.""]",22382,,183883,,,survey-multi-choice,,23
,,,,"[True, True, True, True, False]",,,,,,,,,"[""True or false: The hidden values will change each time I start a new round."",""How much does it cost to observe each hidden value?"",""How many hidden values am I allowed to observe in each round?"",""How is your bonus determined?"",""What does the feedback teach you?""]","[""True"",""$1.25"",""As many or as few as I wish"",""1 cent for every $1 I earn in each round"",""Whether I chose the move that was best according to the information I had.""]",18476,,303311,,,survey-multi-choice,,23
,,,,"[True, True, False, True, False]",,,,,,,,,"[""True or false: The hidden values will change each time I start a new round."",""How much does it cost to observe each hidden value?"",""How many hidden values am I allowed to observe in each round?"",""How is your bonus determined?"",""What does the feedback teach you?""]","[""True"",""$1.25"",""At most 10"",""1 cent for every $1 I earn in each round"",""The length of the delay is based on how much more money I could have earned by planning and deciding better.""]",30013,,349728,,,survey-multi-choice,,23
,,,,"[True, True, True, True, True]",,,,,,,,,"[""True or false: The hidden values will change each time I start a new round."",""How much does it cost to observe each hidden value?"",""How many hidden values am I allowed to observe in each round?"",""How is your bonus determined?"",""What does the feedback teach you?""]","[""True"",""$1.25"",""As many or as few as I wish"",""1 cent for every $1 I earn in each round"",""All of the above.""]",16679,,406020,,,survey-multi-choice,,23
,,,,"[True, True, True, True, True]",,,,,,,,,"[""True or false: The hidden values will change each time I start a new round."",""How much does it cost to observe each hidden value?"",""How many hidden values am I allowed to observe in each round?"",""How is your bonus determined?"",""What does the feedback teach you?""]","[""True"",""$1.25"",""As many or as few as I wish"",""1 cent for every $1 I earn in each round"",""All of the above.""]",38413,,216845,,,survey-multi-choice,,24
,,,,"[True, False, True, True]",,,,,,,,,"[""True or false: The hidden values will change each time I start a new round."",""How much does it cost to observe each hidden value?"",""How many hidden values am I allowed to observe in each round?"",""How is your bonus determined?""]","[""True"",""$0.01"",""As many or as few as I wish"",""1 cent for every $1 I earn in each round""]",27071,,135514,,,survey-multi-choice,,25
,,,,"[True, True, True, True]",,,,,,,,,"[""True or false: The hidden values will change each time I start a new round."",""How much does it cost to observe each hidden value?"",""How many hidden values am I allowed to observe in each round?"",""How is your bonus determined?""]","[""True"",""$1.25"",""As many or as few as I wish"",""1 cent for every $1 I earn in each round""]",7957,,168679,,,survey-multi-choice,,25
,,,,"[True, False, True, True]",,,,,,,,,"[""True or false: The hidden values will change each time I start a new round."",""How much does it cost to observe each hidden value?"",""How many hidden values am I allowed to observe in each round?"",""How is your bonus determined?""]","[""True"",""$0.01"",""As many or as few as I wish"",""1 cent for every $1 I earn in each round""]",25309,,96697,,,survey-multi-choice,,26
,,,,"[True, False, False, True]",,,,,,,,,"[""True or false: The hidden values will change each time I start a new round."",""How much does it cost to observe each hidden value?"",""How many hidden values am I allowed to observe in each round?"",""How is your bonus determined?""]","[""True"",""$0.01"",""At most 15"",""1 cent for every $1 I earn in each round""]",28196,,308435,,,survey-multi-choice,,26
,,,,"[True, True, True, True]",,,,,,,,,"[""True or false: The hidden values will change each time I start a new round."",""How much does it cost to observe each hidden value?"",""How many hidden values am I allowed to observe in each round?"",""How is your bonus determined?""]","[""True"",""$1.25"",""As many or as few as I wish"",""1 cent for every $1 I earn in each round""]",14051,,374015,,,survey-multi-choice,,26
,,,,"[True, True, True, True]",,,,,,,,,"[""True or false: The hidden values will change each time I start a new round."",""How much does it cost to observe each hidden value?"",""How many hidden values am I allowed to observe in each round?"",""How is your bonus determined?""]","[""True"",""$1.25"",""As many or as few as I wish"",""1 cent for every $1 I earn in each round""]",16276,,83479,,,survey-multi-choice,,27
,,,,"[True, True, True, True]",,,,,,,,,"[""True or false: The hidden values will change each time I start a new round."",""How much does it cost to observe each hidden value?"",""How many hidden values am I allowed to observe in each round?"",""How is your bonus determined?""]","[""True"",""$1.25"",""As many or as few as I wish"",""1 cent for every $1 I earn in each round""]",9508,,25642,,,survey-multi-choice,,28
,,,,"[True, True, True, True, True]",,,,,,,,,"[""True or false: The hidden values will change each time I start a new round."",""How much does it cost to observe each hidden value?"",""How many hidden values am I allowed to observe in each round?"",""How is your bonus determined?"",""What does the feedback teach you?""]","[""True"",""$1.25"",""As many or as few as I wish"",""1 cent for every $1 I earn in each round"",""All of the above.""]",19998,,107243,,,survey-multi-choice,,29
,,,,"[True, True, True, True, True]",,,,,,,,,"[""True or false: The hidden values will change each time I start a new round."",""How much does it cost to observe each hidden value?"",""How many hidden values am I allowed to observe in each round?"",""How is your bonus determined?"",""What does the feedback teach you?""]","[""True"",""$1.25"",""As many or as few as I wish"",""1 cent for every $1 I earn in each round"",""All of the above.""]",31554,,282694,,,survey-multi-choice,,30
,,,,"[True, False, True, True]",,,,,,,,,"[""True or false: The hidden values will change each time I start a new round."",""How much does it cost to observe each hidden value?"",""How many hidden values am I allowed to observe in each round?"",""How is your bonus determined?""]","[""True"",""$1.00"",""As many or as few as I wish"",""1 cent for every $1 I earn in each round""]",30685,,186218,,,survey-multi-choice,,31
,,,,"[True, True, True, True]",,,,,,,,,"[""True or false: The hidden values will change each time I start a new round."",""How much does it cost to observe each hidden value?"",""How many hidden values am I allowed to observe in each round?"",""How is your bonus determined?""]","[""True"",""$1.25"",""As many or as few as I wish"",""1 cent for every $1 I earn in each round""]",13222,,268659,,,survey-multi-choice,,31
,,,,"[True, True, True, True]",,,,,,,,,"[""True or false: The hidden values will change each time I start a new round."",""How much does it cost to observe each hidden value?"",""How many hidden values am I allowed to observe in each round?"",""How is your bonus determined?""]","[""True"",""$1.25"",""As many or as few as I wish"",""1 cent for every $1 I earn in each round""]",221275,,400776,,,survey-multi-choice,,32
,,,,"[True, True, True, True]",,,,,,,,,"[""True or false: The hidden values will change each time I start a new round."",""How much does it cost to observe each hidden value?"",""How many hidden values am I allowed to observe in each round?"",""How is your bonus determined?""]","[""True"",""$1.25"",""As many or as few as I wish"",""1 cent for every $1 I earn in each round""]",30079,,180570,,,survey-multi-choice,,33
,,,,"[True, True, True, True, True]",,,,,,,,,"[""True or false: The hidden values will change each time I start a new round."",""How much does it cost to observe each hidden value?"",""How many hidden values am I allowed to observe in each round?"",""How is your bonus determined?"",""What does the feedback teach you?""]","[""True"",""$1.25"",""As many or as few as I wish"",""1 cent for every $1 I earn in each round"",""All of the above.""]",33708,,105915,,,survey-multi-choice,,34
,,,,"[True, True, True, True]",,,,,,,,,"[""True or false: The hidden values will change each time I start a new round."",""How much does it cost to observe each hidden value?"",""How many hidden values am I allowed to observe in each round?"",""How is your bonus determined?""]","[""True"",""$1.25"",""As many or as few as I wish"",""1 cent for every $1 I earn in each round""]",15306,,54056,,,survey-multi-choice,,35
,,,,"[True, True, True, True]",,,,,,,,,"[""True or false: The hidden values will change each time I start a new round."",""How much does it cost to observe each hidden value?"",""How many hidden values am I allowed to observe in each round?"",""How is your bonus determined?""]","[""True"",""$1.25"",""As many or as few as I wish"",""1 cent for every $1 I earn in each round""]",50822,,179295,,,survey-multi-choice,,36
,,,,"[True, True, True, True]",,,,,,,,,"[""True or false: The hidden values will change each time I start a new round."",""How much does it cost to observe each hidden value?"",""How many hidden values am I allowed to observe in each round?"",""How is your bonus determined?""]","[""True"",""$1.25"",""As many or as few as I wish"",""1 cent for every $1 I earn in each round""]",41090,,203503,,,survey-multi-choice,,37
,,,,"[True, True, True, False]",,,,,,,,,"[""True or false: The hidden values will change each time I start a new round."",""How much does it cost to observe each hidden value?"",""How many hidden values am I allowed to observe in each round?"",""How is your bonus determined?""]","[""True"",""$1.25"",""As many or as few as I wish"",""1% of my best score on any round""]",40626,,196391,,,survey-multi-choice,,38
,,,,"[True, True, True, True]",,,,,,,,,"[""True or false: The hidden values will change each time I start a new round."",""How much does it cost to observe each hidden value?"",""How many hidden values am I allowed to observe in each round?"",""How is your bonus determined?""]","[""True"",""$1.25"",""As many or as few as I wish"",""1 cent for every $1 I earn in each round""]",16703,,259473,,,survey-multi-choice,,38
,,,,"[True, True, True, True]",,,,,,,,,"[""True or false: The hidden values will change each time I start a new round."",""How much does it cost to observe each hidden value?"",""How many hidden values am I allowed to observe in each round?"",""How is your bonus determined?""]","[""True"",""$1.25"",""As many or as few as I wish"",""1 cent for every $1 I earn in each round""]",14439,,117970,,,survey-multi-choice,,39
,,,,"[True, True, True, True, True]",,,,,,,,,"[""True or false: The hidden values will change each time I start a new round."",""How much does it cost to observe each hidden value?"",""How many hidden values am I allowed to observe in each round?"",""How is your bonus determined?"",""What does the feedback teach you?""]","[""True"",""$1.25"",""As many or as few as I wish"",""1 cent for every $1 I earn in each round"",""All of the above.""]",23758,,92532,,,survey-multi-choice,,40
,,,,"[True, True, False, True]",,,,,,,,,"[""True or false: The hidden values will change each time I start a new round."",""How much does it cost to observe each hidden value?"",""How many hidden values am I allowed to observe in each round?"",""How is your bonus determined?""]","[""True"",""$1.25"",""At most 1"",""1 cent for every $1 I earn in each round""]",9815,,142967,,,survey-multi-choice,,41
,,,,"[True, True, True, True]",,,,,,,,,"[""True or false: The hidden values will change each time I start a new round."",""How much does it cost to observe each hidden value?"",""How many hidden values am I allowed to observe in each round?"",""How is your bonus determined?""]","[""True"",""$1.25"",""As many or as few as I wish"",""1 cent for every $1 I earn in each round""]",7054,,175899,,,survey-multi-choice,,41
,,,,"[True, True, True, True]",,,,,,,,,"[""True or false: The hidden values will change each time I start a new round."",""How much does it cost to observe each hidden value?"",""How many hidden values am I allowed to observe in each round?"",""How is your bonus determined?""]","[""True"",""$1.25"",""As many or as few as I wish"",""1 cent for every $1 I earn in each round""]",21309,,315113,,,survey-multi-choice,,42
,,,,"[True, False, True, True]",,,,,,,,,"[""True or false: The hidden values will change each time I start a new round."",""How much does it cost to observe each hidden value?"",""How many hidden values am I allowed to observe in each round?"",""How is your bonus determined?""]","[""True"",""$1.50"",""As many or as few as I wish"",""1 cent for every $1 I earn in each round""]",25678,,158409,,,survey-multi-choice,,43
,,,,"[True, True, True, True]",,,,,,,,,"[""True or false: The hidden values will change each time I start a new round."",""How much does it cost to observe each hidden value?"",""How many hidden values am I allowed to observe in each round?"",""How is your bonus determined?""]","[""True"",""$1.25"",""As many or as few as I wish"",""1 cent for every $1 I earn in each round""]",39260,,254041,,,survey-multi-choice,,43
,,,,"[True, True, True, True, True]",,,,,,,,,"[""True or false: The hidden values will change each time I start a new round."",""How much does it cost to observe each hidden value?"",""How many hidden values am I allowed to observe in each round?"",""How is your bonus determined?"",""What does the feedback teach you?""]","[""True"",""$1.25"",""As many or as few as I wish"",""1 cent for every $1 I earn in each round"",""All of the above.""]",41967,,201788,,,survey-multi-choice,,44
,,,,"[True, False, False, True]",,,,,,,,,"[""True or false: The hidden values will change each time I start a new round."",""How much does it cost to observe each hidden value?"",""How many hidden values am I allowed to observe in each round?"",""How is your bonus determined?""]","[""True"",""$10.00"",""At most 10"",""1 cent for every $1 I earn in each round""]",112458,,152533,,,survey-multi-choice,,45
,,,,"[False, False, False, True]",,,,,,,,,"[""True or false: The hidden values will change each time I start a new round."",""How much does it cost to observe each hidden value?"",""How many hidden values am I allowed to observe in each round?"",""How is your bonus determined?""]","[""False"",""$1.00"",""At most 10"",""1 cent for every $1 I earn in each round""]",31713,,260652,,,survey-multi-choice,,45
,,,,"[True, False, False, True]",,,,,,,,,"[""True or false: The hidden values will change each time I start a new round."",""How much does it cost to observe each hidden value?"",""How many hidden values am I allowed to observe in each round?"",""How is your bonus determined?""]","[""True"",""$1.00"",""At most 10"",""1 cent for every $1 I earn in each round""]",48120,,588508,,,survey-multi-choice,,45
,,,,"[True, True, False, True]",,,,,,,,,"[""True or false: The hidden values will change each time I start a new round."",""How much does it cost to observe each hidden value?"",""How many hidden values am I allowed to observe in each round?"",""How is your bonus determined?""]","[""True"",""$1.25"",""At most 15"",""1 cent for every $1 I earn in each round""]",24878,,695212,,,survey-multi-choice,,45
,,,,"[True, True, True, True]",,,,,,,,,"[""True or false: The hidden values will change each time I start a new round."",""How much does it cost to observe each hidden value?"",""How many hidden values am I allowed to observe in each round?"",""How is your bonus determined?""]","[""True"",""$1.25"",""As many or as few as I wish"",""1 cent for every $1 I earn in each round""]",28259,,820458,,,survey-multi-choice,,45
,,,,"[True, True, True, True, False]",,,,,,,,,"[""True or false: The hidden values will change each time I start a new round."",""How much does it cost to observe each hidden value?"",""How many hidden values am I allowed to observe in each round?"",""How is your bonus determined?"",""What does the feedback teach you?""]","[""True"",""$1.25"",""As many or as few as I wish"",""1 cent for every $1 I earn in each round"",""Whether I observed the rewards of relevant locations.""]",28568,,198437,,,survey-multi-choice,,46
,,,,"[True, True, True, True, True]",,,,,,,,,"[""True or false: The hidden values will change each time I start a new round."",""How much does it cost to observe each hidden value?"",""How many hidden values am I allowed to observe in each round?"",""How is your bonus determined?"",""What does the feedback teach you?""]","[""True"",""$1.25"",""As many or as few as I wish"",""1 cent for every $1 I earn in each round"",""All of the above.""]",13327,,219551,,,survey-multi-choice,,46
,,,,"[True, False, False, True]",,,,,,,,,"[""True or false: The hidden values will change each time I start a new round."",""How much does it cost to observe each hidden value?"",""How many hidden values am I allowed to observe in each round?"",""How is your bonus determined?""]","[""True"",""$0.25"",""At most 5"",""1 cent for every $1 I earn in each round""]",19704,,45015,,,survey-multi-choice,,47
,,,,"[True, True, True, True]",,,,,,,,,"[""True or false: The hidden values will change each time I start a new round."",""How much does it cost to observe each hidden value?"",""How many hidden values am I allowed to observe in each round?"",""How is your bonus determined?""]","[""True"",""$1.25"",""As many or as few as I wish"",""1 cent for every $1 I earn in each round""]",10651,,72857,,,survey-multi-choice,,47
,,,,"[True, True, True, True]",,,,,,,,,"[""True or false: The hidden values will change each time I start a new round."",""How much does it cost to observe each hidden value?"",""How many hidden values am I allowed to observe in each round?"",""How is your bonus determined?""]","[""True"",""$1.25"",""As many or as few as I wish"",""1 cent for every $1 I earn in each round""]",14269,,75123,,,survey-multi-choice,,48
,,,,"[True, True, True, True, True]",,,,,,,,,"[""True or false: The hidden values will change each time I start a new round."",""How much does it cost to observe each hidden value?"",""How many hidden values am I allowed to observe in each round?"",""How is your bonus determined?"",""What does the feedback teach you?""]","[""True"",""$1.25"",""As many or as few as I wish"",""1 cent for every $1 I earn in each round"",""All of the above.""]",37976,,254600,,,survey-multi-choice,,49
,,,,"[False, True, True, True]",,,,,,,,,"[""True or false: The hidden values will change each time I start a new round."",""How much does it cost to observe each hidden value?"",""How many hidden values am I allowed to observe in each round?"",""How is your bonus determined?""]","[""False"",""$1.25"",""As many or as few as I wish"",""1 cent for every $1 I earn in each round""]",19714,,144178,,,survey-multi-choice,,50
,,,,"[True, True, True, True]",,,,,,,,,"[""True or false: The hidden values will change each time I start a new round."",""How much does it cost to observe each hidden value?"",""How many hidden values am I allowed to observe in each round?"",""How is your bonus determined?""]","[""True"",""$1.25"",""As many or as few as I wish"",""1 cent for every $1 I earn in each round""]",11266,,208274,,,survey-multi-choice,,50
,,,,"[True, False, True, True]",,,,,,,,,"[""True or false: The hidden values will change each time I start a new round."",""How much does it cost to observe each hidden value?"",""How many hidden values am I allowed to observe in each round?"",""How is your bonus determined?""]","[""True"",""$1.00"",""As many or as few as I wish"",""1 cent for every $1 I earn in each round""]",22603,,140870,,,survey-multi-choice,,51
,,,,"[True, True, True, True]",,,,,,,,,"[""True or false: The hidden values will change each time I start a new round."",""How much does it cost to observe each hidden value?"",""How many hidden values am I allowed to observe in each round?"",""How is your bonus determined?""]","[""True"",""$1.25"",""As many or as few as I wish"",""1 cent for every $1 I earn in each round""]",9118,,179321,,,survey-multi-choice,,51
,,,,"[True, True, True, True, True]",,,,,,,,,"[""True or false: The hidden values will change each time I start a new round."",""How much does it cost to observe each hidden value?"",""How many hidden values am I allowed to observe in each round?"",""How is your bonus determined?"",""What does the feedback teach you?""]","[""True"",""$1.25"",""As many or as few as I wish"",""1 cent for every $1 I earn in each round"",""All of the above.""]",65291,,369509,,,survey-multi-choice,,52
,,,,"[True, False, False, True]",,,,,,,,,"[""True or false: The hidden values will change each time I start a new round."",""How much does it cost to observe each hidden value?"",""How many hidden values am I allowed to observe in each round?"",""How is your bonus determined?""]","[""True"",""$1.00"",""At most 1"",""1 cent for every $1 I earn in each round""]",39086,,131507,,,survey-multi-choice,,53
,,,,"[True, True, True, True]",,,,,,,,,"[""True or false: The hidden values will change each time I start a new round."",""How much does it cost to observe each hidden value?"",""How many hidden values am I allowed to observe in each round?"",""How is your bonus determined?""]","[""True"",""$1.25"",""As many or as few as I wish"",""1 cent for every $1 I earn in each round""]",16258,,214858,,,survey-multi-choice,,53
,,,,"[True, True, True, True]",,,,,,,,,"[""True or false: The hidden values will change each time I start a new round."",""How much does it cost to observe each hidden value?"",""How many hidden values am I allowed to observe in each round?"",""How is your bonus determined?""]","[""True"",""$1.25"",""As many or as few as I wish"",""1 cent for every $1 I earn in each round""]",20874,,151964,,,survey-multi-choice,,54
,,,,"[True, True, True, True]",,,,,,,,,"[""True or false: The hidden values will change each time I start a new round."",""How much does it cost to observe each hidden value?"",""How many hidden values am I allowed to observe in each round?"",""How is your bonus determined?""]","[""True"",""$1.25"",""As many or as few as I wish"",""1 cent for every $1 I earn in each round""]",20482,,263361,,,survey-multi-choice,,55
,,,,"[True, True, True, True, True]",,,,,,,,,"[""True or false: The hidden values will change each time I start a new round."",""How much does it cost to observe each hidden value?"",""How many hidden values am I allowed to observe in each round?"",""How is your bonus determined?"",""What does the feedback teach you?""]","[""True"",""$1.25"",""As many or as few as I wish"",""1 cent for every $1 I earn in each round"",""All of the above.""]",120475,,264500,,,survey-multi-choice,,56
,,,,"[False, False, False, True]",,,,,,,,,"[""True or false: The hidden values will change each time I start a new round."",""How much does it cost to observe each hidden value?"",""How many hidden values am I allowed to observe in each round?"",""How is your bonus determined?""]","[""False"",""$2.95"",""At most 10"",""1 cent for every $1 I earn in each round""]",22089,,61095,,,survey-multi-choice,,57
,,,,"[True, True, False, True]",,,,,,,,,"[""True or false: The hidden values will change each time I start a new round."",""How much does it cost to observe each hidden value?"",""How many hidden values am I allowed to observe in each round?"",""How is your bonus determined?""]","[""True"",""$1.25"",""At most 1"",""1 cent for every $1 I earn in each round""]",18415,,110424,,,survey-multi-choice,,57
,,,,"[True, True, True, True]",,,,,,,,,"[""True or false: The hidden values will change each time I start a new round."",""How much does it cost to observe each hidden value?"",""How many hidden values am I allowed to observe in each round?"",""How is your bonus determined?""]","[""True"",""$1.25"",""As many or as few as I wish"",""1 cent for every $1 I earn in each round""]",13226,,159277,,,survey-multi-choice,,57
,,,,"[False, True, True, True, False]",,,,,,,,,"[""True or false: The hidden values will change each time I start a new round."",""How much does it cost to observe each hidden value?"",""How many hidden values am I allowed to observe in each round?"",""How is your bonus determined?"",""What does the feedback teach you?""]","[""False"",""$1.25"",""As many or as few as I wish"",""1 cent for every $1 I earn in each round"",""Whether I chose the move that was best according to the information I had.""]",43314,,199967,,,survey-multi-choice,,58
,,,,"[True, True, True, True, True]",,,,,,,,,"[""True or false: The hidden values will change each time I start a new round."",""How much does it cost to observe each hidden value?"",""How many hidden values am I allowed to observe in each round?"",""How is your bonus determined?"",""What does the feedback teach you?""]","[""True"",""$1.25"",""As many or as few as I wish"",""1 cent for every $1 I earn in each round"",""All of the above.""]",17803,,258000,,,survey-multi-choice,,58
,,,,"[True, True, False, True, True]",,,,,,,,,"[""True or false: The hidden values will change each time I start a new round."",""How much does it cost to observe each hidden value?"",""How many hidden values am I allowed to observe in each round?"",""How is your bonus determined?"",""What does the feedback teach you?""]","[""True"",""$1.25"",""At most 5"",""1 cent for every $1 I earn in each round"",""All of the above.""]",31416,,68348,,,survey-multi-choice,,59
,,,,"[True, True, True, True, False]",,,,,,,,,"[""True or false: The hidden values will change each time I start a new round."",""How much does it cost to observe each hidden value?"",""How many hidden values am I allowed to observe in each round?"",""How is your bonus determined?"",""What does the feedback teach you?""]","[""True"",""$1.25"",""As many or as few as I wish"",""1 cent for every $1 I earn in each round"",""Whether I chose the move that was best according to the information I had.""]",19096,,134368,,,survey-multi-choice,,59
,,,,"[True, True, True, True, False]",,,,,,,,,"[""True or false: The hidden values will change each time I start a new round."",""How much does it cost to observe each hidden value?"",""How many hidden values am I allowed to observe in each round?"",""How is your bonus determined?"",""What does the feedback teach you?""]","[""True"",""$1.25"",""As many or as few as I wish"",""1 cent for every $1 I earn in each round"",""The length of the delay is based on how much more money I could have earned by planning and deciding better.""]",11091,,155593,,,survey-multi-choice,,59
,,,,"[True, True, True, True, False]",,,,,,,,,"[""True or false: The hidden values will change each time I start a new round."",""How much does it cost to observe each hidden value?"",""How many hidden values am I allowed to observe in each round?"",""How is your bonus determined?"",""What does the feedback teach you?""]","[""True"",""$1.25"",""As many or as few as I wish"",""1 cent for every $1 I earn in each round"",""Whether I observed the rewards of relevant locations.""]",13079,,223332,,,survey-multi-choice,,59
,,,,"[True, True, True, True, False]",,,,,,,,,"[""True or false: The hidden values will change each time I start a new round."",""How much does it cost to observe each hidden value?"",""How many hidden values am I allowed to observe in each round?"",""How is your bonus determined?"",""What does the feedback teach you?""]","[""True"",""$1.25"",""As many or as few as I wish"",""1 cent for every $1 I earn in each round"",""Whether I chose the move that was best according to the information I had.""]",14619,,249710,,,survey-multi-choice,,59
,,,,"[False, True, True, True, True]",,,,,,,,,"[""True or false: The hidden values will change each time I start a new round."",""How much does it cost to observe each hidden value?"",""How many hidden values am I allowed to observe in each round?"",""How is your bonus determined?"",""What does the feedback teach you?""]","[""False"",""$1.25"",""As many or as few as I wish"",""1 cent for every $1 I earn in each round"",""All of the above.""]",19759,,280284,,,survey-multi-choice,,59
,,,,"[True, True, True, True, True]",,,,,,,,,"[""True or false: The hidden values will change each time I start a new round."",""How much does it cost to observe each hidden value?"",""How many hidden values am I allowed to observe in each round?"",""How is your bonus determined?"",""What does the feedback teach you?""]","[""True"",""$1.25"",""As many or as few as I wish"",""1 cent for every $1 I earn in each round"",""All of the above.""]",8961,,317545,,,survey-multi-choice,,59
,,,,"[True, False, True, True]",,,,,,,,,"[""True or false: The hidden values will change each time I start a new round."",""How much does it cost to observe each hidden value?"",""How many hidden values am I allowed to observe in each round?"",""How is your bonus determined?""]","[""True"",""$0.05"",""As many or as few as I wish"",""1 cent for every $1 I earn in each round""]",22184,,186651,,,survey-multi-choice,,60
,,,,"[True, True, True, True]",,,,,,,,,"[""True or false: The hidden values will change each time I start a new round."",""How much does it cost to observe each hidden value?"",""How many hidden values am I allowed to observe in each round?"",""How is your bonus determined?""]","[""True"",""$1.25"",""As many or as few as I wish"",""1 cent for every $1 I earn in each round""]",13198,,383971,,,survey-multi-choice,,60
,,,,"[True, False, True, False, True]",,,,,,,,,"[""True or false: The hidden values will change each time I start a new round."",""How much does it cost to observe each hidden value?"",""How many hidden values am I allowed to observe in each round?"",""How is your bonus determined?"",""What does the feedback teach you?""]","[""True"",""$0.05"",""As many or as few as I wish"",""10% of my score on a random round"",""All of the above.""]",51332,,162330,,,survey-multi-choice,,61
,,,,"[True, True, True, True, True]",,,,,,,,,"[""True or false: The hidden values will change each time I start a new round."",""How much does it cost to observe each hidden value?"",""How many hidden values am I allowed to observe in each round?"",""How is your bonus determined?"",""What does the feedback teach you?""]","[""True"",""$1.25"",""As many or as few as I wish"",""1 cent for every $1 I earn in each round"",""All of the above.""]",11439,,197675,,,survey-multi-choice,,61
,,,,"[True, True, True, True, True]",,,,,,,,,"[""True or false: The hidden values will change each time I start a new round."",""How much does it cost to observe each hidden value?"",""How many hidden values am I allowed to observe in each round?"",""How is your bonus determined?"",""What does the feedback teach you?""]","[""True"",""$1.25"",""As many or as few as I wish"",""1 cent for every $1 I earn in each round"",""All of the above.""]",35763,,167432,,,survey-multi-choice,,62
,,,,"[True, True, True, True]",,,,,,,,,"[""True or false: The hidden values will change each time I start a new round."",""How much does it cost to observe each hidden value?"",""How many hidden values am I allowed to observe in each round?"",""How is your bonus determined?""]","[""True"",""$1.25"",""As many or as few as I wish"",""1 cent for every $1 I earn in each round""]",26242,,231389,,,survey-multi-choice,,63
,,,,"[False, True, True, True]",,,,,,,,,"[""True or false: The hidden values will change each time I start a new round."",""How much does it cost to observe each hidden value?"",""How many hidden values am I allowed to observe in each round?"",""How is your bonus determined?""]","[""False"",""$1.25"",""As many or as few as I wish"",""1 cent for every $1 I earn in each round""]",27667,,109061,,,survey-multi-choice,,64
,,,,"[True, True, True, True]",,,,,,,,,"[""True or false: The hidden values will change each time I start a new round."",""How much does it cost to observe each hidden value?"",""How many hidden values am I allowed to observe in each round?"",""How is your bonus determined?""]","[""True"",""$1.25"",""As many or as few as I wish"",""1 cent for every $1 I earn in each round""]",16866,,216382,,,survey-multi-choice,,64
,,,,"[True, True, True, True]",,,,,,,,,"[""True or false: The hidden values will change each time I start a new round."",""How much does it cost to observe each hidden value?"",""How many hidden values am I allowed to observe in each round?"",""How is your bonus determined?""]","[""True"",""$1.25"",""As many or as few as I wish"",""1 cent for every $1 I earn in each round""]",21955,,105068,,,survey-multi-choice,,65
,,,,"[True, True, True, True]",,,,,,,,,"[""True or false: The hidden values will change each time I start a new round."",""How much does it cost to observe each hidden value?"",""How many hidden values am I allowed to observe in each round?"",""How is your bonus determined?""]","[""True"",""$1.25"",""As many or as few as I wish"",""1 cent for every $1 I earn in each round""]",33360,,115765,,,survey-multi-choice,,66
,,,,"[True, True, True, True, True]",,,,,,,,,"[""True or false: The hidden values will change each time I start a new round."",""How much does it cost to observe each hidden value?"",""How many hidden values am I allowed to observe in each round?"",""How is your bonus determined?"",""What does the feedback teach you?""]","[""True"",""$1.25"",""As many or as few as I wish"",""1 cent for every $1 I earn in each round"",""All of the above.""]",21079,,138291,,,survey-multi-choice,,67
,,,,"[True, True, False, True, False]",,,,,,,,,"[""True or false: The hidden values will change each time I start a new round."",""How much does it cost to observe each hidden value?"",""How many hidden values am I allowed to observe in each round?"",""How is your bonus determined?"",""What does the feedback teach you?""]","[""True"",""$1.25"",""At most 1"",""1 cent for every $1 I earn in each round"",""Whether I chose the move that was best according to the information I had.""]",35770,,190230,,,survey-multi-choice,,68
,,,,"[True, True, True, True, False]",,,,,,,,,"[""True or false: The hidden values will change each time I start a new round."",""How much does it cost to observe each hidden value?"",""How many hidden values am I allowed to observe in each round?"",""How is your bonus determined?"",""What does the feedback teach you?""]","[""True"",""$1.25"",""As many or as few as I wish"",""1 cent for every $1 I earn in each round"",""Whether I chose the move that was best according to the information I had.""]",17045,,244825,,,survey-multi-choice,,68
,,,,"[True, True, True, True, True]",,,,,,,,,"[""True or false: The hidden values will change each time I start a new round."",""How much does it cost to observe each hidden value?"",""How many hidden values am I allowed to observe in each round?"",""How is your bonus determined?"",""What does the feedback teach you?""]","[""True"",""$1.25"",""As many or as few as I wish"",""1 cent for every $1 I earn in each round"",""All of the above.""]",12888,,266147,,,survey-multi-choice,,68
,,,,"[True, True, True, True]",,,,,,,,,"[""True or false: The hidden values will change each time I start a new round."",""How much does it cost to observe each hidden value?"",""How many hidden values am I allowed to observe in each round?"",""How is your bonus determined?""]","[""True"",""$1.25"",""As many or as few as I wish"",""1 cent for every $1 I earn in each round""]",15781,,198169,,,survey-multi-choice,,69
,,,,"[False, True, True, True]",,,,,,,,,"[""True or false: The hidden values will change each time I start a new round."",""How much does it cost to observe each hidden value?"",""How many hidden values am I allowed to observe in each round?"",""How is your bonus determined?""]","[""False"",""$1.25"",""As many or as few as I wish"",""1 cent for every $1 I earn in each round""]",10273,,810321,,,survey-multi-choice,,70
,,,,"[True, True, True, True]",,,,,,,,,"[""True or false: The hidden values will change each time I start a new round."",""How much does it cost to observe each hidden value?"",""How many hidden values am I allowed to observe in each round?"",""How is your bonus determined?""]","[""True"",""$1.25"",""As many or as few as I wish"",""1 cent for every $1 I earn in each round""]",8611,,854160,,,survey-multi-choice,,70
,,,,"[True, False, False, True]",,,,,,,,,"[""True or false: The hidden values will change each time I start a new round."",""How much does it cost to observe each hidden value?"",""How many hidden values am I allowed to observe in each round?"",""How is your bonus determined?""]","[""True"",""$0.01"",""At most 5"",""1 cent for every $1 I earn in each round""]",27248,,94902,,,survey-multi-choice,,71
,,,,"[True, True, True, True]",,,,,,,,,"[""True or false: The hidden values will change each time I start a new round."",""How much does it cost to observe each hidden value?"",""How many hidden values am I allowed to observe in each round?"",""How is your bonus determined?""]","[""True"",""$1.25"",""As many or as few as I wish"",""1 cent for every $1 I earn in each round""]",11902,,237457,,,survey-multi-choice,,71
,,,,"[True, True, True, True]",,,,,,,,,"[""True or false: The hidden values will change each time I start a new round."",""How much does it cost to observe each hidden value?"",""How many hidden values am I allowed to observe in each round?"",""How is your bonus determined?""]","[""True"",""$1.25"",""As many or as few as I wish"",""1 cent for every $1 I earn in each round""]",19129,,158683,,,survey-multi-choice,,72
,,,,"[True, True, True, True]",,,,,,,,,"[""True or false: The hidden values will change each time I start a new round."",""How much does it cost to observe each hidden value?"",""How many hidden values am I allowed to observe in each round?"",""How is your bonus determined?""]","[""True"",""$1.25"",""As many or as few as I wish"",""1 cent for every $1 I earn in each round""]",18437,,148756,,,survey-multi-choice,,73
,,,,"[True, True, True, True, True]",,,,,,,,,"[""True or false: The hidden values will change each time I start a new round."",""How much does it cost to observe each hidden value?"",""How many hidden values am I allowed to observe in each round?"",""How is your bonus determined?"",""What does the feedback teach you?""]","[""True"",""$1.25"",""As many or as few as I wish"",""1 cent for every $1 I earn in each round"",""All of the above.""]",44144,,137245,,,survey-multi-choice,,74
,,,,"[True, False, True, True, True]",,,,,,,,,"[""True or false: The hidden values will change each time I start a new round."",""How much does it cost to observe each hidden value?"",""How many hidden values am I allowed to observe in each round?"",""How is your bonus determined?"",""What does the feedback teach you?""]","[""True"",""$0.01"",""As many or as few as I wish"",""1 cent for every $1 I earn in each round"",""All of the above.""]",72261,,201228,,,survey-multi-choice,,75
,,,,"[True, True, True, True, True]",,,,,,,,,"[""True or false: The hidden values will change each time I start a new round."",""How much does it cost to observe each hidden value?"",""How many hidden values am I allowed to observe in each round?"",""How is your bonus determined?"",""What does the feedback teach you?""]","[""True"",""$1.25"",""As many or as few as I wish"",""1 cent for every $1 I earn in each round"",""All of the above.""]",28284,,280185,,,survey-multi-choice,,75
,,,,"[True, True, True, True]",,,,,,,,,"[""True or false: The hidden values will change each time I start a new round."",""How much does it cost to observe each hidden value?"",""How many hidden values am I allowed to observe in each round?"",""How is your bonus determined?""]","[""True"",""$1.25"",""As many or as few as I wish"",""1 cent for every $1 I earn in each round""]",36768,,97773,,,survey-multi-choice,,76
,,,,"[True, True, True, True]",,,,,,,,,"[""True or false: The hidden values will change each time I start a new round."",""How much does it cost to observe each hidden value?"",""How many hidden values am I allowed to observe in each round?"",""How is your bonus determined?""]","[""True"",""$1.25"",""As many or as few as I wish"",""1 cent for every $1 I earn in each round""]",23080,,236768,,,survey-multi-choice,,77
,,,,"[True, True, True, True]",,,,,,,,,"[""True or false: The hidden values will change each time I start a new round."",""How much does it cost to observe each hidden value?"",""How many hidden values am I allowed to observe in each round?"",""How is your bonus determined?""]","[""True"",""$1.25"",""As many or as few as I wish"",""1 cent for every $1 I earn in each round""]",25055,,210248,,,survey-multi-choice,,78
,,,,"[True, True, True, True]",,,,,,,,,"[""True or false: The hidden values will change each time I start a new round."",""How much does it cost to observe each hidden value?"",""How many hidden values am I allowed to observe in each round?"",""How is your bonus determined?""]","[""True"",""$1.25"",""As many or as few as I wish"",""1 cent for every $1 I earn in each round""]",18764,,173275,,,survey-multi-choice,,79
,,,,"[True, False, False, False, False]",,,,,,,,,"[""True or false: The hidden values will change each time I start a new round."",""How much does it cost to observe each hidden value?"",""How many hidden values am I allowed to observe in each round?"",""How is your bonus determined?"",""What does the feedback teach you?""]","[""True"",""$0.05"",""At most 10"",""10% of my best score on any round"",""Whether I observed the rewards of relevant locations.""]",20752,,120132,,,survey-multi-choice,,80
,,,,"[True, True, False, False, False]",,,,,,,,,"[""True or false: The hidden values will change each time I start a new round."",""How much does it cost to observe each hidden value?"",""How many hidden values am I allowed to observe in each round?"",""How is your bonus determined?"",""What does the feedback teach you?""]","[""True"",""$1.25"",""At most 5"",""10% of my score on a random round"",""The length of the delay is based on how much more money I could have earned by planning and deciding better.""]",17897,,186084,,,survey-multi-choice,,80
,,,,"[True, True, False, False, True]",,,,,,,,,"[""True or false: The hidden values will change each time I start a new round."",""How much does it cost to observe each hidden value?"",""How many hidden values am I allowed to observe in each round?"",""How is your bonus determined?"",""What does the feedback teach you?""]","[""True"",""$1.25"",""At most 1"",""10% of my best score on any round"",""All of the above.""]",28095,,307132,,,survey-multi-choice,,80
,,,,"[True, True, False, True, True]",,,,,,,,,"[""True or false: The hidden values will change each time I start a new round."",""How much does it cost to observe each hidden value?"",""How many hidden values am I allowed to observe in each round?"",""How is your bonus determined?"",""What does the feedback teach you?""]","[""True"",""$1.25"",""At most 10"",""1 cent for every $1 I earn in each round"",""All of the above.""]",26270,,392272,,,survey-multi-choice,,80
,,,,"[True, True, False, True, True]",,,,,,,,,"[""True or false: The hidden values will change each time I start a new round."",""How much does it cost to observe each hidden value?"",""How many hidden values am I allowed to observe in each round?"",""How is your bonus determined?"",""What does the feedback teach you?""]","[""True"",""$1.25"",""At most 1"",""1 cent for every $1 I earn in each round"",""All of the above.""]",15889,,418524,,,survey-multi-choice,,80
,,,,"[True, True, False, True, True]",,,,,,,,,"[""True or false: The hidden values will change each time I start a new round."",""How much does it cost to observe each hidden value?"",""How many hidden values am I allowed to observe in each round?"",""How is your bonus determined?"",""What does the feedback teach you?""]","[""True"",""$1.25"",""At most 15"",""1 cent for every $1 I earn in each round"",""All of the above.""]",21105,,448928,,,survey-multi-choice,,80
,,,,"[True, True, True, True, True]",,,,,,,,,"[""True or false: The hidden values will change each time I start a new round."",""How much does it cost to observe each hidden value?"",""How many hidden values am I allowed to observe in each round?"",""How is your bonus determined?"",""What does the feedback teach you?""]","[""True"",""$1.25"",""As many or as few as I wish"",""1 cent for every $1 I earn in each round"",""All of the above.""]",10741,,481310,,,survey-multi-choice,,80
,,,,"[True, True, True, True, True]",,,,,,,,,"[""True or false: The hidden values will change each time I start a new round."",""How much does it cost to observe each hidden value?"",""How many hidden values am I allowed to observe in each round?"",""How is your bonus determined?"",""What does the feedback teach you?""]","[""True"",""$1.25"",""As many or as few as I wish"",""1 cent for every $1 I earn in each round"",""All of the above.""]",33546,,216226,,,survey-multi-choice,,81
,,,,"[True, True, True, True]",,,,,,,,,"[""True or false: The hidden values will change each time I start a new round."",""How much does it cost to observe each hidden value?"",""How many hidden values am I allowed to observe in each round?"",""How is your bonus determined?""]","[""True"",""$1.25"",""As many or as few as I wish"",""1 cent for every $1 I earn in each round""]",14414,,69098,,,survey-multi-choice,,82
,,,,"[True, True, True, True]",,,,,,,,,"[""True or false: The hidden values will change each time I start a new round."",""How much does it cost to observe each hidden value?"",""How many hidden values am I allowed to observe in each round?"",""How is your bonus determined?""]","[""True"",""$1.25"",""As many or as few as I wish"",""1 cent for every $1 I earn in each round""]",12442,,67025,,,survey-multi-choice,,83
,,,,"[True, True, True, True, True]",,,,,,,,,"[""True or false: The hidden values will change each time I start a new round."",""How much does it cost to observe each hidden value?"",""How many hidden values am I allowed to observe in each round?"",""How is your bonus determined?"",""What does the feedback teach you?""]","[""True"",""$1.25"",""As many or as few as I wish"",""1 cent for every $1 I earn in each round"",""All of the above.""]",24399,,196119,,,survey-multi-choice,,84
,,,,"[True, True, True, True]",,,,,,,,,"[""True or false: The hidden values will change each time I start a new round."",""How much does it cost to observe each hidden value?"",""How many hidden values am I allowed to observe in each round?"",""How is your bonus determined?""]","[""True"",""$1.25"",""As many or as few as I wish"",""1 cent for every $1 I earn in each round""]",24950,,153943,,,survey-multi-choice,,85
,,,,"[True, True, True, True]",,,,,,,,,"[""True or false: The hidden values will change each time I start a new round."",""How much does it cost to observe each hidden value?"",""How many hidden values am I allowed to observe in each round?"",""How is your bonus determined?""]","[""True"",""$1.25"",""As many or as few as I wish"",""1 cent for every $1 I earn in each round""]",17409,,144649,,,survey-multi-choice,,86
,,,,"[True, True, True, True, True]",,,,,,,,,"[""True or false: The hidden values will change each time I start a new round."",""How much does it cost to observe each hidden value?"",""How many hidden values am I allowed to observe in each round?"",""How is your bonus determined?"",""What does the feedback teach you?""]","[""True"",""$1.25"",""As many or as few as I wish"",""1 cent for every $1 I earn in each round"",""All of the above.""]",45037,,309606,,,survey-multi-choice,,87
,,,,"[True, True, True, True, True]",,,,,,,,,"[""True or false: The hidden values will change each time I start a new round."",""How much does it cost to observe each hidden value?"",""How many hidden values am I allowed to observe in each round?"",""How is your bonus determined?"",""What does the feedback teach you?""]","[""True"",""$1.25"",""As many or as few as I wish"",""1 cent for every $1 I earn in each round"",""All of the above.""]",19034,,154598,,,survey-multi-choice,,88
,,,,"[True, True, True, True, True]",,,,,,,,,"[""True or false: The hidden values will change each time I start a new round."",""How much does it cost to observe each hidden value?"",""How many hidden values am I allowed to observe in each round?"",""How is your bonus determined?"",""What does the feedback teach you?""]","[""True"",""$1.25"",""As many or as few as I wish"",""1 cent for every $1 I earn in each round"",""All of the above.""]",26242,,275711,,,survey-multi-choice,,89
,,,,"[True, False, True, True, True]",,,,,,,,,"[""True or false: The hidden values will change each time I start a new round."",""How much does it cost to observe each hidden value?"",""How many hidden values am I allowed to observe in each round?"",""How is your bonus determined?"",""What does the feedback teach you?""]","[""True"",""$0.01"",""As many or as few as I wish"",""1 cent for every $1 I earn in each round"",""All of the above.""]",44444,,212031,,,survey-multi-choice,,90
,,,,"[True, True, True, True, True]",,,,,,,,,"[""True or false: The hidden values will change each time I start a new round."",""How much does it cost to observe each hidden value?"",""How many hidden values am I allowed to observe in each round?"",""How is your bonus determined?"",""What does the feedback teach you?""]","[""True"",""$1.25"",""As many or as few as I wish"",""1 cent for every $1 I earn in each round"",""All of the above.""]",15068,,263188,,,survey-multi-choice,,90
,,,,"[True, True, True, True]",,,,,,,,,"[""True or false: The hidden values will change each time I start a new round."",""How much does it cost to observe each hidden value?"",""How many hidden values am I allowed to observe in each round?"",""How is your bonus determined?""]","[""True"",""$1.25"",""As many or as few as I wish"",""1 cent for every $1 I earn in each round""]",25540,,300003,,,survey-multi-choice,,91
,,,,"[True, True, True, True]",,,,,,,,,"[""True or false: The hidden values will change each time I start a new round."",""How much does it cost to observe each hidden value?"",""How many hidden values am I allowed to observe in each round?"",""How is your bonus determined?""]","[""True"",""$1.25"",""As many or as few as I wish"",""1 cent for every $1 I earn in each round""]",45764,,312763,,,survey-multi-choice,,92
,,,,"[True, False, True, True]",,,,,,,,,"[""True or false: The hidden values will change each time I start a new round."",""How much does it cost to observe each hidden value?"",""How many hidden values am I allowed to observe in each round?"",""How is your bonus determined?""]","[""True"",""$1.00"",""As many or as few as I wish"",""1 cent for every $1 I earn in each round""]",27039,,121365,,,survey-multi-choice,,93
,,,,"[True, True, True, True]",,,,,,,,,"[""True or false: The hidden values will change each time I start a new round."",""How much does it cost to observe each hidden value?"",""How many hidden values am I allowed to observe in each round?"",""How is your bonus determined?""]","[""True"",""$1.25"",""As many or as few as I wish"",""1 cent for every $1 I earn in each round""]",11389,,151354,,,survey-multi-choice,,93
,,,,"[True, True, True, True]",,,,,,,,,"[""True or false: The hidden values will change each time I start a new round."",""How much does it cost to observe each hidden value?"",""How many hidden values am I allowed to observe in each round?"",""How is your bonus determined?""]","[""True"",""$1.25"",""As many or as few as I wish"",""1 cent for every $1 I earn in each round""]",17066,,142638,,,survey-multi-choice,,94
,,,,"[True, True, True, True, True]",,,,,,,,,"[""True or false: The hidden values will change each time I start a new round."",""How much does it cost to observe each hidden value?"",""How many hidden values am I allowed to observe in each round?"",""How is your bonus determined?"",""What does the feedback teach you?""]","[""True"",""$1.25"",""As many or as few as I wish"",""1 cent for every $1 I earn in each round"",""All of the above.""]",31607,,178309,,,survey-multi-choice,,95
,,,,"[True, True, True, True]",,,,,,,,,"[""True or false: The hidden values will change each time I start a new round."",""How much does it cost to observe each hidden value?"",""How many hidden values am I allowed to observe in each round?"",""How is your bonus determined?""]","[""True"",""$1.25"",""As many or as few as I wish"",""1 cent for every $1 I earn in each round""]",18341,,108644,,,survey-multi-choice,,96
,,,,"[True, True, True, True]",,,,,,,,,"[""True or false: The hidden values will change each time I start a new round."",""How much does it cost to observe each hidden value?"",""How many hidden values am I allowed to observe in each round?"",""How is your bonus determined?""]","[""True"",""$1.25"",""As many or as few as I wish"",""1 cent for every $1 I earn in each round""]",17539,,195435,,,survey-multi-choice,,97
,,,,"[True, True, True, True, True]",,,,,,,,,"[""True or false: The hidden values will change each time I start a new round."",""How much does it cost to observe each hidden value?"",""How many hidden values am I allowed to observe in each round?"",""How is your bonus determined?"",""What does the feedback teach you?""]","[""True"",""$1.25"",""As many or as few as I wish"",""1 cent for every $1 I earn in each round"",""All of the above.""]",39349,,285154,,,survey-multi-choice,,98
,,,,"[True, False, True, True]",,,,,,,,,"[""True or false: The hidden values will change each time I start a new round."",""How much does it cost to observe each hidden value?"",""How many hidden values am I allowed to observe in each round?"",""How is your bonus determined?""]","[""True"",""$1.50"",""As many or as few as I wish"",""1 cent for every $1 I earn in each round""]",19247,,136886,,,survey-multi-choice,,99
,,,,"[True, True, True, True]",,,,,,,,,"[""True or false: The hidden values will change each time I start a new round."",""How much does it cost to observe each hidden value?"",""How many hidden values am I allowed to observe in each round?"",""How is your bonus determined?""]","[""True"",""$1.25"",""As many or as few as I wish"",""1 cent for every $1 I earn in each round""]",7671,,154291,,,survey-multi-choice,,99
,,,,"[True, True, True, True]",,,,,,,,,"[""True or false: The hidden values will change each time I start a new round."",""How much does it cost to observe each hidden value?"",""How many hidden values am I allowed to observe in each round?"",""How is your bonus determined?""]","[""True"",""$1.25"",""As many or as few as I wish"",""1 cent for every $1 I earn in each round""]",27653,,399900,,,survey-multi-choice,,100
,,,,"[True, False, False, False]",,,,,,,,,"[""True or false: The hidden values will change each time I start a new round."",""How much does it cost to observe each hidden value?"",""How many hidden values am I allowed to observe in each round?"",""How is your bonus determined?""]","[""True"",""$0.10"",""At most 5"",""10% of my best score on any round""]",13679,,34299,,,survey-multi-choice,,101
,,,,"[True, True, True, True]",,,,,,,,,"[""True or false: The hidden values will change each time I start a new round."",""How much does it cost to observe each hidden value?"",""How many hidden values am I allowed to observe in each round?"",""How is your bonus determined?""]","[""True"",""$1.25"",""As many or as few as I wish"",""1 cent for every $1 I earn in each round""]",8560,,69810,,,survey-multi-choice,,101
,,,,"[True, True, True, True, True]",,,,,,,,,"[""True or false: The hidden values will change each time I start a new round."",""How much does it cost to observe each hidden value?"",""How many hidden values am I allowed to observe in each round?"",""How is your bonus determined?"",""What does the feedback teach you?""]","[""True"",""$1.25"",""As many or as few as I wish"",""1 cent for every $1 I earn in each round"",""All of the above.""]",178637,,562683,,,survey-multi-choice,,102
,,,,"[True, True, True, True, True]",,,,,,,,,"[""True or false: The hidden values will change each time I start a new round."",""How much does it cost to observe each hidden value?"",""How many hidden values am I allowed to observe in each round?"",""How is your bonus determined?"",""What does the feedback teach you?""]","[""True"",""$1.25"",""As many or as few as I wish"",""1 cent for every $1 I earn in each round"",""All of the above.""]",22848,,174811,,,survey-multi-choice,,103
,,,,"[True, True, True, True]",,,,,,,,,"[""True or false: The hidden values will change each time I start a new round."",""How much does it cost to observe each hidden value?"",""How many hidden values am I allowed to observe in each round?"",""How is your bonus determined?""]","[""True"",""$1.25"",""As many or as few as I wish"",""1 cent for every $1 I earn in each round""]",21136,,246543,,,survey-multi-choice,,104
,,,,"[True, True, True, True, True]",,,,,,,,,"[""True or false: The hidden values will change each time I start a new round."",""How much does it cost to observe each hidden value?"",""How many hidden values am I allowed to observe in each round?"",""How is your bonus determined?"",""What does the feedback teach you?""]","[""True"",""$1.25"",""As many or as few as I wish"",""1 cent for every $1 I earn in each round"",""All of the above.""]",35516,,267903,,,survey-multi-choice,,105
,,,,"[False, False, True, True]",,,,,,,,,"[""True or false: The hidden values will change each time I start a new round."",""How much does it cost to observe each hidden value?"",""How many hidden values am I allowed to observe in each round?"",""How is your bonus determined?""]","[""False"",""$0.01"",""As many or as few as I wish"",""1 cent for every $1 I earn in each round""]",29915,,88627,,,survey-multi-choice,,106
,,,,"[False, False, False, True]",,,,,,,,,"[""True or false: The hidden values will change each time I start a new round."",""How much does it cost to observe each hidden value?"",""How many hidden values am I allowed to observe in each round?"",""How is your bonus determined?""]","[""False"",""$0.01"",""At most 1"",""1 cent for every $1 I earn in each round""]",28521,,147551,,,survey-multi-choice,,106
,,,,"[False, False, True, True]",,,,,,,,,"[""True or false: The hidden values will change each time I start a new round."",""How much does it cost to observe each hidden value?"",""How many hidden values am I allowed to observe in each round?"",""How is your bonus determined?""]","[""False"",""$1.00"",""As many or as few as I wish"",""1 cent for every $1 I earn in each round""]",17999,,247436,,,survey-multi-choice,,106
,,,,"[False, False, True, True]",,,,,,,,,"[""True or false: The hidden values will change each time I start a new round."",""How much does it cost to observe each hidden value?"",""How many hidden values am I allowed to observe in each round?"",""How is your bonus determined?""]","[""False"",""$0.05"",""As many or as few as I wish"",""1 cent for every $1 I earn in each round""]",24415,,289843,,,survey-multi-choice,,106
,,,,"[False, True, True, True]",,,,,,,,,"[""True or false: The hidden values will change each time I start a new round."",""How much does it cost to observe each hidden value?"",""How many hidden values am I allowed to observe in each round?"",""How is your bonus determined?""]","[""False"",""$1.25"",""As many or as few as I wish"",""1 cent for every $1 I earn in each round""]",9936,,315700,,,survey-multi-choice,,106
,,,,"[True, True, True, True]",,,,,,,,,"[""True or false: The hidden values will change each time I start a new round."",""How much does it cost to observe each hidden value?"",""How many hidden values am I allowed to observe in each round?"",""How is your bonus determined?""]","[""True"",""$1.25"",""As many or as few as I wish"",""1 cent for every $1 I earn in each round""]",8744,,345652,,,survey-multi-choice,,106
,,,,"[True, True, True, True]",,,,,,,,,"[""True or false: The hidden values will change each time I start a new round."",""How much does it cost to observe each hidden value?"",""How many hidden values am I allowed to observe in each round?"",""How is your bonus determined?""]","[""True"",""$1.25"",""As many or as few as I wish"",""1 cent for every $1 I earn in each round""]",24936,,171490,,,survey-multi-choice,,107
,,,,"[True, True, True, True]",,,,,,,,,"[""True or false: The hidden values will change each time I start a new round."",""How much does it cost to observe each hidden value?"",""How many hidden values am I allowed to observe in each round?"",""How is your bonus determined?""]","[""True"",""$1.25"",""As many or as few as I wish"",""1 cent for every $1 I earn in each round""]",18060,,79973,,,survey-multi-choice,,108
,,,,"[False, True, False, True]",,,,,,,,,"[""True or false: The hidden values will change each time I start a new round."",""How much does it cost to observe each hidden value?"",""How many hidden values am I allowed to observe in each round?"",""How is your bonus determined?""]","[""False"",""$1.25"",""At most 10"",""1 cent for every $1 I earn in each round""]",20043,,177128,,,survey-multi-choice,,109
,,,,"[True, True, False, True]",,,,,,,,,"[""True or false: The hidden values will change each time I start a new round."",""How much does it cost to observe each hidden value?"",""How many hidden values am I allowed to observe in each round?"",""How is your bonus determined?""]","[""True"",""$1.25"",""At most 15"",""1 cent for every $1 I earn in each round""]",18231,,223273,,,survey-multi-choice,,109
,,,,"[True, True, False, True]",,,,,,,,,"[""True or false: The hidden values will change each time I start a new round."",""How much does it cost to observe each hidden value?"",""How many hidden values am I allowed to observe in each round?"",""How is your bonus determined?""]","[""True"",""$1.25"",""At most 10"",""1 cent for every $1 I earn in each round""]",9062,,246561,,,survey-multi-choice,,109
,,,,"[False, True, False, True]",,,,,,,,,"[""True or false: The hidden values will change each time I start a new round."",""How much does it cost to observe each hidden value?"",""How many hidden values am I allowed to observe in each round?"",""How is your bonus determined?""]","[""False"",""$1.25"",""At most 5"",""1 cent for every $1 I earn in each round""]",35498,,318089,,,survey-multi-choice,,109
,,,,"[False, True, True, True]",,,,,,,,,"[""True or false: The hidden values will change each time I start a new round."",""How much does it cost to observe each hidden value?"",""How many hidden values am I allowed to observe in each round?"",""How is your bonus determined?""]","[""False"",""$1.25"",""As many or as few as I wish"",""1 cent for every $1 I earn in each round""]",12200,,342533,,,survey-multi-choice,,109
,,,,"[True, True, False, True]",,,,,,,,,"[""True or false: The hidden values will change each time I start a new round."",""How much does it cost to observe each hidden value?"",""How many hidden values am I allowed to observe in each round?"",""How is your bonus determined?""]","[""True"",""$1.25"",""At most 5"",""1 cent for every $1 I earn in each round""]",15443,,395539,,,survey-multi-choice,,109
,,,,"[True, True, False, True]",,,,,,,,,"[""True or false: The hidden values will change each time I start a new round."",""How much does it cost to observe each hidden value?"",""How many hidden values am I allowed to observe in each round?"",""How is your bonus determined?""]","[""True"",""$1.25"",""At most 1"",""1 cent for every $1 I earn in each round""]",8188,,411919,,,survey-multi-choice,,109
,,,,"[True, True, False, True]",,,,,,,,,"[""True or false: The hidden values will change each time I start a new round."",""How much does it cost to observe each hidden value?"",""How many hidden values am I allowed to observe in each round?"",""How is your bonus determined?""]","[""True"",""$1.25"",""At most 10"",""1 cent for every $1 I earn in each round""]",7969,,432497,,,survey-multi-choice,,109
,,,,"[True, True, False, True]",,,,,,,,,"[""True or false: The hidden values will change each time I start a new round."",""How much does it cost to observe each hidden value?"",""How many hidden values am I allowed to observe in each round?"",""How is your bonus determined?""]","[""True"",""$1.25"",""At most 15"",""1 cent for every $1 I earn in each round""]",6139,,449594,,,survey-multi-choice,,109
,,,,"[True, True, True, True]",,,,,,,,,"[""True or false: The hidden values will change each time I start a new round."",""How much does it cost to observe each hidden value?"",""How many hidden values am I allowed to observe in each round?"",""How is your bonus determined?""]","[""True"",""$1.25"",""As many or as few as I wish"",""1 cent for every $1 I earn in each round""]",11514,,468632,,,survey-multi-choice,,109
,,,,"[True, True, True, True, True]",,,,,,,,,"[""True or false: The hidden values will change each time I start a new round."",""How much does it cost to observe each hidden value?"",""How many hidden values am I allowed to observe in each round?"",""How is your bonus determined?"",""What does the feedback teach you?""]","[""True"",""$1.25"",""As many or as few as I wish"",""1 cent for every $1 I earn in each round"",""All of the above.""]",15434,,80879,,,survey-multi-choice,,110
,,,,"[True, True, True, True]",,,,,,,,,"[""True or false: The hidden values will change each time I start a new round."",""How much does it cost to observe each hidden value?"",""How many hidden values am I allowed to observe in each round?"",""How is your bonus determined?""]","[""True"",""$1.25"",""As many or as few as I wish"",""1 cent for every $1 I earn in each round""]",18533,,379604,,,survey-multi-choice,,111
,,,,"[True, False, True, True]",,,,,,,,,"[""True or false: The hidden values will change each time I start a new round."",""How much does it cost to observe each hidden value?"",""How many hidden values am I allowed to observe in each round?"",""How is your bonus determined?""]","[""True"",""$0.01"",""As many or as few as I wish"",""1 cent for every $1 I earn in each round""]",56604,,209715,,,survey-multi-choice,,112
,,,,"[True, True, True, True]",,,,,,,,,"[""True or false: The hidden values will change each time I start a new round."",""How much does it cost to observe each hidden value?"",""How many hidden values am I allowed to observe in each round?"",""How is your bonus determined?""]","[""True"",""$1.25"",""As many or as few as I wish"",""1 cent for every $1 I earn in each round""]",33134,,520778,,,survey-multi-choice,,112
,,,,"[True, False, True, True]",,,,,,,,,"[""True or false: The hidden values will change each time I start a new round."",""How much does it cost to observe each hidden value?"",""How many hidden values am I allowed to observe in each round?"",""How is your bonus determined?""]","[""True"",""$0.01"",""As many or as few as I wish"",""1 cent for every $1 I earn in each round""]",16053,,92405,,,survey-multi-choice,,113
,,,,"[True, True, True, True]",,,,,,,,,"[""True or false: The hidden values will change each time I start a new round."",""How much does it cost to observe each hidden value?"",""How many hidden values am I allowed to observe in each round?"",""How is your bonus determined?""]","[""True"",""$1.25"",""As many or as few as I wish"",""1 cent for every $1 I earn in each round""]",11006,,140129,,,survey-multi-choice,,113
,,,,"[True, True, True, True, True]",,,,,,,,,"[""True or false: The hidden values will change each time I start a new round."",""How much does it cost to observe each hidden value?"",""How many hidden values am I allowed to observe in each round?"",""How is your bonus determined?"",""What does the feedback teach you?""]","[""True"",""$1.25"",""As many or as few as I wish"",""1 cent for every $1 I earn in each round"",""All of the above.""]",24760,,151770,,,survey-multi-choice,,114
,,,,"[True, True, True, True]",,,,,,,,,"[""True or false: The hidden values will change each time I start a new round."",""How much does it cost to observe each hidden value?"",""How many hidden values am I allowed to observe in each round?"",""How is your bonus determined?""]","[""True"",""$1.25"",""As many or as few as I wish"",""1 cent for every $1 I earn in each round""]",15823,,95938,,,survey-multi-choice,,115
,,,,"[True, True, True, True]",,,,,,,,,"[""True or false: The hidden values will change each time I start a new round."",""How much does it cost to observe each hidden value?"",""How many hidden values am I allowed to observe in each round?"",""How is your bonus determined?""]","[""True"",""$1.25"",""As many or as few as I wish"",""1 cent for every $1 I earn in each round""]",14406,,191742,,,survey-multi-choice,,116
,,,,"[True, True, True, True]",,,,,,,,,"[""True or false: The hidden values will change each time I start a new round."",""How much does it cost to observe each hidden value?"",""How many hidden values am I allowed to observe in each round?"",""How is your bonus determined?""]","[""True"",""$1.25"",""As many or as few as I wish"",""1 cent for every $1 I earn in each round""]",31147,,193695,,,survey-multi-choice,,117
,,,,"[True, True, True, True, True]",,,,,,,,,"[""True or false: The hidden values will change each time I start a new round."",""How much does it cost to observe each hidden value?"",""How many hidden values am I allowed to observe in each round?"",""How is your bonus determined?"",""What does the feedback teach you?""]","[""True"",""$1.25"",""As many or as few as I wish"",""1 cent for every $1 I earn in each round"",""All of the above.""]",151344,,207547,,,survey-multi-choice,,118
,,,,"[True, True, True, True, True]",,,,,,,,,"[""True or false: The hidden values will change each time I start a new round."",""How much does it cost to observe each hidden value?"",""How many hidden values am I allowed to observe in each round?"",""How is your bonus determined?"",""What does the feedback teach you?""]","[""True"",""$1.25"",""As many or as few as I wish"",""1 cent for every $1 I earn in each round"",""All of the above.""]",43763,,263842,,,survey-multi-choice,,119
,,,,"[True, True, True, True]",,,,,,,,,"[""True or false: The hidden values will change each time I start a new round."",""How much does it cost to observe each hidden value?"",""How many hidden values am I allowed to observe in each round?"",""How is your bonus determined?""]","[""True"",""$1.25"",""As many or as few as I wish"",""1 cent for every $1 I earn in each round""]",32805,,94153,,,survey-multi-choice,,120
,,,,"[True, True, False, True]",,,,,,,,,"[""True or false: The hidden values will change each time I start a new round."",""How much does it cost to observe each hidden value?"",""How many hidden values am I allowed to observe in each round?"",""How is your bonus determined?""]","[""True"",""$1.25"",""At most 1"",""1 cent for every $1 I earn in each round""]",39384,,239244,,,survey-multi-choice,,121
,,,,"[False, True, False, True]",,,,,,,,,"[""True or false: The hidden values will change each time I start a new round."",""How much does it cost to observe each hidden value?"",""How many hidden values am I allowed to observe in each round?"",""How is your bonus determined?""]","[""False"",""$1.25"",""At most 1"",""1 cent for every $1 I earn in each round""]",24416,,327920,,,survey-multi-choice,,121
,,,,"[True, True, True, True]",,,,,,,,,"[""True or false: The hidden values will change each time I start a new round."",""How much does it cost to observe each hidden value?"",""How many hidden values am I allowed to observe in each round?"",""How is your bonus determined?""]","[""True"",""$1.25"",""As many or as few as I wish"",""1 cent for every $1 I earn in each round""]",14574,,415264,,,survey-multi-choice,,121
,,,,"[True, True, False, True]",,,,,,,,,"[""True or false: The hidden values will change each time I start a new round."",""How much does it cost to observe each hidden value?"",""How many hidden values am I allowed to observe in each round?"",""How is your bonus determined?""]","[""True"",""$1.25"",""At most 1"",""1 cent for every $1 I earn in each round""]",31524,,155409,,,survey-multi-choice,,122
,,,,"[True, True, True, True]",,,,,,,,,"[""True or false: The hidden values will change each time I start a new round."",""How much does it cost to observe each hidden value?"",""How many hidden values am I allowed to observe in each round?"",""How is your bonus determined?""]","[""True"",""$1.25"",""As many or as few as I wish"",""1 cent for every $1 I earn in each round""]",20594,,234179,,,survey-multi-choice,,122
,,,,"[True, False, True, True]",,,,,,,,,"[""True or false: The hidden values will change each time I start a new round."",""How much does it cost to observe each hidden value?"",""How many hidden values am I allowed to observe in each round?"",""How is your bonus determined?""]","[""True"",""$0.01"",""As many or as few as I wish"",""1 cent for every $1 I earn in each round""]",22357,,318344,,,survey-multi-choice,,123
,,,,"[True, True, True, True]",,,,,,,,,"[""True or false: The hidden values will change each time I start a new round."",""How much does it cost to observe each hidden value?"",""How many hidden values am I allowed to observe in each round?"",""How is your bonus determined?""]","[""True"",""$1.25"",""As many or as few as I wish"",""1 cent for every $1 I earn in each round""]",10848,,350161,,,survey-multi-choice,,123
,,,,"[True, True, True, True]",,,,,,,,,"[""True or false: The hidden values will change each time I start a new round."",""How much does it cost to observe each hidden value?"",""How many hidden values am I allowed to observe in each round?"",""How is your bonus determined?""]","[""True"",""$1.25"",""As many or as few as I wish"",""1 cent for every $1 I earn in each round""]",17159,,75015,,,survey-multi-choice,,124
,,,,"[True, True, True, True]",,,,,,,,,"[""True or false: The hidden values will change each time I start a new round."",""How much does it cost to observe each hidden value?"",""How many hidden values am I allowed to observe in each round?"",""How is your bonus determined?""]","[""True"",""$1.25"",""As many or as few as I wish"",""1 cent for every $1 I earn in each round""]",24678,,134958,,,survey-multi-choice,,125
,,,,"[True, True, True, True]",,,,,,,,,"[""True or false: The hidden values will change each time I start a new round."",""How much does it cost to observe each hidden value?"",""How many hidden values am I allowed to observe in each round?"",""How is your bonus determined?""]","[""True"",""$1.25"",""As many or as few as I wish"",""1 cent for every $1 I earn in each round""]",24091,,142933,,,survey-multi-choice,,126
,,,,"[True, True, True, True, True]",,,,,,,,,"[""True or false: The hidden values will change each time I start a new round."",""How much does it cost to observe each hidden value?"",""How many hidden values am I allowed to observe in each round?"",""How is your bonus determined?"",""What does the feedback teach you?""]","[""True"",""$1.25"",""As many or as few as I wish"",""1 cent for every $1 I earn in each round"",""All of the above.""]",31206,,288588,,,survey-multi-choice,,127
,,,,"[True, True, True, True, True]",,,,,,,,,"[""True or false: The hidden values will change each time I start a new round."",""How much does it cost to observe each hidden value?"",""How many hidden values am I allowed to observe in each round?"",""How is your bonus determined?"",""What does the feedback teach you?""]","[""True"",""$1.25"",""As many or as few as I wish"",""1 cent for every $1 I earn in each round"",""All of the above.""]",36683,,66127,,,survey-multi-choice,,128
,,,,"[True, True, True, True]",,,,,,,,,"[""True or false: The hidden values will change each time I start a new round."",""How much does it cost to observe each hidden value?"",""How many hidden values am I allowed to observe in each round?"",""How is your bonus determined?""]","[""True"",""$1.25"",""As many or as few as I wish"",""1 cent for every $1 I earn in each round""]",11885,,97378,,,survey-multi-choice,,129
,,,,"[True, True, True, True]",,,,,,,,,"[""True or false: The hidden values will change each time I start a new round."",""How much does it cost to observe each hidden value?"",""How many hidden values am I allowed to observe in each round?"",""How is your bonus determined?""]","[""True"",""$1.25"",""As many or as few as I wish"",""1 cent for every $1 I earn in each round""]",19752,,663972,,,survey-multi-choice,,130
,,,,"[True, False, True, True]",,,,,,,,,"[""True or false: The hidden values will change each time I start a new round."",""How much does it cost to observe each hidden value?"",""How many hidden values am I allowed to observe in each round?"",""How is your bonus determined?""]","[""True"",""$1.50"",""As many or as few as I wish"",""1 cent for every $1 I earn in each round""]",27796,,145080,,,survey-multi-choice,,131
,,,,"[True, True, True, True]",,,,,,,,,"[""True or false: The hidden values will change each time I start a new round."",""How much does it cost to observe each hidden value?"",""How many hidden values am I allowed to observe in each round?"",""How is your bonus determined?""]","[""True"",""$1.25"",""As many or as few as I wish"",""1 cent for every $1 I earn in each round""]",11509,,167239,,,survey-multi-choice,,131
,,,,"[True, True, True, True]",,,,,,,,,"[""True or false: The hidden values will change each time I start a new round."",""How much does it cost to observe each hidden value?"",""How many hidden values am I allowed to observe in each round?"",""How is your bonus determined?""]","[""True"",""$1.25"",""As many or as few as I wish"",""1 cent for every $1 I earn in each round""]",20548,,179120,,,survey-multi-choice,,132
,,,,"[True, True, True, True]",,,,,,,,,"[""True or false: The hidden values will change each time I start a new round."",""How much does it cost to observe each hidden value?"",""How many hidden values am I allowed to observe in each round?"",""How is your bonus determined?""]","[""True"",""$1.25"",""As many or as few as I wish"",""1 cent for every $1 I earn in each round""]",21930,,193272,,,survey-multi-choice,,133
,,,,"[True, False, True, True]",,,,,,,,,"[""True or false: The hidden values will change each time I start a new round."",""How much does it cost to observe each hidden value?"",""How many hidden values am I allowed to observe in each round?"",""How is your bonus determined?""]","[""True"",""$0.10"",""As many or as few as I wish"",""1 cent for every $1 I earn in each round""]",48545,,184430,,,survey-multi-choice,,134
,,,,"[True, True, True, True]",,,,,,,,,"[""True or false: The hidden values will change each time I start a new round."",""How much does it cost to observe each hidden value?"",""How many hidden values am I allowed to observe in each round?"",""How is your bonus determined?""]","[""True"",""$1.25"",""As many or as few as I wish"",""1 cent for every $1 I earn in each round""]",14744,,252077,,,survey-multi-choice,,134
,,,,"[True, True, True, True]",,,,,,,,,"[""True or false: The hidden values will change each time I start a new round."",""How much does it cost to observe each hidden value?"",""How many hidden values am I allowed to observe in each round?"",""How is your bonus determined?""]","[""True"",""$1.25"",""As many or as few as I wish"",""1 cent for every $1 I earn in each round""]",15889,,207471,,,survey-multi-choice,,135
,,,,"[True, True, True, True]",,,,,,,,,"[""True or false: The hidden values will change each time I start a new round."",""How much does it cost to observe each hidden value?"",""How many hidden values am I allowed to observe in each round?"",""How is your bonus determined?""]","[""True"",""$1.25"",""As many or as few as I wish"",""1 cent for every $1 I earn in each round""]",14248,,90469,,,survey-multi-choice,,136
,,,,"[True, True, True, True, True]",,,,,,,,,"[""True or false: The hidden values will change each time I start a new round."",""How much does it cost to observe each hidden value?"",""How many hidden values am I allowed to observe in each round?"",""How is your bonus determined?"",""What does the feedback teach you?""]","[""True"",""$1.25"",""As many or as few as I wish"",""1 cent for every $1 I earn in each round"",""All of the above.""]",21897,,113493,,,survey-multi-choice,,137
