action_times,actions,block,path,queries,rewards,rt,score,simulation_mode,state_rewards,time_elapsed,trial_index,trial_time,trial_id,trial_type,pid
"[14269, 17194, 18467]","[u'left', u'left', u'up']",train_basic,"[u'0', u'9', u'10', u'11']","{u'mouseover': {u'state': {u'target': [], u'time': []}, u'edge': {u'target': [], u'time': []}}, u'click': {u'state': {u'target': [], u'time': []}, u'edge': {u'target': [], u'time': []}}, u'mouseout': {u'state': {u'target': [], u'time': []}, u'edge': {u'target': [], u'time': []}}}","[24, 8, 2]","[14267, 2404, 757]",34.0,"[None, None, None]","[u'', -24, 8, 2, 4, 24, -4, 4, -4, 24, 8, 2, -4]",21429,0.0,21247.0,9.05488131509e+18,mouselab-mdp,0
"[15155, 18087, 18987]","[u'right', u'right', u'down']",train_basic,"[u'0', u'5', u'6', u'8']","{u'mouseover': {u'state': {u'target': [], u'time': []}, u'edge': {u'target': [], u'time': []}}, u'click': {u'state': {u'target': [], u'time': []}, u'edge': {u'target': [], u'time': []}}, u'mouseout': {u'state': {u'target': [], u'time': []}, u'edge': {u'target': [], u'time': []}}}","[-24, 4, 2]","[15153, 2417, 383]",-18.0,"[None, None, None]","[u'', -24, 8, -2, -2, -24, 4, -4, 2, -48, -8, 4, -4]",45741,1.0,23184.0,-8.16534935299e+18,mouselab-mdp,0
"[6624, 10535, 11815]","[u'right', u'right', u'down']",train_basic,"[u'0', u'5', u'6', u'8']","{u'mouseover': {u'state': {u'target': [], u'time': []}, u'edge': {u'target': [], u'time': []}}, u'click': {u'state': {u'target': [], u'time': []}, u'edge': {u'target': [], u'time': []}}, u'mouseout': {u'state': {u'target': [], u'time': []}, u'edge': {u'target': [], u'time': []}}}","[-24, 8, 4]","[6623, 3397, 758]",-12.0,"[None, None, None]","[u'', -24, 4, -2, 4, -24, 8, 4, 4, -24, -8, -4, -2]",61184,2.0,14317.0,2.30326182839e+18,mouselab-mdp,0
"[8480, 14465, 15404]","[u'left', u'left', u'up']",train_basic,"[u'0', u'9', u'10', u'11']","{u'mouseover': {u'state': {u'target': [], u'time': []}, u'edge': {u'target': [], u'time': []}}, u'click': {u'state': {u'target': [], u'time': []}, u'edge': {u'target': [], u'time': []}}, u'mouseout': {u'state': {u'target': [], u'time': []}, u'edge': {u'target': [], u'time': []}}}","[48, -8, 4]","[8477, 5463, 424]",44.0,"[None, None, None]","[u'', 24, 4, -4, 2, -48, 8, 2, -4, 48, -8, 4, 2]",79684,3.0,17370.0,6.63672823162e+18,mouselab-mdp,0
"[10869, 12206, 12852]","[u'right', u'right', u'up']",train_basic,"[u'0', u'5', u'6', u'7']","{u'mouseover': {u'state': {u'target': [], u'time': []}, u'edge': {u'target': [], u'time': []}}, u'click': {u'state': {u'target': [], u'time': []}, u'edge': {u'target': [], u'time': []}}, u'mouseout': {u'state': {u'target': [], u'time': []}, u'edge': {u'target': [], u'time': []}}}","[48, -8, 4]","[10868, 821, 136]",44.0,"[None, None, None]","[u'', -24, 4, 4, -4, 48, -8, 4, 2, -24, -8, 2, 4]",95292,4.0,14461.0,-3.44355803009e+18,mouselab-mdp,0
"[32772, 33593, 34236]","[u'left', u'left', u'up']",train_basic2,"[u'0', u'9', u'10', u'11']","{u'mouseover': {u'state': {u'target': [], u'time': []}, u'edge': {u'target': [], u'time': []}}, u'click': {u'state': {u'target': [], u'time': []}, u'edge': {u'target': [], u'time': []}}, u'mouseout': {u'state': {u'target': [], u'time': []}, u'edge': {u'target': [], u'time': []}}}","[-24, 8, 2]","[32771, 302, 121]",-14.0,"[None, None, None]","[u'', -48, -8, 4, -4, -24, -8, 4, 2, -24, 8, 2, -2]",134363,5.0,35853.0,4.65301638885e+18,mouselab-mdp,0
"[2791, 6882, 7780]","[u'right', u'right', u'down']",train_basic2,"[u'0', u'5', u'6', u'8']","{u'mouseover': {u'state': {u'target': [], u'time': []}, u'edge': {u'target': [], u'time': []}}, u'click': {u'state': {u'target': [], u'time': []}, u'edge': {u'target': [], u'time': []}}, u'mouseout': {u'state': {u'target': [], u'time': []}, u'edge': {u'target': [], u'time': []}}}","[24, -8, -4]","[2790, 3578, 378]",12.0,"[None, None, None]","[u'', -48, 8, -2, 2, 24, -8, -4, -4, -48, -4, -4, -4]",144417,6.0,8962.0,-7.37508384281e+18,mouselab-mdp,0
"[2620, 3819, 5345]","[u'left', u'left', u'up']",train_basic2,"[u'0', u'9', u'10', u'11']","{u'mouseover': {u'state': {u'target': [], u'time': []}, u'edge': {u'target': [], u'time': []}}, u'click': {u'state': {u'target': [], u'time': []}, u'edge': {u'target': [], u'time': []}}, u'mouseout': {u'state': {u'target': [], u'time': []}, u'edge': {u'target': [], u'time': []}}}","[48, 4, 4]","[2619, 676, 1009]",56.0,"[None, None, None]","[u'', -48, 8, -2, -4, 48, -4, 4, 2, 48, 4, 4, -2]",152355,7.0,6767.0,4.41329592241e+18,mouselab-mdp,0
"[2966, 6148, 6810]","[u'left', u'left', u'up']",train_basic2,"[u'0', u'9', u'10', u'11']","{u'mouseover': {u'state': {u'target': [], u'time': []}, u'edge': {u'target': [], u'time': []}}, u'click': {u'state': {u'target': [], u'time': []}, u'edge': {u'target': [], u'time': []}}, u'mouseout': {u'state': {u'target': [], u'time': []}, u'edge': {u'target': [], u'time': []}}}","[48, -4, 4]","[2965, 2664, 151]",48.0,"[None, None, None]","[u'', 48, -4, -4, -4, -48, 8, -4, -2, 48, -4, 4, -2]",161403,8.0,7963.0,3.2746533964e+18,mouselab-mdp,0
"[1988, 2676, 3381]","[u'right', u'right', u'up']",train_basic2,"[u'0', u'5', u'6', u'7']","{u'mouseover': {u'state': {u'target': [], u'time': []}, u'edge': {u'target': [], u'time': []}}, u'click': {u'state': {u'target': [], u'time': []}, u'edge': {u'target': [], u'time': []}}, u'mouseout': {u'state': {u'target': [], u'time': []}, u'edge': {u'target': [], u'time': []}}}","[48, 4, 4]","[1988, 170, 184]",56.0,"[None, None, None]","[u'', 48, -4, 2, 2, 48, 4, 4, -4, 48, -8, -2, 4]",167621,9.0,5117.0,8.523654687e+18,mouselab-mdp,0
"[8913, 10015, 11139]","[u'right', u'right', u'up']",train_hidden,"[u'0', u'5', u'6', u'7']","{u'mouseover': {u'state': {u'target': [], u'time': []}, u'edge': {u'target': [], u'time': []}}, u'click': {u'state': {u'target': [], u'time': []}, u'edge': {u'target': [], u'time': []}}, u'mouseout': {u'state': {u'target': [], u'time': []}, u'edge': {u'target': [], u'time': []}}}","[-48, 8, 2]","[8911, 585, 601]",-38.0,"[None, None, None]","[u'', 24, 8, -4, -4, -48, 8, 2, 2, -24, 8, -2, 4]",183784,10.0,13067.0,6.82029765092e+18,mouselab-mdp,0
"[4504, 6416, 7859]","[u'left', u'left', u'up']",train_hidden,"[u'0', u'9', u'10', u'11']","{u'mouseover': {u'state': {u'target': [], u'time': []}, u'edge': {u'target': [], u'time': []}}, u'click': {u'state': {u'target': [], u'time': []}, u'edge': {u'target': [], u'time': []}}, u'mouseout': {u'state': {u'target': [], u'time': []}, u'edge': {u'target': [], u'time': []}}}","[24, -4, -4]","[4503, 1392, 924]",16.0,"[None, None, None]","[u'', 24, 4, -2, 4, 24, -4, 2, 2, 24, -4, -4, -2]",194593,11.0,9683.0,7.85052528861e+18,mouselab-mdp,0
"[2099, 3010, 3951]","[u'right', u'right', u'up']",train_hidden,"[u'0', u'5', u'6', u'7']","{u'mouseover': {u'state': {u'target': [], u'time': []}, u'edge': {u'target': [], u'time': []}}, u'click': {u'state': {u'target': [], u'time': []}, u'edge': {u'target': [], u'time': []}}, u'mouseout': {u'state': {u'target': [], u'time': []}, u'edge': {u'target': [], u'time': []}}}","[-48, 4, -4]","[2098, 395, 430]",-48.0,"[None, None, None]","[u'', -48, -4, 4, -2, -48, 4, -4, 4, -24, -8, 2, 4]",201812,12.0,6090.0,2.63443329641e+18,mouselab-mdp,0
"[1424, 2350, 3354]","[u'left', u'left', u'up']",train_hidden,"[u'0', u'9', u'10', u'11']","{u'mouseover': {u'state': {u'target': [], u'time': []}, u'edge': {u'target': [], u'time': []}}, u'click': {u'state': {u'target': [], u'time': []}, u'edge': {u'target': [], u'time': []}}, u'mouseout': {u'state': {u'target': [], u'time': []}, u'edge': {u'target': [], u'time': []}}}","[24, -4, 2]","[1422, 409, 480]",22.0,"[None, None, None]","[u'', -24, 4, 2, -4, 48, 8, 4, -2, 24, -4, 2, 4]",207961,13.0,5029.0,5.38450566538e+18,mouselab-mdp,0
"[1051, 1685, 2337]","[u'left', u'left', u'up']",train_hidden,"[u'0', u'9', u'10', u'11']","{u'mouseover': {u'state': {u'target': [], u'time': []}, u'edge': {u'target': [], u'time': []}}, u'click': {u'state': {u'target': [], u'time': []}, u'edge': {u'target': [], u'time': []}}, u'mouseout': {u'state': {u'target': [], u'time': []}, u'edge': {u'target': [], u'time': []}}}","[48, -8, -2]","[1050, 115, 130]",38.0,"[None, None, None]","[u'', -24, 4, -2, -2, -48, -8, 4, -2, 48, -8, -2, 2]",212647,14.0,3578.0,-4.64203023396e+18,mouselab-mdp,0
"[35260, 35823, 36746]","[u'right', u'right', u'down']",train_inspector,"[u'0', u'5', u'6', u'8']","{u'mouseover': {u'state': {u'target': [], u'time': []}, u'edge': {u'target': [], u'time': []}}, u'click': {u'state': {u'target': [u'5', u'9', u'10', u'6', u'7', u'11', u'12', u'8'], u'time': [12470, 13856, 16180, 18828, 21934, 23822, 25555, 30451]}, u'edge': {u'target': [], u'time': []}}, u'mouseout': {u'state': {u'target': [], u'time': []}, u'edge': {u'target': [], u'time': []}}}","[-48, -4, 4]","[35259, 39, 402]",-48.0,"[None, None, None]","[u'', -48, 4, 4, 4, -48, -4, 2, 4, -48, -8, -4, -2]",254077,15.0,38455.0,3.5903513614e+18,mouselab-mdp,0
"[33730, 34662, 36111]","[u'left', u'left', u'up']",train_inspector,"[u'0', u'9', u'10', u'11']","{u'mouseover': {u'state': {u'target': [], u'time': []}, u'edge': {u'target': [], u'time': []}}, u'click': {u'state': {u'target': [u'5', u'9', u'10', u'6', u'11', u'1', u'12', u'8', u'2', u'3', u'4', u'7'], u'time': [3935, 6461, 8364, 10544, 12265, 14149, 15563, 18318, 19985, 21380, 21969, 27450]}, u'edge': {u'target': [], u'time': []}}, u'mouseout': {u'state': {u'target': [], u'time': []}, u'edge': {u'target': [], u'time': []}}}","[48, -4, 4]","[33729, 413, 926]",48.0,"[None, None, None]","[u'', -24, 8, -2, 4, 24, 4, -4, 2, 48, -4, 4, 4]",292975,16.0,37755.0,-8.94225075726e+18,mouselab-mdp,0
"[23405, 24149, 24734]","[u'left', u'left', u'up']",train_inspector,"[u'0', u'9', u'10', u'11']","{u'mouseover': {u'state': {u'target': [], u'time': []}, u'edge': {u'target': [], u'time': []}}, u'click': {u'state': {u'target': [u'5', u'9', u'10', u'12', u'6', u'8', u'7', u'11', u'1', u'2', u'4', u'3'], u'time': [1516, 2469, 3349, 4172, 5513, 6325, 7328, 8394, 9532, 10413, 11278, 19817]}, u'edge': {u'target': [], u'time': []}}, u'mouseout': {u'state': {u'target': [], u'time': []}, u'edge': {u'target': [], u'time': []}}}","[48, -4, 2]","[23404, 228, 62]",46.0,"[None, None, None]","[u'', -24, -8, 2, 2, -24, -8, 2, -2, 48, -4, 2, -4]",320280,17.0,26191.0,3.33569623558e+14,mouselab-mdp,0
"[20104, 20760, 21695]","[u'left', u'left', u'up']",train_inspector,"[u'0', u'9', u'10', u'11']","{u'mouseover': {u'state': {u'target': [], u'time': []}, u'edge': {u'target': [], u'time': []}}, u'click': {u'state': {u'target': [u'5', u'9', u'10', u'12', u'6', u'8', u'7', u'11', u'1', u'2', u'3', u'4'], u'time': [2257, 3055, 3764, 4343, 5181, 5955, 8012, 9975, 16286, 18262, 18720, 19270]}, u'edge': {u'target': [], u'time': []}}, u'mouseout': {u'state': {u'target': [], u'time': []}, u'edge': {u'target': [], u'time': []}}}","[-24, 4, -2]","[20101, 143, 413]",-22.0,"[None, None, None]","[u'', -48, -8, -4, -4, -24, -8, -4, 4, -24, 4, -2, -2]",344181,18.0,22779.0,-7.42098709122e+18,mouselab-mdp,0
"[21149, 21963, 22728]","[u'right', u'right', u'up']",train_inspector,"[u'0', u'5', u'6', u'7']","{u'mouseover': {u'state': {u'target': [], u'time': []}, u'edge': {u'target': [], u'time': []}}, u'click': {u'state': {u'target': [u'5', u'9', u'10', u'6', u'12', u'1', u'8', u'7', u'11', u'3', u'2'], u'time': [1231, 1925, 2788, 3591, 4587, 5783, 9711, 11913, 13360, 17707, 18567]}, u'edge': {u'target': [], u'time': []}}, u'mouseout': {u'state': {u'target': [], u'time': []}, u'edge': {u'target': [], u'time': []}}}","[48, -4, 2]","[21148, 293, 242]",46.0,"[None, None, None]","[u'', -48, -4, -2, 4, 48, -4, 2, -4, 24, -4, 4, 2]",369663,19.0,24362.0,-6.24065504107e+18,mouselab-mdp,0
"[19756, 20515, 21562]","[u'right', u'right', u'up']",train_inspect_cost,"[u'0', u'5', u'6', u'7']","{u'mouseover': {u'state': {u'target': [], u'time': []}, u'edge': {u'target': [], u'time': []}}, u'click': {u'state': {u'target': [u'5', u'9', u'6', u'10', u'7', u'8'], u'time': [10035, 10938, 12781, 14183, 17230, 18233]}, u'edge': {u'target': [], u'time': []}}, u'mouseout': {u'state': {u'target': [], u'time': []}, u'edge': {u'target': [], u'time': []}}}","[24, -4, 4]","[19755, 237, 523]",18.0,"[None, None, None]","[u'', -48, 8, -4, 4, 24, -4, 4, -4, 24, -8, 2, -4]",395938,20.0,23179.0,8.55918488371e+18,mouselab-mdp,0
"[6217, 7745, 9738]","[u'left', u'left', u'up']",train_inspect_cost,"[u'0', u'9', u'10', u'11']","{u'mouseover': {u'state': {u'target': [], u'time': []}, u'edge': {u'target': [], u'time': []}}, u'click': {u'state': {u'target': [u'5', u'9'], u'time': [1230, 2011]}, u'edge': {u'target': [], u'time': []}}, u'mouseout': {u'state': {u'target': [], u'time': []}, u'edge': {u'target': [], u'time': []}}}","[24, -8, 2]","[6216, 1012, 1463]",16.0,"[None, None, None]","[u'', -24, -8, -4, 2, -48, -4, -2, -4, 24, -8, 2, 2]",408549,21.0,11463.0,4.39571797799e+18,mouselab-mdp,0
"[3625, 4539, 5535]","[u'right', u'right', u'up']",train_inspect_cost,"[u'0', u'5', u'6', u'7']","{u'mouseover': {u'state': {u'target': [], u'time': []}, u'edge': {u'target': [], u'time': []}}, u'click': {u'state': {u'target': [u'5', u'9'], u'time': [1017, 1920]}, u'edge': {u'target': [], u'time': []}}, u'mouseout': {u'state': {u'target': [], u'time': []}, u'edge': {u'target': [], u'time': []}}}","[24, -4, -2]","[3624, 388, 483]",16.0,"[None, None, None]","[u'', 24, 4, 2, 4, 24, -4, -2, -4, -24, -8, 4, -4]",417051,22.0,7373.0,-3.159164286e+18,mouselab-mdp,0
"[3855, 4675, 5651]","[u'left', u'left', u'up']",train_inspect_cost,"[u'0', u'9', u'10', u'11']","{u'mouseover': {u'state': {u'target': [], u'time': []}, u'edge': {u'target': [], u'time': []}}, u'click': {u'state': {u'target': [u'5', u'9'], u'time': [1177, 2673]}, u'edge': {u'target': [], u'time': []}}, u'mouseout': {u'state': {u'target': [], u'time': []}, u'edge': {u'target': [], u'time': []}}}","[48, -4, 4]","[3853, 297, 455]",46.0,"[None, None, None]","[u'', -24, 8, -2, 2, 24, -8, -4, -2, 48, -4, 4, -4]",425773,23.0,7617.0,-3.20007329874e+18,mouselab-mdp,0
"[2799, 3550, 4382]","[u'right', u'right', u'up']",train_inspect_cost,"[u'0', u'5', u'6', u'7']","{u'mouseover': {u'state': {u'target': [], u'time': []}, u'edge': {u'target': [], u'time': []}}, u'click': {u'state': {u'target': [u'5', u'9'], u'time': [1228, 1917]}, u'edge': {u'target': [], u'time': []}}, u'mouseout': {u'state': {u'target': [], u'time': []}, u'edge': {u'target': [], u'time': []}}}","[48, 4, -4]","[2797, 229, 314]",46.0,"[None, None, None]","[u'', -24, 8, 2, -4, 48, 4, -4, -2, 24, 8, -4, 4]",432948,24.0,6064.0,-2.42139128223e+18,mouselab-mdp,0
"[20982, 21770, 22680]","[u'right', u'right', u'up']",train_final,"[u'0', u'5', u'6', u'7']","{u'mouseover': {u'state': {u'target': [], u'time': []}, u'edge': {u'target': [], u'time': []}}, u'click': {u'state': {u'target': [u'5', u'9'], u'time': [18951, 19800]}, u'edge': {u'target': [], u'time': []}}, u'mouseout': {u'state': {u'target': [], u'time': []}, u'edge': {u'target': [], u'time': []}}}","[24, 4, 4]","[20981, 273, 391]",30.0,"[None, None, None]","[u'', 48, -4, -4, -2, 24, 4, 4, -4, -48, 4, 4, -4]",460185,25.0,24007.0,6.76429021649e+18,mouselab-mdp,0
"[4820, 6018, 7545]","[u'left', u'left', u'up']",train_final,"[u'0', u'9', u'10', u'11']","{u'mouseover': {u'state': {u'target': [], u'time': []}, u'edge': {u'target': [], u'time': []}}, u'click': {u'state': {u'target': [u'5', u'9'], u'time': [1448, 3690]}, u'edge': {u'target': [], u'time': []}}, u'mouseout': {u'state': {u'target': [], u'time': []}, u'edge': {u'target': [], u'time': []}}}","[48, -8, -4]","[4819, 673, 1001]",34.0,"[None, None, None]","[u'', -24, 8, 4, 2, -24, 4, -4, 4, 48, -8, -4, -4]",470507,26.0,9209.0,-3.32257243216e+18,mouselab-mdp,0
"[2619, 3320, 4165]","[u'right', u'right', u'up']",train_final,"[u'0', u'5', u'6', u'7']","{u'mouseover': {u'state': {u'target': [], u'time': []}, u'edge': {u'target': [], u'time': []}}, u'click': {u'state': {u'target': [u'5', u'9'], u'time': [948, 1572]}, u'edge': {u'target': [], u'time': []}}, u'mouseout': {u'state': {u'target': [], u'time': []}, u'edge': {u'target': [], u'time': []}}}","[48, 8, 4]","[2618, 178, 330]",58.0,"[None, None, None]","[u'', -24, -8, -2, 4, 48, 8, 4, -4, -48, -8, -2, -4]",477108,27.0,5422.0,7.15258299075e+18,mouselab-mdp,0
"[2776, 3389, 4491]","[u'left', u'left', u'down']",train_final,"[u'0', u'9', u'10', u'12']","{u'mouseover': {u'state': {u'target': [], u'time': []}, u'edge': {u'target': [], u'time': []}}, u'click': {u'state': {u'target': [u'5', u'9'], u'time': [1134, 1865]}, u'edge': {u'target': [], u'time': []}}, u'mouseout': {u'state': {u'target': [], u'time': []}, u'edge': {u'target': [], u'time': []}}}","[48, -4, 4]","[2774, 92, 578]",46.0,"[None, None, None]","[u'', 48, 8, 2, 4, -48, -8, -2, -2, 48, -4, 2, 4]",484558,28.0,6320.0,5.21456941459e+18,mouselab-mdp,0
"[4712, 5233, 6025]","[u'left', u'left', u'up']",train_final,"[u'0', u'9', u'10', u'11']","{u'mouseover': {u'state': {u'target': [], u'time': []}, u'edge': {u'target': [], u'time': []}}, u'click': {u'state': {u'target': [u'5', u'9'], u'time': [2888, 3824]}, u'edge': {u'target': [], u'time': []}}, u'mouseout': {u'state': {u'target': [], u'time': []}, u'edge': {u'target': [], u'time': []}}}","[48, 4, -4]","[4710, 3, 276]",46.0,"[None, None, None]","[u'', 48, 4, -4, 2, -24, 4, 4, -2, 48, 4, -4, 4]",493599,29.0,7952.0,-7.72949551535e+18,mouselab-mdp,0
"[14748, 15862, 17187]","[u'left', u'left', u'up']",test,"[u'0', u'9', u'10', u'11']","{u'mouseover': {u'state': {u'target': [], u'time': []}, u'edge': {u'target': [], u'time': []}}, u'click': {u'state': {u'target': [u'5', u'9', u'6', u'10'], u'time': [5409, 8094, 11671, 12662]}, u'edge': {u'target': [], u'time': []}}, u'mouseout': {u'state': {u'target': [], u'time': []}, u'edge': {u'target': [], u'time': []}}}","[-48, 8, -2]","[14746, 590, 809]",-46.0,"[None, None, None]","[u'', -48, 4, -2, 4, -48, -8, -2, 4, -48, 8, -2, -4]",543397,30.0,18927.0,2.04519373683e+18,mouselab-mdp,0
"[3527, 4321, 5260]","[u'left', u'left', u'up']",test,"[u'0', u'9', u'10', u'11']","{u'mouseover': {u'state': {u'target': [], u'time': []}, u'edge': {u'target': [], u'time': []}}, u'click': {u'state': {u'target': [u'5', u'9'], u'time': [1321, 2360]}, u'edge': {u'target': [], u'time': []}}, u'mouseout': {u'state': {u'target': [], u'time': []}, u'edge': {u'target': [], u'time': []}}}","[48, 4, 2]","[3525, 268, 409]",52.0,"[None, None, None]","[u'', 24, 4, -2, 4, 24, -8, -2, 4, 48, 4, 2, 2]",553221,31.0,8684.0,-8.8753766642e+18,mouselab-mdp,0
"[4544, 5403, 6581]","[u'left', u'left', u'down']",test,"[u'0', u'9', u'10', u'12']","{u'mouseover': {u'state': {u'target': [], u'time': []}, u'edge': {u'target': [], u'time': []}}, u'click': {u'state': {u'target': [u'5', u'9'], u'time': [2352, 3388]}, u'edge': {u'target': [], u'time': []}}, u'mouseout': {u'state': {u'target': [], u'time': []}, u'edge': {u'target': [], u'time': []}}}","[-24, -8, -4]","[4543, 328, 652]",-38.0,"[None, None, None]","[u'', 48, -8, -2, -2, -48, 8, -2, 2, -24, -8, -4, -4]",563819,32.0,9475.0,-7.46101378534e+18,mouselab-mdp,0
"[2789, 3497, 4189]","[u'right', u'right', u'up']",test,"[u'0', u'5', u'6', u'7']","{u'mouseover': {u'state': {u'target': [], u'time': []}, u'edge': {u'target': [], u'time': []}}, u'click': {u'state': {u'target': [u'5', u'9'], u'time': [1042, 1914]}, u'edge': {u'target': [], u'time': []}}, u'mouseout': {u'state': {u'target': [], u'time': []}, u'edge': {u'target': [], u'time': []}}}","[48, -8, 4]","[2788, 185, 172]",42.0,"[None, None, None]","[u'', 24, -4, -2, -4, 48, -8, 4, -4, 24, -8, 4, -4]",574489,33.0,9571.0,8.44984425036e+18,mouselab-mdp,0
"[4085, 4761, 5677]","[u'left', u'left', u'up']",test,"[u'0', u'9', u'10', u'11']","{u'mouseover': {u'state': {u'target': [], u'time': []}, u'edge': {u'target': [], u'time': []}}, u'click': {u'state': {u'target': [u'5', u'9'], u'time': [2283, 3127]}, u'edge': {u'target': [], u'time': []}}, u'mouseout': {u'state': {u'target': [], u'time': []}, u'edge': {u'target': [], u'time': []}}}","[48, -4, 4]","[4084, 159, 395]",46.0,"[None, None, None]","[u'', 48, -8, 4, 2, -24, -4, 2, -2, 48, -4, 4, 4]",585596,34.0,9995.0,1.64461216979e+18,mouselab-mdp,0
"[3314, 4187, 5706]","[u'left', u'left', u'up']",test,"[u'0', u'9', u'10', u'11']","{u'mouseover': {u'state': {u'target': [], u'time': []}, u'edge': {u'target': [], u'time': []}}, u'click': {u'state': {u'target': [u'5', u'9'], u'time': [1600, 2377]}, u'edge': {u'target': [], u'time': []}}, u'mouseout': {u'state': {u'target': [], u'time': []}, u'edge': {u'target': [], u'time': []}}}","[48, -8, 2]","[3311, 361, 998]",40.0,"[None, None, None]","[u'', -24, 4, -2, 4, -24, 4, -2, 4, 48, -8, 2, 4]",595628,35.0,8943.0,-7.49607252303e+18,mouselab-mdp,0
"[3220, 4363, 5515]","[u'left', u'left', u'up']",test,"[u'0', u'9', u'10', u'11']","{u'mouseover': {u'state': {u'target': [], u'time': []}, u'edge': {u'target': [], u'time': []}}, u'click': {u'state': {u'target': [u'5', u'9'], u'time': [1115, 1927]}, u'edge': {u'target': [], u'time': []}}, u'mouseout': {u'state': {u'target': [], u'time': []}, u'edge': {u'target': [], u'time': []}}}","[24, 4, 2]","[3218, 630, 636]",28.0,"[None, None, None]","[u'', -24, 8, 2, 4, -24, -8, 4, 4, 24, 4, 2, 4]",605502,36.0,8760.0,-6.71163609944e+18,mouselab-mdp,0
"[3732, 5196, 7420]","[u'right', u'right', u'down']",test,"[u'0', u'5', u'6', u'8']","{u'mouseover': {u'state': {u'target': [], u'time': []}, u'edge': {u'target': [], u'time': []}}, u'click': {u'state': {u'target': [u'5', u'9'], u'time': [1259, 2233]}, u'edge': {u'target': [], u'time': []}}, u'mouseout': {u'state': {u'target': [], u'time': []}, u'edge': {u'target': [], u'time': []}}}","[24, -4, -4]","[3730, 945, 1700]",14.0,"[None, None, None]","[u'', -24, -8, 2, 2, 24, -4, 2, -4, -24, -4, -2, -4]",615998,37.0,9398.0,8.41111812433e+18,mouselab-mdp,0
"[3445, 4269, 5270]","[u'left', u'left', u'up']",test,"[u'0', u'9', u'10', u'11']","{u'mouseover': {u'state': {u'target': [], u'time': []}, u'edge': {u'target': [], u'time': []}}, u'click': {u'state': {u'target': [u'5', u'9'], u'time': [1439, 2408]}, u'edge': {u'target': [], u'time': []}}, u'mouseout': {u'state': {u'target': [], u'time': []}, u'edge': {u'target': [], u'time': []}}}","[48, 4, 4]","[3443, 305, 479]",54.0,"[None, None, None]","[u'', 24, -4, -4, -2, -24, -4, 4, -2, 48, 4, 4, -2]",625320,38.0,8230.0,-7.34178568824e+18,mouselab-mdp,0
"[5016, 5820, 6756]","[u'right', u'right', u'up']",test,"[u'0', u'5', u'6', u'7']","{u'mouseover': {u'state': {u'target': [], u'time': []}, u'edge': {u'target': [], u'time': []}}, u'click': {u'state': {u'target': [u'5', u'9'], u'time': [2804, 4134]}, u'edge': {u'target': [], u'time': []}}, u'mouseout': {u'state': {u'target': [], u'time': []}, u'edge': {u'target': [], u'time': []}}}","[24, 8, -2]","[5015, 283, 419]",28.0,"[None, None, None]","[u'', 24, 8, 4, -2, 24, 8, -2, 2, -48, -4, -4, 2]",635894,39.0,9453.0,-5.96352047714e+18,mouselab-mdp,0
"[6379, 7397, 8515]","[u'right', u'right', u'up']",test,"[u'0', u'5', u'6', u'7']","{u'mouseover': {u'state': {u'target': [], u'time': []}, u'edge': {u'target': [], u'time': []}}, u'click': {u'state': {u'target': [u'9', u'5'], u'time': [4317, 5145]}, u'edge': {u'target': [], u'time': []}}, u'mouseout': {u'state': {u'target': [], u'time': []}, u'edge': {u'target': [], u'time': []}}}","[48, 8, 4]","[6378, 503, 607]",58.0,"[None, None, None]","[u'', -24, -4, 4, -4, 48, 8, 4, 2, 24, -4, -4, -2]",647632,40.0,10586.0,6.04491226741e+18,mouselab-mdp,0
"[2562, 3436, 5960]","[u'right', u'right', u'down']",test,"[u'0', u'5', u'6', u'8']","{u'mouseover': {u'state': {u'target': [], u'time': []}, u'edge': {u'target': [], u'time': []}}, u'click': {u'state': {u'target': [u'5', u'9'], u'time': [763, 1739]}, u'edge': {u'target': [], u'time': []}}, u'mouseout': {u'state': {u'target': [], u'time': []}, u'edge': {u'target': [], u'time': []}}}","[48, -4, 4]","[2560, 353, 2008]",46.0,"[None, None, None]","[u'', 48, 4, 4, -2, 48, -4, -4, 4, 24, -8, 4, 2]",659008,41.0,10256.0,-7.36150894527e+18,mouselab-mdp,0
"[4149, 5409, 6711]","[u'right', u'right', u'up']",test,"[u'0', u'5', u'6', u'7']","{u'mouseover': {u'state': {u'target': [], u'time': []}, u'edge': {u'target': [], u'time': []}}, u'click': {u'state': {u'target': [u'5'], u'time': [859]}, u'edge': {u'target': [], u'time': []}}, u'mouseout': {u'state': {u'target': [], u'time': []}, u'edge': {u'target': [], u'time': []}}}","[48, 4, 4]","[4148, 739, 791]",55.0,"[None, None, None]","[u'', -24, -8, 4, 2, 48, 4, 4, 2, 24, -8, -2, -4]",668963,42.0,8843.0,-3.48069097212e+18,mouselab-mdp,0
"[4538, 5132, 6902]","[u'left', u'left', u'down']",test,"[u'0', u'9', u'10', u'12']","{u'mouseover': {u'state': {u'target': [], u'time': []}, u'edge': {u'target': [], u'time': []}}, u'click': {u'state': {u'target': [u'5', u'9'], u'time': [1682, 3684]}, u'edge': {u'target': [], u'time': []}}, u'mouseout': {u'state': {u'target': [], u'time': []}, u'edge': {u'target': [], u'time': []}}}","[-24, -8, -4]","[4536, 75, 1244]",-38.0,"[None, None, None]","[u'', 48, 8, 2, 4, -48, 8, -4, -4, -24, -8, 2, -4]",679425,43.0,9346.0,8.29494155133e+18,mouselab-mdp,0
"[2351, 3208, 3799]","[u'left', u'left', u'up']",test,"[u'0', u'9', u'10', u'11']","{u'mouseover': {u'state': {u'target': [], u'time': []}, u'edge': {u'target': [], u'time': []}}, u'click': {u'state': {u'target': [u'5', u'9'], u'time': [736, 1658]}, u'edge': {u'target': [], u'time': []}}, u'mouseout': {u'state': {u'target': [], u'time': []}, u'edge': {u'target': [], u'time': []}}}","[48, 8, 4]","[2350, 327, 69]",58.0,"[None, None, None]","[u'', -24, 8, 2, 4, 24, 4, -2, 2, 48, 8, 4, 2]",689084,44.0,8525.0,-5.27612495948e+17,mouselab-mdp,0
"[2331, 3064, 3990]","[u'right', u'right', u'up']",test,"[u'0', u'5', u'6', u'7']","{u'mouseover': {u'state': {u'target': [], u'time': []}, u'edge': {u'target': [], u'time': []}}, u'click': {u'state': {u'target': [u'5', u'9'], u'time': [632, 1592]}, u'edge': {u'target': [], u'time': []}}, u'mouseout': {u'state': {u'target': [], u'time': []}, u'edge': {u'target': [], u'time': []}}}","[24, -4, 4]","[2330, 216, 405]",22.0,"[None, None, None]","[u'', -24, 8, -2, 4, 24, -4, 4, 2, -24, 8, -2, -2]",699578,45.0,9388.0,5.22633281768e+18,mouselab-mdp,0
"[6785, 10561, 11796]","[u'right', u'right', u'up']",test,"[u'0', u'5', u'6', u'7']","{u'mouseover': {u'state': {u'target': [], u'time': []}, u'edge': {u'target': [], u'time': []}}, u'click': {u'state': {u'target': [], u'time': []}, u'edge': {u'target': [], u'time': []}}, u'mouseout': {u'state': {u'target': [], u'time': []}, u'edge': {u'target': [], u'time': []}}}","[-24, 4, -4]","[6783, 3265, 723]",-24.0,"[None, None, None]","[u'', -48, 8, -4, 2, -24, 4, -4, -4, 48, 8, -2, 2]",713948,46.0,13273.0,-2.3218118651e+18,mouselab-mdp,0
"[2524, 3334, 4259]","[u'left', u'left', u'down']",test,"[u'0', u'9', u'10', u'12']","{u'mouseover': {u'state': {u'target': [], u'time': []}, u'edge': {u'target': [], u'time': []}}, u'click': {u'state': {u'target': [u'9'], u'time': [895]}, u'edge': {u'target': [], u'time': []}}, u'mouseout': {u'state': {u'target': [], u'time': []}, u'edge': {u'target': [], u'time': []}}}","[48, 4, -2]","[2522, 289, 411]",49.0,"[None, None, None]","[u'', 48, 8, -4, -4, -48, 8, -4, -2, 48, 4, 2, -2]",726120,47.0,11085.0,1.11563526089e+18,mouselab-mdp,0
"[3243, 4011, 4617]","[u'left', u'left', u'up']",test,"[u'0', u'9', u'10', u'11']","{u'mouseover': {u'state': {u'target': [], u'time': []}, u'edge': {u'target': [], u'time': []}}, u'click': {u'state': {u'target': [u'5', u'9'], u'time': [891, 2097]}, u'edge': {u'target': [], u'time': []}}, u'mouseout': {u'state': {u'target': [], u'time': []}, u'edge': {u'target': [], u'time': []}}}","[48, 4, 4]","[3241, 245, 91]",54.0,"[None, None, None]","[u'', -48, -4, 2, -2, -48, 4, 2, 2, 48, 4, 4, -4]",739776,48.0,12546.0,4.78066487755e+18,mouselab-mdp,0
"[7725, 8267, 9103]","[u'left', u'left', u'up']",test,"[u'0', u'9', u'10', u'11']","{u'mouseover': {u'state': {u'target': [], u'time': []}, u'edge': {u'target': [], u'time': []}}, u'click': {u'state': {u'target': [u'9', u'5'], u'time': [5778, 6806]}, u'edge': {u'target': [], u'time': []}}, u'mouseout': {u'state': {u'target': [], u'time': []}, u'edge': {u'target': [], u'time': []}}}","[24, -4, 4]","[7724, 25, 319]",22.0,"[None, None, None]","[u'', 48, 8, 2, 2, -48, -4, -2, -4, 24, -4, 4, 4]",753311,49.0,12376.0,3.67478526982e+18,mouselab-mdp,0
"[3098, 3896, 4481]","[u'left', u'left', u'up']",test,"[u'0', u'9', u'10', u'11']","{u'mouseover': {u'state': {u'target': [], u'time': []}, u'edge': {u'target': [], u'time': []}}, u'click': {u'state': {u'target': [u'5', u'9'], u'time': [1298, 2001]}, u'edge': {u'target': [], u'time': []}}, u'mouseout': {u'state': {u'target': [], u'time': []}, u'edge': {u'target': [], u'time': []}}}","[24, 8, -4]","[3096, 284, 64]",26.0,"[None, None, None]","[u'', 24, -4, 4, -2, -24, 4, 4, -4, 24, 8, -4, 2]",763443,50.0,9002.0,-4.61729966413e+18,mouselab-mdp,0
"[3690, 4352, 5383]","[u'right', u'right', u'up']",test,"[u'0', u'5', u'6', u'7']","{u'mouseover': {u'state': {u'target': [], u'time': []}, u'edge': {u'target': [], u'time': []}}, u'click': {u'state': {u'target': [u'5'], u'time': [2036]}, u'edge': {u'target': [], u'time': []}}, u'mouseout': {u'state': {u'target': [], u'time': []}, u'edge': {u'target': [], u'time': []}}}","[48, 4, -2]","[3688, 147, 505]",49.0,"[None, None, None]","[u'', 24, 8, -4, 4, 48, 4, -2, 4, -48, -4, 4, -2]",772905,51.0,8347.0,-3.9729138987e+18,mouselab-mdp,0
"[2836, 4090, 5238]","[u'left', u'left', u'up']",test,"[u'0', u'9', u'10', u'11']","{u'mouseover': {u'state': {u'target': [], u'time': []}, u'edge': {u'target': [], u'time': []}}, u'click': {u'state': {u'target': [u'5', u'9'], u'time': [1272, 2051]}, u'edge': {u'target': [], u'time': []}}, u'mouseout': {u'state': {u'target': [], u'time': []}, u'edge': {u'target': [], u'time': []}}}","[24, 8, -2]","[2835, 735, 630]",28.0,"[None, None, None]","[u'', 24, -8, 4, -4, -24, 8, -4, 2, 24, 8, -2, -4]",783476,52.0,9436.0,7.32442995888e+18,mouselab-mdp,0
"[11921, 12780, 13405]","[u'right', u'right', u'down']",test,"[u'0', u'5', u'6', u'8']","{u'mouseover': {u'state': {u'target': [], u'time': []}, u'edge': {u'target': [], u'time': []}}, u'click': {u'state': {u'target': [u'5', u'9'], u'time': [7246, 10876]}, u'edge': {u'target': [], u'time': []}}, u'mouseout': {u'state': {u'target': [], u'time': []}, u'edge': {u'target': [], u'time': []}}}","[24, -8, -2]","[11919, 336, 106]",12.0,"[None, None, None]","[u'', 24, -4, 4, -4, 24, -8, 2, -2, -48, -8, 2, -2]",800017,53.0,15420.0,-2.89069660345e+18,mouselab-mdp,0
"[9199, 10109, 11456]","[u'right', u'right', u'up']",test,"[u'0', u'5', u'6', u'7']","{u'mouseover': {u'state': {u'target': [], u'time': []}, u'edge': {u'target': [], u'time': []}}, u'click': {u'state': {u'target': [u'5'], u'time': [6876]}, u'edge': {u'target': [], u'time': []}}, u'mouseout': {u'state': {u'target': [], u'time': []}, u'edge': {u'target': [], u'time': []}}}","[48, 4, 4]","[9197, 388, 819]",55.0,"[None, None, None]","[u'', 24, -8, 2, 4, 48, 4, 4, 4, 24, -8, -4, -4]",814095,54.0,12960.0,1.49590081745e+18,mouselab-mdp,0
"[8109, 8659, 9294]","[u'left', u'left', u'up']",test,"[u'0', u'9', u'10', u'11']","{u'mouseover': {u'state': {u'target': [], u'time': []}, u'edge': {u'target': [], u'time': []}}, u'click': {u'state': {u'target': [u'5', u'9', u'10', u'6'], u'time': [1796, 2724, 4786, 6235]}, u'edge': {u'target': [], u'time': []}}, u'mouseout': {u'state': {u'target': [], u'time': []}, u'edge': {u'target': [], u'time': []}}}","[-48, 8, -4]","[8107, 37, 109]",-48.0,"[None, None, None]","[u'', -24, 4, 2, 2, -48, 8, 4, 2, -48, 8, -4, -2]",826431,55.0,11247.0,-1.10181998133e+17,mouselab-mdp,0
"[3390, 3963, 4594]","[u'right', u'right', u'down']",test,"[u'0', u'5', u'6', u'8']","{u'mouseover': {u'state': {u'target': [], u'time': []}, u'edge': {u'target': [], u'time': []}}, u'click': {u'state': {u'target': [u'5'], u'time': [1963]}, u'edge': {u'target': [], u'time': []}}, u'mouseout': {u'state': {u'target': [], u'time': []}, u'edge': {u'target': [], u'time': []}}}","[48, 4, 4]","[3388, 55, 117]",55.0,"[None, None, None]","[u'', 24, 8, -4, -4, 48, 4, -4, 4, 48, 8, 2, -4]",837150,56.0,9607.0,-3.85987325249e+18,mouselab-mdp,0
"[9662, 10399, 10955]","[u'left', u'left', u'down']",test,"[u'0', u'9', u'10', u'12']","{u'mouseover': {u'state': {u'target': [], u'time': []}, u'edge': {u'target': [], u'time': []}}, u'click': {u'state': {u'target': [u'5', u'9', u'7', u'12'], u'time': [3873, 4787, 7402, 8552]}, u'edge': {u'target': [], u'time': []}}, u'mouseout': {u'state': {u'target': [], u'time': []}, u'edge': {u'target': [], u'time': []}}}","[24, -8, 2]","[9661, 217, 41]",14.0,"[None, None, None]","[u'', -48, -8, -4, 2, 24, -8, -4, 4, 24, -8, -2, 2]",850527,57.0,12268.0,-4.85652442179e+18,mouselab-mdp,0
"[6658, 7173, 8142]","[u'right', u'right', u'up']",test,"[u'0', u'5', u'6', u'7']","{u'mouseover': {u'state': {u'target': [], u'time': []}, u'edge': {u'target': [], u'time': []}}, u'click': {u'state': {u'target': [u'5'], u'time': [5587]}, u'edge': {u'target': [], u'time': []}}, u'mouseout': {u'state': {u'target': [], u'time': []}, u'edge': {u'target': [], u'time': []}}}","[48, 8, -4]","[6656, 2, 445]",51.0,"[None, None, None]","[u'', -24, 4, 2, 2, 48, 8, -4, 2, -24, 8, -4, -2]",861629,58.0,9945.0,-4.80438429618e+18,mouselab-mdp,0
"[3373, 4001, 5030]","[u'right', u'right', u'down']",test,"[u'0', u'5', u'6', u'8']","{u'mouseover': {u'state': {u'target': [], u'time': []}, u'edge': {u'target': [], u'time': []}}, u'click': {u'state': {u'target': [u'5'], u'time': [1832]}, u'edge': {u'target': [], u'time': []}}, u'mouseout': {u'state': {u'target': [], u'time': []}, u'edge': {u'target': [], u'time': []}}}","[48, -4, -4]","[3370, 100, 503]",39.0,"[None, None, None]","[u'', 48, 4, 4, 2, 48, -4, 2, -4, -24, -8, -2, -4]",870350,59.0,7589.0,-6.7376156814e+18,mouselab-mdp,0
"[46856, 47903, 55549]","[u'right', u'right', u'up']",train_basic,"[u'0', u'5', u'6', u'7']","{u'mouseover': {u'state': {u'target': [], u'time': []}, u'edge': {u'target': [], u'time': []}}, u'click': {u'state': {u'target': [], u'time': []}, u'edge': {u'target': [], u'time': []}}, u'mouseout': {u'state': {u'target': [], u'time': []}, u'edge': {u'target': [], u'time': []}}}","[48, 4, 4]","[46847, 540, 7120]",56.0,"[None, None, None]","[u'', -24, -8, 4, 2, 48, 4, 4, 2, 24, -8, -2, -4]",62749,0.0,62207.0,-3.48069097212e+18,mouselab-mdp,1
"[10907, 11972, 13720]","[u'up', u'up', u'right']",train_basic,"[u'0', u'1', u'2', u'3']","{u'mouseover': {u'state': {u'target': [], u'time': []}, u'edge': {u'target': [], u'time': []}}, u'click': {u'state': {u'target': [], u'time': []}, u'edge': {u'target': [], u'time': []}}, u'mouseout': {u'state': {u'target': [], u'time': []}, u'edge': {u'target': [], u'time': []}}}","[-48, -8, 4]","[10901, 554, 1237]",-52.0,"[None, None, None]","[u'', -48, -8, 4, -4, -24, -8, 4, 2, -24, 8, 2, -2]",84767,1.0,20771.0,4.65301638885e+18,mouselab-mdp,1
"[9735, 10844, 12239]","[u'right', u'right', u'down']",train_basic,"[u'0', u'5', u'6', u'8']","{u'mouseover': {u'state': {u'target': [], u'time': []}, u'edge': {u'target': [], u'time': []}}, u'click': {u'state': {u'target': [], u'time': []}, u'edge': {u'target': [], u'time': []}}, u'mouseout': {u'state': {u'target': [], u'time': []}, u'edge': {u'target': [], u'time': []}}}","[-48, 8, 2]","[9726, 585, 875]",-38.0,"[None, None, None]","[u'', 48, -8, -2, -2, -48, 8, -2, 2, -24, -8, -4, -4]",102488,2.0,16453.0,-7.46101378534e+18,mouselab-mdp,1
"[4691, 7453, 8933]","[u'left', u'left', u'down']",train_basic,"[u'0', u'9', u'10', u'12']","{u'mouseover': {u'state': {u'target': [], u'time': []}, u'edge': {u'target': [], u'time': []}}, u'click': {u'state': {u'target': [], u'time': []}, u'edge': {u'target': [], u'time': []}}, u'mouseout': {u'state': {u'target': [], u'time': []}, u'edge': {u'target': [], u'time': []}}}","[24, -4, 2]","[4681, 2241, 954]",22.0,"[None, None, None]","[u'', -48, -4, -2, 2, -48, -8, -4, -4, 24, -4, -2, 2]",115167,3.0,11454.0,5.87648543738e+18,mouselab-mdp,1
"[6086, 6848, 10220]","[u'up', u'up', u'right']",train_basic,"[u'0', u'1', u'2', u'3']","{u'mouseover': {u'state': {u'target': [], u'time': []}, u'edge': {u'target': [], u'time': []}}, u'click': {u'state': {u'target': [], u'time': []}, u'edge': {u'target': [], u'time': []}}, u'mouseout': {u'state': {u'target': [], u'time': []}, u'edge': {u'target': [], u'time': []}}}","[-24, 4, 2]","[6075, 241, 2848]",-18.0,"[None, None, None]","[u'', -24, 4, 2, -2, 48, -8, 2, -2, 48, -4, 4, -2]",130380,4.0,13963.0,8.88172544804e+18,mouselab-mdp,1
"[68798, 70022, 72232]","[u'left', u'left', u'down']",train_basic2,"[u'0', u'9', u'10', u'12']","{u'mouseover': {u'state': {u'target': [], u'time': []}, u'edge': {u'target': [], u'time': []}}, u'click': {u'state': {u'target': [], u'time': []}, u'edge': {u'target': [], u'time': []}}, u'mouseout': {u'state': {u'target': [], u'time': []}, u'edge': {u'target': [], u'time': []}}}","[-48, -8, 2]","[68789, 720, 1697]",-54.0,"[None, None, None]","[u'', -24, 4, -2, 2, -48, 8, -2, -4, -48, -8, 2, 2]",210351,5.0,76296.0,3.17444220569e+18,mouselab-mdp,1
"[13973, 19450, 22286]","[u'up', u'up', u'right']",train_basic2,"[u'0', u'1', u'2', u'3']","{u'mouseover': {u'state': {u'target': [], u'time': []}, u'edge': {u'target': [], u'time': []}}, u'click': {u'state': {u'target': [], u'time': []}, u'edge': {u'target': [], u'time': []}}, u'mouseout': {u'state': {u'target': [], u'time': []}, u'edge': {u'target': [], u'time': []}}}","[-24, 8, 2]","[13965, 4956, 2324]",-14.0,"[None, None, None]","[u'', -24, 8, 2, -4, -48, 4, -4, -4, -48, 8, 2, 4]",239848,6.0,28272.0,4.35752670399e+18,mouselab-mdp,1
"[16513, 18344, 29877]","[u'right', u'right', u'down']",train_basic2,"[u'0', u'5', u'6', u'8']","{u'mouseover': {u'state': {u'target': [], u'time': []}, u'edge': {u'target': [], u'time': []}}, u'click': {u'state': {u'target': [], u'time': []}, u'edge': {u'target': [], u'time': []}}, u'mouseout': {u'state': {u'target': [], u'time': []}, u'edge': {u'target': [], u'time': []}}}","[-48, -8, -2]","[16505, 1316, 11018]",-58.0,"[None, None, None]","[u'', -24, 4, -4, -2, -48, -8, -4, -2, -24, 4, -2, 2]",273877,7.0,32791.0,-3.25822367877e+18,mouselab-mdp,1
"[12080, 14790, 16117]","[u'left', u'left', u'down']",train_basic2,"[u'0', u'9', u'10', u'12']","{u'mouseover': {u'state': {u'target': [], u'time': []}, u'edge': {u'target': [], u'time': []}}, u'click': {u'state': {u'target': [], u'time': []}, u'edge': {u'target': [], u'time': []}}, u'mouseout': {u'state': {u'target': [], u'time': []}, u'edge': {u'target': [], u'time': []}}}","[48, -8, 2]","[12071, 2192, 808]",42.0,"[None, None, None]","[u'', 24, 4, -4, 2, -48, 8, 2, -4, 48, -8, 4, 2]",293867,8.0,18799.0,6.63672823162e+18,mouselab-mdp,1
"[21431, 22667, 24278]","[u'left', u'left', u'down']",train_basic2,"[u'0', u'9', u'10', u'12']","{u'mouseover': {u'state': {u'target': [], u'time': []}, u'edge': {u'target': [], u'time': []}}, u'click': {u'state': {u'target': [], u'time': []}, u'edge': {u'target': [], u'time': []}}, u'mouseout': {u'state': {u'target': [], u'time': []}, u'edge': {u'target': [], u'time': []}}}","[48, -8, 4]","[21425, 719, 1097]",44.0,"[None, None, None]","[u'', 48, -4, 2, 2, 48, 4, 4, -4, 48, -8, -2, 4]",326317,9.0,31229.0,8.523654687e+18,mouselab-mdp,1
"[12120, 13290, 14917]","[u'left', u'left', u'down']",train_hidden,"[u'0', u'9', u'10', u'12']","{u'mouseover': {u'state': {u'target': [], u'time': []}, u'edge': {u'target': [], u'time': []}}, u'click': {u'state': {u'target': [], u'time': []}, u'edge': {u'target': [], u'time': []}}, u'mouseout': {u'state': {u'target': [], u'time': []}, u'edge': {u'target': [], u'time': []}}}","[24, -8, 2]","[12115, 646, 1103]",18.0,"[None, None, None]","[u'', -24, -8, -4, 2, -48, -4, -2, -4, 24, -8, 2, 2]",347486,10.0,17548.0,4.39571797799e+18,mouselab-mdp,1
"[2558, 3884, 5798]","[u'up', u'up', u'right']",train_hidden,"[u'0', u'1', u'2', u'3']","{u'mouseover': {u'state': {u'target': [], u'time': []}, u'edge': {u'target': [], u'time': []}}, u'click': {u'state': {u'target': [], u'time': []}, u'edge': {u'target': [], u'time': []}}, u'mouseout': {u'state': {u'target': [], u'time': []}, u'edge': {u'target': [], u'time': []}}}","[48, 4, 4]","[2551, 794, 1393]",56.0,"[None, None, None]","[u'', 48, 4, 4, 2, 48, 8, -2, -4, 24, -4, -4, 2]",357074,11.0,8363.0,-2.99412465539e+18,mouselab-mdp,1
"[2477, 3547, 5662]","[u'right', u'right', u'up']",train_hidden,"[u'0', u'5', u'6', u'7']","{u'mouseover': {u'state': {u'target': [], u'time': []}, u'edge': {u'target': [], u'time': []}}, u'click': {u'state': {u'target': [], u'time': []}, u'edge': {u'target': [], u'time': []}}, u'mouseout': {u'state': {u'target': [], u'time': []}, u'edge': {u'target': [], u'time': []}}}","[24, -4, -2]","[2468, 550, 1596]",18.0,"[None, None, None]","[u'', 24, 4, 2, 4, 24, -4, -2, -4, -24, -8, 4, -4]",366074,12.0,7810.0,-3.159164286e+18,mouselab-mdp,1
"[4169, 5060, 6450]","[u'left', u'left', u'up']",train_hidden,"[u'0', u'9', u'10', u'11']","{u'mouseover': {u'state': {u'target': [], u'time': []}, u'edge': {u'target': [], u'time': []}}, u'click': {u'state': {u'target': [], u'time': []}, u'edge': {u'target': [], u'time': []}}, u'mouseout': {u'state': {u'target': [], u'time': []}, u'edge': {u'target': [], u'time': []}}}","[-48, 4, -4]","[4163, 361, 874]",-48.0,"[None, None, None]","[u'', 24, -4, -4, 4, -48, -8, -2, -2, -48, 4, -4, 2]",375134,13.0,7869.0,-8.04759660738e+18,mouselab-mdp,1
"[10487, 11329, 13041]","[u'up', u'up', u'left']",train_hidden,"[u'0', u'1', u'2', u'4']","{u'mouseover': {u'state': {u'target': [], u'time': []}, u'edge': {u'target': [], u'time': []}}, u'click': {u'state': {u'target': [], u'time': []}, u'edge': {u'target': [], u'time': []}}, u'mouseout': {u'state': {u'target': [], u'time': []}, u'edge': {u'target': [], u'time': []}}}","[-48, 4, -2]","[10482, 320, 1201]",-46.0,"[None, None, None]","[u'', -48, 4, 2, -2, 48, 4, -4, -4, -48, -4, -4, 2]",391502,14.0,15171.0,-7.11696887988e+18,mouselab-mdp,1
"[29967, 31153, 35986]","[u'right', u'right', u'down']",train_inspector,"[u'0', u'5', u'6', u'8']","{u'mouseover': {u'state': {u'target': [], u'time': []}, u'edge': {u'target': [], u'time': []}}, u'click': {u'state': {u'target': [u'9', u'5'], u'time': [23588, 26024]}, u'edge': {u'target': [], u'time': []}}, u'mouseout': {u'state': {u'target': [], u'time': []}, u'edge': {u'target': [], u'time': []}}}","[48, 8, 2]","[29962, 671, 4321]",58.0,"[None, None, None]","[u'', -24, 4, 2, 2, 48, 8, -4, 2, -24, 8, -4, -2]",433912,15.0,38611.0,-4.80438429618e+18,mouselab-mdp,1
"[5741, 11421, 14685]","[u'up', u'up', u'right']",train_inspector,"[u'0', u'1', u'2', u'3']","{u'mouseover': {u'state': {u'target': [], u'time': []}, u'edge': {u'target': [], u'time': []}}, u'click': {u'state': {u'target': [u'1'], u'time': [3920]}, u'edge': {u'target': [], u'time': []}}, u'mouseout': {u'state': {u'target': [], u'time': []}, u'edge': {u'target': [], u'time': []}}}","[24, -4, -4]","[5735, 5160, 2743]",16.0,"[None, None, None]","[u'', 24, -4, -4, -2, -24, -4, 4, -2, 48, 4, 4, -2]",452017,16.0,16896.0,-7.34178568824e+18,mouselab-mdp,1
"[15462, 16498, 18905]","[u'left', u'left', u'down']",train_inspector,"[u'0', u'9', u'10', u'12']","{u'mouseover': {u'state': {u'target': [], u'time': []}, u'edge': {u'target': [], u'time': []}}, u'click': {u'state': {u'target': [u'9', u'5', u'1'], u'time': [8230, 11025, 12623]}, u'edge': {u'target': [], u'time': []}}, u'mouseout': {u'state': {u'target': [], u'time': []}, u'edge': {u'target': [], u'time': []}}}","[-24, 8, 4]","[15450, 523, 1895]",-12.0,"[None, None, None]","[u'', -48, 8, 4, -4, -48, -4, -4, 4, -24, 8, 2, 4]",473680,17.0,20414.0,-3.55749592705e+17,mouselab-mdp,1
"[7337, 10537, 11281]","[u'right', u'right', u'up']",train_inspector,"[u'0', u'5', u'6', u'7']","{u'mouseover': {u'state': {u'target': [], u'time': []}, u'edge': {u'target': [], u'time': []}}, u'click': {u'state': {u'target': [u'5'], u'time': [4924]}, u'edge': {u'target': [], u'time': []}}, u'mouseout': {u'state': {u'target': [], u'time': []}, u'edge': {u'target': [], u'time': []}}}","[24, -4, 2]","[7332, 2675, 220]",22.0,"[None, None, None]","[u'', -24, -8, 2, 2, 24, -4, 2, -4, -24, -4, -2, -4]",488461,18.0,13468.0,8.41111812433e+18,mouselab-mdp,1
"[5269, 6353, 11683]","[u'up', u'up', u'right']",train_inspector,"[u'0', u'1', u'2', u'3']","{u'mouseover': {u'state': {u'target': [], u'time': []}, u'edge': {u'target': [], u'time': []}}, u'click': {u'state': {u'target': [], u'time': []}, u'edge': {u'target': [], u'time': []}}, u'mouseout': {u'state': {u'target': [], u'time': []}, u'edge': {u'target': [], u'time': []}}}","[24, 4, -2]","[5264, 571, 4817]",26.0,"[None, None, None]","[u'', 24, 4, -2, 4, 24, -8, -2, 4, 48, 4, 2, 2]",503766,19.0,14027.0,-8.8753766642e+18,mouselab-mdp,1
"[61222, 62398, 64249]","[u'right', u'right', u'down']",train_inspect_cost,"[u'0', u'5', u'6', u'8']","{u'mouseover': {u'state': {u'target': [], u'time': []}, u'edge': {u'target': [], u'time': []}}, u'click': {u'state': {u'target': [u'5', u'9', u'1', u'2', u'3', u'4', u'10', u'11', u'6', u'8', u'12', u'7'], u'time': [16837, 18371, 20540, 21866, 23323, 24773, 28247, 30179, 41091, 42240, 44028, 53081]}, u'edge': {u'target': [], u'time': []}}, u'mouseout': {u'state': {u'target': [], u'time': []}, u'edge': {u'target': [], u'time': []}}}","[24, 4, 4]","[61216, 649, 1337]",20.0,"[None, None, None]","[u'', -24, 8, -2, 4, 24, 4, -4, 4, -24, 4, -2, -4]",574103,20.0,66478.0,-3.44044703415e+18,mouselab-mdp,1
"[23299, 26654, 29298]","[u'left', u'left', u'up']",train_inspect_cost,"[u'0', u'9', u'10', u'11']","{u'mouseover': {u'state': {u'target': [], u'time': []}, u'edge': {u'target': [], u'time': []}}, u'click': {u'state': {u'target': [u'9'], u'time': [19525]}, u'edge': {u'target': [], u'time': []}}, u'mouseout': {u'state': {u'target': [], u'time': []}, u'edge': {u'target': [], u'time': []}}}","[24, -4, -2]","[23292, 2831, 2134]",17.0,"[None, None, None]","[u'', 24, -8, -2, 4, 48, 4, -4, 2, 24, -4, -2, 2]",606983,21.0,31682.0,2.19879112651e+18,mouselab-mdp,1
"[19468, 20668, 23341]","[u'left', u'left', u'down']",train_inspect_cost,"[u'0', u'9', u'10', u'12']","{u'mouseover': {u'state': {u'target': [], u'time': []}, u'edge': {u'target': [], u'time': []}}, u'click': {u'state': {u'target': [u'5', u'1', u'9'], u'time': [7431, 9645, 13781]}, u'edge': {u'target': [], u'time': []}}, u'mouseout': {u'state': {u'target': [], u'time': []}, u'edge': {u'target': [], u'time': []}}}","[48, -8, -4]","[19461, 675, 2144]",33.0,"[None, None, None]","[u'', -24, 8, 4, 2, -24, 4, -4, 4, 48, -8, -4, -4]",633606,22.0,25419.0,-3.32257243216e+18,mouselab-mdp,1
"[22596, 23783, 25528]","[u'left', u'left', u'down']",train_inspect_cost,"[u'0', u'9', u'10', u'12']","{u'mouseover': {u'state': {u'target': [], u'time': []}, u'edge': {u'target': [], u'time': []}}, u'click': {u'state': {u'target': [u'9', u'1', u'5', u'10'], u'time': [10072, 11581, 13152, 19533]}, u'edge': {u'target': [], u'time': []}}, u'mouseout': {u'state': {u'target': [], u'time': []}, u'edge': {u'target': [], u'time': []}}}","[-48, 8, -2]","[22590, 662, 1218]",-46.0,"[None, None, None]","[u'', -24, 4, 2, 2, -48, 8, 4, 2, -48, 8, -4, -2]",662361,23.0,27529.0,-1.10181998133e+17,mouselab-mdp,1
"[7275, 8180, 9635]","[u'right', u'right', u'up']",train_inspect_cost,"[u'0', u'5', u'6', u'7']","{u'mouseover': {u'state': {u'target': [], u'time': []}, u'edge': {u'target': [], u'time': []}}, u'click': {u'state': {u'target': [u'1', u'5'], u'time': [3049, 4549]}, u'edge': {u'target': [], u'time': []}}, u'mouseout': {u'state': {u'target': [], u'time': []}, u'edge': {u'target': [], u'time': []}}}","[24, 4, -2]","[7266, 383, 938]",24.0,"[None, None, None]","[u'', -24, 8, 2, 4, 24, 4, -2, 2, 48, 8, 4, 2]",675881,24.0,12325.0,-5.27612495948e+17,mouselab-mdp,1
"[23892, 24949, 27436]","[u'right', u'right', u'down']",train_final,"[u'0', u'5', u'6', u'8']","{u'mouseover': {u'state': {u'target': [], u'time': []}, u'edge': {u'target': [], u'time': []}}, u'click': {u'state': {u'target': [u'5'], u'time': [21526]}, u'edge': {u'target': [], u'time': []}}, u'mouseout': {u'state': {u'target': [], u'time': []}, u'edge': {u'target': [], u'time': []}}}","[24, -8, -2]","[23881, 538, 1958]",13.0,"[None, None, None]","[u'', 24, -4, 4, -4, 24, -8, 2, -2, -48, -8, 2, -2]",709335,25.0,29715.0,-2.89069660345e+18,mouselab-mdp,1
"[8433, 9271, 11664]","[u'up', u'up', u'right']",train_final,"[u'0', u'1', u'2', u'3']","{u'mouseover': {u'state': {u'target': [], u'time': []}, u'edge': {u'target': [], u'time': []}}, u'click': {u'state': {u'target': [u'1', u'2'], u'time': [3294, 6174]}, u'edge': {u'target': [], u'time': []}}, u'mouseout': {u'state': {u'target': [], u'time': []}, u'edge': {u'target': [], u'time': []}}}","[-48, 8, -2]","[8427, 320, 1880]",-44.0,"[None, None, None]","[u'', -48, 8, -2, 2, 24, -8, -4, -4, -48, -4, -4, -4]",723865,26.0,13323.0,-7.37508384281e+18,mouselab-mdp,1
"[10787, 11641, 13029]","[u'left', u'left', u'down']",train_final,"[u'0', u'9', u'10', u'12']","{u'mouseover': {u'state': {u'target': [], u'time': []}, u'edge': {u'target': [], u'time': []}}, u'click': {u'state': {u'target': [u'9', u'10', u'12'], u'time': [4721, 6143, 7715]}, u'edge': {u'target': [], u'time': []}}, u'mouseout': {u'state': {u'target': [], u'time': []}, u'edge': {u'target': [], u'time': []}}}","[24, -4, 2]","[10781, 332, 873]",19.0,"[None, None, None]","[u'', -48, -4, -2, 4, 48, -4, 2, -4, 24, -4, 4, 2]",742737,27.0,17686.0,-6.24065504107e+18,mouselab-mdp,1
"[42226, 43257, 45633]","[u'up', u'up', u'left']",train_final,"[u'0', u'1', u'2', u'4']","{u'mouseover': {u'state': {u'target': [], u'time': []}, u'edge': {u'target': [], u'time': []}}, u'click': {u'state': {u'target': [u'1', u'9', u'5', u'10', u'12'], u'time': [7095, 15310, 16993, 21937, 23764]}, u'edge': {u'target': [], u'time': []}}, u'mouseout': {u'state': {u'target': [], u'time': []}, u'edge': {u'target': [], u'time': []}}}","[-48, 4, 4]","[42214, 513, 1850]",-45.0,"[None, None, None]","[u'', -48, 4, 4, 4, -48, -4, 2, 4, -48, -8, -4, -2]",791697,28.0,47776.0,3.5903513614e+18,mouselab-mdp,1
"[17639, 18546, 20129]","[u'right', u'right', u'down']",train_final,"[u'0', u'5', u'6', u'8']","{u'mouseover': {u'state': {u'target': [], u'time': []}, u'edge': {u'target': [], u'time': []}}, u'click': {u'state': {u'target': [u'5', u'9', u'10', u'11', u'12'], u'time': [4359, 10007, 11267, 12733, 14079]}, u'edge': {u'target': [], u'time': []}}, u'mouseout': {u'state': {u'target': [], u'time': []}, u'edge': {u'target': [], u'time': []}}}","[-24, -4, -2]","[17635, 384, 1067]",-35.0,"[None, None, None]","[u'', -24, -4, 4, 2, -24, -4, -4, -2, -48, -4, 2, 4]",816291,29.0,23342.0,5.55489966612e+18,mouselab-mdp,1
"[27360, 28240, 30872]","[u'up', u'up', u'right']",test,"[u'0', u'1', u'2', u'3']","{u'mouseover': {u'state': {u'target': [], u'time': []}, u'edge': {u'target': [], u'time': []}}, u'click': {u'state': {u'target': [u'1'], u'time': [16861]}, u'edge': {u'target': [], u'time': []}}, u'mouseout': {u'state': {u'target': [], u'time': []}, u'edge': {u'target': [], u'time': []}}}","[48, -4, -4]","[27352, 358, 2108]",39.0,"[None, None, None]","[u'', 48, -4, -4, 4, -48, 8, 4, -2, 24, 4, 2, 4]",909916,30.0,33253.0,-6.89226078903e+18,mouselab-mdp,1
"[16801, 17811, 19952]","[u'right', u'right', u'down']",test,"[u'0', u'5', u'6', u'8']","{u'mouseover': {u'state': {u'target': [], u'time': []}, u'edge': {u'target': [], u'time': []}}, u'click': {u'state': {u'target': [u'9', u'5', u'1', u'6', u'8'], u'time': [3783, 5485, 7434, 11504, 12878]}, u'edge': {u'target': [], u'time': []}}, u'mouseout': {u'state': {u'target': [], u'time': []}, u'edge': {u'target': [], u'time': []}}}","[-24, -8, 4]","[16795, 495, 1620]",-33.0,"[None, None, None]","[u'', -48, -4, 4, -4, -24, -8, 4, 4, -48, -4, -4, 4]",934884,31.0,23792.0,1.07286752953e+18,mouselab-mdp,1
"[13673, 14806, 16627]","[u'left', u'left', u'up']",test,"[u'0', u'9', u'10', u'11']","{u'mouseover': {u'state': {u'target': [], u'time': []}, u'edge': {u'target': [], u'time': []}}, u'click': {u'state': {u'target': [u'9', u'10', u'11'], u'time': [7019, 8552, 9832]}, u'edge': {u'target': [], u'time': []}}, u'mouseout': {u'state': {u'target': [], u'time': []}, u'edge': {u'target': [], u'time': []}}}","[24, -8, 4]","[13663, 625, 1296]",17.0,"[None, None, None]","[u'', 24, -4, -2, -4, 48, -8, 4, -4, 24, -8, 4, -4]",954725,32.0,18607.0,8.44984425036e+18,mouselab-mdp,1
"[16103, 17098, 20983]","[u'left', u'left', u'up']",test,"[u'0', u'9', u'10', u'11']","{u'mouseover': {u'state': {u'target': [], u'time': []}, u'edge': {u'target': [], u'time': []}}, u'click': {u'state': {u'target': [u'9', u'10', u'12', u'11'], u'time': [5647, 9085, 10183, 11656]}, u'edge': {u'target': [], u'time': []}}, u'mouseout': {u'state': {u'target': [], u'time': []}, u'edge': {u'target': [], u'time': []}}}","[24, -8, 2]","[16096, 483, 3368]",14.0,"[None, None, None]","[u'', -48, 8, -4, 4, 24, -4, 4, -4, 24, -8, 2, -4]",979167,33.0,23186.0,8.55918488371e+18,mouselab-mdp,1
"[15945, 16695, 19492]","[u'right', u'right', u'down']",test,"[u'0', u'5', u'6', u'8']","{u'mouseover': {u'state': {u'target': [], u'time': []}, u'edge': {u'target': [], u'time': []}}, u'click': {u'state': {u'target': [u'5', u'6', u'8'], u'time': [6003, 9943, 12898]}, u'edge': {u'target': [], u'time': []}}, u'mouseout': {u'state': {u'target': [], u'time': []}, u'edge': {u'target': [], u'time': []}}}","[-48, -8, 4]","[15940, 230, 2280]",-55.0,"[None, None, None]","[u'', 24, 4, 2, 2, -48, -8, 2, 4, -48, -4, -2, -2]",1002543,34.0,22198.0,-6.85617472885e+18,mouselab-mdp,1
"[9617, 10737, 12537]","[u'up', u'up', u'left']",test,"[u'0', u'1', u'2', u'4']","{u'mouseover': {u'state': {u'target': [], u'time': []}, u'edge': {u'target': [], u'time': []}}, u'click': {u'state': {u'target': [u'1', u'2'], u'time': [4228, 5686]}, u'edge': {u'target': [], u'time': []}}, u'mouseout': {u'state': {u'target': [], u'time': []}, u'edge': {u'target': [], u'time': []}}}","[48, 8, 4]","[9611, 608, 1255]",58.0,"[None, None, None]","[u'', 48, 8, 2, 4, -48, -8, -2, -2, 48, -4, 2, 4]",1018698,35.0,14937.0,5.21456941459e+18,mouselab-mdp,1
"[12532, 13651, 15668]","[u'left', u'left', u'down']",test,"[u'0', u'9', u'10', u'12']","{u'mouseover': {u'state': {u'target': [], u'time': []}, u'edge': {u'target': [], u'time': []}}, u'click': {u'state': {u'target': [u'9', u'10'], u'time': [8207, 9645]}, u'edge': {u'target': [], u'time': []}}, u'mouseout': {u'state': {u'target': [], u'time': []}, u'edge': {u'target': [], u'time': []}}}","[-48, -4, 4]","[12524, 606, 1505]",-50.0,"[None, None, None]","[u'', -48, -8, -4, -4, 48, 4, 2, 4, -48, -4, 2, 4]",1040625,36.0,20684.0,-4.49278938292e+18,mouselab-mdp,1
"[6172, 6927, 8841]","[u'right', u'right', u'down']",test,"[u'0', u'5', u'6', u'8']","{u'mouseover': {u'state': {u'target': [], u'time': []}, u'edge': {u'target': [], u'time': []}}, u'click': {u'state': {u'target': [u'5'], u'time': [3700]}, u'edge': {u'target': [], u'time': []}}, u'mouseout': {u'state': {u'target': [], u'time': []}, u'edge': {u'target': [], u'time': []}}}","[-48, -8, 4]","[6167, 236, 1400]",-53.0,"[None, None, None]","[u'', -48, 4, -2, 4, -48, -8, -2, 4, -48, 8, -2, -4]",1053147,37.0,11338.0,2.04519373683e+18,mouselab-mdp,1
"[4766, 6292, 9069]","[u'up', u'up', u'right']",test,"[u'0', u'1', u'2', u'3']","{u'mouseover': {u'state': {u'target': [], u'time': []}, u'edge': {u'target': [], u'time': []}}, u'click': {u'state': {u'target': [u'1'], u'time': [2846]}, u'edge': {u'target': [], u'time': []}}, u'mouseout': {u'state': {u'target': [], u'time': []}, u'edge': {u'target': [], u'time': []}}}","[48, 4, -4]","[4761, 1013, 2257]",47.0,"[None, None, None]","[u'', 48, 4, -4, 2, -24, 4, 4, -2, 48, 4, -4, 4]",1066393,38.0,12040.0,-7.72949551535e+18,mouselab-mdp,1
"[7281, 8146, 10170]","[u'up', u'up', u'right']",test,"[u'0', u'1', u'2', u'3']","{u'mouseover': {u'state': {u'target': [], u'time': []}, u'edge': {u'target': [], u'time': []}}, u'click': {u'state': {u'target': [u'1'], u'time': [5203]}, u'edge': {u'target': [], u'time': []}}, u'mouseout': {u'state': {u'target': [], u'time': []}, u'edge': {u'target': [], u'time': []}}}","[48, -4, 2]","[7276, 346, 1505]",45.0,"[None, None, None]","[u'', 48, -4, 2, -2, -24, -4, -2, -2, 24, -4, 4, 2]",1082304,39.0,14708.0,-3.0058176152e+18,mouselab-mdp,1
"[6306, 7177, 9205]","[u'up', u'up', u'left']",test,"[u'0', u'1', u'2', u'4']","{u'mouseover': {u'state': {u'target': [], u'time': []}, u'edge': {u'target': [], u'time': []}}, u'click': {u'state': {u'target': [u'1', u'2'], u'time': [1570, 2962]}, u'edge': {u'target': [], u'time': []}}, u'mouseout': {u'state': {u'target': [], u'time': []}, u'edge': {u'target': [], u'time': []}}}","[-24, 8, 2]","[6297, 351, 1512]",-16.0,"[None, None, None]","[u'', -24, 8, 4, 2, 48, 8, 4, 4, -48, 4, 2, 2]",1097698,40.0,14182.0,1.17043306924e+18,mouselab-mdp,1
"[10926, 12848, 17213]","[u'up', u'up', u'right']",test,"[u'0', u'1', u'2', u'3']","{u'mouseover': {u'state': {u'target': [], u'time': []}, u'edge': {u'target': [], u'time': []}}, u'click': {u'state': {u'target': [u'9', u'5', u'1'], u'time': [3839, 7204, 8812]}, u'edge': {u'target': [], u'time': []}}, u'mouseout': {u'state': {u'target': [], u'time': []}, u'edge': {u'target': [], u'time': []}}}","[48, 8, 2]","[10913, 1401, 3845]",55.0,"[None, None, None]","[u'', 48, 8, 2, 4, -48, 8, -4, -4, -24, -8, 2, -4]",1119093,41.0,20186.0,8.29494155133e+18,mouselab-mdp,1
"[20348, 22524, 24792]","[u'right', u'right', u'down']",test,"[u'0', u'5', u'6', u'8']","{u'mouseover': {u'state': {u'target': [], u'time': []}, u'edge': {u'target': [], u'time': []}}, u'click': {u'state': {u'target': [u'5', u'6', u'7', u'8'], u'time': [8774, 12439, 15813, 17408]}, u'edge': {u'target': [], u'time': []}}, u'mouseout': {u'state': {u'target': [], u'time': []}, u'edge': {u'target': [], u'time': []}}}","[48, -4, 2]","[20343, 1652, 1753]",42.0,"[None, None, None]","[u'', 48, 8, -2, 2, 48, -4, -2, 2, -48, 4, -2, 4]",1148782,42.0,28437.0,-5.53441172203e+18,mouselab-mdp,1
"[14872, 17045, 19343]","[u'up', u'up', u'left']",test,"[u'0', u'1', u'2', u'4']","{u'mouseover': {u'state': {u'target': [], u'time': []}, u'edge': {u'target': [], u'time': []}}, u'click': {u'state': {u'target': [u'9', u'10', u'1'], u'time': [8455, 10565, 12567]}, u'edge': {u'target': [], u'time': []}}, u'mouseout': {u'state': {u'target': [], u'time': []}, u'edge': {u'target': [], u'time': []}}}","[24, 8, -2]","[14868, 1661, 1774]",27.0,"[None, None, None]","[u'', 24, 8, 4, -2, 24, 8, -2, 2, -48, -4, -4, 2]",1173795,43.0,23835.0,-5.96352047714e+18,mouselab-mdp,1
"[9248, 10228, 11902]","[u'left', u'left', u'down']",test,"[u'0', u'9', u'10', u'12']","{u'mouseover': {u'state': {u'target': [], u'time': []}, u'edge': {u'target': [], u'time': []}}, u'click': {u'state': {u'target': [u'1', u'9'], u'time': [5416, 7118]}, u'edge': {u'target': [], u'time': []}}, u'mouseout': {u'state': {u'target': [], u'time': []}, u'edge': {u'target': [], u'time': []}}}","[48, 8, 4]","[9245, 464, 1155]",58.0,"[None, None, None]","[u'', -48, 8, 4, -2, -24, 8, -2, -4, 48, 8, -2, 4]",1190107,44.0,15131.0,7.01018725142e+18,mouselab-mdp,1
"[11614, 12661, 16503]","[u'left', u'left', u'up']",test,"[u'0', u'9', u'10', u'11']","{u'mouseover': {u'state': {u'target': [], u'time': []}, u'edge': {u'target': [], u'time': []}}, u'click': {u'state': {u'target': [u'5', u'9', u'11'], u'time': [2366, 5327, 9706]}, u'edge': {u'target': [], u'time': []}}, u'mouseout': {u'state': {u'target': [], u'time': []}, u'edge': {u'target': [], u'time': []}}}","[48, 4, 2]","[11608, 534, 3312]",51.0,"[None, None, None]","[u'', 48, 8, -4, -4, -48, 8, -4, -2, 48, 4, 2, -2]",1215134,45.0,23822.0,1.11563526089e+18,mouselab-mdp,1
"[7219, 8393, 10490]","[u'right', u'right', u'up']",test,"[u'0', u'5', u'6', u'7']","{u'mouseover': {u'state': {u'target': [], u'time': []}, u'edge': {u'target': [], u'time': []}}, u'click': {u'state': {u'target': [u'9', u'5'], u'time': [2754, 4454]}, u'edge': {u'target': [], u'time': []}}, u'mouseout': {u'state': {u'target': [], u'time': []}, u'edge': {u'target': [], u'time': []}}}","[48, -4, 2]","[7213, 658, 1572]",44.0,"[None, None, None]","[u'', 48, 4, 4, 2, 48, -4, 2, -4, -24, -8, -2, -4]",1230812,46.0,14497.0,-6.7376156814e+18,mouselab-mdp,1
"[18029, 19094, 21416]","[u'right', u'right', u'down']",test,"[u'0', u'5', u'6', u'8']","{u'mouseover': {u'state': {u'target': [], u'time': []}, u'edge': {u'target': [], u'time': []}}, u'click': {u'state': {u'target': [u'1', u'5', u'9'], u'time': [2269, 4478, 8786]}, u'edge': {u'target': [], u'time': []}}, u'mouseout': {u'state': {u'target': [], u'time': []}, u'edge': {u'target': [], u'time': []}}}","[24, 4, 2]","[18023, 544, 1800]",27.0,"[None, None, None]","[u'', -24, 8, -2, 4, 24, 4, -4, 2, 48, -4, 4, 4]",1257039,47.0,25010.0,-8.94225075726e+18,mouselab-mdp,1
"[9338, 10444, 13021]","[u'left', u'left', u'down']",test,"[u'0', u'9', u'10', u'12']","{u'mouseover': {u'state': {u'target': [], u'time': []}, u'edge': {u'target': [], u'time': []}}, u'click': {u'state': {u'target': [u'1', u'9'], u'time': [2543, 5285]}, u'edge': {u'target': [], u'time': []}}, u'mouseout': {u'state': {u'target': [], u'time': []}, u'edge': {u'target': [], u'time': []}}}","[48, 4, -2]","[9326, 581, 2060]",48.0,"[None, None, None]","[u'', -48, 8, -2, -4, 48, -4, 4, 2, 48, 4, 4, -2]",1273915,48.0,15701.0,4.41329592241e+18,mouselab-mdp,1
"[13276, 14300, 16977]","[u'left', u'left', u'down']",test,"[u'0', u'9', u'10', u'12']","{u'mouseover': {u'state': {u'target': [], u'time': []}, u'edge': {u'target': [], u'time': []}}, u'click': {u'state': {u'target': [u'1', u'9', u'12', u'11'], u'time': [2616, 5137, 9556, 11102]}, u'edge': {u'target': [], u'time': []}}, u'mouseout': {u'state': {u'target': [], u'time': []}, u'edge': {u'target': [], u'time': []}}}","[48, -8, 2]","[13269, 502, 2162]",38.0,"[None, None, None]","[u'', -24, 4, -2, -2, -48, -8, 4, -2, 48, -8, -2, 2]",1294435,49.0,19296.0,-4.64203023396e+18,mouselab-mdp,1
"[21609, 22430, 25872]","[u'up', u'up', u'left']",test,"[u'0', u'1', u'2', u'4']","{u'mouseover': {u'state': {u'target': [], u'time': []}, u'edge': {u'target': [], u'time': []}}, u'click': {u'state': {u'target': [u'9', u'5', u'1', u'10', u'6', u'2'], u'time': [3409, 5246, 8917, 12977, 14890, 18218]}, u'edge': {u'target': [], u'time': []}}, u'mouseout': {u'state': {u'target': [], u'time': []}, u'edge': {u'target': [], u'time': []}}}","[-24, 8, -2]","[21604, 307, 2931]",-24.0,"[None, None, None]","[u'', -24, 8, -2, -2, -24, 4, -4, 2, -48, -8, 4, -4]",1325223,50.0,29615.0,-8.16534935299e+18,mouselab-mdp,1
"[7998, 8918, 10358]","[u'left', u'left', u'up']",test,"[u'0', u'9', u'10', u'11']","{u'mouseover': {u'state': {u'target': [], u'time': []}, u'edge': {u'target': [], u'time': []}}, u'click': {u'state': {u'target': [u'5', u'9'], u'time': [2252, 5184]}, u'edge': {u'target': [], u'time': []}}, u'mouseout': {u'state': {u'target': [], u'time': []}, u'edge': {u'target': [], u'time': []}}}","[48, -4, 2]","[7991, 396, 918]",44.0,"[None, None, None]","[u'', -24, -8, 2, 2, -24, -8, 2, -2, 48, -4, 2, -4]",1340027,51.0,13621.0,3.33569623558e+14,mouselab-mdp,1
"[12105, 13812, 21152]","[u'up', u'up', u'left']",test,"[u'0', u'1', u'2', u'4']","{u'mouseover': {u'state': {u'target': [], u'time': []}, u'edge': {u'target': [], u'time': []}}, u'click': {u'state': {u'target': [u'1', u'2', u'3', u'4'], u'time': [4363, 7007, 8191, 9613]}, u'edge': {u'target': [], u'time': []}}, u'mouseout': {u'state': {u'target': [], u'time': []}, u'edge': {u'target': [], u'time': []}}}","[48, 8, 2]","[12101, 1189, 6830]",54.0,"[None, None, None]","[u'', 48, 8, 2, 2, -48, -4, -2, -4, 24, -4, 4, 4]",1364811,52.0,23576.0,3.67478526982e+18,mouselab-mdp,1
"[16773, 19500, 22068]","[u'right', u'right', u'up']",test,"[u'0', u'5', u'6', u'7']","{u'mouseover': {u'state': {u'target': [], u'time': []}, u'edge': {u'target': [], u'time': []}}, u'click': {u'state': {u'target': [u'1', u'2', u'3', u'4', u'9', u'5'], u'time': [3859, 5270, 6754, 8004, 9673, 11205]}, u'edge': {u'target': [], u'time': []}}, u'mouseout': {u'state': {u'target': [], u'time': []}, u'edge': {u'target': [], u'time': []}}}","[48, 4, 4]","[16767, 2205, 2027]",50.0,"[None, None, None]","[u'', 24, -8, 2, 4, 48, 4, 4, 4, 24, -8, -4, -4]",1391231,53.0,25230.0,1.49590081745e+18,mouselab-mdp,1
"[38136, 39099, 40387]","[u'up', u'up', u'left']",test,"[u'0', u'1', u'2', u'4']","{u'mouseover': {u'state': {u'target': [], u'time': []}, u'edge': {u'target': [], u'time': []}}, u'click': {u'state': {u'target': [u'9', u'10', u'11', u'12', u'5', u'6', u'7', u'8', u'1', u'2', u'4', u'3'], u'time': [4940, 9460, 12488, 14454, 16539, 19690, 21052, 25117, 28656, 30769, 33775, 35387]}, u'edge': {u'target': [], u'time': []}}, u'mouseout': {u'state': {u'target': [], u'time': []}, u'edge': {u'target': [], u'time': []}}}","[24, 4, 2]","[38126, 440, 770]",18.0,"[None, None, None]","[u'', 24, 4, -2, 2, 48, -8, -4, 4, 24, 4, -4, -2]",1436974,54.0,44529.0,2.35120156539e+18,mouselab-mdp,1
"[17794, 19150, 22101]","[u'up', u'up', u'left']",test,"[u'0', u'1', u'2', u'4']","{u'mouseover': {u'state': {u'target': [], u'time': []}, u'edge': {u'target': [], u'time': []}}, u'click': {u'state': {u'target': [u'1', u'2', u'4', u'3'], u'time': [3535, 5481, 7737, 10398]}, u'edge': {u'target': [], u'time': []}}, u'mouseout': {u'state': {u'target': [], u'time': []}, u'edge': {u'target': [], u'time': []}}}","[48, 8, 4]","[17784, 836, 2428]",56.0,"[None, None, None]","[u'', 48, 8, 4, 4, -48, -8, -4, 2, 48, 8, 2, 2]",1463152,55.0,24985.0,-3.73598771706e+17,mouselab-mdp,1
"[64032, 65752, 68561]","[u'left', u'left', u'up']",test,"[u'0', u'9', u'10', u'11']","{u'mouseover': {u'state': {u'target': [], u'time': []}, u'edge': {u'target': [], u'time': []}}, u'click': {u'state': {u'target': [u'5', u'6', u'9', u'10', u'11', u'12', u'1', u'2', u'4', u'3', u'7', u'8'], u'time': [15559, 17273, 19776, 22308, 23811, 25530, 30449, 35030, 36386, 37769, 41208, 42575]}, u'edge': {u'target': [], u'time': []}}, u'mouseout': {u'state': {u'target': [], u'time': []}, u'edge': {u'target': [], u'time': []}}}","[48, -4, 4]","[64024, 1203, 2267]",36.0,"[None, None, None]","[u'', -24, 8, -2, 2, 24, -8, -4, -2, 48, -4, 4, -4]",1536053,56.0,71726.0,-3.20007329874e+18,mouselab-mdp,1
"[35786, 38498, 40587]","[u'right', u'right', u'up']",test,"[u'0', u'5', u'6', u'7']","{u'mouseover': {u'state': {u'target': [], u'time': []}, u'edge': {u'target': [], u'time': []}}, u'click': {u'state': {u'target': [u'1', u'5', u'9', u'10', u'11', u'12', u'2', u'6', u'7', u'8', u'4', u'3'], u'time': [7145, 8981, 10585, 13101, 14537, 16351, 18846, 20537, 24202, 25625, 30580, 31850]}, u'edge': {u'target': [], u'time': []}}, u'mouseout': {u'state': {u'target': [], u'time': []}, u'edge': {u'target': [], u'time': []}}}","[-24, 4, 4]","[35778, 2202, 1574]",-28.0,"[None, None, None]","[u'', -24, 4, -4, -2, -24, 4, 4, -2, 48, -4, 2, -4]",1580959,57.0,43703.0,-7.521123155e+18,mouselab-mdp,1
"[23391, 24147, 27048]","[u'right', u'right', u'up']",test,"[u'0', u'5', u'6', u'7']","{u'mouseover': {u'state': {u'target': [], u'time': []}, u'edge': {u'target': [], u'time': []}}, u'click': {u'state': {u'target': [u'5', u'9', u'7', u'6', u'8', u'1'], u'time': [10225, 11435, 12824, 14040, 17022, 20311]}, u'edge': {u'target': [], u'time': []}}, u'mouseout': {u'state': {u'target': [], u'time': []}, u'edge': {u'target': [], u'time': []}}}","[48, 8, 2]","[23386, 236, 2386]",52.0,"[None, None, None]","[u'', -48, -4, -2, 4, 48, 8, 2, -2, -24, 8, 2, 4]",1611718,58.0,29584.0,-1.36932485089e+17,mouselab-mdp,1
"[48687, 52303, 55032]","[u'left', u'left', u'down']",test,"[u'0', u'9', u'10', u'12']","{u'mouseover': {u'state': {u'target': [], u'time': []}, u'edge': {u'target': [], u'time': []}}, u'click': {u'state': {u'target': [u'9', u'5', u'1', u'2', u'4', u'3', u'11', u'10', u'12', u'6', u'7', u'8'], u'time': [6810, 8108, 12156, 14185, 15622, 16832, 18656, 19804, 20975, 27640, 29661, 33504]}, u'edge': {u'target': [], u'time': []}}, u'mouseout': {u'state': {u'target': [], u'time': []}, u'edge': {u'target': [], u'time': []}}}","[-24, -8, 4]","[48682, 3102, 2216]",-40.0,"[None, None, None]","[u'', -48, -4, 4, -2, -48, 4, -4, 4, -24, -8, 2, 4]",1673795,59.0,60894.0,2.63443329641e+18,mouselab-mdp,1
"[17430, 19392, 21063]","[u'up', u'up', u'right']",train_basic,"[u'0', u'1', u'2', u'3']","{u'mouseover': {u'state': {u'target': [], u'time': []}, u'edge': {u'target': [], u'time': []}}, u'click': {u'state': {u'target': [], u'time': []}, u'edge': {u'target': [], u'time': []}}, u'mouseout': {u'state': {u'target': [], u'time': []}, u'edge': {u'target': [], u'time': []}}}","[4, 4, 48]","[17418, 1438, 1145]",56.0,"[None, None, None]","[u'', 4, 4, 48, -24, 4, -4, -48, 48, 2, -8, 48, 24]",25323,0.0,24534.0,-8.5802004347e+18,mouselab-mdp,2
"[2661, 3869, 4876]","[u'left', u'left', u'down']",train_basic,"[u'0', u'9', u'10', u'12']","{u'mouseover': {u'state': {u'target': [], u'time': []}, u'edge': {u'target': [], u'time': []}}, u'click': {u'state': {u'target': [], u'time': []}, u'edge': {u'target': [], u'time': []}}, u'mouseout': {u'state': {u'target': [], u'time': []}, u'edge': {u'target': [], u'time': []}}}","[2, 8, 24]","[2653, 684, 490]",34.0,"[None, None, None]","[u'', 2, -4, 48, -24, -2, 4, 48, -48, 2, 8, -48, 24]",33386,1.0,6715.0,-3.02495073278e+17,mouselab-mdp,2
"[1558, 3072, 3999]","[u'right', u'right', u'down']",train_basic,"[u'0', u'5', u'6', u'8']","{u'mouseover': {u'state': {u'target': [], u'time': []}, u'edge': {u'target': [], u'time': []}}, u'click': {u'state': {u'target': [], u'time': []}, u'edge': {u'target': [], u'time': []}}, u'mouseout': {u'state': {u'target': [], u'time': []}, u'edge': {u'target': [], u'time': []}}}","[4, 8, 48]","[1551, 993, 392]",60.0,"[None, None, None]","[u'', -2, -4, 24, 24, 4, 8, -24, 48, -4, -8, -48, 24]",39994,2.0,5335.0,-1.75349825635e+18,mouselab-mdp,2
"[1819, 2908, 3746]","[u'right', u'right', u'down']",train_basic,"[u'0', u'5', u'6', u'8']","{u'mouseover': {u'state': {u'target': [], u'time': []}, u'edge': {u'target': [], u'time': []}}, u'click': {u'state': {u'target': [], u'time': []}, u'edge': {u'target': [], u'time': []}}, u'mouseout': {u'state': {u'target': [], u'time': []}, u'edge': {u'target': [], u'time': []}}}","[4, 4, 48]","[1811, 575, 314]",56.0,"[None, None, None]","[u'', -4, -8, -48, -48, 4, 4, 24, 48, -4, -4, 24, 48]",46851,3.0,5463.0,7.07260772545e+18,mouselab-mdp,2
"[1053, 1789, 2474]","[u'right', u'right', u'down']",train_basic,"[u'0', u'5', u'6', u'8']","{u'mouseover': {u'state': {u'target': [], u'time': []}, u'edge': {u'target': [], u'time': []}}, u'click': {u'state': {u'target': [], u'time': []}, u'edge': {u'target': [], u'time': []}}, u'mouseout': {u'state': {u'target': [], u'time': []}, u'edge': {u'target': [], u'time': []}}}","[4, 8, 24]","[1048, 222, 142]",36.0,"[None, None, None]","[u'', -2, 4, 24, 24, 4, 8, -48, 24, -2, 8, -48, -24]",52459,4.0,4356.0,-9.08425462157e+18,mouselab-mdp,2
"[12962, 13815, 14669]","[u'left', u'left', u'up']",train_basic2,"[u'0', u'9', u'10', u'11']","{u'mouseover': {u'state': {u'target': [], u'time': []}, u'edge': {u'target': [], u'time': []}}, u'click': {u'state': {u'target': [], u'time': []}, u'edge': {u'target': [], u'time': []}}, u'mouseout': {u'state': {u'target': [], u'time': []}, u'edge': {u'target': [], u'time': []}}}","[4, 4, 48]","[12956, 335, 341]",56.0,"[None, None, None]","[u'', -4, 8, -24, -48, 4, -4, 48, 24, 4, 4, 48, -24]",75410,5.0,19536.0,7.11229992246e+18,mouselab-mdp,2
"[701, 1523, 2176]","[u'left', u'left', u'up']",train_basic2,"[u'0', u'9', u'10', u'11']","{u'mouseover': {u'state': {u'target': [], u'time': []}, u'edge': {u'target': [], u'time': []}}, u'click': {u'state': {u'target': [], u'time': []}, u'edge': {u'target': [], u'time': []}}, u'mouseout': {u'state': {u'target': [], u'time': []}, u'edge': {u'target': [], u'time': []}}}","[4, 4, 24]","[694, 309, 128]",32.0,"[None, None, None]","[u'', 4, 8, -48, -48, -4, 8, -48, -24, 4, 4, 24, -24]",80245,6.0,3607.0,5.67377080633e+18,mouselab-mdp,2
"[4814, 5544, 6383]","[u'left', u'left', u'up']",train_basic2,"[u'0', u'9', u'10', u'11']","{u'mouseover': {u'state': {u'target': [], u'time': []}, u'edge': {u'target': [], u'time': []}}, u'click': {u'state': {u'target': [], u'time': []}, u'edge': {u'target': [], u'time': []}}, u'mouseout': {u'state': {u'target': [], u'time': []}, u'edge': {u'target': [], u'time': []}}}","[4, -4, 48]","[4809, 210, 317]",48.0,"[None, None, None]","[u'', 4, -8, 48, 24, -2, -4, 24, -24, 4, -4, 48, 48]",89532,7.0,8064.0,-8.93075642024e+18,mouselab-mdp,2
"[2001, 2930, 3610]","[u'right', u'right', u'down']",train_basic2,"[u'0', u'5', u'6', u'8']","{u'mouseover': {u'state': {u'target': [], u'time': []}, u'edge': {u'target': [], u'time': []}}, u'click': {u'state': {u'target': [], u'time': []}, u'edge': {u'target': [], u'time': []}}, u'mouseout': {u'state': {u'target': [], u'time': []}, u'edge': {u'target': [], u'time': []}}}","[2, 4, 24]","[1995, 407, 169]",30.0,"[None, None, None]","[u'', 4, -8, 24, 24, 2, 4, -24, 24, 4, -4, 48, -48]",95576,8.0,4815.0,-7.87683644611e+18,mouselab-mdp,2
"[2252, 2925, 3613]","[u'right', u'right', u'down']",train_basic2,"[u'0', u'5', u'6', u'8']","{u'mouseover': {u'state': {u'target': [], u'time': []}, u'edge': {u'target': [], u'time': []}}, u'click': {u'state': {u'target': [], u'time': []}, u'edge': {u'target': [], u'time': []}}, u'mouseout': {u'state': {u'target': [], u'time': []}, u'edge': {u'target': [], u'time': []}}}","[-4, 8, 24]","[2244, 141, 161]",28.0,"[None, None, None]","[u'', 4, -8, -24, -24, -4, 8, -24, 24, -2, -8, -48, -48]",101931,9.0,5114.0,3.45729407456e+18,mouselab-mdp,2
"[7559, 8578, 9352]","[u'up', u'up', u'right']",train_hidden,"[u'0', u'1', u'2', u'3']","{u'mouseover': {u'state': {u'target': [], u'time': []}, u'edge': {u'target': [], u'time': []}}, u'click': {u'state': {u'target': [], u'time': []}, u'edge': {u'target': [], u'time': []}}, u'mouseout': {u'state': {u'target': [], u'time': []}, u'edge': {u'target': [], u'time': []}}}","[-2, -4, 48]","[7554, 495, 252]",42.0,"[None, None, None]","[u'', -2, -4, 48, 24, -2, -4, -48, -24, -4, -4, 24, 48]",116219,10.0,11217.0,-3.17734272016e+18,mouselab-mdp,2
"[424, 1283, 2101]","[u'right', u'right', u'up']",train_hidden,"[u'0', u'5', u'6', u'7']","{u'mouseover': {u'state': {u'target': [], u'time': []}, u'edge': {u'target': [], u'time': []}}, u'click': {u'state': {u'target': [], u'time': []}, u'edge': {u'target': [], u'time': []}}, u'mouseout': {u'state': {u'target': [], u'time': []}, u'edge': {u'target': [], u'time': []}}}","[-4, -4, -24]","[417, 339, 290]",-32.0,"[None, None, None]","[u'', 4, 8, 24, 24, -4, -4, -24, -48, 2, -4, 48, 48]",121322,11.0,3881.0,2.06077812078e+18,mouselab-mdp,2
"[362, 1135, 1810]","[u'left', u'left', u'up']",train_hidden,"[u'0', u'9', u'10', u'11']","{u'mouseover': {u'state': {u'target': [], u'time': []}, u'edge': {u'target': [], u'time': []}}, u'click': {u'state': {u'target': [], u'time': []}, u'edge': {u'target': [], u'time': []}}, u'mouseout': {u'state': {u'target': [], u'time': []}, u'edge': {u'target': [], u'time': []}}}","[-2, -8, 24]","[355, 239, 165]",14.0,"[None, None, None]","[u'', -2, 4, 48, -48, 4, -8, 48, 24, -2, -8, 24, 48]",125615,12.0,3111.0,-4.50789173172e+18,mouselab-mdp,2
"[686, 1434, 2320]","[u'right', u'right', u'up']",train_hidden,"[u'0', u'5', u'6', u'7']","{u'mouseover': {u'state': {u'target': [], u'time': []}, u'edge': {u'target': [], u'time': []}}, u'click': {u'state': {u'target': [], u'time': []}, u'edge': {u'target': [], u'time': []}}, u'mouseout': {u'state': {u'target': [], u'time': []}, u'edge': {u'target': [], u'time': []}}}","[4, 8, -24]","[682, 227, 366]",-12.0,"[None, None, None]","[u'', 4, 4, 48, 24, 4, 8, -24, -48, 2, -4, -48, 24]",130616,13.0,3788.0,-4.31551439298e+18,mouselab-mdp,2
"[1080, 1931, 2659]","[u'up', u'up', u'left']",train_hidden,"[u'0', u'1', u'2', u'4']","{u'mouseover': {u'state': {u'target': [], u'time': []}, u'edge': {u'target': [], u'time': []}}, u'click': {u'state': {u'target': [], u'time': []}, u'edge': {u'target': [], u'time': []}}, u'mouseout': {u'state': {u'target': [], u'time': []}, u'edge': {u'target': [], u'time': []}}}","[4, -4, -48]","[1072, 327, 204]",-48.0,"[None, None, None]","[u'', 4, -4, -48, -48, -4, 8, -48, -24, 4, -4, 48, -24]",135646,14.0,3783.0,-6.3406539033e+18,mouselab-mdp,2
"[19060, 19910, 20613]","[u'left', u'left', u'up']",train_inspector,"[u'0', u'9', u'10', u'11']","{u'mouseover': {u'state': {u'target': [], u'time': []}, u'edge': {u'target': [], u'time': []}}, u'click': {u'state': {u'target': [u'5', u'1', u'9'], u'time': [14398, 16568, 17694]}, u'edge': {u'target': [], u'time': []}}, u'mouseout': {u'state': {u'target': [], u'time': []}, u'edge': {u'target': [], u'time': []}}}","[2, -8, 24]","[19050, 333, 139]",18.0,"[None, None, None]","[u'', -2, -8, -48, 24, -4, -4, -24, -48, 2, -8, 24, 24]",160635,15.0,21992.0,8.32456338105e+18,mouselab-mdp,2
"[3966, 4605, 5246]","[u'right', u'right', u'up']",train_inspector,"[u'0', u'5', u'6', u'7']","{u'mouseover': {u'state': {u'target': [], u'time': []}, u'edge': {u'target': [], u'time': []}}, u'click': {u'state': {u'target': [u'9', u'1', u'5'], u'time': [1348, 2171, 2871]}, u'edge': {u'target': [], u'time': []}}, u'mouseout': {u'state': {u'target': [], u'time': []}, u'edge': {u'target': [], u'time': []}}}","[2, -4, 48]","[3959, 124, 113]",46.0,"[None, None, None]","[u'', -2, 8, 24, 48, 2, -4, 48, -48, 2, 8, 24, -48]",168250,16.0,6399.0,4.4604977699e+18,mouselab-mdp,2
"[4381, 5130, 5880]","[u'right', u'right', u'up']",train_inspector,"[u'0', u'5', u'6', u'7']","{u'mouseover': {u'state': {u'target': [], u'time': []}, u'edge': {u'target': [], u'time': []}}, u'click': {u'state': {u'target': [u'5', u'1', u'9'], u'time': [1077, 2582, 3266]}, u'edge': {u'target': [], u'time': []}}, u'mouseout': {u'state': {u'target': [], u'time': []}, u'edge': {u'target': [], u'time': []}}}","[-4, -4, 24]","[4374, 231, 180]",16.0,"[None, None, None]","[u'', -2, 8, 24, -24, -4, -4, 24, -24, -2, -4, 48, -24]",176762,17.0,7246.0,1.16491454107e+17,mouselab-mdp,2
"[4349, 4976, 5604]","[u'right', u'right', u'up']",train_inspector,"[u'0', u'5', u'6', u'7']","{u'mouseover': {u'state': {u'target': [], u'time': []}, u'edge': {u'target': [], u'time': []}}, u'click': {u'state': {u'target': [u'9', u'1', u'5'], u'time': [1523, 2166, 3527]}, u'edge': {u'target': [], u'time': []}}, u'mouseout': {u'state': {u'target': [], u'time': []}, u'edge': {u'target': [], u'time': []}}}","[4, 4, -48]","[4343, 109, 110]",-40.0,"[None, None, None]","[u'', -4, 4, 24, -24, 4, 4, -48, -48, -4, -4, -48, 24]",185539,18.0,7500.0,3.64738318725e+18,mouselab-mdp,2
"[4153, 4763, 5368]","[u'left', u'left', u'down']",train_inspector,"[u'0', u'9', u'10', u'12']","{u'mouseover': {u'state': {u'target': [], u'time': []}, u'edge': {u'target': [], u'time': []}}, u'click': {u'state': {u'target': [u'1', u'9', u'5'], u'time': [1646, 2269, 3153]}, u'edge': {u'target': [], u'time': []}}, u'mouseout': {u'state': {u'target': [], u'time': []}, u'edge': {u'target': [], u'time': []}}}","[4, 8, 24]","[4144, 99, 89]",36.0,"[None, None, None]","[u'', -4, 8, -48, 24, -2, 4, -48, -48, 4, 8, -24, 24]",193622,19.0,6855.0,6.40648062811e+18,mouselab-mdp,2
"[11075, 11705, 12255]","[u'left', u'left', u'up']",train_inspect_cost,"[u'0', u'9', u'10', u'11']","{u'mouseover': {u'state': {u'target': [], u'time': []}, u'edge': {u'target': [], u'time': []}}, u'click': {u'state': {u'target': [u'5', u'9', u'1'], u'time': [8389, 9213, 10035]}, u'edge': {u'target': [], u'time': []}}, u'mouseout': {u'state': {u'target': [], u'time': []}, u'edge': {u'target': [], u'time': []}}}","[4, 4, 48]","[11069, 110, 27]",53.0,"[None, None, None]","[u'', -4, -4, 24, -24, -4, 4, 24, 24, 4, 4, 48, -48]",210458,20.0,13706.0,-7.89014416469e+18,mouselab-mdp,2
"[4323, 4925, 5502]","[u'right', u'right', u'up']",train_inspect_cost,"[u'0', u'5', u'6', u'7']","{u'mouseover': {u'state': {u'target': [], u'time': []}, u'edge': {u'target': [], u'time': []}}, u'click': {u'state': {u'target': [u'9', u'1', u'5'], u'time': [1738, 2534, 3274]}, u'edge': {u'target': [], u'time': []}}, u'mouseout': {u'state': {u'target': [], u'time': []}, u'edge': {u'target': [], u'time': []}}}","[4, -8, -48]","[4318, 83, 60]",-55.0,"[None, None, None]","[u'', 2, 4, -24, 24, 4, -8, -48, 48, 2, 4, -48, -24]",218551,21.0,6746.0,-6.74953611422e+18,mouselab-mdp,2
"[3338, 4062, 4664]","[u'left', u'left', u'up']",train_inspect_cost,"[u'0', u'9', u'10', u'11']","{u'mouseover': {u'state': {u'target': [], u'time': []}, u'edge': {u'target': [], u'time': []}}, u'click': {u'state': {u'target': [u'1', u'9'], u'time': [1366, 2891]}, u'edge': {u'target': [], u'time': []}}, u'mouseout': {u'state': {u'target': [], u'time': []}, u'edge': {u'target': [], u'time': []}}}","[-4, -8, 24]","[3331, 207, 29]",10.0,"[None, None, None]","[u'', -2, 4, -24, 24, -4, 8, -24, -48, -4, -8, 24, 24]",225608,22.0,5828.0,3.02358967478e+18,mouselab-mdp,2
"[3424, 4609, 5247]","[u'right', u'right', u'up']",train_inspect_cost,"[u'0', u'5', u'6', u'7']","{u'mouseover': {u'state': {u'target': [], u'time': []}, u'edge': {u'target': [], u'time': []}}, u'click': {u'state': {u'target': [u'1', u'9', u'5'], u'time': [1277, 1901, 2585]}, u'edge': {u'target': [], u'time': []}}, u'mouseout': {u'state': {u'target': [], u'time': []}, u'edge': {u'target': [], u'time': []}}}","[4, 4, -24]","[3413, 672, 128]",-19.0,"[None, None, None]","[u'', 2, 8, -48, 48, 4, 4, -24, 48, -4, -4, 48, -24]",233230,23.0,6387.0,-9.09463966077e+18,mouselab-mdp,2
"[2817, 3381, 4485]","[u'up', u'up', u'right']",train_inspect_cost,"[u'0', u'1', u'2', u'3']","{u'mouseover': {u'state': {u'target': [], u'time': []}, u'edge': {u'target': [], u'time': []}}, u'click': {u'state': {u'target': [u'1'], u'time': [1973]}, u'edge': {u'target': [], u'time': []}}, u'mouseout': {u'state': {u'target': [], u'time': []}, u'edge': {u'target': [], u'time': []}}}","[-2, 4, -48]","[2805, 45, 582]",-47.0,"[None, None, None]","[u'', -2, 4, -48, -24, -4, -8, -48, -24, -2, 4, -24, 24]",239981,24.0,5555.0,4.50698344638e+18,mouselab-mdp,2
"[10170, 11230, 11830]","[u'left', u'left', u'up']",train_final,"[u'0', u'9', u'10', u'11']","{u'mouseover': {u'state': {u'target': [], u'time': []}, u'edge': {u'target': [], u'time': []}}, u'click': {u'state': {u'target': [u'9', u'1', u'5'], u'time': [7718, 8579, 9357]}, u'edge': {u'target': [], u'time': []}}, u'mouseout': {u'state': {u'target': [], u'time': []}, u'edge': {u'target': [], u'time': []}}}","[4, -8, -24]","[10162, 551, 83]",-31.0,"[None, None, None]","[u'', 4, -4, 24, 24, 4, 4, 48, -48, 4, -8, -24, 48]",256427,25.0,13113.0,8.69559053241e+18,mouselab-mdp,2
"[2797, 3569, 4564]","[u'right', u'right', u'up']",train_final,"[u'0', u'5', u'6', u'7']","{u'mouseover': {u'state': {u'target': [], u'time': []}, u'edge': {u'target': [], u'time': []}}, u'click': {u'state': {u'target': [u'5'], u'time': [1262]}, u'edge': {u'target': [], u'time': []}}, u'mouseout': {u'state': {u'target': [], u'time': []}, u'edge': {u'target': [], u'time': []}}}","[4, -4, 24]","[2792, 253, 479]",23.0,"[None, None, None]","[u'', 4, 4, 48, 24, 4, -4, 24, -48, -2, -8, -24, -48]",263205,26.0,5561.0,5.66248321882e+17,mouselab-mdp,2
"[433, 1066, 1673]","[u'right', u'right', u'up']",train_final,"[u'0', u'5', u'6', u'7']","{u'mouseover': {u'state': {u'target': [], u'time': []}, u'edge': {u'target': [], u'time': []}}, u'click': {u'state': {u'target': [], u'time': []}, u'edge': {u'target': [], u'time': []}}, u'mouseout': {u'state': {u'target': [], u'time': []}, u'edge': {u'target': [], u'time': []}}}","[4, 8, 48]","[427, 107, 98]",60.0,"[None, None, None]","[u'', -2, 8, 48, 24, 4, 8, 48, 48, -4, 4, 24, 24]",267131,27.0,2713.0,8.06716957541e+17,mouselab-mdp,2
"[347, 1010, 1904]","[u'left', u'left', u'down']",train_final,"[u'0', u'9', u'10', u'12']","{u'mouseover': {u'state': {u'target': [], u'time': []}, u'edge': {u'target': [], u'time': []}}, u'click': {u'state': {u'target': [], u'time': []}, u'edge': {u'target': [], u'time': []}}, u'mouseout': {u'state': {u'target': [], u'time': []}, u'edge': {u'target': [], u'time': []}}}","[2, -8, -48]","[342, 138, 371]",-54.0,"[None, None, None]","[u'', 2, -8, 24, 48, 4, 4, 48, 48, 2, -8, -48, -48]",271171,28.0,2845.0,7.00715418359e+18,mouselab-mdp,2
"[302, 920, 1510]","[u'right', u'right', u'up']",train_final,"[u'0', u'5', u'6', u'7']","{u'mouseover': {u'state': {u'target': [], u'time': []}, u'edge': {u'target': [], u'time': []}}, u'click': {u'state': {u'target': [], u'time': []}, u'edge': {u'target': [], u'time': []}}, u'mouseout': {u'state': {u'target': [], u'time': []}, u'edge': {u'target': [], u'time': []}}}","[-4, -8, 24]","[297, 91, 65]",12.0,"[None, None, None]","[u'', 2, 4, 24, 24, -4, -8, 24, 48, -4, -4, -24, -24]",275035,29.0,2668.0,7.79405771341e+17,mouselab-mdp,2
"[1186, 1774, 2798]","[u'up', u'up', u'left']",test,"[u'0', u'1', u'2', u'4']","{u'mouseover': {u'state': {u'target': [], u'time': []}, u'edge': {u'target': [], u'time': []}}, u'click': {u'state': {u'target': [], u'time': []}, u'edge': {u'target': [], u'time': []}}, u'mouseout': {u'state': {u'target': [], u'time': []}, u'edge': {u'target': [], u'time': []}}}","[-2, -8, 24]","[1180, 67, 506]",14.0,"[None, None, None]","[u'', -2, -8, 24, 24, 2, -4, 24, -48, -2, -4, -24, -48]",320306,30.0,9738.0,7.03712829593e+18,mouselab-mdp,2
"[1051, 1679, 2327]","[u'right', u'right', u'down']",test,"[u'0', u'5', u'6', u'8']","{u'mouseover': {u'state': {u'target': [], u'time': []}, u'edge': {u'target': [], u'time': []}}, u'click': {u'state': {u'target': [], u'time': []}, u'edge': {u'target': [], u'time': []}}, u'mouseout': {u'state': {u'target': [], u'time': []}, u'edge': {u'target': [], u'time': []}}}","[4, 8, -48]","[1044, 103, 134]",-36.0,"[None, None, None]","[u'', -2, -8, -24, 48, 4, 8, 48, -48, -4, -8, -24, -48]",330540,31.0,9057.0,-1.96643223462e+18,mouselab-mdp,2
"[350, 1047, 1615]","[u'left', u'left', u'up']",test,"[u'0', u'9', u'10', u'11']","{u'mouseover': {u'state': {u'target': [], u'time': []}, u'edge': {u'target': [], u'time': []}}, u'click': {u'state': {u'target': [], u'time': []}, u'edge': {u'target': [], u'time': []}}, u'mouseout': {u'state': {u'target': [], u'time': []}, u'edge': {u'target': [], u'time': []}}}","[-4, 8, -48]","[344, 175, 46]",-44.0,"[None, None, None]","[u'', -2, 4, 24, 24, -4, 8, 48, 24, -4, 8, -48, -24]",340706,32.0,8982.0,-3.12734207436e+18,mouselab-mdp,2
"[401, 1030, 1576]","[u'up', u'up', u'left']",test,"[u'0', u'1', u'2', u'4']","{u'mouseover': {u'state': {u'target': [], u'time': []}, u'edge': {u'target': [], u'time': []}}, u'click': {u'state': {u'target': [], u'time': []}, u'edge': {u'target': [], u'time': []}}, u'mouseout': {u'state': {u'target': [], u'time': []}, u'edge': {u'target': [], u'time': []}}}","[-2, 4, -48]","[395, 109, 22]",-46.0,"[None, None, None]","[u'', -2, 4, 24, -48, 4, 8, 48, -24, 2, -4, 24, 48]",353021,33.0,11017.0,2.91138569029e+18,mouselab-mdp,2
"[159, 778, 1374]","[u'right', u'right', u'up']",test,"[u'0', u'5', u'6', u'7']","{u'mouseover': {u'state': {u'target': [], u'time': []}, u'edge': {u'target': [], u'time': []}}, u'click': {u'state': {u'target': [], u'time': []}, u'edge': {u'target': [], u'time': []}}, u'mouseout': {u'state': {u'target': [], u'time': []}, u'edge': {u'target': [], u'time': []}}}","[-2, -8, -48]","[153, 103, 83]",-58.0,"[None, None, None]","[u'', -4, -8, -48, -48, -2, -8, -48, 48, -2, 4, -24, -24]",363112,34.0,8830.0,5.13027503751e+18,mouselab-mdp,2
"[313, 940, 1554]","[u'left', u'left', u'up']",test,"[u'0', u'9', u'10', u'11']","{u'mouseover': {u'state': {u'target': [], u'time': []}, u'edge': {u'target': [], u'time': []}}, u'click': {u'state': {u'target': [], u'time': []}, u'edge': {u'target': [], u'time': []}}, u'mouseout': {u'state': {u'target': [], u'time': []}, u'edge': {u'target': [], u'time': []}}}","[2, 8, -48]","[305, 102, 103]",-38.0,"[None, None, None]","[u'', -2, 8, 24, -48, 4, 4, -48, -24, 2, 8, -48, 48]",373648,35.0,9327.0,5.18817082972e+18,mouselab-mdp,2
"[591, 1256, 1908]","[u'left', u'left', u'up']",test,"[u'0', u'9', u'10', u'11']","{u'mouseover': {u'state': {u'target': [], u'time': []}, u'edge': {u'target': [], u'time': []}}, u'click': {u'state': {u'target': [], u'time': []}, u'edge': {u'target': [], u'time': []}}, u'mouseout': {u'state': {u'target': [], u'time': []}, u'edge': {u'target': [], u'time': []}}}","[-2, 4, 48]","[585, 134, 134]",50.0,"[None, None, None]","[u'', -4, 4, -48, -24, 4, 4, 24, -48, -2, 4, 48, -48]",384750,36.0,9916.0,-3.24188981823e+18,mouselab-mdp,2
"[453, 1101, 1937]","[u'right', u'right', u'down']",test,"[u'0', u'5', u'6', u'8']","{u'mouseover': {u'state': {u'target': [], u'time': []}, u'edge': {u'target': [], u'time': []}}, u'click': {u'state': {u'target': [], u'time': []}, u'edge': {u'target': [], u'time': []}}, u'mouseout': {u'state': {u'target': [], u'time': []}, u'edge': {u'target': [], u'time': []}}}","[4, 4, -24]","[447, 124, 313]",-16.0,"[None, None, None]","[u'', -4, -4, -48, 24, 4, 4, 48, -24, 4, -4, 48, 24]",394352,37.0,8420.0,1.51884547362e+18,mouselab-mdp,2
"[916, 1595, 2227]","[u'right', u'right', u'up']",test,"[u'0', u'5', u'6', u'7']","{u'mouseover': {u'state': {u'target': [], u'time': []}, u'edge': {u'target': [], u'time': []}}, u'click': {u'state': {u'target': [], u'time': []}, u'edge': {u'target': [], u'time': []}}, u'mouseout': {u'state': {u'target': [], u'time': []}, u'edge': {u'target': [], u'time': []}}}","[-2, 4, 48]","[911, 152, 118]",50.0,"[None, None, None]","[u'', 4, 4, -48, 24, -2, 4, 48, -24, 4, 4, -48, 48]",405115,38.0,9533.0,3.91110362788e+18,mouselab-mdp,2
"[492, 1288, 2396]","[u'up', u'up', u'right']",test,"[u'0', u'1', u'2', u'3']","{u'mouseover': {u'state': {u'target': [], u'time': []}, u'edge': {u'target': [], u'time': []}}, u'click': {u'state': {u'target': [], u'time': []}, u'edge': {u'target': [], u'time': []}}, u'mouseout': {u'state': {u'target': [], u'time': []}, u'edge': {u'target': [], u'time': []}}}","[2, -4, -48]","[487, 282, 586]",-50.0,"[None, None, None]","[u'', 2, -4, -48, -24, -2, -4, 48, -24, 4, 4, 48, -24]",414811,39.0,8496.0,7.5208296533e+18,mouselab-mdp,2
"[495, 1141, 1721]","[u'right', u'right', u'up']",test,"[u'0', u'5', u'6', u'7']","{u'mouseover': {u'state': {u'target': [], u'time': []}, u'edge': {u'target': [], u'time': []}}, u'click': {u'state': {u'target': [], u'time': []}, u'edge': {u'target': [], u'time': []}}, u'mouseout': {u'state': {u'target': [], u'time': []}, u'edge': {u'target': [], u'time': []}}}","[4, 4, 48]","[490, 125, 56]",56.0,"[None, None, None]","[u'', -2, -8, 48, 24, 4, 4, 48, 24, 2, -8, -24, -48]",425479,40.0,9474.0,-6.48073159306e+18,mouselab-mdp,2
"[447, 1359, 2004]","[u'right', u'right', u'down']",test,"[u'0', u'5', u'6', u'8']","{u'mouseover': {u'state': {u'target': [], u'time': []}, u'edge': {u'target': [], u'time': []}}, u'click': {u'state': {u'target': [], u'time': []}, u'edge': {u'target': [], u'time': []}}, u'mouseout': {u'state': {u'target': [], u'time': []}, u'edge': {u'target': [], u'time': []}}}","[4, 8, 24]","[443, 395, 122]",36.0,"[None, None, None]","[u'', -2, -4, 48, -48, 4, 8, 48, 24, 2, -4, -48, -24]",434677,41.0,8003.0,-6.80295122046e+18,mouselab-mdp,2
"[555, 1179, 1833]","[u'left', u'left', u'up']",test,"[u'0', u'9', u'10', u'11']","{u'mouseover': {u'state': {u'target': [], u'time': []}, u'edge': {u'target': [], u'time': []}}, u'click': {u'state': {u'target': [], u'time': []}, u'edge': {u'target': [], u'time': []}}, u'mouseout': {u'state': {u'target': [], u'time': []}, u'edge': {u'target': [], u'time': []}}}","[4, 8, -24]","[549, 103, 127]",-12.0,"[None, None, None]","[u'', -4, 8, 48, -24, -2, 8, -24, -48, 4, 8, -24, 48]",445463,42.0,9581.0,-3.25400642005e+18,mouselab-mdp,2
"[507, 1151, 1782]","[u'left', u'left', u'down']",test,"[u'0', u'9', u'10', u'12']","{u'mouseover': {u'state': {u'target': [], u'time': []}, u'edge': {u'target': [], u'time': []}}, u'click': {u'state': {u'target': [], u'time': []}, u'edge': {u'target': [], u'time': []}}, u'mouseout': {u'state': {u'target': [], u'time': []}, u'edge': {u'target': [], u'time': []}}}","[-4, 4, -48]","[497, 133, 64]",-48.0,"[None, None, None]","[u'', 2, -4, -48, 24, 2, 4, -48, 48, -4, 4, 48, -48]",456905,43.0,10236.0,5.29721708418e+18,mouselab-mdp,2
"[696, 1338, 1953]","[u'right', u'right', u'up']",test,"[u'0', u'5', u'6', u'7']","{u'mouseover': {u'state': {u'target': [], u'time': []}, u'edge': {u'target': [], u'time': []}}, u'click': {u'state': {u'target': [], u'time': []}, u'edge': {u'target': [], u'time': []}}, u'mouseout': {u'state': {u'target': [], u'time': []}, u'edge': {u'target': [], u'time': []}}}","[2, -8, -24]","[691, 118, 85]",-30.0,"[None, None, None]","[u'', 2, 4, -24, 48, 2, -8, -24, 48, 4, 4, 24, 24]",468764,44.0,10663.0,-1.66167139289e+18,mouselab-mdp,2
"[2366, 3037, 3631]","[u'right', u'right', u'up']",test,"[u'0', u'5', u'6', u'7']","{u'mouseover': {u'state': {u'target': [], u'time': []}, u'edge': {u'target': [], u'time': []}}, u'click': {u'state': {u'target': [u'9'], u'time': [1263]}, u'edge': {u'target': [], u'time': []}}, u'mouseout': {u'state': {u'target': [], u'time': []}, u'edge': {u'target': [], u'time': []}}}","[-2, -8, -48]","[2360, 150, 79]",-59.0,"[None, None, None]","[u'', -4, 8, 24, 24, -2, -8, -48, -24, -4, -8, 24, 24]",478488,45.0,8472.0,5.78229284889e+18,mouselab-mdp,2
"[786, 1409, 2169]","[u'right', u'right', u'down']",test,"[u'0', u'5', u'6', u'8']","{u'mouseover': {u'state': {u'target': [], u'time': []}, u'edge': {u'target': [], u'time': []}}, u'click': {u'state': {u'target': [], u'time': []}, u'edge': {u'target': [], u'time': []}}, u'mouseout': {u'state': {u'target': [], u'time': []}, u'edge': {u'target': [], u'time': []}}}","[4, -4, 24]","[781, 108, 237]",24.0,"[None, None, None]","[u'', 2, -8, 48, -48, 4, -4, 48, 24, 2, -8, -48, -48]",488407,46.0,8704.0,8.63855716523e+17,mouselab-mdp,2
"[1657, 2236, 3272]","[u'up', u'up', u'left']",test,"[u'0', u'1', u'2', u'4']","{u'mouseover': {u'state': {u'target': [], u'time': []}, u'edge': {u'target': [], u'time': []}}, u'click': {u'state': {u'target': [], u'time': []}, u'edge': {u'target': [], u'time': []}}, u'mouseout': {u'state': {u'target': [], u'time': []}, u'edge': {u'target': [], u'time': []}}}","[-2, 4, 48]","[1650, 58, 510]",50.0,"[None, None, None]","[u'', -2, 4, -24, 48, -2, 8, 48, 48, -2, -8, -48, -24]",497671,47.0,7980.0,-8.32032261455e+17,mouselab-mdp,2
"[1029, 1733, 2302]","[u'up', u'up', u'right']",test,"[u'0', u'1', u'2', u'3']","{u'mouseover': {u'state': {u'target': [], u'time': []}, u'edge': {u'target': [], u'time': []}}, u'click': {u'state': {u'target': [], u'time': []}, u'edge': {u'target': [], u'time': []}}, u'mouseout': {u'state': {u'target': [], u'time': []}, u'edge': {u'target': [], u'time': []}}}","[-2, 8, -24]","[1023, 145, 45]",-18.0,"[None, None, None]","[u'', -2, 8, -24, 48, 2, 4, -48, 48, -2, 4, -24, -48]",507260,48.0,8381.0,-6.59366688781e+18,mouselab-mdp,2
"[449, 1061, 1603]","[u'right', u'right', u'up']",test,"[u'0', u'5', u'6', u'7']","{u'mouseover': {u'state': {u'target': [], u'time': []}, u'edge': {u'target': [], u'time': []}}, u'click': {u'state': {u'target': [], u'time': []}, u'edge': {u'target': [], u'time': []}}, u'mouseout': {u'state': {u'target': [], u'time': []}, u'edge': {u'target': [], u'time': []}}}","[-4, -8, -48]","[445, 84, 31]",-60.0,"[None, None, None]","[u'', 4, 8, 48, 48, -4, -8, -48, 24, 4, 8, 24, 24]",517124,49.0,8527.0,-5.73655695109e+18,mouselab-mdp,2
"[415, 1020, 1642]","[u'right', u'right', u'up']",test,"[u'0', u'5', u'6', u'7']","{u'mouseover': {u'state': {u'target': [], u'time': []}, u'edge': {u'target': [], u'time': []}}, u'click': {u'state': {u'target': [], u'time': []}, u'edge': {u'target': [], u'time': []}}, u'mouseout': {u'state': {u'target': [], u'time': []}, u'edge': {u'target': [], u'time': []}}}","[2, -4, 48]","[409, 85, 108]",46.0,"[None, None, None]","[u'', -2, 8, -24, 48, 2, -4, 48, 24, -2, 8, -24, -24]",526607,50.0,8271.0,7.53059734346e+17,mouselab-mdp,2
"[693, 1336, 1928]","[u'right', u'right', u'down']",test,"[u'0', u'5', u'6', u'8']","{u'mouseover': {u'state': {u'target': [], u'time': []}, u'edge': {u'target': [], u'time': []}}, u'click': {u'state': {u'target': [], u'time': []}, u'edge': {u'target': [], u'time': []}}, u'mouseout': {u'state': {u'target': [], u'time': []}, u'edge': {u'target': [], u'time': []}}}","[4, 4, 48]","[685, 45, 63]",56.0,"[None, None, None]","[u'', 2, 8, -48, -48, 4, 4, -48, 48, 4, 8, 24, -48]",536954,51.0,9118.0,2.59484151302e+18,mouselab-mdp,2
"[541, 1178, 1959]","[u'right', u'right', u'down']",test,"[u'0', u'5', u'6', u'8']","{u'mouseover': {u'state': {u'target': [], u'time': []}, u'edge': {u'target': [], u'time': []}}, u'click': {u'state': {u'target': [], u'time': []}, u'edge': {u'target': [], u'time': []}}, u'mouseout': {u'state': {u'target': [], u'time': []}, u'edge': {u'target': [], u'time': []}}}","[-4, 4, -48]","[536, 111, 262]",-48.0,"[None, None, None]","[u'', -2, 8, 24, -48, -4, 4, -48, -48, -4, 8, 24, 48]",547831,52.0,9663.0,6.73604779987e+18,mouselab-mdp,2
"[97, 973, 1567]","[u'right', u'right', u'up']",test,"[u'0', u'5', u'6', u'7']","{u'mouseover': {u'state': {u'target': [], u'time': []}, u'edge': {u'target': [], u'time': []}}, u'click': {u'state': {u'target': [], u'time': []}, u'edge': {u'target': [], u'time': []}}, u'mouseout': {u'state': {u'target': [], u'time': []}, u'edge': {u'target': [], u'time': []}}}","[-2, 4, -48]","[89, 351, 75]",-46.0,"[None, None, None]","[u'', -2, 8, -24, -24, -2, 4, -48, 24, -4, -8, 48, -48]",557612,53.0,8518.0,5.44134319392e+18,mouselab-mdp,2
"[111, 896, 2134]","[u'right', u'right', u'up']",test,"[u'0', u'5', u'6', u'7']","{u'mouseover': {u'state': {u'target': [], u'time': []}, u'edge': {u'target': [], u'time': []}}, u'click': {u'state': {u'target': [], u'time': []}, u'edge': {u'target': [], u'time': []}}, u'mouseout': {u'state': {u'target': [], u'time': []}, u'edge': {u'target': [], u'time': []}}}","[2, -8, -48]","[106, 273, 595]",-54.0,"[None, None, None]","[u'', -2, 8, -24, 24, 2, -8, -48, -24, 4, -4, 48, -48]",567194,54.0,8351.0,-6.37305172053e+18,mouselab-mdp,2
"[628, 1248, 1912]","[u'right', u'right', u'down']",test,"[u'0', u'5', u'6', u'8']","{u'mouseover': {u'state': {u'target': [], u'time': []}, u'edge': {u'target': [], u'time': []}}, u'click': {u'state': {u'target': [], u'time': []}, u'edge': {u'target': [], u'time': []}}, u'mouseout': {u'state': {u'target': [], u'time': []}, u'edge': {u'target': [], u'time': []}}}","[4, 8, -24]","[623, 98, 146]",-12.0,"[None, None, None]","[u'', -4, -4, -24, 48, 4, 8, 24, -24, -2, 8, 24, 48]",577536,55.0,9136.0,-2.85119094507e+17,mouselab-mdp,2
"[382, 991, 1672]","[u'right', u'right', u'up']",test,"[u'0', u'5', u'6', u'7']","{u'mouseover': {u'state': {u'target': [], u'time': []}, u'edge': {u'target': [], u'time': []}}, u'click': {u'state': {u'target': [], u'time': []}, u'edge': {u'target': [], u'time': []}}, u'mouseout': {u'state': {u'target': [], u'time': []}, u'edge': {u'target': [], u'time': []}}}","[2, -4, -24]","[377, 100, 45]",-26.0,"[None, None, None]","[u'', 2, 4, 24, 48, 2, -4, -24, -48, -2, -8, 48, -48]",587027,56.0,8238.0,-7.08236592099e+18,mouselab-mdp,2
"[374, 973, 1559]","[u'right', u'right', u'down']",test,"[u'0', u'5', u'6', u'8']","{u'mouseover': {u'state': {u'target': [], u'time': []}, u'edge': {u'target': [], u'time': []}}, u'click': {u'state': {u'target': [], u'time': []}, u'edge': {u'target': [], u'time': []}}, u'mouseout': {u'state': {u'target': [], u'time': []}, u'edge': {u'target': [], u'time': []}}}","[4, -8, -48]","[369, 85, 70]",-52.0,"[None, None, None]","[u'', 2, -4, -24, -48, 4, -8, 48, -48, 2, -8, 48, -48]",597483,57.0,9274.0,2.73528446727e+18,mouselab-mdp,2
