action_times,actions,block,button_pressed,key_press,path,queries,responses,rewards,rt,score,simulation_mode,stimulus,time_elapsed,trial_index,trial_id,trial_type,pid
"[3925, 11904, 13147]","[u'up', u'up', u'right']",train_basic,,,"[0, 2, 6, 12]","{u'mouseover': {u'state': {u'target': [], u'time': []}, u'edge': {u'target': [], u'time': []}}, u'click': {u'state': {u'target': [], u'time': []}, u'edge': {u'target': [], u'time': []}}, u'mouseout': {u'state': {u'target': [], u'time': []}, u'edge': {u'target': [], u'time': []}}}",,"[-24, 8, 8]","[3920, 7463, 736]",-8.0,"[None, None, None]",,20163,0.0,93266.0,mouselab-mdp,0
"[5108, 5971, 7127]","[u'left', u'left', u'down']",train_basic,,,"[0, 3, 7, 14]","{u'mouseover': {u'state': {u'target': [], u'time': []}, u'edge': {u'target': [], u'time': []}}, u'click': {u'state': {u'target': [], u'time': []}, u'edge': {u'target': [], u'time': []}}, u'mouseout': {u'state': {u'target': [], u'time': []}, u'edge': {u'target': [], u'time': []}}}",,"[8, 40, -8]","[5105, 343, 652]",40.0,"[None, None, None]",,30325,1.0,8276.0,mouselab-mdp,0
"[5757, 6532, 7297]","[u'right', u'right', u'down']",train_basic,,,"[0, 1, 5, 10]","{u'mouseover': {u'state': {u'target': [], u'time': []}, u'edge': {u'target': [], u'time': []}}, u'click': {u'state': {u'target': [], u'time': []}, u'edge': {u'target': [], u'time': []}}, u'mouseout': {u'state': {u'target': [], u'time': []}, u'edge': {u'target': [], u'time': []}}}",,"[-24, 8, 40]","[5752, 269, 269]",24.0,"[None, None, None]",,40579,2.0,15650.0,mouselab-mdp,0
"[1513, 2208, 2950]","[u'down', u'down', u'left']",train_basic,,,"[0, 4, 8, 15]","{u'mouseover': {u'state': {u'target': [], u'time': []}, u'edge': {u'target': [], u'time': []}}, u'click': {u'state': {u'target': [], u'time': []}, u'edge': {u'target': [], u'time': []}}, u'mouseout': {u'state': {u'target': [], u'time': []}, u'edge': {u'target': [], u'time': []}}}",,"[-8, 8, 40]","[1510, 196, 238]",40.0,"[None, None, None]",,46453,3.0,11610.0,mouselab-mdp,0
"[1730, 2440, 3187]","[u'down', u'down', u'left']",train_basic,,,"[0, 4, 8, 15]","{u'mouseover': {u'state': {u'target': [], u'time': []}, u'edge': {u'target': [], u'time': []}}, u'click': {u'state': {u'target': [], u'time': []}, u'edge': {u'target': [], u'time': []}}, u'mouseout': {u'state': {u'target': [], u'time': []}, u'edge': {u'target': [], u'time': []}}}",,"[8, 8, 40]","[1727, 206, 253]",56.0,"[None, None, None]",,52396,4.0,99349.0,mouselab-mdp,0
"[1711, 3160, 4016]","[u'down', u'down', u'left']",train_basic,,,"[0, 4, 8, 15]","{u'mouseover': {u'state': {u'target': [], u'time': []}, u'edge': {u'target': [], u'time': []}}, u'click': {u'state': {u'target': [], u'time': []}, u'edge': {u'target': [], u'time': []}}, u'mouseout': {u'state': {u'target': [], u'time': []}, u'edge': {u'target': [], u'time': []}}}",,"[8, 8, 24]","[1709, 947, 355]",40.0,"[None, None, None]",,58697,5.0,15786.0,mouselab-mdp,0
"[2266, 3027, 3851]","[u'right', u'right', u'up']",train_basic,,,"[0, 1, 5, 9]","{u'mouseover': {u'state': {u'target': [], u'time': []}, u'edge': {u'target': [], u'time': []}}, u'click': {u'state': {u'target': [], u'time': []}, u'edge': {u'target': [], u'time': []}}, u'mouseout': {u'state': {u'target': [], u'time': []}, u'edge': {u'target': [], u'time': []}}}",,"[8, 24, 24]","[2263, 271, 324]",56.0,"[None, None, None]",,65596,6.0,78809.0,mouselab-mdp,0
"[2753, 3648, 4473]","[u'left', u'left', u'up']",train_basic,,,"[0, 3, 7, 13]","{u'mouseover': {u'state': {u'target': [], u'time': []}, u'edge': {u'target': [], u'time': []}}, u'click': {u'state': {u'target': [], u'time': []}, u'edge': {u'target': [], u'time': []}}, u'mouseout': {u'state': {u'target': [], u'time': []}, u'edge': {u'target': [], u'time': []}}}",,"[40, 40, 40]","[2750, 395, 323]",120.0,"[None, None, None]",,72334,7.0,21534.0,mouselab-mdp,0
"[4822, 5654, 6264]","[u'up', u'up', u'left']",train_basic,,,"[0, 2, 6, 11]","{u'mouseover': {u'state': {u'target': [], u'time': []}, u'edge': {u'target': [], u'time': []}}, u'click': {u'state': {u'target': [], u'time': []}, u'edge': {u'target': [], u'time': []}}, u'mouseout': {u'state': {u'target': [], u'time': []}, u'edge': {u'target': [], u'time': []}}}",,"[40, -8, 24]","[4818, 339, 115]",56.0,"[None, None, None]",,81234,8.0,14652.0,mouselab-mdp,0
"[6705, 7419, 8180]","[u'down', u'down', u'left']",train_basic,,,"[0, 4, 8, 15]","{u'mouseover': {u'state': {u'target': [], u'time': []}, u'edge': {u'target': [], u'time': []}}, u'click': {u'state': {u'target': [], u'time': []}, u'edge': {u'target': [], u'time': []}}, u'mouseout': {u'state': {u'target': [], u'time': []}, u'edge': {u'target': [], u'time': []}}}",,"[8, -8, 8]","[6703, 217, 261]",8.0,"[None, None, None]",,92310,9.0,93255.0,mouselab-mdp,0
"[6410, 7492, 8346]","[u'up', u'up', u'right']",train_hidden,,,"[0, 2, 6, 12]","{u'mouseover': {u'state': {u'target': [], u'time': []}, u'edge': {u'target': [], u'time': []}}, u'click': {u'state': {u'target': [], u'time': []}, u'edge': {u'target': [], u'time': []}}, u'mouseout': {u'state': {u'target': [], u'time': []}, u'edge': {u'target': [], u'time': []}}}",,"[8, 8, -8]","[6407, 565, 351]",8.0,"[None, None, None]",,105846,10.0,71953.0,mouselab-mdp,0
"[796, 2075, 2936]","[u'right', u'right', u'up']",train_hidden,,,"[0, 1, 5, 9]","{u'mouseover': {u'state': {u'target': [], u'time': []}, u'edge': {u'target': [], u'time': []}}, u'click': {u'state': {u'target': [], u'time': []}, u'edge': {u'target': [], u'time': []}}, u'mouseout': {u'state': {u'target': [], u'time': []}, u'edge': {u'target': [], u'time': []}}}",,"[-8, -40, -24]","[793, 772, 353]",-72.0,"[None, None, None]",,111649,11.0,67888.0,mouselab-mdp,0
"[561, 4073, 4697]","[u'down', u'down', u'right']",train_hidden,,,"[0, 4, 8, 16]","{u'mouseover': {u'state': {u'target': [], u'time': []}, u'edge': {u'target': [], u'time': []}}, u'click': {u'state': {u'target': [], u'time': []}, u'edge': {u'target': [], u'time': []}}, u'mouseout': {u'state': {u'target': [], u'time': []}, u'edge': {u'target': [], u'time': []}}}",,"[-8, -24, -40]","[558, 3007, 115]",-72.0,"[None, None, None]",,118931,12.0,94978.0,mouselab-mdp,0
"[580, 1459, 2378]","[u'left', u'left', u'down']",train_hidden,,,"[0, 3, 7, 14]","{u'mouseover': {u'state': {u'target': [], u'time': []}, u'edge': {u'target': [], u'time': []}}, u'click': {u'state': {u'target': [], u'time': []}, u'edge': {u'target': [], u'time': []}}, u'mouseout': {u'state': {u'target': [], u'time': []}, u'edge': {u'target': [], u'time': []}}}",,"[-24, -40, 8]","[577, 373, 424]",-56.0,"[None, None, None]",,124183,13.0,70142.0,mouselab-mdp,0
"[623, 1496, 2282]","[u'left', u'left', u'up']",train_hidden,,,"[0, 3, 7, 13]","{u'mouseover': {u'state': {u'target': [], u'time': []}, u'edge': {u'target': [], u'time': []}}, u'click': {u'state': {u'target': [], u'time': []}, u'edge': {u'target': [], u'time': []}}, u'mouseout': {u'state': {u'target': [], u'time': []}, u'edge': {u'target': [], u'time': []}}}",,"[-40, 8, 8]","[620, 365, 287]",-24.0,"[None, None, None]",,129018,14.0,10251.0,mouselab-mdp,0
"[16568, 17340, 18334]","[u'down', u'down', u'right']",train_inspector,,,"[0, 4, 8, 16]","{u'mouseover': {u'state': {u'target': [], u'time': []}, u'edge': {u'target': [], u'time': []}}, u'click': {u'state': {u'target': [u'2', u'1', u'4'], u'time': [12452, 13571, 15246]}, u'edge': {u'target': [], u'time': []}}, u'mouseout': {u'state': {u'target': [], u'time': []}, u'edge': {u'target': [], u'time': []}}}",,"[24, -24, 8]","[16565, 278, 485]",8.0,"[None, None, None]",,152526,15.0,55918.0,mouselab-mdp,0
"[7705, 8418, 9451]","[u'down', u'down', u'left']",train_inspector,,,"[0, 4, 8, 15]","{u'mouseover': {u'state': {u'target': [], u'time': []}, u'edge': {u'target': [], u'time': []}}, u'click': {u'state': {u'target': [u'3', u'4', u'1'], u'time': [1846, 2849, 6666]}, u'edge': {u'target': [], u'time': []}}, u'mouseout': {u'state': {u'target': [], u'time': []}, u'edge': {u'target': [], u'time': []}}}",,"[24, 8, -8]","[7702, 216, 533]",24.0,"[None, None, None]",,165165,16.0,22345.0,mouselab-mdp,0
"[4406, 5250, 6132]","[u'up', u'up', u'left']",train_inspector,,,"[0, 2, 6, 11]","{u'mouseover': {u'state': {u'target': [], u'time': []}, u'edge': {u'target': [], u'time': []}}, u'click': {u'state': {u'target': [u'4', u'2', u'1'], u'time': [961, 1880, 3034]}, u'edge': {u'target': [], u'time': []}}, u'mouseout': {u'state': {u'target': [], u'time': []}, u'edge': {u'target': [], u'time': []}}}",,"[24, -8, 24]","[4403, 330, 383]",40.0,"[None, None, None]",,175566,17.0,88394.0,mouselab-mdp,0
"[4569, 5222, 6156]","[u'down', u'down', u'right']",train_inspector,,,"[0, 4, 8, 16]","{u'mouseover': {u'state': {u'target': [], u'time': []}, u'edge': {u'target': [], u'time': []}}, u'click': {u'state': {u'target': [u'1', u'3', u'4'], u'time': [1436, 2668, 3503]}, u'edge': {u'target': [], u'time': []}}, u'mouseout': {u'state': {u'target': [], u'time': []}, u'edge': {u'target': [], u'time': []}}}",,"[8, 8, 24]","[4566, 139, 406]",40.0,"[None, None, None]",,185320,18.0,3614.0,mouselab-mdp,0
"[8643, 9370, 10306]","[u'right', u'right', u'down']",train_inspector,,,"[0, 1, 5, 10]","{u'mouseover': {u'state': {u'target': [], u'time': []}, u'edge': {u'target': [], u'time': []}}, u'click': {u'state': {u'target': [u'4', u'3', u'1'], u'time': [3512, 6136, 7532]}, u'edge': {u'target': [], u'time': []}}, u'mouseout': {u'state': {u'target': [], u'time': []}, u'edge': {u'target': [], u'time': []}}}",,"[40, -24, -40]","[8640, 209, 427]",-24.0,"[None, None, None]",,199513,19.0,51696.0,mouselab-mdp,0
"[17662, 18410, 19309]","[u'right', u'right', u'up']",train_inspect_cost,,,"[0, 1, 5, 9]","{u'mouseover': {u'state': {u'target': [], u'time': []}, u'edge': {u'target': [], u'time': []}}, u'click': {u'state': {u'target': [u'2', u'4', u'1', u'3', u'5'], u'time': [6093, 9930, 11812, 14660, 16287]}, u'edge': {u'target': [], u'time': []}}, u'mouseout': {u'state': {u'target': [], u'time': []}, u'edge': {u'target': [], u'time': []}}}",,"[8, 24, 8]","[17659, 232, 397]",35.0,"[None, None, None]",,224400,20.0,50394.0,mouselab-mdp,0
"[11806, 12413, 13123]","[u'left', u'left', u'up']",train_inspect_cost,,,"[0, 3, 7, 13]","{u'mouseover': {u'state': {u'target': [], u'time': []}, u'edge': {u'target': [], u'time': []}}, u'click': {u'state': {u'target': [u'1', u'5', u'4', u'3', u'8', u'2', u'6', u'7'], u'time': [1163, 3589, 4955, 6049, 6932, 9010, 9798, 10631]}, u'edge': {u'target': [], u'time': []}}, u'mouseout': {u'state': {u'target': [], u'time': []}, u'edge': {u'target': [], u'time': []}}}",,"[-8, 8, -24]","[11803, 94, 207]",-32.0,"[None, None, None]",,240661,21.0,50069.0,mouselab-mdp,0
"[6552, 7289, 7992]","[u'down', u'down', u'right']",train_inspect_cost,,,"[0, 4, 8, 16]","{u'mouseover': {u'state': {u'target': [], u'time': []}, u'edge': {u'target': [], u'time': []}}, u'click': {u'state': {u'target': [u'2', u'3', u'4', u'8'], u'time': [1159, 2079, 2953, 5381]}, u'edge': {u'target': [], u'time': []}}, u'mouseout': {u'state': {u'target': [], u'time': []}, u'edge': {u'target': [], u'time': []}}}",,"[24, 8, -8]","[6548, 217, 187]",20.0,"[None, None, None]",,252002,22.0,91720.0,mouselab-mdp,0
"[11580, 12221, 13082]","[u'up', u'up', u'right']",train_inspect_cost,,,"[0, 2, 6, 12]","{u'mouseover': {u'state': {u'target': [], u'time': []}, u'edge': {u'target': [], u'time': []}}, u'click': {u'state': {u'target': [u'4', u'2', u'1', u'3', u'8', u'7', u'5', u'6'], u'time': [1200, 2452, 3340, 4240, 5872, 6949, 8026, 10533]}, u'edge': {u'target': [], u'time': []}}, u'mouseout': {u'state': {u'target': [], u'time': []}, u'edge': {u'target': [], u'time': []}}}",,"[-24, 40, -8]","[11578, 96, 362]",0.0,"[None, None, None]",,268687,23.0,67510.0,mouselab-mdp,0
"[8856, 9464, 10075]","[u'up', u'up', u'right']",train_inspect_cost,,,"[0, 2, 6, 12]","{u'mouseover': {u'state': {u'target': [], u'time': []}, u'edge': {u'target': [], u'time': []}}, u'click': {u'state': {u'target': [u'2', u'4', u'1', u'5', u'6', u'3', u'12'], u'time': [1323, 2422, 4029, 4741, 5647, 6473, 7519]}, u'edge': {u'target': [], u'time': []}}, u'mouseout': {u'state': {u'target': [], u'time': []}, u'edge': {u'target': [], u'time': []}}}",,"[8, 8, 8]","[8853, 97, 108]",17.0,"[None, None, None]",,281321,24.0,58632.0,mouselab-mdp,0
"[17895, 18574, 19306]","[u'down', u'down', u'right']",train_final,,,"[0, 4, 8, 16]","{u'mouseover': {u'state': {u'target': [], u'time': []}, u'edge': {u'target': [], u'time': []}}, u'click': {u'state': {u'target': [u'2', u'1', u'4', u'8', u'16'], u'time': [11985, 14206, 15141, 15965, 16814]}, u'edge': {u'target': [], u'time': []}}, u'mouseout': {u'state': {u'target': [], u'time': []}, u'edge': {u'target': [], u'time': []}}}",,"[40, -24, 24]","[17892, 172, 232]",35.0,"[None, None, None]",,306155,25.0,13923.0,mouselab-mdp,0
"[11855, 12553, 17433]","[u'down', u'down', u'left']",train_final,,,"[0, 4, 8, 15]","{u'mouseover': {u'state': {u'target': [], u'time': []}, u'edge': {u'target': [], u'time': []}}, u'click': {u'state': {u'target': [u'4', u'2', u'3', u'5', u'8'], u'time': [4313, 6308, 7176, 9276, 10828]}, u'edge': {u'target': [], u'time': []}}, u'mouseout': {u'state': {u'target': [], u'time': []}, u'edge': {u'target': [], u'time': []}}}",,"[-8, 24, 24]","[11853, 184, 4358]",35.0,"[None, None, None]",,327134,26.0,72270.0,mouselab-mdp,0
"[6315, 7096, 7869]","[u'down', u'down', u'right']",train_final,,,"[0, 4, 8, 16]","{u'mouseover': {u'state': {u'target': [], u'time': []}, u'edge': {u'target': [], u'time': []}}, u'click': {u'state': {u'target': [u'4', u'8'], u'time': [1666, 4979]}, u'edge': {u'target': [], u'time': []}}, u'mouseout': {u'state': {u'target': [], u'time': []}, u'edge': {u'target': [], u'time': []}}}",,"[40, 8, 40]","[6313, 269, 259]",86.0,"[None, None, None]",,340993,27.0,10226.0,mouselab-mdp,0
"[12052, 12850, 13537]","[u'up', u'up', u'right']",train_final,,,"[0, 2, 6, 12]","{u'mouseover': {u'state': {u'target': [], u'time': []}, u'edge': {u'target': [], u'time': []}}, u'click': {u'state': {u'target': [u'4', u'3', u'2', u'1', u'6'], u'time': [2300, 3648, 4908, 9010, 10977]}, u'edge': {u'target': [], u'time': []}}, u'mouseout': {u'state': {u'target': [], u'time': []}, u'edge': {u'target': [], u'time': []}}}",,"[-8, 24, 8]","[12049, 285, 163]",19.0,"[None, None, None]",,357676,28.0,73552.0,mouselab-mdp,0
"[7067, 7704, 8546]","[u'up', u'up', u'right']",train_final,,,"[0, 2, 6, 12]","{u'mouseover': {u'state': {u'target': [], u'time': []}, u'edge': {u'target': [], u'time': []}}, u'click': {u'state': {u'target': [u'2', u'4', u'3', u'1', u'6'], u'time': [1515, 2966, 4097, 5215, 6049]}, u'edge': {u'target': [], u'time': []}}, u'mouseout': {u'state': {u'target': [], u'time': []}, u'edge': {u'target': [], u'time': []}}}",,"[24, 40, -40]","[7066, 111, 336]",19.0,"[None, None, None]",,369230,29.0,48182.0,mouselab-mdp,0
"[20276, 21075, 21822]","[u'right', u'right', u'down']",test,,,"[0, 1, 5, 10]","{u'mouseover': {u'state': {u'target': [], u'time': []}, u'edge': {u'target': [], u'time': []}}, u'click': {u'state': {u'target': [u'2', u'4', u'3', u'1', u'8', u'16', u'5', u'9', u'10'], u'time': [3373, 7144, 8798, 10415, 12410, 14576, 15731, 17833, 19080]}, u'edge': {u'target': [], u'time': []}}, u'mouseout': {u'state': {u'target': [], u'time': []}, u'edge': {u'target': [], u'time': []}}}",,"[24, 24, 8]","[20274, 268, 232]",47.0,"[None, None, None]",,398636,30.0,78048.0,mouselab-mdp,0
"[6646, 7249, 7902]","[u'up', u'up', u'left']",test,,,"[0, 2, 6, 11]","{u'mouseover': {u'state': {u'target': [], u'time': []}, u'edge': {u'target': [], u'time': []}}, u'click': {u'state': {u'target': [u'2', u'6', u'12', u'11'], u'time': [1113, 2720, 4037, 5513]}, u'edge': {u'target': [], u'time': []}}, u'mouseout': {u'state': {u'target': [], u'time': []}, u'edge': {u'target': [], u'time': []}}}",,"[40, 8, 8]","[6644, 89, 142]",52.0,"[None, None, None]",,409137,31.0,40650.0,mouselab-mdp,0
"[6369, 7037, 7785]","[u'down', u'down', u'right']",test,,,"[0, 4, 8, 16]","{u'mouseover': {u'state': {u'target': [], u'time': []}, u'edge': {u'target': [], u'time': []}}, u'click': {u'state': {u'target': [u'2', u'4', u'8', u'16'], u'time': [1085, 2025, 3589, 5315]}, u'edge': {u'target': [], u'time': []}}, u'mouseout': {u'state': {u'target': [], u'time': []}, u'edge': {u'target': [], u'time': []}}}",,"[40, 8, 8]","[6366, 149, 227]",52.0,"[None, None, None]",,424509,32.0,59851.0,mouselab-mdp,0
"[4729, 5382, 6077]","[u'up', u'up', u'right']",test,,,"[0, 2, 6, 12]","{u'mouseover': {u'state': {u'target': [], u'time': []}, u'edge': {u'target': [], u'time': []}}, u'click': {u'state': {u'target': [u'2', u'4', u'6', u'12'], u'time': [1109, 2064, 3102, 3821]}, u'edge': {u'target': [], u'time': []}}, u'mouseout': {u'state': {u'target': [], u'time': []}, u'edge': {u'target': [], u'time': []}}}",,"[24, 40, 24]","[4725, 135, 201]",84.0,"[None, None, None]",,433598,33.0,95300.0,mouselab-mdp,0
"[15846, 16662, 17433]","[u'left', u'left', u'up']",test,,,"[0, 3, 7, 13]","{u'mouseover': {u'state': {u'target': [], u'time': []}, u'edge': {u'target': [], u'time': []}}, u'click': {u'state': {u'target': [u'2', u'6', u'4', u'1', u'3', u'7', u'13'], u'time': [1064, 2850, 5894, 7612, 9356, 12226, 14553]}, u'edge': {u'target': [], u'time': []}}, u'mouseout': {u'state': {u'target': [], u'time': []}, u'edge': {u'target': [], u'time': []}}}",,"[40, 8, 40]","[15843, 305, 273]",81.0,"[None, None, None]",,453863,34.0,87720.0,mouselab-mdp,0
"[11013, 11616, 12293]","[u'left', u'left', u'up']",test,,,"[0, 3, 7, 13]","{u'mouseover': {u'state': {u'target': [], u'time': []}, u'edge': {u'target': [], u'time': []}}, u'click': {u'state': {u'target': [u'3', u'1', u'7', u'14', u'13'], u'time': [2921, 4908, 6465, 8199, 10009]}, u'edge': {u'target': [], u'time': []}}, u'mouseout': {u'state': {u'target': [], u'time': []}, u'edge': {u'target': [], u'time': []}}}",,"[24, 8, 8]","[11012, 91, 167]",35.0,"[None, None, None]",,469103,35.0,75860.0,mouselab-mdp,0
"[14038, 14619, 15471]","[u'left', u'left', u'down']",test,,,"[0, 3, 7, 14]","{u'mouseover': {u'state': {u'target': [], u'time': []}, u'edge': {u'target': [], u'time': []}}, u'click': {u'state': {u'target': [u'2', u'6', u'4', u'8', u'1', u'3', u'7', u'14', u'13'], u'time': [2815, 4008, 5188, 6014, 7888, 9074, 9872, 11136, 12142]}, u'edge': {u'target': [], u'time': []}}, u'mouseout': {u'state': {u'target': [], u'time': []}, u'edge': {u'target': [], u'time': []}}}",,"[40, 8, -8]","[14035, 65, 349]",31.0,"[None, None, None]",,487383,36.0,77021.0,mouselab-mdp,0
"[6738, 7280, 7885]","[u'up', u'up', u'right']",test,,,"[0, 2, 6, 12]","{u'mouseover': {u'state': {u'target': [], u'time': []}, u'edge': {u'target': [], u'time': []}}, u'click': {u'state': {u'target': [u'2', u'6', u'12'], u'time': [3133, 4097, 5431]}, u'edge': {u'target': [], u'time': []}}, u'mouseout': {u'state': {u'target': [], u'time': []}, u'edge': {u'target': [], u'time': []}}}",,"[8, 24, 8]","[6735, 32, 84]",37.0,"[None, None, None]",,497482,37.0,68187.0,mouselab-mdp,0
"[11013, 11584, 12215]","[u'left', u'left', u'down']",test,,,"[0, 3, 7, 14]","{u'mouseover': {u'state': {u'target': [], u'time': []}, u'edge': {u'target': [], u'time': []}}, u'click': {u'state': {u'target': [u'1', u'3', u'4', u'2', u'7', u'8', u'6', u'14'], u'time': [1019, 2040, 2937, 5029, 5939, 7043, 8105, 9815]}, u'edge': {u'target': [], u'time': []}}, u'mouseout': {u'state': {u'target': [], u'time': []}, u'edge': {u'target': [], u'time': []}}}",,"[24, 8, 24]","[11009, 55, 124]",48.0,"[None, None, None]",,512917,38.0,23611.0,mouselab-mdp,0
"[16499, 17184, 17803]","[u'down', u'down', u'right']",test,,,"[0, 4, 8, 16]","{u'mouseover': {u'state': {u'target': [], u'time': []}, u'edge': {u'target': [], u'time': []}}, u'click': {u'state': {u'target': [u'2', u'4', u'8', u'6', u'1', u'3', u'7', u'5', u'16'], u'time': [884, 4049, 5563, 7296, 8943, 10578, 11481, 13191, 15009]}, u'edge': {u'target': [], u'time': []}}, u'mouseout': {u'state': {u'target': [], u'time': []}, u'edge': {u'target': [], u'time': []}}}",,"[-8, -8, 24]","[16496, 161, 96]",-1.0,"[None, None, None]",,532838,39.0,47043.0,mouselab-mdp,0
"[9000, 9527, 10082]","[u'up', u'up', u'right']",test,,,"[0, 2, 6, 12]","{u'mouseover': {u'state': {u'target': [], u'time': []}, u'edge': {u'target': [], u'time': []}}, u'click': {u'state': {u'target': [u'4', u'2', u'8', u'6', u'12'], u'time': [1453, 3460, 5122, 6910, 8012]}, u'edge': {u'target': [], u'time': []}}, u'mouseout': {u'state': {u'target': [], u'time': []}, u'edge': {u'target': [], u'time': []}}}",,"[8, 24, 8]","[8997, 4, 25]",35.0,"[None, None, None]",,545404,40.0,40776.0,mouselab-mdp,0
"[12788, 13433, 14182]","[u'right', u'right', u'up']",test,,,"[0, 1, 5, 9]","{u'mouseover': {u'state': {u'target': [], u'time': []}, u'edge': {u'target': [], u'time': []}}, u'click': {u'state': {u'target': [u'2', u'4', u'1', u'3', u'5', u'10', u'9'], u'time': [1535, 2824, 4056, 5073, 6492, 9154, 10840]}, u'edge': {u'target': [], u'time': []}}, u'mouseout': {u'state': {u'target': [], u'time': []}, u'edge': {u'target': [], u'time': []}}}",,"[8, -8, 8]","[12785, 122, 237]",1.0,"[None, None, None]",,561930,41.0,33716.0,mouselab-mdp,0
"[17450, 18099, 18782]","[u'left', u'left', u'up']",test,,,"[0, 3, 7, 13]","{u'mouseover': {u'state': {u'target': [], u'time': []}, u'edge': {u'target': [], u'time': []}}, u'click': {u'state': {u'target': [u'1', u'4', u'3', u'2', u'7', u'13', u'14', u'8', u'15'], u'time': [1954, 3702, 4794, 5982, 7128, 9535, 10688, 11884, 13882]}, u'edge': {u'target': [], u'time': []}}, u'mouseout': {u'state': {u'target': [], u'time': []}, u'edge': {u'target': [], u'time': []}}}",,"[8, -8, 8]","[17447, 125, 159]",-1.0,"[None, None, None]",,583143,42.0,29185.0,mouselab-mdp,0
"[8681, 9285, 9981]","[u'left', u'left', u'down']",test,,,"[0, 3, 7, 14]","{u'mouseover': {u'state': {u'target': [], u'time': []}, u'edge': {u'target': [], u'time': []}}, u'click': {u'state': {u'target': [u'2', u'4', u'3', u'1', u'7', u'14'], u'time': [1362, 2413, 3943, 5403, 6418, 7589]}, u'edge': {u'target': [], u'time': []}}, u'mouseout': {u'state': {u'target': [], u'time': []}, u'edge': {u'target': [], u'time': []}}}",,"[24, 24, 40]","[8678, 92, 200]",82.0,"[None, None, None]",,595544,43.0,52018.0,mouselab-mdp,0
"[6959, 7621, 8324]","[u'right', u'right', u'up']",test,,,"[0, 1, 5, 9]","{u'mouseover': {u'state': {u'target': [], u'time': []}, u'edge': {u'target': [], u'time': []}}, u'click': {u'state': {u'target': [u'3', u'1', u'5', u'9'], u'time': [1613, 2634, 3480, 5852]}, u'edge': {u'target': [], u'time': []}}, u'mouseout': {u'state': {u'target': [], u'time': []}, u'edge': {u'target': [], u'time': []}}}",,"[24, 8, 8]","[6956, 144, 183]",36.0,"[None, None, None]",,605978,44.0,91473.0,mouselab-mdp,0
"[24822, 25446, 26160]","[u'left', u'left', u'up']",test,,,"[0, 3, 7, 13]","{u'mouseover': {u'state': {u'target': [], u'time': []}, u'edge': {u'target': [], u'time': []}}, u'click': {u'state': {u'target': [u'1', u'4', u'2', u'3', u'6', u'8', u'16', u'5', u'7', u'13', u'14', u'12', u'11', u'10', u'9'], u'time': [1387, 2300, 3468, 4304, 6418, 8853, 9775, 11289, 12430, 14075, 15489, 16667, 17675, 21951, 22953]}, u'edge': {u'target': [], u'time': []}}, u'mouseout': {u'state': {u'target': [], u'time': []}, u'edge': {u'target': [], u'time': []}}}",,"[-24, 24, 8]","[24819, 105, 188]",-7.0,"[None, None, None]",,635132,45.0,47814.0,mouselab-mdp,0
"[24564, 25134, 25651]","[u'up', u'up', u'right']",test,,,"[0, 2, 6, 12]","{u'mouseover': {u'state': {u'target': [], u'time': []}, u'edge': {u'target': [], u'time': []}}, u'click': {u'state': {u'target': [u'2', u'6', u'12', u'11', u'4', u'1'], u'time': [16539, 18167, 18948, 19829, 21117, 23113]}, u'edge': {u'target': [], u'time': []}}, u'mouseout': {u'state': {u'target': [], u'time': []}, u'edge': {u'target': [], u'time': []}}}",,"[40, 8, -8]","[24562, 51, 3]",34.0,"[None, None, None]",,662835,46.0,80850.0,mouselab-mdp,0
"[6407, 6970, 7578]","[u'right', u'right', u'down']",test,,,"[0, 1, 5, 10]","{u'mouseover': {u'state': {u'target': [], u'time': []}, u'edge': {u'target': [], u'time': []}}, u'click': {u'state': {u'target': [u'2', u'6', u'4', u'1', u'5', u'10'], u'time': [1092, 1902, 2980, 3839, 4604, 5400]}, u'edge': {u'target': [], u'time': []}}, u'mouseout': {u'state': {u'target': [], u'time': []}, u'edge': {u'target': [], u'time': []}}}",,"[8, 24, 24]","[6404, 40, 98]",50.0,"[None, None, None]",,673501,47.0,79718.0,mouselab-mdp,0
"[28484, 29159, 29830]","[u'left', u'left', u'down']",test,,,"[0, 3, 7, 14]","{u'mouseover': {u'state': {u'target': [], u'time': []}, u'edge': {u'target': [], u'time': []}}, u'click': {u'state': {u'target': [u'4', u'1', u'2', u'3', u'6', u'12', u'11', u'8', u'15', u'16', u'5', u'9', u'10', u'13', u'7', u'14'], u'time': [1156, 4612, 6174, 7032, 8210, 9662, 11012, 12278, 13964, 15822, 17078, 18009, 19139, 20755, 22200, 23666]}, u'edge': {u'target': [], u'time': []}}, u'mouseout': {u'state': {u'target': [], u'time': []}, u'edge': {u'target': [], u'time': []}}}",,"[-40, 8, 8]","[28481, 167, 152]",-40.0,"[None, None, None]",,705470,48.0,44058.0,mouselab-mdp,0
"[5904, 6544, 7126]","[u'up', u'up', u'right']",test,,,"[0, 2, 6, 12]","{u'mouseover': {u'state': {u'target': [], u'time': []}, u'edge': {u'target': [], u'time': []}}, u'click': {u'state': {u'target': [u'2', u'4', u'6', u'12'], u'time': [1189, 2038, 3981, 4817]}, u'edge': {u'target': [], u'time': []}}, u'mouseout': {u'state': {u'target': [], u'time': []}, u'edge': {u'target': [], u'time': []}}}",,"[40, 40, 24]","[5900, 117, 65]",100.0,"[None, None, None]",,714991,49.0,38598.0,mouselab-mdp,0
"[3579, 6380, 9204]","[u'right', u'right', u'up']",train_basic,,,"[0, 1, 5, 9]","{u'mouseover': {u'state': {u'target': [], u'time': []}, u'edge': {u'target': [], u'time': []}}, u'click': {u'state': {u'target': [], u'time': []}, u'edge': {u'target': [], u'time': []}}, u'mouseout': {u'state': {u'target': [], u'time': []}, u'edge': {u'target': [], u'time': []}}}",,"[-24, 8, 24]","[3567, 2256, 2284]",8.0,"[None, None, None]",,12822,0.0,13428.0,mouselab-mdp,1
"[2046, 4536, 5391]","[u'down', u'down', u'right']",train_basic,,,"[0, 4, 8, 16]","{u'mouseover': {u'state': {u'target': [], u'time': []}, u'edge': {u'target': [], u'time': []}}, u'click': {u'state': {u'target': [], u'time': []}, u'edge': {u'target': [], u'time': []}}, u'mouseout': {u'state': {u'target': [], u'time': []}, u'edge': {u'target': [], u'time': []}}}",,"[8, 8, 8]","[2038, 1945, 317]",24.0,"[None, None, None]",,21717,1.0,38073.0,mouselab-mdp,1
"[7860, 8945, 10549]","[u'down', u'down', u'left']",train_basic,,,"[0, 4, 8, 15]","{u'mouseover': {u'state': {u'target': [], u'time': []}, u'edge': {u'target': [], u'time': []}}, u'click': {u'state': {u'target': [], u'time': []}, u'edge': {u'target': [], u'time': []}}, u'mouseout': {u'state': {u'target': [], u'time': []}, u'edge': {u'target': [], u'time': []}}}",,"[24, 8, 24]","[7848, 542, 1066]",56.0,"[None, None, None]",,36614,2.0,47236.0,mouselab-mdp,1
"[10958, 13083, 13800]","[u'down', u'down', u'right']",train_basic,,,"[0, 4, 8, 16]","{u'mouseover': {u'state': {u'target': [], u'time': []}, u'edge': {u'target': [], u'time': []}}, u'click': {u'state': {u'target': [], u'time': []}, u'edge': {u'target': [], u'time': []}}, u'mouseout': {u'state': {u'target': [], u'time': []}, u'edge': {u'target': [], u'time': []}}}",,"[-8, 8, 24]","[10947, 1596, 159]",24.0,"[None, None, None]",,53722,3.0,5938.0,mouselab-mdp,1
"[1253, 2376, 3366]","[u'up', u'up', u'left']",train_basic,,,"[0, 2, 6, 11]","{u'mouseover': {u'state': {u'target': [], u'time': []}, u'edge': {u'target': [], u'time': []}}, u'click': {u'state': {u'target': [], u'time': []}, u'edge': {u'target': [], u'time': []}}, u'mouseout': {u'state': {u'target': [], u'time': []}, u'edge': {u'target': [], u'time': []}}}",,"[24, 24, 40]","[1247, 584, 458]",88.0,"[None, None, None]",,60366,4.0,50417.0,mouselab-mdp,1
"[4447, 5603, 6720]","[u'down', u'down', u'right']",train_basic,,,"[0, 4, 8, 16]","{u'mouseover': {u'state': {u'target': [], u'time': []}, u'edge': {u'target': [], u'time': []}}, u'click': {u'state': {u'target': [], u'time': []}, u'edge': {u'target': [], u'time': []}}, u'mouseout': {u'state': {u'target': [], u'time': []}, u'edge': {u'target': [], u'time': []}}}",,"[24, -8, 8]","[4438, 600, 577]",24.0,"[None, None, None]",,71053,5.0,39294.0,mouselab-mdp,1
"[2671, 3747, 4534]","[u'up', u'up', u'right']",train_basic,,,"[0, 2, 6, 12]","{u'mouseover': {u'state': {u'target': [], u'time': []}, u'edge': {u'target': [], u'time': []}}, u'click': {u'state': {u'target': [], u'time': []}, u'edge': {u'target': [], u'time': []}}, u'mouseout': {u'state': {u'target': [], u'time': []}, u'edge': {u'target': [], u'time': []}}}",,"[8, 24, 8]","[2661, 542, 246]",40.0,"[None, None, None]",,78938,6.0,38609.0,mouselab-mdp,1
"[5897, 6968, 7818]","[u'right', u'right', u'up']",train_basic,,,"[0, 1, 5, 9]","{u'mouseover': {u'state': {u'target': [], u'time': []}, u'edge': {u'target': [], u'time': []}}, u'click': {u'state': {u'target': [], u'time': []}, u'edge': {u'target': [], u'time': []}}, u'mouseout': {u'state': {u'target': [], u'time': []}, u'edge': {u'target': [], u'time': []}}}",,"[-8, 8, 8]","[5890, 528, 309]",8.0,"[None, None, None]",,91422,7.0,10175.0,mouselab-mdp,1
"[3768, 4323, 5072]","[u'up', u'up', u'left']",train_basic,,,"[0, 2, 6, 11]","{u'mouseover': {u'state': {u'target': [], u'time': []}, u'edge': {u'target': [], u'time': []}}, u'click': {u'state': {u'target': [], u'time': []}, u'edge': {u'target': [], u'time': []}}, u'mouseout': {u'state': {u'target': [], u'time': []}, u'edge': {u'target': [], u'time': []}}}",,"[24, -8, 40]","[3760, 14, 214]",56.0,"[None, None, None]",,99551,8.0,49160.0,mouselab-mdp,1
"[5662, 6792, 7594]","[u'left', u'left', u'down']",train_basic,,,"[0, 3, 7, 14]","{u'mouseover': {u'state': {u'target': [], u'time': []}, u'edge': {u'target': [], u'time': []}}, u'click': {u'state': {u'target': [], u'time': []}, u'edge': {u'target': [], u'time': []}}, u'mouseout': {u'state': {u'target': [], u'time': []}, u'edge': {u'target': [], u'time': []}}}",,"[24, -8, 24]","[5654, 581, 269]",40.0,"[None, None, None]",,110076,9.0,68790.0,mouselab-mdp,1
"[10203, 11158, 12096]","[u'up', u'up', u'right']",train_hidden,,,"[0, 2, 6, 12]","{u'mouseover': {u'state': {u'target': [], u'time': []}, u'edge': {u'target': [], u'time': []}}, u'click': {u'state': {u'target': [], u'time': []}, u'edge': {u'target': [], u'time': []}}, u'mouseout': {u'state': {u'target': [], u'time': []}, u'edge': {u'target': [], u'time': []}}}",,"[8, 8, 8]","[10196, 353, 390]",24.0,"[None, None, None]",,127553,10.0,25010.0,mouselab-mdp,1
"[1797, 2481, 3696]","[u'left', u'left', u'up']",train_hidden,,,"[0, 3, 7, 13]","{u'mouseover': {u'state': {u'target': [], u'time': []}, u'edge': {u'target': [], u'time': []}}, u'click': {u'state': {u'target': [], u'time': []}, u'edge': {u'target': [], u'time': []}}, u'mouseout': {u'state': {u'target': [], u'time': []}, u'edge': {u'target': [], u'time': []}}}",,"[24, 8, -8]","[1789, 150, 684]",24.0,"[None, None, None]",,134272,11.0,58031.0,mouselab-mdp,1
"[449, 1004, 2047]","[u'down', u'down', u'left']",train_hidden,,,"[0, 4, 8, 15]","{u'mouseover': {u'state': {u'target': [], u'time': []}, u'edge': {u'target': [], u'time': []}}, u'click': {u'state': {u'target': [], u'time': []}, u'edge': {u'target': [], u'time': []}}, u'mouseout': {u'state': {u'target': [], u'time': []}, u'edge': {u'target': [], u'time': []}}}",,"[-8, 24, -24]","[439, 7, 506]",-8.0,"[None, None, None]",,139311,12.0,98633.0,mouselab-mdp,1
"[491, 1519, 2374]","[u'right', u'right', u'down']",train_hidden,,,"[0, 1, 5, 10]","{u'mouseover': {u'state': {u'target': [], u'time': []}, u'edge': {u'target': [], u'time': []}}, u'click': {u'state': {u'target': [], u'time': []}, u'edge': {u'target': [], u'time': []}}, u'mouseout': {u'state': {u'target': [], u'time': []}, u'edge': {u'target': [], u'time': []}}}",,"[8, -8, 8]","[484, 488, 311]",8.0,"[None, None, None]",,144417,13.0,31021.0,mouselab-mdp,1
"[550, 1551, 2439]","[u'up', u'up', u'left']",train_hidden,,,"[0, 2, 6, 11]","{u'mouseover': {u'state': {u'target': [], u'time': []}, u'edge': {u'target': [], u'time': []}}, u'click': {u'state': {u'target': [], u'time': []}, u'edge': {u'target': [], u'time': []}}, u'mouseout': {u'state': {u'target': [], u'time': []}, u'edge': {u'target': [], u'time': []}}}",,"[-8, 24, -24]","[541, 463, 349]",-8.0,"[None, None, None]",,149735,14.0,44807.0,mouselab-mdp,1
"[25244, 26247, 27308]","[u'left', u'left', u'up']",train_inspector,,,"[0, 3, 7, 13]","{u'mouseover': {u'state': {u'target': [], u'time': []}, u'edge': {u'target': [], u'time': []}}, u'click': {u'state': {u'target': [u'6', u'1', u'3'], u'time': [18909, 21791, 23440]}, u'edge': {u'target': [], u'time': []}}, u'mouseout': {u'state': {u'target': [], u'time': []}, u'edge': {u'target': [], u'time': []}}}",,"[40, 24, -8]","[25235, 454, 525]",56.0,"[None, None, None]",,182292,15.0,67609.0,mouselab-mdp,1
"[5735, 6813, 8135]","[u'right', u'right', u'up']",train_inspector,,,"[0, 1, 5, 9]","{u'mouseover': {u'state': {u'target': [], u'time': []}, u'edge': {u'target': [], u'time': []}}, u'click': {u'state': {u'target': [u'3', u'2', u'1'], u'time': [2514, 3411, 4271]}, u'edge': {u'target': [], u'time': []}}, u'mouseout': {u'state': {u'target': [], u'time': []}, u'edge': {u'target': [], u'time': []}}}",,"[24, 40, 8]","[5722, 538, 793]",72.0,"[None, None, None]",,193606,16.0,71503.0,mouselab-mdp,1
"[28786, 29414, 30580]","[u'left', u'left', u'down']",train_inspector,,,"[0, 3, 7, 14]","{u'mouseover': {u'state': {u'target': [], u'time': []}, u'edge': {u'target': [], u'time': []}}, u'click': {u'state': {u'target': [u'1', u'4', u'3'], u'time': [25886, 26830, 27772]}, u'edge': {u'target': [], u'time': []}}, u'mouseout': {u'state': {u'target': [], u'time': []}, u'edge': {u'target': [], u'time': []}}}",,"[40, -8, 40]","[28778, 96, 625]",72.0,"[None, None, None]",,227175,17.0,48299.0,mouselab-mdp,1
"[4502, 5402, 6289]","[u'right', u'right', u'down']",train_inspector,,,"[0, 1, 5, 10]","{u'mouseover': {u'state': {u'target': [], u'time': []}, u'edge': {u'target': [], u'time': []}}, u'click': {u'state': {u'target': [u'3', u'4', u'1'], u'time': [569, 1368, 3423]}, u'edge': {u'target': [], u'time': []}}, u'mouseout': {u'state': {u'target': [], u'time': []}, u'edge': {u'target': [], u'time': []}}}",,"[24, -8, 24]","[4494, 356, 358]",40.0,"[None, None, None]",,236460,18.0,29587.0,mouselab-mdp,1
"[5786, 6330, 7051]","[u'up', u'up', u'right']",train_inspector,,,"[0, 2, 6, 12]","{u'mouseover': {u'state': {u'target': [], u'time': []}, u'edge': {u'target': [], u'time': []}}, u'click': {u'state': {u'target': [u'1', u'4', u'2'], u'time': [1225, 2485, 4023]}, u'edge': {u'target': [], u'time': []}}, u'mouseout': {u'state': {u'target': [], u'time': []}, u'edge': {u'target': [], u'time': []}}}",,"[8, -8, 8]","[5778, 9, 181]",8.0,"[None, None, None]",,246691,19.0,71073.0,mouselab-mdp,1
"[19557, 20633, 21669]","[u'right', u'right', u'up']",train_inspect_cost,,,"[0, 1, 5, 9]","{u'mouseover': {u'state': {u'target': [], u'time': []}, u'edge': {u'target': [], u'time': []}}, u'click': {u'state': {u'target': [u'3', u'4', u'1'], u'time': [15663, 17034, 18683]}, u'edge': {u'target': [], u'time': []}}, u'mouseout': {u'state': {u'target': [], u'time': []}, u'edge': {u'target': [], u'time': []}}}",,"[24, 8, -8]","[19549, 531, 499]",21.0,"[None, None, None]",,275485,20.0,13297.0,mouselab-mdp,1
"[2493, 3195, 3980]","[u'right', u'right', u'down']",train_inspect_cost,,,"[0, 1, 5, 10]","{u'mouseover': {u'state': {u'target': [], u'time': []}, u'edge': {u'target': [], u'time': []}}, u'click': {u'state': {u'target': [u'1'], u'time': [928]}, u'edge': {u'target': [], u'time': []}}, u'mouseout': {u'state': {u'target': [], u'time': []}, u'edge': {u'target': [], u'time': []}}}",,"[24, 8, -24]","[2485, 160, 244]",7.0,"[None, None, None]",,282149,21.0,91473.0,mouselab-mdp,1
"[6600, 7488, 8360]","[u'left', u'left', u'down']",train_inspect_cost,,,"[0, 3, 7, 14]","{u'mouseover': {u'state': {u'target': [], u'time': []}, u'edge': {u'target': [], u'time': []}}, u'click': {u'state': {u'target': [u'2', u'1', u'3'], u'time': [1856, 2722, 5680]}, u'edge': {u'target': [], u'time': []}}, u'mouseout': {u'state': {u'target': [], u'time': []}, u'edge': {u'target': [], u'time': []}}}",,"[24, 24, 8]","[6593, 354, 338]",53.0,"[None, None, None]",,293213,22.0,78931.0,mouselab-mdp,1
"[2714, 3332, 3972]","[u'down', u'down', u'left']",train_inspect_cost,,,"[0, 4, 8, 15]","{u'mouseover': {u'state': {u'target': [], u'time': []}, u'edge': {u'target': [], u'time': []}}, u'click': {u'state': {u'target': [u'3', u'4'], u'time': [936, 1881]}, u'edge': {u'target': [], u'time': []}}, u'mouseout': {u'state': {u'target': [], u'time': []}, u'edge': {u'target': [], u'time': []}}}",,"[24, -8, -24]","[2708, 85, 109]",-10.0,"[None, None, None]",,300398,23.0,7703.0,mouselab-mdp,1
"[3023, 3712, 4780]","[u'right', u'right', u'up']",train_inspect_cost,,,"[0, 1, 5, 9]","{u'mouseover': {u'state': {u'target': [], u'time': []}, u'edge': {u'target': [], u'time': []}}, u'click': {u'state': {u'target': [u'2', u'1'], u'time': [1080, 2075]}, u'edge': {u'target': [], u'time': []}}, u'mouseout': {u'state': {u'target': [], u'time': []}, u'edge': {u'target': [], u'time': []}}}",,"[8, -24, -24]","[3015, 155, 527]",-42.0,"[None, None, None]",,308094,24.0,36516.0,mouselab-mdp,1
"[1958, 12627, 13294]","[u'up', u'up', u'right']",train_final,,,"[0, 2, 6, 12]","{u'mouseover': {u'state': {u'target': [], u'time': []}, u'edge': {u'target': [], u'time': []}}, u'click': {u'state': {u'target': [], u'time': []}, u'edge': {u'target': [], u'time': []}}, u'mouseout': {u'state': {u'target': [], u'time': []}, u'edge': {u'target': [], u'time': []}}}",,"[-8, 24, 8]","[1946, 10132, 128]",24.0,"[None, None, None]",,631513,25.0,73552.0,mouselab-mdp,1
"[77489, 78046, 79017]","[u'up', u'up', u'left']",train_final,,,"[0, 2, 6, 11]","{u'mouseover': {u'state': {u'target': [], u'time': []}, u'edge': {u'target': [], u'time': []}}, u'click': {u'state': {u'target': [u'2', u'12', u'1'], u'time': [71645, 74741, 76341]}, u'edge': {u'target': [], u'time': []}}, u'mouseout': {u'state': {u'target': [], u'time': []}, u'edge': {u'target': [], u'time': []}}}",,"[8, 24, -8]","[77482, 12, 432]",21.0,"[None, None, None]",,713631,26.0,71327.0,mouselab-mdp,1
"[6461, 7366, 8263]","[u'down', u'down', u'left']",train_final,,,"[0, 4, 8, 15]","{u'mouseover': {u'state': {u'target': [], u'time': []}, u'edge': {u'target': [], u'time': []}}, u'click': {u'state': {u'target': [u'3', u'7', u'1'], u'time': [1785, 3371, 5516]}, u'edge': {u'target': [], u'time': []}}, u'mouseout': {u'state': {u'target': [], u'time': []}, u'edge': {u'target': [], u'time': []}}}",,"[-24, -8, 8]","[6453, 363, 357]",-27.0,"[None, None, None]",,724777,27.0,0.0,mouselab-mdp,1
"[8013, 9008, 9991]","[u'down', u'down', u'right']",train_final,,,"[0, 4, 8, 16]","{u'mouseover': {u'state': {u'target': [], u'time': []}, u'edge': {u'target': [], u'time': []}}, u'click': {u'state': {u'target': [u'2', u'6', u'4'], u'time': [2777, 4544, 7070]}, u'edge': {u'target': [], u'time': []}}, u'mouseout': {u'state': {u'target': [], u'time': []}, u'edge': {u'target': [], u'time': []}}}",,"[8, -8, -24]","[8005, 453, 438]",-27.0,"[None, None, None]",,737732,28.0,4304.0,mouselab-mdp,1
"[4265, 5356, 6248]","[u'right', u'right', u'up']",train_final,,,"[0, 1, 5, 9]","{u'mouseover': {u'state': {u'target': [], u'time': []}, u'edge': {u'target': [], u'time': []}}, u'click': {u'state': {u'target': [u'3', u'7', u'14'], u'time': [1073, 2346, 3063]}, u'edge': {u'target': [], u'time': []}}, u'mouseout': {u'state': {u'target': [], u'time': []}, u'edge': {u'target': [], u'time': []}}}",,"[-24, -40, 8]","[4257, 557, 345]",-59.0,"[None, None, None]",,747790,29.0,60372.0,mouselab-mdp,1
"[7356, 8123, 9091]","[u'right', u'right', u'up']",test,,,"[0, 1, 5, 9]","{u'mouseover': {u'state': {u'target': [], u'time': []}, u'edge': {u'target': [], u'time': []}}, u'click': {u'state': {u'target': [u'3', u'2', u'1'], u'time': [2605, 4766, 6060]}, u'edge': {u'target': [], u'time': []}}, u'mouseout': {u'state': {u'target': [], u'time': []}, u'edge': {u'target': [], u'time': []}}}",,"[24, 8, -8]","[7346, 234, 438]",21.0,"[None, None, None]",,794925,30.0,2803.0,mouselab-mdp,1
"[4974, 5948, 6984]","[u'left', u'left', u'up']",test,,,"[0, 3, 7, 13]","{u'mouseover': {u'state': {u'target': [], u'time': []}, u'edge': {u'target': [], u'time': []}}, u'click': {u'state': {u'target': [u'4', u'2', u'1'], u'time': [1505, 2890, 3831]}, u'edge': {u'target': [], u'time': []}}, u'mouseout': {u'state': {u'target': [], u'time': []}, u'edge': {u'target': [], u'time': []}}}",,"[-8, -24, 8]","[4966, 429, 497]",-27.0,"[None, None, None]",,804678,31.0,83863.0,mouselab-mdp,1
"[2780, 3564, 4425]","[u'down', u'down', u'right']",test,,,"[0, 4, 8, 16]","{u'mouseover': {u'state': {u'target': [], u'time': []}, u'edge': {u'target': [], u'time': []}}, u'click': {u'state': {u'target': [u'4'], u'time': [1155]}, u'edge': {u'target': [], u'time': []}}, u'mouseout': {u'state': {u'target': [], u'time': []}, u'edge': {u'target': [], u'time': []}}}",,"[40, -8, 24]","[2770, 244, 323]",55.0,"[None, None, None]",,814447,32.0,38058.0,mouselab-mdp,1
"[8264, 9140, 11589]","[u'up', u'up', u'left']",test,,,"[0, 2, 6, 11]","{u'mouseover': {u'state': {u'target': [], u'time': []}, u'edge': {u'target': [], u'time': []}}, u'click': {u'state': {u'target': [u'2', u'6'], u'time': [3044, 6813]}, u'edge': {u'target': [], u'time': []}}, u'mouseout': {u'state': {u'target': [], u'time': []}, u'edge': {u'target': [], u'time': []}}}",,"[24, -8, -24]","[8256, 333, 1916]",-10.0,"[None, None, None]",,829140,33.0,78077.0,mouselab-mdp,1
"[5595, 6595, 7708]","[u'down', u'down', u'left']",test,,,"[0, 4, 8, 15]","{u'mouseover': {u'state': {u'target': [], u'time': []}, u'edge': {u'target': [], u'time': []}}, u'click': {u'state': {u'target': [u'1', u'2', u'3'], u'time': [2906, 4007, 4888]}, u'edge': {u'target': [], u'time': []}}, u'mouseout': {u'state': {u'target': [], u'time': []}, u'edge': {u'target': [], u'time': []}}}",,"[8, -8, -8]","[5588, 460, 571]",-11.0,"[None, None, None]",,839563,34.0,89702.0,mouselab-mdp,1
"[6159, 6699, 7574]","[u'up', u'up', u'left']",test,,,"[0, 2, 6, 11]","{u'mouseover': {u'state': {u'target': [], u'time': []}, u'edge': {u'target': [], u'time': []}}, u'click': {u'state': {u'target': [u'2', u'12', u'11'], u'time': [1455, 3595, 5284]}, u'edge': {u'target': [], u'time': []}}, u'mouseout': {u'state': {u'target': [], u'time': []}, u'edge': {u'target': [], u'time': []}}}",,"[24, -24, 8]","[6152, 6, 329]",5.0,"[None, None, None]",,849838,35.0,4642.0,mouselab-mdp,1
"[4501, 5241, 5888]","[u'up', u'up', u'right']",test,,,"[0, 2, 6, 12]","{u'mouseover': {u'state': {u'target': [], u'time': []}, u'edge': {u'target': [], u'time': []}}, u'click': {u'state': {u'target': [u'2', u'12'], u'time': [1477, 3437]}, u'edge': {u'target': [], u'time': []}}, u'mouseout': {u'state': {u'target': [], u'time': []}, u'edge': {u'target': [], u'time': []}}}",,"[8, -24, 40]","[4475, 196, 111]",22.0,"[None, None, None]",,858901,36.0,39785.0,mouselab-mdp,1
"[3772, 4427, 5162]","[u'up', u'up', u'left']",test,,,"[0, 2, 6, 11]","{u'mouseover': {u'state': {u'target': [], u'time': []}, u'edge': {u'target': [], u'time': []}}, u'click': {u'state': {u'target': [u'2', u'12', u'11'], u'time': [673, 1519, 2674]}, u'edge': {u'target': [], u'time': []}}, u'mouseout': {u'state': {u'target': [], u'time': []}, u'edge': {u'target': [], u'time': []}}}",,"[8, -24, 8]","[3765, 115, 196]",-11.0,"[None, None, None]",,866905,37.0,92910.0,mouselab-mdp,1
"[6065, 7168, 8119]","[u'down', u'down', u'left']",test,,,"[0, 4, 8, 15]","{u'mouseover': {u'state': {u'target': [], u'time': []}, u'edge': {u'target': [], u'time': []}}, u'click': {u'state': {u'target': [u'3', u'14', u'15'], u'time': [1429, 3750, 5136]}, u'edge': {u'target': [], u'time': []}}, u'mouseout': {u'state': {u'target': [], u'time': []}, u'edge': {u'target': [], u'time': []}}}",,"[8, -8, -8]","[6057, 571, 406]",-11.0,"[None, None, None]",,877866,38.0,17531.0,mouselab-mdp,1
"[4221, 5201, 6062]","[u'down', u'down', u'right']",test,,,"[0, 4, 8, 16]","{u'mouseover': {u'state': {u'target': [], u'time': []}, u'edge': {u'target': [], u'time': []}}, u'click': {u'state': {u'target': [u'4', u'1', u'16'], u'time': [1649, 2498, 3374]}, u'edge': {u'target': [], u'time': []}}, u'mouseout': {u'state': {u'target': [], u'time': []}, u'edge': {u'target': [], u'time': []}}}",,"[8, -24, 8]","[4214, 435, 319]",-11.0,"[None, None, None]",,886469,39.0,2469.0,mouselab-mdp,1
"[6190, 6808, 9563]","[u'right', u'right', u'up']",test,,,"[0, 1, 5, 9]","{u'mouseover': {u'state': {u'target': [], u'time': []}, u'edge': {u'target': [], u'time': []}}, u'click': {u'state': {u'target': [u'2', u'1', u'10'], u'time': [961, 3022, 5014]}, u'edge': {u'target': [], u'time': []}}, u'mouseout': {u'state': {u'target': [], u'time': []}, u'edge': {u'target': [], u'time': []}}}",,"[40, 24, 8]","[6182, 73, 2214]",69.0,"[None, None, None]",,899135,40.0,46879.0,mouselab-mdp,1
"[4966, 5855, 7021]","[u'down', u'down', u'left']",test,,,"[0, 4, 8, 15]","{u'mouseover': {u'state': {u'target': [], u'time': []}, u'edge': {u'target': [], u'time': []}}, u'click': {u'state': {u'target': [u'1', u'2', u'3'], u'time': [1399, 2273, 3052]}, u'edge': {u'target': [], u'time': []}}, u'mouseout': {u'state': {u'target': [], u'time': []}, u'edge': {u'target': [], u'time': []}}}",,"[24, -8, -8]","[4958, 352, 621]",5.0,"[None, None, None]",,909102,41.0,2877.0,mouselab-mdp,1
"[11041, 11692, 12243]","[u'left', u'left', u'down']",test,,,"[0, 3, 7, 14]","{u'mouseover': {u'state': {u'target': [], u'time': []}, u'edge': {u'target': [], u'time': []}}, u'click': {u'state': {u'target': [u'4', u'1', u'2', u'3', u'13', u'14'], u'time': [938, 1646, 4250, 5353, 7909, 9908]}, u'edge': {u'target': [], u'time': []}}, u'mouseout': {u'state': {u'target': [], u'time': []}, u'edge': {u'target': [], u'time': []}}}",,"[24, 24, 40]","[11033, 108, 14]",82.0,"[None, None, None]",,925046,42.0,52018.0,mouselab-mdp,1
"[6331, 6877, 7721]","[u'left', u'left', u'down']",test,,,"[0, 3, 7, 14]","{u'mouseover': {u'state': {u'target': [], u'time': []}, u'edge': {u'target': [], u'time': []}}, u'click': {u'state': {u'target': [u'4', u'3', u'14', u'13'], u'time': [1069, 2765, 4394, 5236]}, u'edge': {u'target': [], u'time': []}}, u'mouseout': {u'state': {u'target': [], u'time': []}, u'edge': {u'target': [], u'time': []}}}",,"[40, -8, 8]","[6323, 6, 301]",36.0,"[None, None, None]",,935731,43.0,54094.0,mouselab-mdp,1
"[17921, 18896, 21311]","[u'right', u'right', u'up']",test,,,"[0, 1, 5, 9]","{u'mouseover': {u'state': {u'target': [], u'time': []}, u'edge': {u'target': [], u'time': []}}, u'click': {u'state': {u'target': [u'3', u'14', u'13', u'4', u'1', u'2', u'9', u'10', u'12', u'11', u'16', u'15'], u'time': [1542, 3144, 4116, 5153, 6025, 6699, 7673, 9097, 10820, 11620, 14222, 15005]}, u'edge': {u'target': [], u'time': []}}, u'mouseout': {u'state': {u'target': [], u'time': []}, u'edge': {u'target': [], u'time': []}}}",,"[8, 24, 8]","[17912, 433, 1880]",28.0,"[None, None, None]",,963446,44.0,74706.0,mouselab-mdp,1
"[5374, 6047, 6931]","[u'down', u'down', u'right']",test,,,"[0, 4, 8, 16]","{u'mouseover': {u'state': {u'target': [], u'time': []}, u'edge': {u'target': [], u'time': []}}, u'click': {u'state': {u'target': [u'4', u'1', u'16'], u'time': [2078, 2979, 4105]}, u'edge': {u'target': [], u'time': []}}, u'mouseout': {u'state': {u'target': [], u'time': []}, u'edge': {u'target': [], u'time': []}}}",,"[8, 8, 24]","[5367, 120, 353]",37.0,"[None, None, None]",,973436,45.0,34263.0,mouselab-mdp,1
"[5354, 6046, 6938]","[u'down', u'down', u'left']",test,,,"[0, 4, 8, 15]","{u'mouseover': {u'state': {u'target': [], u'time': []}, u'edge': {u'target': [], u'time': []}}, u'click': {u'state': {u'target': [u'4', u'16', u'15'], u'time': [2130, 3063, 4019]}, u'edge': {u'target': [], u'time': []}}, u'mouseout': {u'state': {u'target': [], u'time': []}, u'edge': {u'target': [], u'time': []}}}",,"[8, 40, 40]","[5347, 145, 358]",85.0,"[None, None, None]",,983196,46.0,69409.0,mouselab-mdp,1
"[9139, 9689, 10539]","[u'left', u'left', u'up']",test,,,"[0, 3, 7, 13]","{u'mouseover': {u'state': {u'target': [], u'time': []}, u'edge': {u'target': [], u'time': []}}, u'click': {u'state': {u'target': [u'4', u'3', u'2', u'14', u'13'], u'time': [1325, 2113, 5107, 6837, 7582]}, u'edge': {u'target': [], u'time': []}}, u'mouseout': {u'state': {u'target': [], u'time': []}, u'edge': {u'target': [], u'time': []}}}",,"[8, 8, 8]","[9129, 19, 312]",19.0,"[None, None, None]",,996445,47.0,38090.0,mouselab-mdp,1
"[15554, 16240, 17274]","[u'down', u'down', u'right']",test,,,"[0, 4, 8, 16]","{u'mouseover': {u'state': {u'target': [], u'time': []}, u'edge': {u'target': [], u'time': []}}, u'click': {u'state': {u'target': [u'3', u'2', u'12', u'11', u'6', u'1', u'9', u'5', u'10', u'4', u'8'], u'time': [1045, 1741, 2803, 3588, 4189, 5996, 7198, 7772, 8361, 10621, 14370]}, u'edge': {u'target': [], u'time': []}}, u'mouseout': {u'state': {u'target': [], u'time': []}, u'edge': {u'target': [], u'time': []}}}",,"[8, 24, 24]","[15544, 142, 480]",45.0,"[None, None, None]",,1016586,48.0,26636.0,mouselab-mdp,1
"[9718, 10255, 11008]","[u'down', u'down', u'left']",test,,,"[0, 4, 8, 15]","{u'mouseover': {u'state': {u'target': [], u'time': []}, u'edge': {u'target': [], u'time': []}}, u'click': {u'state': {u'target': [u'4', u'1', u'2', u'3', u'16', u'15'], u'time': [3197, 4401, 5270, 5943, 7382, 8266]}, u'edge': {u'target': [], u'time': []}}, u'mouseout': {u'state': {u'target': [], u'time': []}, u'edge': {u'target': [], u'time': []}}}",,"[8, 8, 24]","[9709, 6, 206]",34.0,"[None, None, None]",,1030303,49.0,43145.0,mouselab-mdp,1
"[15901, 17111, 20630]","[u'left', u'left', u'down']",train_basic,,,"[0, 3, 7, 14]","{u'mouseover': {u'state': {u'target': [], u'time': []}, u'edge': {u'target': [], u'time': []}}, u'click': {u'state': {u'target': [], u'time': []}, u'edge': {u'target': [], u'time': []}}, u'mouseout': {u'state': {u'target': [], u'time': []}, u'edge': {u'target': [], u'time': []}}}",,"[40, 8, 8]","[15897, 713, 3000]",56.0,"[None, None, None]",,23882,0.0,29536.0,mouselab-mdp,2
"[5245, 7315, 8194]","[u'up', u'up', u'left']",train_basic,,,"[0, 2, 6, 11]","{u'mouseover': {u'state': {u'target': [], u'time': []}, u'edge': {u'target': [], u'time': []}}, u'click': {u'state': {u'target': [], u'time': []}, u'edge': {u'target': [], u'time': []}}, u'mouseout': {u'state': {u'target': [], u'time': []}, u'edge': {u'target': [], u'time': []}}}",,"[8, -8, 24]","[5241, 1569, 383]",24.0,"[None, None, None]",,38049,1.0,87160.0,mouselab-mdp,2
"[3975, 4756, 5446]","[u'down', u'down', u'right']",train_basic,,,"[0, 4, 8, 16]","{u'mouseover': {u'state': {u'target': [], u'time': []}, u'edge': {u'target': [], u'time': []}}, u'click': {u'state': {u'target': [], u'time': []}, u'edge': {u'target': [], u'time': []}}, u'mouseout': {u'state': {u'target': [], u'time': []}, u'edge': {u'target': [], u'time': []}}}",,"[-24, 24, 40]","[3972, 287, 175]",40.0,"[None, None, None]",,45910,2.0,2009.0,mouselab-mdp,2
"[2769, 3738, 4358]","[u'right', u'right', u'down']",train_basic,,,"[0, 1, 5, 10]","{u'mouseover': {u'state': {u'target': [], u'time': []}, u'edge': {u'target': [], u'time': []}}, u'click': {u'state': {u'target': [], u'time': []}, u'edge': {u'target': [], u'time': []}}, u'mouseout': {u'state': {u'target': [], u'time': []}, u'edge': {u'target': [], u'time': []}}}",,"[24, 8, 8]","[2765, 452, 125]",40.0,"[None, None, None]",,57199,3.0,94494.0,mouselab-mdp,2
"[5760, 6441, 7360]","[u'down', u'down', u'left']",train_basic,,,"[0, 4, 8, 15]","{u'mouseover': {u'state': {u'target': [], u'time': []}, u'edge': {u'target': [], u'time': []}}, u'click': {u'state': {u'target': [], u'time': []}, u'edge': {u'target': [], u'time': []}}, u'mouseout': {u'state': {u'target': [], u'time': []}, u'edge': {u'target': [], u'time': []}}}",,"[-24, 24, 40]","[5758, 158, 399]",40.0,"[None, None, None]",,67511,4.0,50069.0,mouselab-mdp,2
"[5331, 6079, 6912]","[u'down', u'down', u'left']",train_basic,,,"[0, 4, 8, 15]","{u'mouseover': {u'state': {u'target': [], u'time': []}, u'edge': {u'target': [], u'time': []}}, u'click': {u'state': {u'target': [], u'time': []}, u'edge': {u'target': [], u'time': []}}, u'mouseout': {u'state': {u'target': [], u'time': []}, u'edge': {u'target': [], u'time': []}}}",,"[24, 24, -8]","[5329, 247, 312]",40.0,"[None, None, None]",,77000,5.0,98460.0,mouselab-mdp,2
"[2809, 3468, 4678]","[u'right', u'right', u'up']",train_basic,,,"[0, 1, 5, 9]","{u'mouseover': {u'state': {u'target': [], u'time': []}, u'edge': {u'target': [], u'time': []}}, u'click': {u'state': {u'target': [], u'time': []}, u'edge': {u'target': [], u'time': []}}, u'mouseout': {u'state': {u'target': [], u'time': []}, u'edge': {u'target': [], u'time': []}}}",,"[24, 24, 8]","[2806, 169, 695]",56.0,"[None, None, None]",,85360,6.0,76996.0,mouselab-mdp,2
"[3877, 4818, 5387]","[u'down', u'down', u'right']",train_basic,,,"[0, 4, 8, 16]","{u'mouseover': {u'state': {u'target': [], u'time': []}, u'edge': {u'target': [], u'time': []}}, u'click': {u'state': {u'target': [], u'time': []}, u'edge': {u'target': [], u'time': []}}, u'mouseout': {u'state': {u'target': [], u'time': []}, u'edge': {u'target': [], u'time': []}}}",,"[-8, 24, 24]","[3874, 431, 66]",40.0,"[None, None, None]",,93150,7.0,7400.0,mouselab-mdp,2
"[3208, 3906, 4585]","[u'up', u'up', u'right']",train_basic,,,"[0, 2, 6, 12]","{u'mouseover': {u'state': {u'target': [], u'time': []}, u'edge': {u'target': [], u'time': []}}, u'click': {u'state': {u'target': [], u'time': []}, u'edge': {u'target': [], u'time': []}}, u'mouseout': {u'state': {u'target': [], u'time': []}, u'edge': {u'target': [], u'time': []}}}",,"[40, 8, 8]","[3205, 187, 167]",56.0,"[None, None, None]",,100097,8.0,99730.0,mouselab-mdp,2
"[4021, 5228, 6021]","[u'right', u'right', u'up']",train_basic,,,"[0, 1, 5, 9]","{u'mouseover': {u'state': {u'target': [], u'time': []}, u'edge': {u'target': [], u'time': []}}, u'click': {u'state': {u'target': [], u'time': []}, u'edge': {u'target': [], u'time': []}}, u'mouseout': {u'state': {u'target': [], u'time': []}, u'edge': {u'target': [], u'time': []}}}",,"[8, 24, 40]","[4018, 703, 279]",72.0,"[None, None, None]",,111409,9.0,40599.0,mouselab-mdp,2
"[8868, 9965, 11642]","[u'left', u'left', u'up']",train_hidden,,,"[0, 3, 7, 13]","{u'mouseover': {u'state': {u'target': [], u'time': []}, u'edge': {u'target': [], u'time': []}}, u'click': {u'state': {u'target': [], u'time': []}, u'edge': {u'target': [], u'time': []}}, u'mouseout': {u'state': {u'target': [], u'time': []}, u'edge': {u'target': [], u'time': []}}}",,"[-40, 24, -8]","[8864, 599, 1160]",-24.0,"[None, None, None]",,128189,10.0,78048.0,mouselab-mdp,2
"[3013, 3953, 5064]","[u'up', u'up', u'left']",train_hidden,,,"[0, 2, 6, 11]","{u'mouseover': {u'state': {u'target': [], u'time': []}, u'edge': {u'target': [], u'time': []}}, u'click': {u'state': {u'target': [], u'time': []}, u'edge': {u'target': [], u'time': []}}, u'mouseout': {u'state': {u'target': [], u'time': []}, u'edge': {u'target': [], u'time': []}}}",,"[-8, -8, 24]","[3011, 428, 589]",8.0,"[None, None, None]",,136188,11.0,91720.0,mouselab-mdp,2
"[564, 1482, 2403]","[u'right', u'right', u'up']",train_hidden,,,"[0, 1, 5, 9]","{u'mouseover': {u'state': {u'target': [], u'time': []}, u'edge': {u'target': [], u'time': []}}, u'click': {u'state': {u'target': [], u'time': []}, u'edge': {u'target': [], u'time': []}}, u'mouseout': {u'state': {u'target': [], u'time': []}, u'edge': {u'target': [], u'time': []}}}",,"[-8, -8, 8]","[562, 408, 411]",-8.0,"[None, None, None]",,140919,12.0,78321.0,mouselab-mdp,2
"[543, 1413, 2253]","[u'down', u'down', u'left']",train_hidden,,,"[0, 4, 8, 15]","{u'mouseover': {u'state': {u'target': [], u'time': []}, u'edge': {u'target': [], u'time': []}}, u'click': {u'state': {u'target': [], u'time': []}, u'edge': {u'target': [], u'time': []}}, u'mouseout': {u'state': {u'target': [], u'time': []}, u'edge': {u'target': [], u'time': []}}}",,"[-8, -24, 8]","[540, 352, 326]",-24.0,"[None, None, None]",,145199,13.0,71370.0,mouselab-mdp,2
"[451, 1210, 2309]","[u'left', u'left', u'up']",train_hidden,,,"[0, 3, 7, 13]","{u'mouseover': {u'state': {u'target': [], u'time': []}, u'edge': {u'target': [], u'time': []}}, u'click': {u'state': {u'target': [], u'time': []}, u'edge': {u'target': [], u'time': []}}, u'mouseout': {u'state': {u'target': [], u'time': []}, u'edge': {u'target': [], u'time': []}}}",,"[8, 8, -8]","[447, 266, 582]",8.0,"[None, None, None]",,150290,14.0,11570.0,mouselab-mdp,2
"[20855, 21924, 22585]","[u'left', u'left', u'up']",train_inspector,,,"[0, 3, 7, 13]","{u'mouseover': {u'state': {u'target': [], u'time': []}, u'edge': {u'target': [], u'time': []}}, u'click': {u'state': {u'target': [u'3', u'7', u'13'], u'time': [16324, 17326, 18242]}, u'edge': {u'target': [], u'time': []}}, u'mouseout': {u'state': {u'target': [], u'time': []}, u'edge': {u'target': [], u'time': []}}}",,"[40, -8, 8]","[20852, 573, 168]",40.0,"[None, None, None]",,177639,15.0,51698.0,mouselab-mdp,2
"[7522, 8208, 8911]","[u'right', u'right', u'up']",train_inspector,,,"[0, 1, 5, 9]","{u'mouseover': {u'state': {u'target': [], u'time': []}, u'edge': {u'target': [], u'time': []}}, u'click': {u'state': {u'target': [u'2', u'6', u'12'], u'time': [1334, 2081, 2633]}, u'edge': {u'target': [], u'time': []}}, u'mouseout': {u'state': {u'target': [], u'time': []}, u'edge': {u'target': [], u'time': []}}}",,"[-24, -40, 8]","[7520, 194, 211]",-56.0,"[None, None, None]",,189179,16.0,91743.0,mouselab-mdp,2
"[4870, 5480, 6309]","[u'up', u'up', u'left']",train_inspector,,,"[0, 2, 6, 11]","{u'mouseover': {u'state': {u'target': [], u'time': []}, u'edge': {u'target': [], u'time': []}}, u'click': {u'state': {u'target': [u'2', u'6', u'11'], u'time': [2454, 3104, 3692]}, u'edge': {u'target': [], u'time': []}}, u'mouseout': {u'state': {u'target': [], u'time': []}, u'edge': {u'target': [], u'time': []}}}",,"[8, 8, 8]","[4868, 89, 319]",24.0,"[None, None, None]",,228582,17.0,5996.0,mouselab-mdp,2
"[5478, 6328, 7153]","[u'left', u'left', u'up']",train_inspector,,,"[0, 3, 7, 13]","{u'mouseover': {u'state': {u'target': [], u'time': []}, u'edge': {u'target': [], u'time': []}}, u'click': {u'state': {u'target': [u'4', u'15', u'7'], u'time': [2055, 3246, 4363]}, u'edge': {u'target': [], u'time': []}}, u'mouseout': {u'state': {u'target': [], u'time': []}, u'edge': {u'target': [], u'time': []}}}",,"[-8, 8, -24]","[5476, 360, 317]",-24.0,"[None, None, None]",,238138,18.0,19715.0,mouselab-mdp,2
"[3759, 4556, 5777]","[u'left', u'left', u'down']",train_inspector,,,"[0, 3, 7, 14]","{u'mouseover': {u'state': {u'target': [], u'time': []}, u'edge': {u'target': [], u'time': []}}, u'click': {u'state': {u'target': [u'2', u'3', u'4'], u'time': [682, 1640, 2543]}, u'edge': {u'target': [], u'time': []}}, u'mouseout': {u'state': {u'target': [], u'time': []}, u'edge': {u'target': [], u'time': []}}}",,"[8, -40, -8]","[3757, 305, 710]",-40.0,"[None, None, None]",,246738,19.0,87491.0,mouselab-mdp,2
"[12730, 13977, 16298]","[u'up', u'up', u'left']",train_inspect_cost,,,"[0, 2, 6, 11]","{u'mouseover': {u'state': {u'target': [], u'time': []}, u'edge': {u'target': [], u'time': []}}, u'click': {u'state': {u'target': [u'6', u'5', u'7', u'8'], u'time': [8935, 9788, 10796, 11557]}, u'edge': {u'target': [], u'time': []}}, u'mouseout': {u'state': {u'target': [], u'time': []}, u'edge': {u'target': [], u'time': []}}}",,"[40, 40, 24]","[12727, 753, 1809]",100.0,"[None, None, None]",,269488,20.0,97982.0,mouselab-mdp,2
"[7944, 9142, 10110]","[u'right', u'right', u'up']",train_inspect_cost,,,"[0, 1, 5, 9]","{u'mouseover': {u'state': {u'target': [], u'time': []}, u'edge': {u'target': [], u'time': []}}, u'click': {u'state': {u'target': [u'6', u'5', u'7', u'8'], u'time': [2387, 3219, 4413, 6024]}, u'edge': {u'target': [], u'time': []}}, u'mouseout': {u'state': {u'target': [], u'time': []}, u'edge': {u'target': [], u'time': []}}}",,"[-8, 24, -8]","[7942, 683, 451]",4.0,"[None, None, None]",,284642,21.0,21651.0,mouselab-mdp,2
"[5430, 6246, 6940]","[u'up', u'up', u'left']",train_inspect_cost,,,"[0, 2, 6, 11]","{u'mouseover': {u'state': {u'target': [], u'time': []}, u'edge': {u'target': [], u'time': []}}, u'click': {u'state': {u'target': [u'5', u'6', u'7', u'8'], u'time': [1599, 2522, 3556, 4338]}, u'edge': {u'target': [], u'time': []}}, u'mouseout': {u'state': {u'target': [], u'time': []}, u'edge': {u'target': [], u'time': []}}}",,"[-8, 40, 24]","[5428, 307, 200]",52.0,"[None, None, None]",,294469,22.0,25553.0,mouselab-mdp,2
"[6905, 7543, 8287]","[u'up', u'up', u'left']",train_inspect_cost,,,"[0, 2, 6, 11]","{u'mouseover': {u'state': {u'target': [], u'time': []}, u'edge': {u'target': [], u'time': []}}, u'click': {u'state': {u'target': [u'6', u'8', u'7', u'5'], u'time': [2083, 2930, 4715, 5523]}, u'edge': {u'target': [], u'time': []}}, u'mouseout': {u'state': {u'target': [], u'time': []}, u'edge': {u'target': [], u'time': []}}}",,"[8, -8, 24]","[6901, 133, 227]",20.0,"[None, None, None]",,305636,23.0,54615.0,mouselab-mdp,2
"[5220, 6047, 6828]","[u'up', u'up', u'left']",train_inspect_cost,,,"[0, 2, 6, 11]","{u'mouseover': {u'state': {u'target': [], u'time': []}, u'edge': {u'target': [], u'time': []}}, u'click': {u'state': {u'target': [u'6', u'5', u'8', u'7'], u'time': [917, 1941, 2892, 4035]}, u'edge': {u'target': [], u'time': []}}, u'mouseout': {u'state': {u'target': [], u'time': []}, u'edge': {u'target': [], u'time': []}}}",,"[-8, 24, -8]","[5217, 309, 280]",4.0,"[None, None, None]",,314568,24.0,88106.0,mouselab-mdp,2
"[16344, 17062, 17821]","[u'up', u'up', u'left']",train_final,,,"[0, 2, 6, 11]","{u'mouseover': {u'state': {u'target': [], u'time': []}, u'edge': {u'target': [], u'time': []}}, u'click': {u'state': {u'target': [], u'time': []}, u'edge': {u'target': [], u'time': []}}, u'mouseout': {u'state': {u'target': [], u'time': []}, u'edge': {u'target': [], u'time': []}}}",,"[24, -8, 8]","[16342, 223, 248]",24.0,"[None, None, None]",,336717,25.0,63845.0,mouselab-mdp,2
"[1146, 1845, 4224]","[u'right', u'right', u'down']",train_final,,,"[0, 1, 5, 10]","{u'mouseover': {u'state': {u'target': [], u'time': []}, u'edge': {u'target': [], u'time': []}}, u'click': {u'state': {u'target': [], u'time': []}, u'edge': {u'target': [], u'time': []}}, u'mouseout': {u'state': {u'target': [], u'time': []}, u'edge': {u'target': [], u'time': []}}}",,"[24, -8, 8]","[1144, 189, 1869]",24.0,"[None, None, None]",,344314,26.0,1525.0,mouselab-mdp,2
"[442, 1112, 1811]","[u'left', u'left', u'up']",train_final,,,"[0, 3, 7, 13]","{u'mouseover': {u'state': {u'target': [], u'time': []}, u'edge': {u'target': [], u'time': []}}, u'click': {u'state': {u'target': [], u'time': []}, u'edge': {u'target': [], u'time': []}}, u'mouseout': {u'state': {u'target': [], u'time': []}, u'edge': {u'target': [], u'time': []}}}",,"[-24, 8, -8]","[440, 167, 185]",-24.0,"[None, None, None]",,348337,27.0,33498.0,mouselab-mdp,2
"[384, 1088, 1757]","[u'down', u'down', u'right']",train_final,,,"[0, 4, 8, 16]","{u'mouseover': {u'state': {u'target': [], u'time': []}, u'edge': {u'target': [], u'time': []}}, u'click': {u'state': {u'target': [], u'time': []}, u'edge': {u'target': [], u'time': []}}, u'mouseout': {u'state': {u'target': [], u'time': []}, u'edge': {u'target': [], u'time': []}}}",,"[-8, 8, 8]","[381, 202, 155]",8.0,"[None, None, None]",,352257,28.0,66407.0,mouselab-mdp,2
"[473, 1143, 2062]","[u'up', u'up', u'left']",train_final,,,"[0, 2, 6, 11]","{u'mouseover': {u'state': {u'target': [], u'time': []}, u'edge': {u'target': [], u'time': []}}, u'click': {u'state': {u'target': [], u'time': []}, u'edge': {u'target': [], u'time': []}}, u'mouseout': {u'state': {u'target': [], u'time': []}, u'edge': {u'target': [], u'time': []}}}",,"[40, -24, -40]","[469, 157, 425]",-24.0,"[None, None, None]",,356587,29.0,61430.0,mouselab-mdp,2
"[9305, 9952, 10852]","[u'down', u'down', u'left']",test,,,"[0, 4, 8, 15]","{u'mouseover': {u'state': {u'target': [], u'time': []}, u'edge': {u'target': [], u'time': []}}, u'click': {u'state': {u'target': [u'6', u'8', u'7', u'5', u'4'], u'time': [2842, 4584, 5367, 6410, 8087]}, u'edge': {u'target': [], u'time': []}}, u'mouseout': {u'state': {u'target': [], u'time': []}, u'edge': {u'target': [], u'time': []}}}",,"[8, 40, 8]","[9300, 156, 406]",51.0,"[None, None, None]",,376207,30.0,53838.0,mouselab-mdp,2
"[7004, 7831, 8623]","[u'right', u'right', u'up']",test,,,"[0, 1, 5, 9]","{u'mouseover': {u'state': {u'target': [], u'time': []}, u'edge': {u'target': [], u'time': []}}, u'click': {u'state': {u'target': [u'8', u'7', u'6', u'5'], u'time': [762, 1530, 2365, 5415]}, u'edge': {u'target': [], u'time': []}}, u'mouseout': {u'state': {u'target': [], u'time': []}, u'edge': {u'target': [], u'time': []}}}",,"[8, 8, -8]","[7002, 306, 301]",4.0,"[None, None, None]",,387869,31.0,95850.0,mouselab-mdp,2
"[9127, 10257, 11957]","[u'right', u'right', u'up']",test,,,"[0, 1, 5, 9]","{u'mouseover': {u'state': {u'target': [], u'time': []}, u'edge': {u'target': [], u'time': []}}, u'click': {u'state': {u'target': [u'5', u'6', u'8', u'7'], u'time': [4920, 5769, 6845, 7548]}, u'edge': {u'target': [], u'time': []}}, u'mouseout': {u'state': {u'target': [], u'time': []}, u'edge': {u'target': [], u'time': []}}}",,"[-24, 24, 8]","[9124, 632, 1158]",4.0,"[None, None, None]",,402574,32.0,66810.0,mouselab-mdp,2
"[5098, 5974, 6937]","[u'left', u'left', u'down']",test,,,"[0, 3, 7, 14]","{u'mouseover': {u'state': {u'target': [], u'time': []}, u'edge': {u'target': [], u'time': []}}, u'click': {u'state': {u'target': [u'5', u'6', u'7', u'8'], u'time': [1157, 1980, 3045, 3831]}, u'edge': {u'target': [], u'time': []}}, u'mouseout': {u'state': {u'target': [], u'time': []}, u'edge': {u'target': [], u'time': []}}}",,"[24, 24, 8]","[5096, 371, 465]",52.0,"[None, None, None]",,412465,33.0,38018.0,mouselab-mdp,2
"[4326, 5324, 6843]","[u'down', u'down', u'left']",test,,,"[0, 4, 8, 15]","{u'mouseover': {u'state': {u'target': [], u'time': []}, u'edge': {u'target': [], u'time': []}}, u'click': {u'state': {u'target': [u'6', u'5', u'7', u'8'], u'time': [646, 1409, 2243, 3220]}, u'edge': {u'target': [], u'time': []}}, u'mouseout': {u'state': {u'target': [], u'time': []}, u'edge': {u'target': [], u'time': []}}}",,"[-8, 40, 8]","[4323, 481, 1000]",36.0,"[None, None, None]",,423219,34.0,86267.0,mouselab-mdp,2
"[17504, 18174, 18964]","[u'left', u'left', u'up']",test,,,"[0, 3, 7, 13]","{u'mouseover': {u'state': {u'target': [], u'time': []}, u'edge': {u'target': [], u'time': []}}, u'click': {u'state': {u'target': [u'6', u'7', u'8', u'5', u'3', u'2', u'1', u'4', u'13', u'14'], u'time': [1738, 2596, 3489, 4772, 8409, 9210, 9892, 10703, 14472, 16475]}, u'edge': {u'target': [], u'time': []}}, u'mouseout': {u'state': {u'target': [], u'time': []}, u'edge': {u'target': [], u'time': []}}}",,"[-8, -24, 24]","[17501, 159, 298]",-18.0,"[None, None, None]",,445935,35.0,17902.0,mouselab-mdp,2
"[4615, 5347, 6074]","[u'up', u'up', u'left']",test,,,"[0, 2, 6, 11]","{u'mouseover': {u'state': {u'target': [], u'time': []}, u'edge': {u'target': [], u'time': []}}, u'click': {u'state': {u'target': [u'7', u'6', u'5', u'8'], u'time': [1486, 2248, 3090, 3833]}, u'edge': {u'target': [], u'time': []}}, u'mouseout': {u'state': {u'target': [], u'time': []}, u'edge': {u'target': [], u'time': []}}}",,"[8, 24, 40]","[4612, 215, 227]",68.0,"[None, None, None]",,454894,36.0,13709.0,mouselab-mdp,2
"[4359, 5286, 6003]","[u'left', u'left', u'down']",test,,,"[0, 3, 7, 14]","{u'mouseover': {u'state': {u'target': [], u'time': []}, u'edge': {u'target': [], u'time': []}}, u'click': {u'state': {u'target': [u'7', u'6', u'8', u'5'], u'time': [466, 1296, 2143, 2893]}, u'edge': {u'target': [], u'time': []}}, u'mouseout': {u'state': {u'target': [], u'time': []}, u'edge': {u'target': [], u'time': []}}}",,"[-8, 24, 24]","[4357, 427, 227]",36.0,"[None, None, None]",,463587,37.0,63817.0,mouselab-mdp,2
"[7454, 8380, 9172]","[u'up', u'up', u'left']",test,,,"[0, 2, 6, 11]","{u'mouseover': {u'state': {u'target': [], u'time': []}, u'edge': {u'target': [], u'time': []}}, u'click': {u'state': {u'target': [u'6', u'7', u'8', u'5'], u'time': [1094, 2965, 4618, 5786]}, u'edge': {u'target': [], u'time': []}}, u'mouseout': {u'state': {u'target': [], u'time': []}, u'edge': {u'target': [], u'time': []}}}",,"[-24, -8, -8]","[7451, 418, 294]",-44.0,"[None, None, None]",,475486,38.0,2371.0,mouselab-mdp,2
"[4919, 5565, 6503]","[u'up', u'up', u'left']",test,,,"[0, 2, 6, 11]","{u'mouseover': {u'state': {u'target': [], u'time': []}, u'edge': {u'target': [], u'time': []}}, u'click': {u'state': {u'target': [u'7', u'6', u'5', u'8'], u'time': [1053, 2446, 3328, 4127]}, u'edge': {u'target': [], u'time': []}}, u'mouseout': {u'state': {u'target': [], u'time': []}, u'edge': {u'target': [], u'time': []}}}",,"[40, 24, -8]","[4915, 141, 429]",52.0,"[None, None, None]",,484753,39.0,0.0,mouselab-mdp,2
"[4892, 5711, 6391]","[u'left', u'left', u'down']",test,,,"[0, 3, 7, 14]","{u'mouseover': {u'state': {u'target': [], u'time': []}, u'edge': {u'target': [], u'time': []}}, u'click': {u'state': {u'target': [u'6', u'7', u'8', u'5'], u'time': [1536, 2422, 3266, 4050]}, u'edge': {u'target': [], u'time': []}}, u'mouseout': {u'state': {u'target': [], u'time': []}, u'edge': {u'target': [], u'time': []}}}",,"[40, 24, -24]","[4890, 326, 170]",36.0,"[None, None, None]",,493915,40.0,9909.0,mouselab-mdp,2
"[3815, 4618, 5428]","[u'left', u'left', u'up']",test,,,"[0, 3, 7, 13]","{u'mouseover': {u'state': {u'target': [], u'time': []}, u'edge': {u'target': [], u'time': []}}, u'click': {u'state': {u'target': [u'7'], u'time': [2141]}, u'edge': {u'target': [], u'time': []}}, u'mouseout': {u'state': {u'target': [], u'time': []}, u'edge': {u'target': [], u'time': []}}}",,"[8, 40, -24]","[3812, 289, 297]",23.0,"[None, None, None]",,501743,41.0,33791.0,mouselab-mdp,2
"[7209, 7885, 8618]","[u'right', u'right', u'up']",test,,,"[0, 1, 5, 9]","{u'mouseover': {u'state': {u'target': [], u'time': []}, u'edge': {u'target': [], u'time': []}}, u'click': {u'state': {u'target': [u'6', u'5', u'8', u'7'], u'time': [3668, 4542, 5559, 6330]}, u'edge': {u'target': [], u'time': []}}, u'mouseout': {u'state': {u'target': [], u'time': []}, u'edge': {u'target': [], u'time': []}}}",,"[-8, 24, -8]","[7206, 186, 219]",4.0,"[None, None, None]",,512896,42.0,52952.0,mouselab-mdp,2
"[6405, 7197, 7994]","[u'down', u'down', u'right']",test,,,"[0, 4, 8, 16]","{u'mouseover': {u'state': {u'target': [], u'time': []}, u'edge': {u'target': [], u'time': []}}, u'click': {u'state': {u'target': [u'5', u'7', u'6', u'8'], u'time': [1706, 2744, 4288, 5438]}, u'edge': {u'target': [], u'time': []}}, u'mouseout': {u'state': {u'target': [], u'time': []}, u'edge': {u'target': [], u'time': []}}}",,"[-8, 24, -8]","[6402, 301, 280]",4.0,"[None, None, None]",,523717,43.0,19114.0,mouselab-mdp,2
"[5157, 5986, 9858]","[u'left', u'left', u'up']",test,,,"[0, 3, 7, 13]","{u'mouseover': {u'state': {u'target': [], u'time': []}, u'edge': {u'target': [], u'time': []}}, u'click': {u'state': {u'target': [u'5', u'6', u'7', u'8'], u'time': [857, 1771, 2502, 4095]}, u'edge': {u'target': [], u'time': []}}, u'mouseout': {u'state': {u'target': [], u'time': []}, u'edge': {u'target': [], u'time': []}}}",,"[24, 24, 8]","[5154, 312, 3350]",52.0,"[None, None, None]",,537614,44.0,1508.0,mouselab-mdp,2
"[15876, 16424, 17136]","[u'down', u'down', u'left']",test,,,"[0, 4, 8, 15]","{u'mouseover': {u'state': {u'target': [], u'time': []}, u'edge': {u'target': [], u'time': []}}, u'click': {u'state': {u'target': [u'7', u'6', u'5', u'8', u'4', u'16', u'10', u'1', u'9'], u'time': [1049, 5065, 6010, 6763, 8148, 11225, 12790, 13631, 14488]}, u'edge': {u'target': [], u'time': []}}, u'mouseout': {u'state': {u'target': [], u'time': []}, u'edge': {u'target': [], u'time': []}}}",,"[-8, 8, 8]","[15874, 53, 198]",-1.0,"[None, None, None]",,557683,45.0,93561.0,mouselab-mdp,2
"[8728, 9593, 11284]","[u'up', u'up', u'left']",test,,,"[0, 2, 6, 11]","{u'mouseover': {u'state': {u'target': [], u'time': []}, u'edge': {u'target': [], u'time': []}}, u'click': {u'state': {u'target': [u'7', u'6', u'5', u'8'], u'time': [2196, 3909, 5161, 6194]}, u'edge': {u'target': [], u'time': []}}, u'mouseout': {u'state': {u'target': [], u'time': []}, u'edge': {u'target': [], u'time': []}}}",,"[24, 24, -24]","[8725, 346, 1168]",20.0,"[None, None, None]",,571832,46.0,78999.0,mouselab-mdp,2
"[6544, 7333, 9033]","[u'left', u'left', u'up']",test,,,"[0, 3, 7, 13]","{u'mouseover': {u'state': {u'target': [], u'time': []}, u'edge': {u'target': [], u'time': []}}, u'click': {u'state': {u'target': [u'6', u'5', u'7'], u'time': [2914, 3946, 5189]}, u'edge': {u'target': [], u'time': []}}, u'mouseout': {u'state': {u'target': [], u'time': []}, u'edge': {u'target': [], u'time': []}}}",,"[40, 40, 40]","[6540, 298, 1179]",117.0,"[None, None, None]",,583881,47.0,21534.0,mouselab-mdp,2
"[7111, 7889, 8589]","[u'down', u'down', u'left']",test,,,"[0, 4, 8, 15]","{u'mouseover': {u'state': {u'target': [], u'time': []}, u'edge': {u'target': [], u'time': []}}, u'click': {u'state': {u'target': [u'7', u'5', u'8', u'6'], u'time': [975, 3267, 4385, 6104]}, u'edge': {u'target': [], u'time': []}}, u'mouseout': {u'state': {u'target': [], u'time': []}, u'edge': {u'target': [], u'time': []}}}",,"[-8, 24, -8]","[7108, 275, 190]",4.0,"[None, None, None]",,595581,48.0,71251.0,mouselab-mdp,2
"[5977, 6888, 7750]","[u'left', u'left', u'down']",test,,,"[0, 3, 7, 14]","{u'mouseover': {u'state': {u'target': [], u'time': []}, u'edge': {u'target': [], u'time': []}}, u'click': {u'state': {u'target': [u'7', u'6', u'5', u'8'], u'time': [1634, 2929, 4052, 5132]}, u'edge': {u'target': [], u'time': []}}, u'mouseout': {u'state': {u'target': [], u'time': []}, u'edge': {u'target': [], u'time': []}}}",,"[-8, 24, 24]","[5975, 390, 343]",36.0,"[None, None, None]",,606223,49.0,67640.0,mouselab-mdp,2
"[3898, 5593, 6388]","[u'down', u'down', u'left']",train_basic,,,"[0, 4, 8, 15]","{u'mouseover': {u'state': {u'target': [], u'time': []}, u'edge': {u'target': [], u'time': []}}, u'click': {u'state': {u'target': [], u'time': []}, u'edge': {u'target': [], u'time': []}}, u'mouseout': {u'state': {u'target': [], u'time': []}, u'edge': {u'target': [], u'time': []}}}",,"[-40, 40, 24]","[3888, 1112, 272]",24.0,"[None, None, None]",,9138,0.0,51344.0,mouselab-mdp,3
"[3620, 4190, 4748]","[u'right', u'right', u'up']",train_basic,,,"[0, 1, 5, 9]","{u'mouseover': {u'state': {u'target': [], u'time': []}, u'edge': {u'target': [], u'time': []}}, u'click': {u'state': {u'target': [], u'time': []}, u'edge': {u'target': [], u'time': []}}, u'mouseout': {u'state': {u'target': [], u'time': []}, u'edge': {u'target': [], u'time': []}}}",,"[-8, -24, 24]","[3613, 43, 36]",-8.0,"[None, None, None]",,16640,1.0,44167.0,mouselab-mdp,3
"[2193, 2719, 3384]","[u'right', u'right', u'up']",train_basic,,,"[0, 1, 5, 9]","{u'mouseover': {u'state': {u'target': [], u'time': []}, u'edge': {u'target': [], u'time': []}}, u'click': {u'state': {u'target': [], u'time': []}, u'edge': {u'target': [], u'time': []}}, u'mouseout': {u'state': {u'target': [], u'time': []}, u'edge': {u'target': [], u'time': []}}}",,"[-24, -24, 24]","[2186, 5, 64]",-24.0,"[None, None, None]",,22637,2.0,71370.0,mouselab-mdp,3
"[1759, 2303, 2989]","[u'up', u'up', u'right']",train_basic,,,"[0, 2, 6, 12]","{u'mouseover': {u'state': {u'target': [], u'time': []}, u'edge': {u'target': [], u'time': []}}, u'click': {u'state': {u'target': [], u'time': []}, u'edge': {u'target': [], u'time': []}}, u'mouseout': {u'state': {u'target': [], u'time': []}, u'edge': {u'target': [], u'time': []}}}",,"[-8, -24, 40]","[1754, 18, 173]",8.0,"[None, None, None]",,28837,3.0,30565.0,mouselab-mdp,3
"[1700, 2923, 3778]","[u'up', u'up', u'left']",train_basic,,,"[0, 2, 6, 11]","{u'mouseover': {u'state': {u'target': [], u'time': []}, u'edge': {u'target': [], u'time': []}}, u'click': {u'state': {u'target': [], u'time': []}, u'edge': {u'target': [], u'time': []}}, u'mouseout': {u'state': {u'target': [], u'time': []}, u'edge': {u'target': [], u'time': []}}}",,"[-8, -8, 24]","[1694, 703, 341]",8.0,"[None, None, None]",,35360,4.0,91720.0,mouselab-mdp,3
"[7274, 7865, 8626]","[u'down', u'down', u'right']",train_basic,,,"[0, 4, 8, 16]","{u'mouseover': {u'state': {u'target': [], u'time': []}, u'edge': {u'target': [], u'time': []}}, u'click': {u'state': {u'target': [], u'time': []}, u'edge': {u'target': [], u'time': []}}, u'mouseout': {u'state': {u'target': [], u'time': []}, u'edge': {u'target': [], u'time': []}}}",,"[24, 24, -8]","[7268, 84, 238]",40.0,"[None, None, None]",,47045,5.0,17987.0,mouselab-mdp,3
"[2261, 2788, 3704]","[u'right', u'right', u'up']",train_basic,,,"[0, 1, 5, 9]","{u'mouseover': {u'state': {u'target': [], u'time': []}, u'edge': {u'target': [], u'time': []}}, u'click': {u'state': {u'target': [], u'time': []}, u'edge': {u'target': [], u'time': []}}, u'mouseout': {u'state': {u'target': [], u'time': []}, u'edge': {u'target': [], u'time': []}}}",,"[24, -8, 24]","[2255, 4, 372]",40.0,"[None, None, None]",,54564,6.0,95875.0,mouselab-mdp,3
"[1414, 1938, 2862]","[u'up', u'up', u'right']",train_basic,,,"[0, 2, 6, 12]","{u'mouseover': {u'state': {u'target': [], u'time': []}, u'edge': {u'target': [], u'time': []}}, u'click': {u'state': {u'target': [], u'time': []}, u'edge': {u'target': [], u'time': []}}, u'mouseout': {u'state': {u'target': [], u'time': []}, u'edge': {u'target': [], u'time': []}}}",,"[8, -24, 40]","[1406, 5, 381]",24.0,"[None, None, None]",,60094,7.0,39785.0,mouselab-mdp,3
"[2087, 2731, 3555]","[u'up', u'up', u'left']",train_basic,,,"[0, 2, 6, 11]","{u'mouseover': {u'state': {u'target': [], u'time': []}, u'edge': {u'target': [], u'time': []}}, u'click': {u'state': {u'target': [], u'time': []}, u'edge': {u'target': [], u'time': []}}, u'mouseout': {u'state': {u'target': [], u'time': []}, u'edge': {u'target': [], u'time': []}}}",,"[-8, 40, 24]","[2080, 117, 308]",56.0,"[None, None, None]",,66390,8.0,68146.0,mouselab-mdp,3
"[2433, 3017, 3695]","[u'left', u'left', u'up']",train_basic,,,"[0, 3, 7, 13]","{u'mouseover': {u'state': {u'target': [], u'time': []}, u'edge': {u'target': [], u'time': []}}, u'click': {u'state': {u'target': [], u'time': []}, u'edge': {u'target': [], u'time': []}}, u'mouseout': {u'state': {u'target': [], u'time': []}, u'edge': {u'target': [], u'time': []}}}",,"[8, -40, 24]","[2428, 68, 163]",-8.0,"[None, None, None]",,72928,9.0,14340.0,mouselab-mdp,3
"[2579, 3270, 5210]","[u'up', u'up', u'left']",train_hidden,,,"[0, 2, 6, 11]","{u'mouseover': {u'state': {u'target': [], u'time': []}, u'edge': {u'target': [], u'time': []}}, u'click': {u'state': {u'target': [], u'time': []}, u'edge': {u'target': [], u'time': []}}, u'mouseout': {u'state': {u'target': [], u'time': []}, u'edge': {u'target': [], u'time': []}}}",,"[24, -40, 8]","[2573, 164, 1421]",-8.0,"[None, None, None]",,83542,10.0,20726.0,mouselab-mdp,3
"[1330, 2090, 3763]","[u'right', u'right', u'up']",train_hidden,,,"[0, 1, 5, 9]","{u'mouseover': {u'state': {u'target': [], u'time': []}, u'edge': {u'target': [], u'time': []}}, u'click': {u'state': {u'target': [], u'time': []}, u'edge': {u'target': [], u'time': []}}, u'mouseout': {u'state': {u'target': [], u'time': []}, u'edge': {u'target': [], u'time': []}}}",,"[-24, -8, -24]","[1325, 236, 1161]",-56.0,"[None, None, None]",,90375,11.0,52408.0,mouselab-mdp,3
"[1157, 1835, 3086]","[u'left', u'left', u'up']",train_hidden,,,"[0, 3, 7, 13]","{u'mouseover': {u'state': {u'target': [], u'time': []}, u'edge': {u'target': [], u'time': []}}, u'click': {u'state': {u'target': [], u'time': []}, u'edge': {u'target': [], u'time': []}}, u'mouseout': {u'state': {u'target': [], u'time': []}, u'edge': {u'target': [], u'time': []}}}",,"[8, -8, 8]","[1151, 166, 732]",8.0,"[None, None, None]",,96678,12.0,33933.0,mouselab-mdp,3
"[1416, 2160, 4040]","[u'down', u'down', u'right']",train_hidden,,,"[0, 4, 8, 16]","{u'mouseover': {u'state': {u'target': [], u'time': []}, u'edge': {u'target': [], u'time': []}}, u'click': {u'state': {u'target': [], u'time': []}, u'edge': {u'target': [], u'time': []}}, u'mouseout': {u'state': {u'target': [], u'time': []}, u'edge': {u'target': [], u'time': []}}}",,"[24, 8, -24]","[1410, 221, 1353]",8.0,"[None, None, None]",,103555,13.0,13428.0,mouselab-mdp,3
"[797, 1394, 3248]","[u'up', u'up', u'left']",train_hidden,,,"[0, 2, 6, 11]","{u'mouseover': {u'state': {u'target': [], u'time': []}, u'edge': {u'target': [], u'time': []}}, u'click': {u'state': {u'target': [], u'time': []}, u'edge': {u'target': [], u'time': []}}, u'mouseout': {u'state': {u'target': [], u'time': []}, u'edge': {u'target': [], u'time': []}}}",,"[-24, -24, 24]","[789, 69, 1327]",-24.0,"[None, None, None]",,109734,14.0,76793.0,mouselab-mdp,3
"[13910, 14618, 15926]","[u'right', u'right', u'down']",train_inspector,,,"[0, 1, 5, 10]","{u'mouseover': {u'state': {u'target': [], u'time': []}, u'edge': {u'target': [], u'time': []}}, u'click': {u'state': {u'target': [u'9', u'10', u'14'], u'time': [8866, 10701, 12184]}, u'edge': {u'target': [], u'time': []}}, u'mouseout': {u'state': {u'target': [], u'time': []}, u'edge': {u'target': [], u'time': []}}}",,"[40, -8, 24]","[13903, 181, 788]",56.0,"[None, None, None]",,130973,15.0,23279.0,mouselab-mdp,3
"[14834, 15470, 16390]","[u'left', u'left', u'up']",train_inspector,,,"[0, 3, 7, 13]","{u'mouseover': {u'state': {u'target': [], u'time': []}, u'edge': {u'target': [], u'time': []}}, u'click': {u'state': {u'target': [u'9', u'14', u'13'], u'time': [4012, 10810, 13035]}, u'edge': {u'target': [], u'time': []}}, u'mouseout': {u'state': {u'target': [], u'time': []}, u'edge': {u'target': [], u'time': []}}}",,"[-8, 8, 24]","[14826, 118, 403]",24.0,"[None, None, None]",,150481,16.0,84513.0,mouselab-mdp,3
"[7485, 8199, 9474]","[u'up', u'up', u'right']",train_inspector,,,"[0, 2, 6, 12]","{u'mouseover': {u'state': {u'target': [], u'time': []}, u'edge': {u'target': [], u'time': []}}, u'click': {u'state': {u'target': [u'12', u'10', u'15'], u'time': [2550, 4110, 5483]}, u'edge': {u'target': [], u'time': []}}, u'mouseout': {u'state': {u'target': [], u'time': []}, u'edge': {u'target': [], u'time': []}}}",,"[-8, 8, 8]","[7476, 201, 709]",8.0,"[None, None, None]",,165196,17.0,7703.0,mouselab-mdp,3
"[5242, 5960, 6920]","[u'left', u'left', u'down']",train_inspector,,,"[0, 3, 7, 14]","{u'mouseover': {u'state': {u'target': [], u'time': []}, u'edge': {u'target': [], u'time': []}}, u'click': {u'state': {u'target': [u'12', u'14', u'10'], u'time': [1539, 2663, 3930]}, u'edge': {u'target': [], u'time': []}}, u'mouseout': {u'state': {u'target': [], u'time': []}, u'edge': {u'target': [], u'time': []}}}",,"[-8, 40, 40]","[5235, 192, 436]",72.0,"[None, None, None]",,175057,18.0,64378.0,mouselab-mdp,3
"[11190, 11851, 12834]","[u'left', u'left', u'up']",train_inspector,,,"[0, 3, 7, 13]","{u'mouseover': {u'state': {u'target': [], u'time': []}, u'edge': {u'target': [], u'time': []}}, u'click': {u'state': {u'target': [u'9', u'14', u'13'], u'time': [1823, 7567, 9674]}, u'edge': {u'target': [], u'time': []}}, u'mouseout': {u'state': {u'target': [], u'time': []}, u'edge': {u'target': [], u'time': []}}}",,"[40, -24, 8]","[11179, 114, 462]",24.0,"[None, None, None]",,190607,19.0,41492.0,mouselab-mdp,3
"[22122, 22733, 23817]","[u'left', u'left', u'up']",train_inspect_cost,,,"[0, 3, 7, 13]","{u'mouseover': {u'state': {u'target': [], u'time': []}, u'edge': {u'target': [], u'time': []}}, u'click': {u'state': {u'target': [u'13'], u'time': [20210]}, u'edge': {u'target': [], u'time': []}}, u'mouseout': {u'state': {u'target': [], u'time': []}, u'edge': {u'target': [], u'time': []}}}",,"[24, 24, 24]","[22116, 90, 559]",71.0,"[None, None, None]",,219762,20.0,15797.0,mouselab-mdp,3
"[12107, 12679, 13515]","[u'right', u'right', u'down']",train_inspect_cost,,,"[0, 1, 5, 10]","{u'mouseover': {u'state': {u'target': [], u'time': []}, u'edge': {u'target': [], u'time': []}}, u'click': {u'state': {u'target': [u'10', u'11', u'15'], u'time': [2052, 5280, 10751]}, u'edge': {u'target': [], u'time': []}}, u'mouseout': {u'state': {u'target': [], u'time': []}, u'edge': {u'target': [], u'time': []}}}",,"[8, 8, 8]","[12097, 53, 322]",21.0,"[None, None, None]",,236735,21.0,55735.0,mouselab-mdp,3
"[3595, 4180, 5033]","[u'right', u'right', u'up']",train_inspect_cost,,,"[0, 1, 5, 9]","{u'mouseover': {u'state': {u'target': [], u'time': []}, u'edge': {u'target': [], u'time': []}}, u'click': {u'state': {u'target': [u'11', u'9'], u'time': [1082, 2047]}, u'edge': {u'target': [], u'time': []}}, u'mouseout': {u'state': {u'target': [], u'time': []}, u'edge': {u'target': [], u'time': []}}}",,"[40, -8, 24]","[3588, 56, 312]",54.0,"[None, None, None]",,245189,22.0,79302.0,mouselab-mdp,3
"[9570, 10180, 12758]","[u'down', u'down', u'right']",train_inspect_cost,,,"[0, 4, 8, 16]","{u'mouseover': {u'state': {u'target': [], u'time': []}, u'edge': {u'target': [], u'time': []}}, u'click': {u'state': {u'target': [u'14', u'9', u'15', u'12'], u'time': [1276, 3201, 4358, 5496]}, u'edge': {u'target': [], u'time': []}}, u'mouseout': {u'state': {u'target': [], u'time': []}, u'edge': {u'target': [], u'time': []}}}",,"[-40, 24, -8]","[9562, 36, 2064]",-28.0,"[None, None, None]",,261003,23.0,48207.0,mouselab-mdp,3
"[6274, 6850, 7695]","[u'left', u'left', u'up']",train_inspect_cost,,,"[0, 3, 7, 13]","{u'mouseover': {u'state': {u'target': [], u'time': []}, u'edge': {u'target': [], u'time': []}}, u'click': {u'state': {u'target': [u'13'], u'time': [4855]}, u'edge': {u'target': [], u'time': []}}, u'mouseout': {u'state': {u'target': [], u'time': []}, u'edge': {u'target': [], u'time': []}}}",,"[8, 8, 24]","[6268, 51, 330]",39.0,"[None, None, None]",,271871,24.0,68348.0,mouselab-mdp,3
"[25120, 25686, 26494]","[u'right', u'right', u'down']",train_final,,,"[0, 1, 5, 10]","{u'mouseover': {u'state': {u'target': [], u'time': []}, u'edge': {u'target': [], u'time': []}}, u'click': {u'state': {u'target': [u'11', u'10', u'9'], u'time': [19630, 20878, 23847]}, u'edge': {u'target': [], u'time': []}}, u'mouseout': {u'state': {u'target': [], u'time': []}, u'edge': {u'target': [], u'time': []}}}",,"[24, 8, 8]","[25114, 39, 264]",37.0,"[None, None, None]",,303635,25.0,94494.0,mouselab-mdp,3
"[6270, 6948, 7758]","[u'down', u'down', u'left']",train_final,,,"[0, 4, 8, 15]","{u'mouseover': {u'state': {u'target': [], u'time': []}, u'edge': {u'target': [], u'time': []}}, u'click': {u'state': {u'target': [u'13', u'11', u'15'], u'time': [1930, 3301, 4733]}, u'edge': {u'target': [], u'time': []}}, u'mouseout': {u'state': {u'target': [], u'time': []}, u'edge': {u'target': [], u'time': []}}}",,"[24, 8, 8]","[6263, 154, 278]",37.0,"[None, None, None]",,314646,26.0,91060.0,mouselab-mdp,3
"[8157, 8789, 9494]","[u'up', u'up', u'left']",train_final,,,"[0, 2, 6, 11]","{u'mouseover': {u'state': {u'target': [], u'time': []}, u'edge': {u'target': [], u'time': []}}, u'click': {u'state': {u'target': [u'9', u'11', u'14'], u'time': [2656, 3918, 6662]}, u'edge': {u'target': [], u'time': []}}, u'mouseout': {u'state': {u'target': [], u'time': []}, u'edge': {u'target': [], u'time': []}}}",,"[8, -40, 8]","[8149, 117, 189]",-27.0,"[None, None, None]",,327369,27.0,18161.0,mouselab-mdp,3
"[7114, 7684, 8644]","[u'down', u'down', u'left']",train_final,,,"[0, 4, 8, 15]","{u'mouseover': {u'state': {u'target': [], u'time': []}, u'edge': {u'target': [], u'time': []}}, u'click': {u'state': {u'target': [u'15', u'11'], u'time': [4812, 5893]}, u'edge': {u'target': [], u'time': []}}, u'mouseout': {u'state': {u'target': [], u'time': []}, u'edge': {u'target': [], u'time': []}}}",,"[-8, 24, 8]","[7107, 46, 438]",22.0,"[None, None, None]",,338882,28.0,69862.0,mouselab-mdp,3
"[6644, 7269, 8130]","[u'down', u'down', u'left']",train_final,,,"[0, 4, 8, 15]","{u'mouseover': {u'state': {u'target': [], u'time': []}, u'edge': {u'target': [], u'time': []}}, u'click': {u'state': {u'target': [u'12', u'11', u'13'], u'time': [1453, 2243, 4967]}, u'edge': {u'target': [], u'time': []}}, u'mouseout': {u'state': {u'target': [], u'time': []}, u'edge': {u'target': [], u'time': []}}}",,"[-8, -8, 8]","[6636, 97, 342]",-11.0,"[None, None, None]",,350270,29.0,63693.0,mouselab-mdp,3
"[10231, 10799, 11506]","[u'up', u'up', u'left']",test,,,"[0, 2, 6, 11]","{u'mouseover': {u'state': {u'target': [], u'time': []}, u'edge': {u'target': [], u'time': []}}, u'click': {u'state': {u'target': [u'13', u'11', u'15', u'9'], u'time': [2224, 4914, 7727, 8956]}, u'edge': {u'target': [], u'time': []}}, u'mouseout': {u'state': {u'target': [], u'time': []}, u'edge': {u'target': [], u'time': []}}}",,"[-8, 24, 8]","[10223, 51, 190]",20.0,"[None, None, None]",,371898,30.0,56523.0,mouselab-mdp,3
"[5787, 6379, 7141]","[u'left', u'left', u'up']",test,,,"[0, 3, 7, 13]","{u'mouseover': {u'state': {u'target': [], u'time': []}, u'edge': {u'target': [], u'time': []}}, u'click': {u'state': {u'target': [u'12', u'13'], u'time': [2606, 4609]}, u'edge': {u'target': [], u'time': []}}, u'mouseout': {u'state': {u'target': [], u'time': []}, u'edge': {u'target': [], u'time': []}}}",,"[8, 8, 24]","[5781, 76, 235]",38.0,"[None, None, None]",,382347,31.0,86486.0,mouselab-mdp,3
"[5572, 6173, 6951]","[u'left', u'left', u'up']",test,,,"[0, 3, 7, 13]","{u'mouseover': {u'state': {u'target': [], u'time': []}, u'edge': {u'target': [], u'time': []}}, u'click': {u'state': {u'target': [u'12', u'13'], u'time': [2763, 4438]}, u'edge': {u'target': [], u'time': []}}, u'mouseout': {u'state': {u'target': [], u'time': []}, u'edge': {u'target': [], u'time': []}}}",,"[-8, 40, 24]","[5559, 84, 264]",54.0,"[None, None, None]",,393055,32.0,74086.0,mouselab-mdp,3
"[7228, 7957, 9243]","[u'down', u'down', u'left']",test,,,"[0, 4, 8, 15]","{u'mouseover': {u'state': {u'target': [], u'time': []}, u'edge': {u'target': [], u'time': []}}, u'click': {u'state': {u'target': [u'10', u'13', u'11', u'15'], u'time': [2509, 3650, 4447, 5776]}, u'edge': {u'target': [], u'time': []}}, u'mouseout': {u'state': {u'target': [], u'time': []}, u'edge': {u'target': [], u'time': []}}}",,"[40, 24, 8]","[7221, 206, 721]",68.0,"[None, None, None]",,405346,33.0,26568.0,mouselab-mdp,3
"[3415, 4244, 5116]","[u'left', u'left', u'up']",test,,,"[0, 3, 7, 13]","{u'mouseover': {u'state': {u'target': [], u'time': []}, u'edge': {u'target': [], u'time': []}}, u'click': {u'state': {u'target': [u'11', u'13'], u'time': [886, 1825]}, u'edge': {u'target': [], u'time': []}}, u'mouseout': {u'state': {u'target': [], u'time': []}, u'edge': {u'target': [], u'time': []}}}",,"[-40, -8, 24]","[3409, 314, 351]",-26.0,"[None, None, None]",,413561,34.0,72051.0,mouselab-mdp,3
"[4629, 5571, 6846]","[u'down', u'down', u'left']",test,,,"[0, 4, 8, 15]","{u'mouseover': {u'state': {u'target': [], u'time': []}, u'edge': {u'target': [], u'time': []}}, u'click': {u'state': {u'target': [u'15', u'10', u'9'], u'time': [1370, 2501, 3291]}, u'edge': {u'target': [], u'time': []}}, u'mouseout': {u'state': {u'target': [], u'time': []}, u'edge': {u'target': [], u'time': []}}}",,"[8, 8, 8]","[4622, 428, 752]",21.0,"[None, None, None]",,423237,35.0,56046.0,mouselab-mdp,3
"[7251, 8213, 9041]","[u'right', u'right', u'down']",test,,,"[0, 1, 5, 10]","{u'mouseover': {u'state': {u'target': [], u'time': []}, u'edge': {u'target': [], u'time': []}}, u'click': {u'state': {u'target': [u'11', u'15', u'10'], u'time': [3355, 4790, 5858]}, u'edge': {u'target': [], u'time': []}}, u'mouseout': {u'state': {u'target': [], u'time': []}, u'edge': {u'target': [], u'time': []}}}",,"[-24, -8, 8]","[7244, 446, 300]",-27.0,"[None, None, None]",,435443,36.0,95064.0,mouselab-mdp,3
"[4170, 5010, 6007]","[u'down', u'down', u'left']",test,,,"[0, 4, 8, 15]","{u'mouseover': {u'state': {u'target': [], u'time': []}, u'edge': {u'target': [], u'time': []}}, u'click': {u'state': {u'target': [u'15'], u'time': [2922]}, u'edge': {u'target': [], u'time': []}}, u'mouseout': {u'state': {u'target': [], u'time': []}, u'edge': {u'target': [], u'time': []}}}",,"[40, -24, 24]","[4164, 321, 472]",39.0,"[None, None, None]",,444765,37.0,84239.0,mouselab-mdp,3
"[4776, 6592, 7304]","[u'down', u'down', u'right']",test,,,"[0, 4, 8, 16]","{u'mouseover': {u'state': {u'target': [], u'time': []}, u'edge': {u'target': [], u'time': []}}, u'click': {u'state': {u'target': [u'11', u'13', u'15'], u'time': [629, 1557, 2453]}, u'edge': {u'target': [], u'time': []}}, u'mouseout': {u'state': {u'target': [], u'time': []}, u'edge': {u'target': [], u'time': []}}}",,"[-24, 8, 8]","[4768, 1297, 168]",-11.0,"[None, None, None]",,455300,38.0,92862.0,mouselab-mdp,3
"[8871, 9670, 10596]","[u'right', u'right', u'up']",test,,,"[0, 1, 5, 9]","{u'mouseover': {u'state': {u'target': [], u'time': []}, u'edge': {u'target': [], u'time': []}}, u'click': {u'state': {u'target': [u'13', u'15', u'11', u'9'], u'time': [1490, 2636, 5240, 7793]}, u'edge': {u'target': [], u'time': []}}, u'mouseout': {u'state': {u'target': [], u'time': []}, u'edge': {u'target': [], u'time': []}}}",,"[40, -8, 24]","[8862, 271, 394]",52.0,"[None, None, None]",,469037,39.0,19555.0,mouselab-mdp,3
"[4617, 5577, 6426]","[u'down', u'down', u'left']",test,,,"[0, 4, 8, 15]","{u'mouseover': {u'state': {u'target': [], u'time': []}, u'edge': {u'target': [], u'time': []}}, u'click': {u'state': {u'target': [u'13', u'15', u'9'], u'time': [1250, 2327, 3457]}, u'edge': {u'target': [], u'time': []}}, u'mouseout': {u'state': {u'target': [], u'time': []}, u'edge': {u'target': [], u'time': []}}}",,"[24, -8, 8]","[4611, 413, 330]",21.0,"[None, None, None]",,478376,40.0,39294.0,mouselab-mdp,3
"[3772, 4724, 5539]","[u'down', u'down', u'left']",test,,,"[0, 4, 8, 15]","{u'mouseover': {u'state': {u'target': [], u'time': []}, u'edge': {u'target': [], u'time': []}}, u'click': {u'state': {u'target': [u'15', u'11', u'13'], u'time': [841, 1882, 2678]}, u'edge': {u'target': [], u'time': []}}, u'mouseout': {u'state': {u'target': [], u'time': []}, u'edge': {u'target': [], u'time': []}}}",,"[40, 8, 8]","[3765, 434, 243]",53.0,"[None, None, None]",,486833,41.0,10226.0,mouselab-mdp,3
"[2600, 3534, 4975]","[u'down', u'down', u'left']",test,,,"[0, 4, 8, 15]","{u'mouseover': {u'state': {u'target': [], u'time': []}, u'edge': {u'target': [], u'time': []}}, u'click': {u'state': {u'target': [u'15'], u'time': [1250]}, u'edge': {u'target': [], u'time': []}}, u'mouseout': {u'state': {u'target': [], u'time': []}, u'edge': {u'target': [], u'time': []}}}",,"[24, -8, 8]","[2594, 418, 921]",23.0,"[None, None, None]",,494771,42.0,60716.0,mouselab-mdp,3
"[2724, 3522, 4375]","[u'up', u'up', u'left']",test,,,"[0, 2, 6, 11]","{u'mouseover': {u'state': {u'target': [], u'time': []}, u'edge': {u'target': [], u'time': []}}, u'click': {u'state': {u'target': [u'13', u'11'], u'time': [675, 1480]}, u'edge': {u'target': [], u'time': []}}, u'mouseout': {u'state': {u'target': [], u'time': []}, u'edge': {u'target': [], u'time': []}}}",,"[8, 8, 24]","[2716, 278, 327]",38.0,"[None, None, None]",,502218,43.0,58900.0,mouselab-mdp,3
"[5514, 6338, 7081]","[u'right', u'right', u'up']",test,,,"[0, 1, 5, 9]","{u'mouseover': {u'state': {u'target': [], u'time': []}, u'edge': {u'target': [], u'time': []}}, u'click': {u'state': {u'target': [u'15', u'11', u'13', u'9'], u'time': [929, 1994, 2879, 4526]}, u'edge': {u'target': [], u'time': []}}, u'mouseout': {u'state': {u'target': [], u'time': []}, u'edge': {u'target': [], u'time': []}}}",,"[-40, 40, 24]","[5505, 308, 216]",20.0,"[None, None, None]",,512136,44.0,56072.0,mouselab-mdp,3
"[7458, 8204, 9521]","[u'left', u'left', u'up']",test,,,"[0, 3, 7, 13]","{u'mouseover': {u'state': {u'target': [], u'time': []}, u'edge': {u'target': [], u'time': []}}, u'click': {u'state': {u'target': [u'10', u'15', u'11', u'9', u'13'], u'time': [783, 1647, 2477, 4834, 5716]}, u'edge': {u'target': [], u'time': []}}, u'mouseout': {u'state': {u'target': [], u'time': []}, u'edge': {u'target': [], u'time': []}}}",,"[8, -24, 24]","[7448, 224, 787]",3.0,"[None, None, None]",,524620,45.0,3177.0,mouselab-mdp,3
"[2496, 3326, 4237]","[u'left', u'left', u'up']",test,,,"[0, 3, 7, 13]","{u'mouseover': {u'state': {u'target': [], u'time': []}, u'edge': {u'target': [], u'time': []}}, u'click': {u'state': {u'target': [u'13'], u'time': [1450]}, u'edge': {u'target': [], u'time': []}}, u'mouseout': {u'state': {u'target': [], u'time': []}, u'edge': {u'target': [], u'time': []}}}",,"[-24, 24, 40]","[2489, 303, 385]",39.0,"[None, None, None]",,531821,46.0,99301.0,mouselab-mdp,3
"[3073, 4032, 4902]","[u'down', u'down', u'left']",test,,,"[0, 4, 8, 15]","{u'mouseover': {u'state': {u'target': [], u'time': []}, u'edge': {u'target': [], u'time': []}}, u'click': {u'state': {u'target': [u'13', u'15'], u'time': [831, 1817]}, u'edge': {u'target': [], u'time': []}}, u'mouseout': {u'state': {u'target': [], u'time': []}, u'edge': {u'target': [], u'time': []}}}",,"[8, -8, 24]","[3064, 433, 353]",22.0,"[None, None, None]",,539581,47.0,62654.0,mouselab-mdp,3
"[2768, 3731, 4605]","[u'down', u'down', u'left']",test,,,"[0, 4, 8, 15]","{u'mouseover': {u'state': {u'target': [], u'time': []}, u'edge': {u'target': [], u'time': []}}, u'click': {u'state': {u'target': [u'11', u'15'], u'time': [922, 1808]}, u'edge': {u'target': [], u'time': []}}, u'mouseout': {u'state': {u'target': [], u'time': []}, u'edge': {u'target': [], u'time': []}}}",,"[-8, 40, 24]","[2761, 436, 361]",54.0,"[None, None, None]",,547247,48.0,37857.0,mouselab-mdp,3
"[10659, 11619, 12772]","[u'left', u'left', u'up']",test,,,"[0, 3, 7, 13]","{u'mouseover': {u'state': {u'target': [], u'time': []}, u'edge': {u'target': [], u'time': []}}, u'click': {u'state': {u'target': [u'15', u'13', u'11', u'9'], u'time': [904, 4722, 8116, 9312]}, u'edge': {u'target': [], u'time': []}}, u'mouseout': {u'state': {u'target': [], u'time': []}, u'edge': {u'target': [], u'time': []}}}",,"[8, -40, 8]","[10653, 412, 631]",-28.0,"[None, None, None]",,563280,49.0,400.0,mouselab-mdp,3
"[19826, 21234, 27103]","[u'down', u'down', u'right']",train_basic,,,"[0, 4, 8, 16]","{u'mouseover': {u'state': {u'target': [], u'time': []}, u'edge': {u'target': [], u'time': []}}, u'click': {u'state': {u'target': [], u'time': []}, u'edge': {u'target': [], u'time': []}}, u'mouseout': {u'state': {u'target': [], u'time': []}, u'edge': {u'target': [], u'time': []}}}",,"[24, -40, -8]","[19822, 900, 5368]",-24.0,"[None, None, None]",,42194,0.0,87406.0,mouselab-mdp,4
"[16170, 17389, 18515]","[u'down', u'down', u'left']",train_basic,,,"[0, 4, 8, 15]","{u'mouseover': {u'state': {u'target': [], u'time': []}, u'edge': {u'target': [], u'time': []}}, u'click': {u'state': {u'target': [], u'time': []}, u'edge': {u'target': [], u'time': []}}, u'mouseout': {u'state': {u'target': [], u'time': []}, u'edge': {u'target': [], u'time': []}}}",,"[8, -40, 40]","[16169, 704, 626]",8.0,"[None, None, None]",,65184,1.0,23128.0,mouselab-mdp,4
"[9370, 10359, 11204]","[u'down', u'down', u'right']",train_basic,,,"[0, 4, 8, 16]","{u'mouseover': {u'state': {u'target': [], u'time': []}, u'edge': {u'target': [], u'time': []}}, u'click': {u'state': {u'target': [], u'time': []}, u'edge': {u'target': [], u'time': []}}, u'mouseout': {u'state': {u'target': [], u'time': []}, u'edge': {u'target': [], u'time': []}}}",,"[24, 8, 8]","[9368, 484, 342]",40.0,"[None, None, None]",,79208,2.0,27131.0,mouselab-mdp,4
"[5148, 8147, 8802]","[u'up', u'up', u'left']",train_basic,,,"[0, 2, 6, 11]","{u'mouseover': {u'state': {u'target': [], u'time': []}, u'edge': {u'target': [], u'time': []}}, u'click': {u'state': {u'target': [], u'time': []}, u'edge': {u'target': [], u'time': []}}, u'mouseout': {u'state': {u'target': [], u'time': []}, u'edge': {u'target': [], u'time': []}}}",,"[24, 8, 24]","[5147, 2506, 157]",56.0,"[None, None, None]",,90567,3.0,43082.0,mouselab-mdp,4
