action_times,actions,button_pressed,correct,delays,path,queries,questions,responses,rt,score,stimulus,time_elapsed,trial_index,trial_i,trial_type,view_history,pid
"[14610, 16520, 17497]","[u'right', u'right', u'down']",,,"[0, 0, 0]","[u'1', 2, 6, 11]","{u'mouseover': {u'state': {u'target': [], u'time': []}, u'edge': {u'target': [], u'time': []}}, u'click': {u'state': {u'target': [u'8', u'6', u'11'], u'time': [5921, 7855, 10917]}, u'edge': {u'target': [], u'time': []}}, u'mouseout': {u'state': {u'target': [], u'time': []}, u'edge': {u'target': [], u'time': []}}}",,,"[14609, 3, 238]",33.2,,319439,1.0,6.0,mouselab-mdp,,0
"[16747, 29020, 30435]","[u'up', u'up', u'left']",,,"[9, 0, 0]","[u'1', 3, 7, 12]","{u'mouseover': {u'state': {u'target': [], u'time': []}, u'edge': {u'target': [], u'time': []}}, u'click': {u'state': {u'target': [u'7', u'6', u'13', u'12', u'9', u'8', u'14', u'15'], u'time': [2194, 4157, 5707, 7140, 9651, 11294, 13408, 14951]}, u'edge': {u'target': [], u'time': []}}, u'mouseout': {u'state': {u'target': [], u'time': []}, u'edge': {u'target': [], u'time': []}}}",,,"[16746, 794, 767]",2.2,,378194,2.0,2.0,mouselab-mdp,,0
"[10570, 12700, 13638]","[u'right', u'right', u'down']",,,"[0, 0, 0]","[u'1', 2, 6, 11]","{u'mouseover': {u'state': {u'target': [], u'time': []}, u'edge': {u'target': [], u'time': []}}, u'click': {u'state': {u'target': [u'7', u'8', u'9', u'6', u'10'], u'time': [1638, 2948, 4286, 5541, 6832]}, u'edge': {u'target': [], u'time': []}}, u'mouseout': {u'state': {u'target': [], u'time': []}, u'edge': {u'target': [], u'time': []}}}",,,"[10570, 4, 190]",-2.0,,427747,3.0,5.0,mouselab-mdp,,0
"[9415, 15034, 16242]","[u'right', u'right', u'down']",,,"[3, 0, 0]","[u'1', 2, 6, 11]","{u'mouseover': {u'state': {u'target': [], u'time': []}, u'edge': {u'target': [], u'time': []}}, u'click': {u'state': {u'target': [u'7', u'6', u'10', u'11'], u'time': [2485, 3892, 5640, 7416]}, u'edge': {u'target': [], u'time': []}}, u'mouseout': {u'state': {u'target': [], u'time': []}, u'edge': {u'target': [], u'time': []}}}",,,"[9415, 755, 543]",9.6,,480286,4.0,9.0,mouselab-mdp,,0
"[21707, 24272, 25739]","[u'right', u'right', u'up']",,,"[0, 0, 0]","[u'1', 2, 6, 10]","{u'mouseover': {u'state': {u'target': [], u'time': []}, u'edge': {u'target': [], u'time': []}}, u'click': {u'state': {u'target': [u'6', u'8', u'7', u'13', u'12', u'9', u'16', u'17', u'3', u'10'], u'time': [970, 2422, 3526, 5104, 6855, 8809, 9875, 13270, 15693, 19545]}, u'edge': {u'target': [], u'time': []}}, u'mouseout': {u'state': {u'target': [], u'time': []}, u'edge': {u'target': [], u'time': []}}}",,,"[21707, 3, 798]",6.0,,529160,5.0,10.0,mouselab-mdp,,0
"[5391, 11824, 13134]","[u'right', u'right', u'up']",,,"[4, 0, 0]","[u'1', 2, 6, 10]","{u'mouseover': {u'state': {u'target': [], u'time': []}, u'edge': {u'target': [], u'time': []}}, u'click': {u'state': {u'target': [u'6', u'10', u'2'], u'time': [1455, 2583, 3652]}, u'edge': {u'target': [], u'time': []}}, u'mouseout': {u'state': {u'target': [], u'time': []}, u'edge': {u'target': [], u'time': []}}}",,,"[5391, 555, 578]",17.2,,582777,6.0,4.0,mouselab-mdp,,0
"[9293, 14344, 15689]","[u'left', u'left', u'down']",,,"[2, 0, 0]","[u'1', 4, 8, 15]","{u'mouseover': {u'state': {u'target': [], u'time': []}, u'edge': {u'target': [], u'time': []}}, u'click': {u'state': {u'target': [u'7', u'12', u'13', u'8', u'15', u'4'], u'time': [451, 2483, 3612, 5997, 6966, 8042]}, u'edge': {u'target': [], u'time': []}}, u'mouseout': {u'state': {u'target': [], u'time': []}, u'edge': {u'target': [], u'time': []}}}",,,"[9293, 674, 638]",4.4,,637761,7.0,1.0,mouselab-mdp,,0
"[6061, 13389, 15061]","[u'right', u'right', u'up']",,,"[5, 0, 0]","[u'1', 2, 6, 10]","{u'mouseover': {u'state': {u'target': [], u'time': []}, u'edge': {u'target': [], u'time': []}}, u'click': {u'state': {u'target': [u'6', u'10', u'11'], u'time': [1740, 3079, 4805]}, u'edge': {u'target': [], u'time': []}}, u'mouseout': {u'state': {u'target': [], u'time': []}, u'edge': {u'target': [], u'time': []}}}",,,"[6060, 586, 997]",3.2,,693592,8.0,0.0,mouselab-mdp,,0
"[3572, 8084, 9245]","[u'left', u'left', u'down']",,,"[2, 0, 0]","[u'1', 4, 8, 15]","{u'mouseover': {u'state': {u'target': [], u'time': []}, u'edge': {u'target': [], u'time': []}}, u'click': {u'state': {u'target': [u'8', u'15'], u'time': [1033, 2256]}, u'edge': {u'target': [], u'time': []}}, u'mouseout': {u'state': {u'target': [], u'time': []}, u'edge': {u'target': [], u'time': []}}}",,,"[3571, 794, 446]",22.8,,744679,9.0,3.0,mouselab-mdp,,0
"[11214, 13293, 14694]","[u'up', u'up', u'right']",,,"[0, 0, 0]","[u'1', 3, 7, 13]","{u'mouseover': {u'state': {u'target': [], u'time': []}, u'edge': {u'target': [], u'time': []}}, u'click': {u'state': {u'target': [u'6', u'10', u'8', u'15', u'7'], u'time': [1686, 3662, 7836, 8783, 9860]}, u'edge': {u'target': [], u'time': []}}, u'mouseout': {u'state': {u'target': [], u'time': []}, u'edge': {u'target': [], u'time': []}}}",,,"[11214, 3, 664]",17.0,,792716,10.0,11.0,mouselab-mdp,,0
"[4003, 7507, 8815]","[u'up', u'up', u'right']",,,"[1, 0, 0]","[u'1', 3, 7, 13]","{u'mouseover': {u'state': {u'target': [], u'time': []}, u'edge': {u'target': [], u'time': []}}, u'click': {u'state': {u'target': [u'7', u'13'], u'time': [1668, 2891]}, u'edge': {u'target': [], u'time': []}}, u'mouseout': {u'state': {u'target': [], u'time': []}, u'edge': {u'target': [], u'time': []}}}",,,"[4003, 811, 577]",31.8,,842313,11.0,8.0,mouselab-mdp,,0
"[3821, 7325, 8878]","[u'down', u'down', u'right']",,,"[1, 0, 0]","[u'1', 5, 9, 17]","{u'mouseover': {u'state': {u'target': [], u'time': []}, u'edge': {u'target': [], u'time': []}}, u'click': {u'state': {u'target': [u'9', u'17'], u'time': [1771, 2804]}, u'edge': {u'target': [], u'time': []}}, u'mouseout': {u'state': {u'target': [], u'time': []}, u'edge': {u'target': [], u'time': []}}}",,,"[3821, 807, 828]",30.8,,891761,12.0,7.0,mouselab-mdp,,0
"[73379, 101755, 109819]","[u'right', u'right', u'up']",,,"[5, 0, 1]","[u'1', 2, 6, 10]","{u'mouseover': {u'state': {u'target': [], u'time': []}, u'edge': {u'target': [], u'time': []}}, u'click': {u'state': {u'target': [u'2', u'7', u'13', u'11', u'6', u'10', u'9', u'16', u'17', u'5', u'4', u'8', u'15', u'3'], u'time': [1814, 6395, 7541, 9813, 11622, 12200, 15791, 18685, 19855, 20494, 21234, 21872, 22463, 34027]}, u'edge': {u'target': [], u'time': []}}, u'mouseout': {u'state': {u'target': [], u'time': []}, u'edge': {u'target': [], u'time': []}}}",,,"[73377, 1146, 6551]",11.6,,268931,1.0,3.0,mouselab-mdp,,1
"[23583, 48407, 56253]","[u'right', u'right', u'up']",,,"[5, 0, 1]","[u'1', 2, 6, 10]","{u'mouseover': {u'state': {u'target': [], u'time': []}, u'edge': {u'target': [], u'time': []}}, u'click': {u'state': {u'target': [u'2', u'6', u'11', u'10', u'5', u'9', u'17', u'16', u'3', u'7', u'13', u'12'], u'time': [2293, 3751, 4552, 5662, 6712, 7308, 7917, 9036, 10022, 10464, 10930, 11840]}, u'edge': {u'target': [], u'time': []}}, u'mouseout': {u'state': {u'target': [], u'time': []}, u'edge': {u'target': [], u'time': []}}}",,,"[23582, 4940, 6748]",14.8,,338524,2.0,2.0,mouselab-mdp,,1
"[18552, 42644, 45438]","[u'up', u'up', u'left']",,,"[5, 0, 1]","[u'1', 3, 7, 12]","{u'mouseover': {u'state': {u'target': [], u'time': []}, u'edge': {u'target': [], u'time': []}}, u'click': {u'state': {u'target': [u'4', u'8', u'14', u'15', u'5', u'9', u'16', u'17', u'7', u'3', u'12', u'13', u'2', u'6', u'10', u'11'], u'time': [3658, 4372, 5769, 6595, 7385, 7990, 8369, 9004, 9733, 10015, 11566, 12976, 15488, 16125, 16584, 17293]}, u'edge': {u'target': [], u'time': []}}, u'mouseout': {u'state': {u'target': [], u'time': []}, u'edge': {u'target': [], u'time': []}}}",,,"[18551, 3855, 2264]",11.4,,414281,3.0,9.0,mouselab-mdp,,1
"[9376, 27592, 29076]","[u'right', u'right', u'down']",,,"[5, 0, 1]","[u'1', 2, 6, 11]","{u'mouseover': {u'state': {u'target': [], u'time': []}, u'edge': {u'target': [], u'time': []}}, u'click': {u'state': {u'target': [u'3', u'7', u'12', u'13', u'2', u'6', u'10', u'11'], u'time': [1620, 2397, 3247, 4050, 5431, 6201, 6910, 8206]}, u'edge': {u'target': [], u'time': []}}, u'mouseout': {u'state': {u'target': [], u'time': []}, u'edge': {u'target': [], u'time': []}}}",,,"[9376, 333, 6]",25.2,,485541,4.0,11.0,mouselab-mdp,,1
"[22849, 45240, 46654]","[u'right', u'right', u'up']",,,"[5, 0, 1]","[u'1', 2, 6, 10]","{u'mouseover': {u'state': {u'target': [], u'time': []}, u'edge': {u'target': [], u'time': []}}, u'click': {u'state': {u'target': [u'4', u'8', u'2', u'6', u'5', u'3', u'10', u'11', u'7', u'12', u'13', u'17', u'9', u'16'], u'time': [2028, 2743, 3927, 4701, 6939, 7996, 9870, 14260, 16791, 17279, 18035, 19536, 19918, 20622]}, u'edge': {u'target': [], u'time': []}}, u'mouseout': {u'state': {u'target': [], u'time': []}, u'edge': {u'target': [], u'time': []}}}",,,"[22848, 398, 331]",-0.4,,558676,5.0,10.0,mouselab-mdp,,1
"[16728, 38322, 40011]","[u'up', u'up', u'right']",,,"[5, 0, 1]","[u'1', 3, 7, 13]","{u'mouseover': {u'state': {u'target': [], u'time': []}, u'edge': {u'target': [], u'time': []}}, u'click': {u'state': {u'target': [u'2', u'3', u'7', u'12', u'13', u'5', u'9', u'16', u'17'], u'time': [759, 1688, 2646, 3465, 4260, 6766, 7898, 9406, 10298]}, u'edge': {u'target': [], u'time': []}}, u'mouseout': {u'state': {u'target': [], u'time': []}, u'edge': {u'target': [], u'time': []}}}",,,"[16728, 2222, 221]",0.6,,637089,6.0,0.0,mouselab-mdp,,1
"[6872, 24747, 27034]","[u'right', u'right', u'down']",,,"[5, 0, 1]","[u'1', 2, 6, 11]","{u'mouseover': {u'state': {u'target': [], u'time': []}, u'edge': {u'target': [], u'time': []}}, u'click': {u'state': {u'target': [u'2', u'3', u'7', u'6', u'10', u'11'], u'time': [821, 2039, 2743, 4331, 5018, 5967]}, u'edge': {u'target': [], u'time': []}}, u'mouseout': {u'state': {u'target': [], u'time': []}, u'edge': {u'target': [], u'time': []}}}",,,"[6872, 307, 312]",28.4,,706462,7.0,6.0,mouselab-mdp,,1
"[13166, 35929, 37954]","[u'left', u'left', u'up']",,,"[5, 0, 1]","[u'1', 4, 8, 14]","{u'mouseover': {u'state': {u'target': [], u'time': []}, u'edge': {u'target': [], u'time': []}}, u'click': {u'state': {u'target': [u'2', u'6', u'10', u'11', u'3', u'7', u'5', u'9', u'4', u'8', u'14'], u'time': [989, 1772, 2779, 3899, 6900, 7415, 8619, 9296, 10227, 10887, 11799]}, u'edge': {u'target': [], u'time': []}}, u'mouseout': {u'state': {u'target': [], u'time': []}, u'edge': {u'target': [], u'time': []}}}",,,"[13165, 376, 6]",16.4,,780617,8.0,5.0,mouselab-mdp,,1
"[6991, 28296, 30961]","[u'down', u'down', u'left']",,,"[5, 0, 1]","[u'1', 5, 9, 16]","{u'mouseover': {u'state': {u'target': [], u'time': []}, u'edge': {u'target': [], u'time': []}}, u'click': {u'state': {u'target': [u'2', u'4', u'5', u'9', u'16'], u'time': [2154, 3227, 4031, 4958, 5727]}, u'edge': {u'target': [], u'time': []}}, u'mouseout': {u'state': {u'target': [], u'time': []}, u'edge': {u'target': [], u'time': []}}}",,,"[6991, 1549, 6]",38.0,,854712,9.0,1.0,mouselab-mdp,,1
"[6093, 23509, 25838]","[u'up', u'up', u'left']",,,"[5, 0, 1]","[u'1', 3, 7, 12]","{u'mouseover': {u'state': {u'target': [], u'time': []}, u'edge': {u'target': [], u'time': []}}, u'click': {u'state': {u'target': [u'3', u'7', u'12'], u'time': [744, 1758, 2478]}, u'edge': {u'target': [], u'time': []}}, u'mouseout': {u'state': {u'target': [], u'time': []}, u'edge': {u'target': [], u'time': []}}}",,,"[6092, 994, 6]",14.2,,921836,10.0,7.0,mouselab-mdp,,1
"[3430, 21127, 23497]","[u'up', u'up', u'left']",,,"[5, 0, 1]","[u'1', 3, 7, 12]","{u'mouseover': {u'state': {u'target': [], u'time': []}, u'edge': {u'target': [], u'time': []}}, u'click': {u'state': {u'target': [u'3', u'7', u'12'], u'time': [840, 1430, 2470]}, u'edge': {u'target': [], u'time': []}}, u'mouseout': {u'state': {u'target': [], u'time': []}, u'edge': {u'target': [], u'time': []}}}",,,"[3430, 1612, 6]",36.2,,990583,11.0,8.0,mouselab-mdp,,1
"[9952, 30913, 33101]","[u'up', u'up', u'left']",,,"[5, 0, 1]","[u'1', 3, 7, 12]","{u'mouseover': {u'state': {u'target': [], u'time': []}, u'edge': {u'target': [], u'time': []}}, u'click': {u'state': {u'target': [u'3', u'2', u'4', u'8', u'14', u'15', u'7', u'12'], u'time': [2307, 3616, 4566, 5522, 6138, 6907, 8020, 8545]}, u'edge': {u'target': [], u'time': []}}, u'mouseout': {u'state': {u'target': [], u'time': []}, u'edge': {u'target': [], u'time': []}}}",,,"[9950, 1479, 395]",10.2,,1069721,12.0,4.0,mouselab-mdp,,1
"[4847, 17277, 24156]","[u'right', u'right', u'up']",,,"[5, 3, 3]","[u'1', 2, 6, 10]","{u'mouseover': {u'state': {u'target': [], u'time': []}, u'edge': {u'target': [], u'time': []}}, u'click': {u'state': {u'target': [u'6', u'11'], u'time': [14570, 23058]}, u'edge': {u'target': [], u'time': []}}, u'mouseout': {u'state': {u'target': [], u'time': []}, u'edge': {u'target': [], u'time': []}}}",,,"[4846, 5472, 2724]",4.8,,197538,1.0,0.0,mouselab-mdp,,2
"[7419, 15116, 18987]","[u'left', u'left', u'down']",,,"[2, 0, 0]","[u'1', 4, 8, 15]","{u'mouseover': {u'state': {u'target': [], u'time': []}, u'edge': {u'target': [], u'time': []}}, u'click': {u'state': {u'target': [u'2', u'4'], u'time': [2310, 3925]}, u'edge': {u'target': [], u'time': []}}, u'mouseout': {u'state': {u'target': [], u'time': []}, u'edge': {u'target': [], u'time': []}}}",,,"[7419, 2854, 2928]",2.8,,256624,2.0,6.0,mouselab-mdp,,2
"[7484, 13085, 15612]","[u'down', u'down', u'left']",,,"[0, 0, 0]","[u'1', 5, 9, 16]","{u'mouseover': {u'state': {u'target': [], u'time': []}, u'edge': {u'target': [], u'time': []}}, u'click': {u'state': {u'target': [u'3', u'5', u'4', u'2'], u'time': [1046, 2086, 2986, 5182]}, u'edge': {u'target': [], u'time': []}}, u'mouseout': {u'state': {u'target': [], u'time': []}, u'edge': {u'target': [], u'time': []}}}",,,"[7484, 2429, 1575]",-0.4,,321888,3.0,3.0,mouselab-mdp,,2
"[4809, 10297, 17864]","[u'up', u'up', u'left']",,,"[1, 0, 0]","[u'1', 3, 7, 12]","{u'mouseover': {u'state': {u'target': [], u'time': []}, u'edge': {u'target': [], u'time': []}}, u'click': {u'state': {u'target': [u'2', u'3', u'4', u'5', u'13', u'12'], u'time': [1372, 1939, 2580, 3371, 13418, 14148]}, u'edge': {u'target': [], u'time': []}}, u'mouseout': {u'state': {u'target': [], u'time': []}, u'edge': {u'target': [], u'time': []}}}",,,"[4808, 685, 6517]",11.4,,425474,4.0,1.0,mouselab-mdp,,2
"[1037, 15180, 23821]","[u'up', u'up', u'right']",,,"[5, 0, 0]","[u'1', 3, 7, 13]","{u'mouseover': {u'state': {u'target': [], u'time': []}, u'edge': {u'target': [], u'time': []}}, u'click': {u'state': {u'target': [], u'time': []}, u'edge': {u'target': [], u'time': []}}, u'mouseout': {u'state': {u'target': [], u'time': []}, u'edge': {u'target': [], u'time': []}}}",,,"[1035, 7030, 7708]",13.0,,500830,5.0,4.0,mouselab-mdp,,2
"[6357, 15285, 25173]","[u'right', u'right', u'down']",,,"[4, 0, 3]","[u'1', 2, 6, 11]","{u'mouseover': {u'state': {u'target': [], u'time': []}, u'edge': {u'target': [], u'time': []}}, u'click': {u'state': {u'target': [u'2', u'4', u'5', u'3', u'11'], u'time': [2352, 3214, 3766, 4471, 24118]}, u'edge': {u'target': [], u'time': []}}, u'mouseout': {u'state': {u'target': [], u'time': []}, u'edge': {u'target': [], u'time': []}}}",,,"[6357, 1474, 8850]",30.0,,571630,6.0,11.0,mouselab-mdp,,2
"[7891, 17060, 26627]","[u'up', u'up', u'left']",,,"[1, 0, 0]","[u'1', 3, 7, 12]","{u'mouseover': {u'state': {u'target': [], u'time': []}, u'edge': {u'target': [], u'time': []}}, u'click': {u'state': {u'target': [u'2', u'3', u'4', u'13', u'12'], u'time': [3976, 4856, 5661, 21677, 25069]}, u'edge': {u'target': [], u'time': []}}, u'mouseout': {u'state': {u'target': [], u'time': []}, u'edge': {u'target': [], u'time': []}}}",,,"[7891, 4680, 8524]",33.0,,633631,7.0,8.0,mouselab-mdp,,2
"[5065, 9676, 15850]","[u'down', u'down', u'left']",,,"[0, 0, 0]","[u'1', 5, 9, 16]","{u'mouseover': {u'state': {u'target': [], u'time': []}, u'edge': {u'target': [], u'time': []}}, u'click': {u'state': {u'target': [u'2', u'3', u'4', u'5', u'17', u'16'], u'time': [1980, 2616, 3227, 3781, 13691, 14388]}, u'edge': {u'target': [], u'time': []}}, u'mouseout': {u'state': {u'target': [], u'time': []}, u'edge': {u'target': [], u'time': []}}}",,,"[5065, 1345, 5226]",-5.6,,683429,8.0,2.0,mouselab-mdp,,2
"[6114, 12802, 17170]","[u'right', u'right', u'up']",,,"[0, 0, 3]","[u'1', 2, 6, 10]","{u'mouseover': {u'state': {u'target': [], u'time': []}, u'edge': {u'target': [], u'time': []}}, u'click': {u'state': {u'target': [u'5', u'2', u'4', u'11'], u'time': [1782, 2628, 4101, 15964]}, u'edge': {u'target': [], u'time': []}}, u'mouseout': {u'state': {u'target': [], u'time': []}, u'edge': {u'target': [], u'time': []}}}",,,"[6114, 3295, 3256]",1.6,,740237,9.0,7.0,mouselab-mdp,,2
"[14472, 17464, 22936]","[u'up', u'up', u'right']",,,"[0, 0, 0]","[u'1', 3, 7, 13]","{u'mouseover': {u'state': {u'target': [], u'time': []}, u'edge': {u'target': [], u'time': []}}, u'click': {u'state': {u'target': [u'2', u'5', u'3', u'13', u'12'], u'time': [11810, 12697, 13421, 20114, 20714]}, u'edge': {u'target': [], u'time': []}}, u'mouseout': {u'state': {u'target': [], u'time': []}, u'edge': {u'target': [], u'time': []}}}",,,"[14472, 5, 4532]",-7.0,,792735,10.0,5.0,mouselab-mdp,,2
"[4566, 8743, 10598]","[u'right', u'right', u'up']",,,"[0, 0, 0]","[u'1', 2, 6, 10]","{u'mouseover': {u'state': {u'target': [], u'time': []}, u'edge': {u'target': [], u'time': []}}, u'click': {u'state': {u'target': [u'3', u'5', u'2', u'4'], u'time': [1196, 1857, 2449, 3139]}, u'edge': {u'target': [], u'time': []}}, u'mouseout': {u'state': {u'target': [], u'time': []}, u'edge': {u'target': [], u'time': []}}}",,,"[4566, 1046, 847]",15.6,,849037,11.0,10.0,mouselab-mdp,,2
"[22385, 27280, 32256]","[u'up', u'up', u'left']",,,"[1, 0, 0]","[u'1', 3, 7, 12]","{u'mouseover': {u'state': {u'target': [], u'time': []}, u'edge': {u'target': [], u'time': []}}, u'click': {u'state': {u'target': [u'2', u'5', u'4', u'3', u'13', u'12'], u'time': [18443, 19364, 20041, 20763, 30283, 31326]}, u'edge': {u'target': [], u'time': []}}, u'mouseout': {u'state': {u'target': [], u'time': []}, u'edge': {u'target': [], u'time': []}}}",,,"[22385, 495, 3917]",27.4,,906115,12.0,9.0,mouselab-mdp,,2
"[15117, 23043, 30049]","[u'up', u'up', u'right']",,,"[1, 0, 0]","[u'1', 3, 7, 13]","{u'mouseover': {u'state': {u'target': [], u'time': []}, u'edge': {u'target': [], u'time': []}}, u'click': {u'state': {u'target': [u'3', u'2', u'13'], u'time': [6401, 7786, 29096]}, u'edge': {u'target': [], u'time': []}}, u'mouseout': {u'state': {u'target': [], u'time': []}, u'edge': {u'target': [], u'time': []}}}",,,"[15116, 4415, 6091]",30.2,,241700,1.0,8.0,mouselab-mdp,,3
"[8171, 16442, 23143]","[u'right', u'right', u'up']",,,"[1, 0, 3]","[u'1', 2, 6, 10]","{u'mouseover': {u'state': {u'target': [], u'time': []}, u'edge': {u'target': [], u'time': []}}, u'click': {u'state': {u'target': [u'5', u'2', u'11'], u'time': [1780, 3448, 22047]}, u'edge': {u'target': [], u'time': []}}, u'mouseout': {u'state': {u'target': [], u'time': []}, u'edge': {u'target': [], u'time': []}}}",,,"[8171, 4469, 5782]",17.2,,299403,2.0,10.0,mouselab-mdp,,3
"[7750, 11245, 16625]","[u'down', u'down', u'right']",,,"[0, 0, 0]","[u'1', 5, 9, 17]","{u'mouseover': {u'state': {u'target': [], u'time': []}, u'edge': {u'target': [], u'time': []}}, u'click': {u'state': {u'target': [u'3', u'4', u'5', u'17'], u'time': [1046, 3859, 6179, 13879]}, u'edge': {u'target': [], u'time': []}}, u'mouseout': {u'state': {u'target': [], u'time': []}, u'edge': {u'target': [], u'time': []}}}",,,"[7750, 5, 4394]",-2.4,,352116,3.0,2.0,mouselab-mdp,,3
"[6489, 9259, 14602]","[u'left', u'left', u'down']",,,"[0, 0, 0]","[u'1', 4, 8, 15]","{u'mouseover': {u'state': {u'target': [], u'time': []}, u'edge': {u'target': [], u'time': []}}, u'click': {u'state': {u'target': [u'2', u'4', u'14'], u'time': [3473, 5224, 12687]}, u'edge': {u'target': [], u'time': []}}, u'mouseout': {u'state': {u'target': [], u'time': []}, u'edge': {u'target': [], u'time': []}}}",,,"[6489, 2, 4329]",23.2,,401964,4.0,9.0,mouselab-mdp,,3
"[3329, 8053, 11670]","[u'up', u'up', u'right']",,,"[1, 0, 3]","[u'1', 3, 7, 13]","{u'mouseover': {u'state': {u'target': [], u'time': []}, u'edge': {u'target': [], u'time': []}}, u'click': {u'state': {u'target': [u'3', u'13'], u'time': [1440, 10659]}, u'edge': {u'target': [], u'time': []}}, u'mouseout': {u'state': {u'target': [], u'time': []}, u'edge': {u'target': [], u'time': []}}}",,,"[3329, 1296, 2582]",21.8,,469922,5.0,11.0,mouselab-mdp,,3
"[4673, 8097, 11626]","[u'left', u'left', u'down']",,,"[0, 0, 0]","[u'1', 4, 8, 15]","{u'mouseover': {u'state': {u'target': [], u'time': []}, u'edge': {u'target': [], u'time': []}}, u'click': {u'state': {u'target': [u'4', u'14'], u'time': [3436, 10210]}, u'edge': {u'target': [], u'time': []}}, u'mouseout': {u'state': {u'target': [], u'time': []}, u'edge': {u'target': [], u'time': []}}}",,,"[4673, 839, 2608]",4.8,,519092,6.0,4.0,mouselab-mdp,,3
"[3500, 7912, 11241]","[u'up', u'up', u'right']",,,"[1, 0, 0]","[u'1', 3, 7, 13]","{u'mouseover': {u'state': {u'target': [], u'time': []}, u'edge': {u'target': [], u'time': []}}, u'click': {u'state': {u'target': [u'3', u'13'], u'time': [1621, 10055]}, u'edge': {u'target': [], u'time': []}}, u'mouseout': {u'state': {u'target': [], u'time': []}, u'edge': {u'target': [], u'time': []}}}",,,"[3500, 1032, 2379]",1.8,,570305,7.0,3.0,mouselab-mdp,,3
"[5996, 10186, 16057]","[u'down', u'down', u'right']",,,"[0, 0, 3]","[u'1', 5, 9, 17]","{u'mouseover': {u'state': {u'target': [], u'time': []}, u'edge': {u'target': [], u'time': []}}, u'click': {u'state': {u'target': [u'2', u'4', u'5', u'16'], u'time': [1186, 3403, 4744, 14961]}, u'edge': {u'target': [], u'time': []}}, u'mouseout': {u'state': {u'target': [], u'time': []}, u'edge': {u'target': [], u'time': []}}}",,,"[5996, 1167, 4868]",1.6,,631390,8.0,6.0,mouselab-mdp,,3
"[1979, 5658, 8720]","[u'up', u'up', u'right']",,,"[0, 0, 3]","[u'1', 3, 7, 13]","{u'mouseover': {u'state': {u'target': [], u'time': []}, u'edge': {u'target': [], u'time': []}}, u'click': {u'state': {u'target': [u'3', u'13'], u'time': [689, 7595]}, u'edge': {u'target': [], u'time': []}}, u'mouseout': {u'state': {u'target': [], u'time': []}, u'edge': {u'target': [], u'time': []}}}",,,"[1978, 1307, 2138]",11.8,,684138,9.0,0.0,mouselab-mdp,,3
"[2357, 5981, 9585]","[u'up', u'up', u'left']",,,"[0, 0, 0]","[u'1', 3, 7, 12]","{u'mouseover': {u'state': {u'target': [], u'time': []}, u'edge': {u'target': [], u'time': []}}, u'click': {u'state': {u'target': [u'3', u'13'], u'time': [1376, 7943]}, u'edge': {u'target': [], u'time': []}}, u'mouseout': {u'state': {u'target': [], u'time': []}, u'edge': {u'target': [], u'time': []}}}",,,"[2357, 1250, 2600]",-2.2,,734554,10.0,5.0,mouselab-mdp,,3
"[4553, 8144, 12797]","[u'up', u'up', u'left']",,,"[0, 0, 0]","[u'1', 3, 7, 12]","{u'mouseover': {u'state': {u'target': [], u'time': []}, u'edge': {u'target': [], u'time': []}}, u'click': {u'state': {u'target': [u'3', u'13'], u'time': [3312, 11232]}, u'edge': {u'target': [], u'time': []}}, u'mouseout': {u'state': {u'target': [], u'time': []}, u'edge': {u'target': [], u'time': []}}}",,,"[4553, 1121, 3697]",17.8,,787217,11.0,1.0,mouselab-mdp,,3
"[1689, 5261, 8836]","[u'right', u'right', u'down']",,,"[0, 0, 0]","[u'1', 2, 6, 11]","{u'mouseover': {u'state': {u'target': [], u'time': []}, u'edge': {u'target': [], u'time': []}}, u'click': {u'state': {u'target': [u'2', u'10'], u'time': [683, 7579]}, u'edge': {u'target': [], u'time': []}}, u'mouseout': {u'state': {u'target': [], u'time': []}, u'edge': {u'target': [], u'time': []}}}",,,"[1689, 414, 2457]",-1.2,,838718,12.0,7.0,mouselab-mdp,,3
"[6211, 13865, 21490]","[u'right', u'right', u'up']",,,"[1, 6, 0]","[u'1', 2, 6, 10]","{u'mouseover': {u'state': {u'target': [], u'time': []}, u'edge': {u'target': [], u'time': []}}, u'click': {u'state': {u'target': [u'2', u'6', u'11'], u'time': [4762, 11695, 12435]}, u'edge': {u'target': [], u'time': []}}, u'mouseout': {u'state': {u'target': [], u'time': []}, u'edge': {u'target': [], u'time': []}}}",,,"[6211, 4991, 421]",29.2,,220921,1.0,3.0,mouselab-mdp,,4
"[7282, 11078, 18862]","[u'down', u'down', u'right']",,,"[0, 6, 0]","[u'1', 5, 9, 17]","{u'mouseover': {u'state': {u'target': [], u'time': []}, u'edge': {u'target': [], u'time': []}}, u'click': {u'state': {u'target': [u'3', u'4', u'5', u'2', u'9', u'17'], u'time': [1682, 2770, 4362, 4972, 9453, 10132]}, u'edge': {u'target': [], u'time': []}}, u'mouseout': {u'state': {u'target': [], u'time': []}, u'edge': {u'target': [], u'time': []}}}",,,"[7282, 1630, 535]",-5.6,,277978,2.0,2.0,mouselab-mdp,,4
"[9168, 18222, 21791]","[u'down', u'down', u'left']",,,"[6, 0, 0]","[u'1', 5, 9, 16]","{u'mouseover': {u'state': {u'target': [], u'time': []}, u'edge': {u'target': [], u'time': []}}, u'click': {u'state': {u'target': [u'7', u'6', u'9', u'8', u'17'], u'time': [2233, 3839, 4773, 5769, 19921]}, u'edge': {u'target': [], u'time': []}}, u'mouseout': {u'state': {u'target': [], u'time': []}, u'edge': {u'target': [], u'time': []}}}",,,"[9168, 974, 2777]",38.0,,333109,3.0,1.0,mouselab-mdp,,4
"[9336, 18193, 19929]","[u'right', u'right', u'down']",,,"[5, 0, 0]","[u'1', 2, 6, 11]","{u'mouseover': {u'state': {u'target': [], u'time': []}, u'edge': {u'target': [], u'time': []}}, u'click': {u'state': {u'target': [u'6', u'8', u'10', u'11'], u'time': [1948, 4604, 5894, 7254]}, u'edge': {u'target': [], u'time': []}}, u'mouseout': {u'state': {u'target': [], u'time': []}, u'edge': {u'target': [], u'time': []}}}",,,"[9336, 1711, 1022]",31.6,,394808,4.0,6.0,mouselab-mdp,,4
"[10819, 14373, 16223]","[u'up', u'up', u'right']",,,"[0, 0, 3]","[u'1', 3, 7, 13]","{u'mouseover': {u'state': {u'target': [], u'time': []}, u'edge': {u'target': [], u'time': []}}, u'click': {u'state': {u'target': [u'6', u'8', u'7', u'13'], u'time': [2729, 4087, 7169, 9363]}, u'edge': {u'target': [], u'time': []}}, u'mouseout': {u'state': {u'target': [], u'time': []}, u'edge': {u'target': [], u'time': []}}}",,,"[10819, 1476, 1094]",18.6,,451963,5.0,11.0,mouselab-mdp,,4
"[4052, 9180, 10589]","[u'right', u'right', u'up']",,,"[2, 0, 0]","[u'1', 2, 6, 10]","{u'mouseover': {u'state': {u'target': [], u'time': []}, u'edge': {u'target': [], u'time': []}}, u'click': {u'state': {u'target': [u'6', u'10'], u'time': [1254, 2574]}, u'edge': {u'target': [], u'time': []}}, u'mouseout': {u'state': {u'target': [], u'time': []}, u'edge': {u'target': [], u'time': []}}}",,,"[4052, 1259, 647]",4.8,,518934,6.0,0.0,mouselab-mdp,,4
"[14709, 25073, 26318]","[u'left', u'left', u'up']",,,"[7, 0, 0]","[u'1', 4, 8, 14]","{u'mouseover': {u'state': {u'target': [], u'time': []}, u'edge': {u'target': [], u'time': []}}, u'click': {u'state': {u'target': [u'7', u'8', u'2', u'9', u'11', u'14'], u'time': [3392, 4063, 5276, 7377, 8273, 11950]}, u'edge': {u'target': [], u'time': []}}, u'mouseout': {u'state': {u'target': [], u'time': []}, u'edge': {u'target': [], u'time': []}}}",,,"[14709, 846, 496]",8.4,,585925,7.0,10.0,mouselab-mdp,,4
"[22686, 40209, 41457]","[u'left', u'left', u'up']",,,"[13, 0, 0]","[u'1', 4, 8, 14]","{u'mouseover': {u'state': {u'target': [], u'time': []}, u'edge': {u'target': [], u'time': []}}, u'click': {u'state': {u'target': [u'3', u'13', u'12', u'6', u'10', u'9', u'16', u'5', u'8', u'15'], u'time': [2287, 4123, 5150, 6900, 8546, 10375, 11795, 13802, 16568, 20398]}, u'edge': {u'target': [], u'time': []}}, u'mouseout': {u'state': {u'target': [], u'time': []}, u'edge': {u'target': [], u'time': []}}}",,,"[22686, 1456, 519]",18.0,,649037,8.0,5.0,mouselab-mdp,,4
"[5647, 22457, 27786]","[u'right', u'right', u'up']",,,"[5, 0, 0]","[u'1', 2, 6, 10]","{u'mouseover': {u'state': {u'target': [], u'time': []}, u'edge': {u'target': [], u'time': []}}, u'click': {u'state': {u'target': [u'6', u'8', u'7', u'9', u'10'], u'time': [811, 1847, 2519, 3437, 4711]}, u'edge': {u'target': [], u'time': []}}, u'mouseout': {u'state': {u'target': [], u'time': []}, u'edge': {u'target': [], u'time': []}}}",,,"[5647, 9472, 4557]",8.0,,704670,9.0,9.0,mouselab-mdp,,4
"[10451, 15723, 19535]","[u'down', u'down', u'right']",,,"[0, 0, 0]","[u'1', 5, 9, 17]","{u'mouseover': {u'state': {u'target': [], u'time': []}, u'edge': {u'target': [], u'time': []}}, u'click': {u'state': {u'target': [u'6', u'8', u'9', u'17'], u'time': [3008, 3856, 8344, 9372]}, u'edge': {u'target': [], u'time': []}}, u'mouseout': {u'state': {u'target': [], u'time': []}, u'edge': {u'target': [], u'time': []}}}",,,"[10451, 3110, 3020]",35.6,,755544,10.0,4.0,mouselab-mdp,,4
"[16865, 25666, 28811]","[u'up', u'up', u'left']",,,"[0, 0, 0]","[u'1', 3, 7, 12]","{u'mouseover': {u'state': {u'target': [], u'time': []}, u'edge': {u'target': [], u'time': []}}, u'click': {u'state': {u'target': [u'6', u'9', u'16', u'17', u'8', u'14', u'7', u'12'], u'time': [9219, 9968, 11302, 12418, 13583, 14204, 15133, 16111]}, u'edge': {u'target': [], u'time': []}}, u'mouseout': {u'state': {u'target': [], u'time': []}, u'edge': {u'target': [], u'time': []}}}",,,"[16865, 5922, 2384]",28.2,,808619,11.0,8.0,mouselab-mdp,,4
"[6127, 9557, 10788]","[u'down', u'down', u'left']",,,"[0, 0, 0]","[u'1', 5, 9, 16]","{u'mouseover': {u'state': {u'target': [], u'time': []}, u'edge': {u'target': [], u'time': []}}, u'click': {u'state': {u'target': [u'8', u'9', u'16'], u'time': [2788, 3635, 4701]}, u'edge': {u'target': [], u'time': []}}, u'mouseout': {u'state': {u'target': [], u'time': []}, u'edge': {u'target': [], u'time': []}}}",,,"[6127, 1407, 477]",29.2,,857056,12.0,7.0,mouselab-mdp,,4
"[3729, 14369, 21455]","[u'right', u'right', u'down']",,,"[2, 0, 0]","[u'1', 2, 6, 11]","{u'mouseover': {u'state': {u'target': [], u'time': []}, u'edge': {u'target': [], u'time': []}}, u'click': {u'state': {u'target': [u'4', u'10'], u'time': [2733, 20103]}, u'edge': {u'target': [], u'time': []}}, u'mouseout': {u'state': {u'target': [], u'time': []}, u'edge': {u'target': [], u'time': []}}}",,,"[3729, 6793, 6278]",-1.2,,159261,1.0,7.0,mouselab-mdp,,5
"[4640, 21862, 39173]","[u'up', u'up', u'left']",,,"[0, 0, 0]","[u'1', 3, 7, 12]","{u'mouseover': {u'state': {u'target': [], u'time': []}, u'edge': {u'target': [], u'time': []}}, u'click': {u'state': {u'target': [u'3', u'13'], u'time': [3353, 37588]}, u'edge': {u'target': [], u'time': []}}, u'mouseout': {u'state': {u'target': [], u'time': []}, u'edge': {u'target': [], u'time': []}}}",,,"[4640, 15487, 16502]",17.8,,209801,2.0,1.0,mouselab-mdp,,5
"[6934, 16179, 21322]","[u'down', u'down', u'right']",,,"[2, 0, 3]","[u'1', 5, 9, 17]","{u'mouseover': {u'state': {u'target': [], u'time': []}, u'edge': {u'target': [], u'time': []}}, u'click': {u'state': {u'target': [u'2', u'16'], u'time': [2683, 19886]}, u'edge': {u'target': [], u'time': []}}, u'mouseout': {u'state': {u'target': [], u'time': []}, u'edge': {u'target': [], u'time': []}}}",,,"[6934, 5548, 4364]",4.8,,277812,3.0,6.0,mouselab-mdp,,5
"[7632, 16575, 21579]","[u'right', u'right', u'up']",,,"[1, 3, 0]","[u'1', 2, 6, 10]","{u'mouseover': {u'state': {u'target': [], u'time': []}, u'edge': {u'target': [], u'time': []}}, u'click': {u'state': {u'target': [u'2', u'5', u'10'], u'time': [1505, 6789, 15303]}, u'edge': {u'target': [], u'time': []}}, u'mouseout': {u'state': {u'target': [], u'time': []}, u'edge': {u'target': [], u'time': []}}}",,,"[7632, 6093, 955]",17.2,,333367,4.0,10.0,mouselab-mdp,,5
"[5327, 12307, 14832]","[u'up', u'up', u'left']",,,"[0, 0, 0]","[u'1', 3, 7, 12]","{u'mouseover': {u'state': {u'target': [], u'time': []}, u'edge': {u'target': [], u'time': []}}, u'click': {u'state': {u'target': [u'3', u'13'], u'time': [2944, 13944]}, u'edge': {u'target': [], u'time': []}}, u'mouseout': {u'state': {u'target': [], u'time': []}, u'edge': {u'target': [], u'time': []}}}",,,"[5327, 5239, 1744]",-2.2,,385113,5.0,5.0,mouselab-mdp,,5
"[4136, 8134, 13031]","[u'right', u'right', u'down']",,,"[0, 0, 3]","[u'1', 2, 6, 11]","{u'mouseover': {u'state': {u'target': [], u'time': []}, u'edge': {u'target': [], u'time': []}}, u'click': {u'state': {u'target': [u'2', u'11'], u'time': [1470, 10405]}, u'edge': {u'target': [], u'time': []}}, u'mouseout': {u'state': {u'target': [], u'time': []}, u'edge': {u'target': [], u'time': []}}}",,,"[4136, 2295, 4120]",34.8,,438596,6.0,11.0,mouselab-mdp,,5
"[3987, 15500, 20281]","[u'down', u'down', u'right']",,,"[0, 3, 0]","[u'1', 5, 9, 17]","{u'mouseover': {u'state': {u'target': [], u'time': []}, u'edge': {u'target': [], u'time': []}}, u'click': {u'state': {u'target': [u'5', u'17'], u'time': [1077, 7802]}, u'edge': {u'target': [], u'time': []}}, u'mouseout': {u'state': {u'target': [], u'time': []}, u'edge': {u'target': [], u'time': []}}}",,,"[3987, 9811, 668]",38.8,,510479,7.0,4.0,mouselab-mdp,,5
"[7885, 13195, 16942]","[u'down', u'down', u'left']",,,"[1, 0, 0]","[u'1', 5, 9, 16]","{u'mouseover': {u'state': {u'target': [], u'time': []}, u'edge': {u'target': [], u'time': []}}, u'click': {u'state': {u'target': [u'5', u'4', u'17'], u'time': [1409, 3501, 15030]}, u'edge': {u'target': [], u'time': []}}, u'mouseout': {u'state': {u'target': [], u'time': []}, u'edge': {u'target': [], u'time': []}}}",,,"[7884, 2439, 2921]",-0.8,,560110,8.0,0.0,mouselab-mdp,,5
"[6061, 10549, 22407]","[u'right', u'right', u'up']",,,"[1, 0, 0]","[u'1', 2, 6, 10]","{u'mouseover': {u'state': {u'target': [], u'time': []}, u'edge': {u'target': [], u'time': []}}, u'click': {u'state': {u'target': [u'2', u'3', u'10'], u'time': [1630, 3862, 12793]}, u'edge': {u'target': [], u'time': []}}, u'mouseout': {u'state': {u'target': [], u'time': []}, u'edge': {u'target': [], u'time': []}}}",,,"[6061, 1600, 11056]",29.2,,636290,9.0,2.0,mouselab-mdp,,5
"[7757, 12986, 16253]","[u'down', u'down', u'left']",,,"[1, 0, 0]","[u'1', 5, 9, 16]","{u'mouseover': {u'state': {u'target': [], u'time': []}, u'edge': {u'target': [], u'time': []}}, u'click': {u'state': {u'target': [u'5', u'2', u'17'], u'time': [3200, 5607, 14191]}, u'edge': {u'target': [], u'time': []}}, u'mouseout': {u'state': {u'target': [], u'time': []}, u'edge': {u'target': [], u'time': []}}}",,,"[7757, 2312, 2440]",7.2,,706579,10.0,8.0,mouselab-mdp,,5
"[4580, 9385, 17507]","[u'left', u'left', u'down']",,,"[0, 0, 0]","[u'1', 4, 8, 15]","{u'mouseover': {u'state': {u'target': [], u'time': []}, u'edge': {u'target': [], u'time': []}}, u'click': {u'state': {u'target': [u'5', u'4', u'14', u'15'], u'time': [1420, 3159, 14732, 16480]}, u'edge': {u'target': [], u'time': []}}, u'mouseout': {u'state': {u'target': [], u'time': []}, u'edge': {u'target': [], u'time': []}}}",,,"[4579, 2918, 7328]",21.6,,757988,11.0,9.0,mouselab-mdp,,5
"[9986, 14950, 19084]","[u'down', u'down', u'left']",,,"[0, 0, 0]","[u'1', 5, 9, 16]","{u'mouseover': {u'state': {u'target': [], u'time': []}, u'edge': {u'target': [], u'time': []}}, u'click': {u'state': {u'target': [u'3', u'4', u'2', u'5', u'17', u'16'], u'time': [5702, 6665, 8320, 9323, 17363, 18205]}, u'edge': {u'target': [], u'time': []}}, u'mouseout': {u'state': {u'target': [], u'time': []}, u'edge': {u'target': [], u'time': []}}}",,,"[9986, 2845, 3345]",-3.6,,819535,12.0,3.0,mouselab-mdp,,5
"[19628, 26441, 31168]","[u'right', u'right', u'up']",,,"[0, 0, 0]","[u'1', 2, 6, 10]","{u'mouseover': {u'state': {u'target': [], u'time': []}, u'edge': {u'target': [], u'time': []}}, u'click': {u'state': {u'target': [u'2', u'6'], u'time': [4728, 11451]}, u'edge': {u'target': [], u'time': []}}, u'mouseout': {u'state': {u'target': [], u'time': []}, u'edge': {u'target': [], u'time': []}}}",,,"[19627, 191, 3027]",30.8,,280013,1.0,3.0,mouselab-mdp,,6
"[23717, 38557, 40664]","[u'down', u'down', u'right']",,,"[4, 0, 0]","[u'1', 5, 9, 17]","{u'mouseover': {u'state': {u'target': [], u'time': []}, u'edge': {u'target': [], u'time': []}}, u'click': {u'state': {u'target': [u'2', u'4', u'3', u'15', u'14', u'8', u'5', u'17'], u'time': [2147, 3187, 10529, 12866, 13759, 16163, 19696, 20912]}, u'edge': {u'target': [], u'time': []}}, u'mouseout': {u'state': {u'target': [], u'time': []}, u'edge': {u'target': [], u'time': []}}}",,,"[23716, 704, 671]",29.2,,346381,2.0,4.0,mouselab-mdp,,6
"[17191, 29871, 32190]","[u'left', u'left', u'up']",,,"[2, 0, 0]","[u'1', 4, 8, 14]","{u'mouseover': {u'state': {u'target': [], u'time': []}, u'edge': {u'target': [], u'time': []}}, u'click': {u'state': {u'target': [u'4', u'2', u'5', u'3', u'12', u'13', u'7', u'15', u'14'], u'time': [1792, 4770, 6704, 8235, 9778, 11162, 12429, 14337, 15156]}, u'edge': {u'target': [], u'time': []}}, u'mouseout': {u'state': {u'target': [], u'time': []}, u'edge': {u'target': [], u'time': []}}}",,,"[17191, 786, 1081]",19.6,,436030,3.0,5.0,mouselab-mdp,,6
"[23481, 36553, 38768]","[u'right', u'right', u'down']",,,"[0, 0, 0]","[u'1', 2, 6, 11]","{u'mouseover': {u'state': {u'target': [], u'time': []}, u'edge': {u'target': [], u'time': []}}, u'click': {u'state': {u'target': [u'4', u'2', u'5', u'3', u'16', u'17', u'14', u'15', u'11', u'6'], u'time': [5059, 6244, 7841, 8749, 10337, 12988, 16405, 18207, 19007, 20633]}, u'edge': {u'target': [], u'time': []}}, u'mouseout': {u'state': {u'target': [], u'time': []}, u'edge': {u'target': [], u'time': []}}}",,,"[23481, 1623, 760]",16.0,,494590,4.0,2.0,mouselab-mdp,,6
"[12151, 21292, 24422]","[u'right', u'right', u'up']",,,"[1, 0, 0]","[u'1', 2, 6, 10]","{u'mouseover': {u'state': {u'target': [], u'time': []}, u'edge': {u'target': [], u'time': []}}, u'click': {u'state': {u'target': [u'8', u'6', u'10', u'2'], u'time': [1930, 4310, 8591, 9700]}, u'edge': {u'target': [], u'time': []}}, u'mouseout': {u'state': {u'target': [], u'time': []}, u'edge': {u'target': [], u'time': []}}}",,,"[12150, 547, 1547]",15.6,,556328,5.0,10.0,mouselab-mdp,,6
"[14500, 26691, 28962]","[u'up', u'up', u'left']",,,"[0, 0, 0]","[u'1', 3, 7, 12]","{u'mouseover': {u'state': {u'target': [], u'time': []}, u'edge': {u'target': [], u'time': []}}, u'click': {u'state': {u'target': [u'4', u'2', u'11', u'10', u'3', u'12'], u'time': [4201, 5604, 6619, 8088, 9795, 10893]}, u'edge': {u'target': [], u'time': []}}, u'mouseout': {u'state': {u'target': [], u'time': []}, u'edge': {u'target': [], u'time': []}}}",,,"[14500, 3244, 800]",9.4,,613909,6.0,7.0,mouselab-mdp,,6
"[25071, 35759, 38120]","[u'left', u'left', u'down']",,,"[1, 0, 0]","[u'1', 4, 8, 15]","{u'mouseover': {u'state': {u'target': [], u'time': []}, u'edge': {u'target': [], u'time': []}}, u'click': {u'state': {u'target': [u'4', u'2', u'5', u'9', u'16', u'17', u'3', u'13', u'12'], u'time': [5241, 6681, 7486, 8726, 9765, 10566, 12531, 13608, 16257]}, u'edge': {u'target': [], u'time': []}}, u'mouseout': {u'state': {u'target': [], u'time': []}, u'edge': {u'target': [], u'time': []}}}",,,"[25071, 560, 1150]",-8.4,,679225,7.0,6.0,mouselab-mdp,,6
"[9852, 20311, 22406]","[u'up', u'up', u'right']",,,"[1, 0, 0]","[u'1', 3, 7, 13]","{u'mouseover': {u'state': {u'target': [], u'time': []}, u'edge': {u'target': [], u'time': []}}, u'click': {u'state': {u'target': [u'8', u'6', u'9', u'7', u'3', u'12', u'13'], u'time': [773, 2374, 3277, 4393, 5962, 7151, 8582]}, u'edge': {u'target': [], u'time': []}}, u'mouseout': {u'state': {u'target': [], u'time': []}, u'edge': {u'target': [], u'time': []}}}",,,"[9852, 722, 724]",13.8,,738862,8.0,11.0,mouselab-mdp,,6
"[9547, 21548, 24209]","[u'down', u'down', u'left']",,,"[0, 0, 0]","[u'1', 5, 9, 16]","{u'mouseover': {u'state': {u'target': [], u'time': []}, u'edge': {u'target': [], u'time': []}}, u'click': {u'state': {u'target': [u'4', u'2', u'5', u'16', u'17'], u'time': [1390, 2363, 3264, 6299, 8453]}, u'edge': {u'target': [], u'time': []}}, u'mouseout': {u'state': {u'target': [], u'time': []}, u'edge': {u'target': [], u'time': []}}}",,,"[9546, 3854, 1039]",38.0,,794719,9.0,1.0,mouselab-mdp,,6
"[10624, 21793, 24496]","[u'up', u'up', u'left']",,,"[2, 0, 0]","[u'1', 3, 7, 12]","{u'mouseover': {u'state': {u'target': [], u'time': []}, u'edge': {u'target': [], u'time': []}}, u'click': {u'state': {u'target': [u'5', u'16', u'17', u'3', u'12'], u'time': [1767, 3134, 4465, 6263, 8082]}, u'edge': {u'target': [], u'time': []}}, u'mouseout': {u'state': {u'target': [], u'time': []}, u'edge': {u'target': [], u'time': []}}}",,,"[10624, 1129, 1149]",33.0,,853820,10.0,8.0,mouselab-mdp,,6
"[19627, 28060, 32260]","[u'left', u'left', u'down']",,,"[0, 0, 0]","[u'1', 4, 8, 15]","{u'mouseover': {u'state': {u'target': [], u'time': []}, u'edge': {u'target': [], u'time': []}}, u'click': {u'state': {u'target': [u'3', u'13', u'4', u'15'], u'time': [9270, 11665, 13526, 14968]}, u'edge': {u'target': [], u'time': []}}, u'mouseout': {u'state': {u'target': [], u'time': []}, u'edge': {u'target': [], u'time': []}}}",,,"[19627, 1086, 2591]",33.6,,913790,11.0,0.0,mouselab-mdp,,6
"[11637, 24387, 26842]","[u'up', u'up', u'left']",,,"[2, 0, 0]","[u'1', 3, 7, 12]","{u'mouseover': {u'state': {u'target': [], u'time': []}, u'edge': {u'target': [], u'time': []}}, u'click': {u'state': {u'target': [u'4', u'15', u'14', u'2', u'5', u'3', u'12', u'13'], u'time': [1169, 2274, 4160, 5508, 6612, 7459, 8510, 10037]}, u'edge': {u'target': [], u'time': []}}, u'mouseout': {u'state': {u'target': [], u'time': []}, u'edge': {u'target': [], u'time': []}}}",,,"[11637, 853, 1057]",24.2,,978985,12.0,9.0,mouselab-mdp,,6
"[6149, 12684, 231221]","[u'right', u'right', u'up']",,,"[0, 3, 0]","[u'1', 2, 6, 10]","{u'mouseover': {u'state': {u'target': [], u'time': []}, u'edge': {u'target': [], u'time': []}}, u'click': {u'state': {u'target': [u'2', u'6', u'10', u'11', u'3'], u'time': [3916, 10814, 23565, 25696, 221971]}, u'edge': {u'target': [], u'time': []}}, u'mouseout': {u'state': {u'target': [], u'time': []}, u'edge': {u'target': [], u'time': []}}}",,,"[6148, 3527, 213953]",0.0,,792690,1.0,7.0,mouselab-mdp,,7
"[10702, 17724, 24465]","[u'right', u'right', u'down']",,,"[1, 3, 3]","[u'1', 2, 6, 11]","{u'mouseover': {u'state': {u'target': [], u'time': []}, u'edge': {u'target': [], u'time': []}}, u'click': {u'state': {u'target': [u'3', u'2', u'6', u'11'], u'time': [6542, 8720, 16506, 23204]}, u'edge': {u'target': [], u'time': []}}, u'mouseout': {u'state': {u'target': [], u'time': []}, u'edge': {u'target': [], u'time': []}}}",,,"[10702, 2382, 2142]",25.6,,856339,2.0,2.0,mouselab-mdp,,7
"[24637, 33727, 36785]","[u'left', u'left', u'up']",,,"[3, 0, 0]","[u'1', 4, 8, 14]","{u'mouseover': {u'state': {u'target': [], u'time': []}, u'edge': {u'target': [], u'time': []}}, u'click': {u'state': {u'target': [u'3', u'7', u'12', u'13', u'8', u'4', u'14'], u'time': [6403, 11415, 13629, 16081, 19445, 21165, 22686]}, u'edge': {u'target': [], u'time': []}}, u'mouseout': {u'state': {u'target': [], u'time': []}, u'edge': {u'target': [], u'time': []}}}",,,"[24637, 1440, 2150]",6.8,,915067,3.0,10.0,mouselab-mdp,,7
"[15775, 20665, 23495]","[u'left', u'left', u'down']",,,"[0, 0, 0]","[u'1', 4, 8, 15]","{u'mouseover': {u'state': {u'target': [], u'time': []}, u'edge': {u'target': [], u'time': []}}, u'click': {u'state': {u'target': [u'5', u'17', u'16', u'14', u'15', u'4', u'8'], u'time': [2990, 4344, 5451, 9169, 10876, 12518, 13944]}, u'edge': {u'target': [], u'time': []}}, u'mouseout': {u'state': {u'target': [], u'time': []}, u'edge': {u'target': [], u'time': []}}}",,,"[15775, 2, 1934]",14.8,,968591,4.0,3.0,mouselab-mdp,,7
"[7254, 20802, 25317]","[u'right', u'right', u'up']",,,"[9, 0, 0]","[u'1', 2, 6, 10]","{u'mouseover': {u'state': {u'target': [], u'time': []}, u'edge': {u'target': [], u'time': []}}, u'click': {u'state': {u'target': [u'10', u'6', u'2'], u'time': [2542, 4225, 5463]}, u'edge': {u'target': [], u'time': []}}, u'mouseout': {u'state': {u'target': [], u'time': []}, u'edge': {u'target': [], u'time': []}}}",,,"[7254, 743, 3454]",3.2,,1036092,5.0,1.0,mouselab-mdp,,7
"[11005, 18261, 19979]","[u'down', u'down', u'left']",,,"[3, 0, 0]","[u'1', 5, 9, 16]","{u'mouseover': {u'state': {u'target': [], u'time': []}, u'edge': {u'target': [], u'time': []}}, u'click': {u'state': {u'target': [u'16', u'9', u'5', u'17'], u'time': [2631, 4806, 6182, 9223]}, u'edge': {u'target': [], u'time': []}}, u'mouseout': {u'state': {u'target': [], u'time': []}, u'edge': {u'target': [], u'time': []}}}",,,"[11005, 550, 802]",9.6,,1093696,6.0,5.0,mouselab-mdp,,7
"[14951, 20879, 22993]","[u'right', u'right', u'down']",,,"[0, 0, 0]","[u'1', 2, 6, 11]","{u'mouseover': {u'state': {u'target': [], u'time': []}, u'edge': {u'target': [], u'time': []}}, u'click': {u'state': {u'target': [u'13', u'12', u'14', u'15', u'16', u'17', u'11', u'2', u'6'], u'time': [2733, 4803, 6134, 7238, 8188, 9123, 10130, 12101, 13287]}, u'edge': {u'target': [], u'time': []}}, u'mouseout': {u'state': {u'target': [], u'time': []}, u'edge': {u'target': [], u'time': []}}}",,,"[14951, 4, 1206]",23.6,,1153760,7.0,11.0,mouselab-mdp,,7
"[8820, 14137, 16510]","[u'up', u'up', u'left']",,,"[1, 0, 0]","[u'1', 3, 7, 12]","{u'mouseover': {u'state': {u'target': [], u'time': []}, u'edge': {u'target': [], u'time': []}}, u'click': {u'state': {u'target': [u'13', u'12', u'7', u'3'], u'time': [2783, 3682, 6470, 7383]}, u'edge': {u'target': [], u'time': []}}, u'mouseout': {u'state': {u'target': [], u'time': []}, u'edge': {u'target': [], u'time': []}}}",,,"[8820, 588, 1467]",16.6,,1208024,8.0,4.0,mouselab-mdp,,7
"[8109, 17792, 20572]","[u'left', u'left', u'up']",,,"[5, 0, 0]","[u'1', 4, 8, 14]","{u'mouseover': {u'state': {u'target': [], u'time': []}, u'edge': {u'target': [], u'time': []}}, u'click': {u'state': {u'target': [u'14', u'8', u'4'], u'time': [3095, 4910, 5907]}, u'edge': {u'target': [], u'time': []}}, u'mouseout': {u'state': {u'target': [], u'time': []}, u'edge': {u'target': [], u'time': []}}}",,,"[8109, 641, 1689]",35.2,,1266009,9.0,0.0,mouselab-mdp,,7
"[11832, 17868, 22975]","[u'right', u'right', u'down']",,,"[1, 0, 0]","[u'1', 2, 6, 11]","{u'mouseover': {u'state': {u'target': [], u'time': []}, u'edge': {u'target': [], u'time': []}}, u'click': {u'state': {u'target': [u'16', u'17', u'11', u'10', u'6', u'2'], u'time': [2865, 4099, 6597, 7691, 9334, 10309]}, u'edge': {u'target': [], u'time': []}}, u'mouseout': {u'state': {u'target': [], u'time': []}, u'edge': {u'target': [], u'time': []}}}",,,"[11831, 578, 4236]",6.4,,1319869,10.0,9.0,mouselab-mdp,,7
"[10867, 21021, 25072]","[u'left', u'left', u'up']",,,"[5, 0, 0]","[u'1', 4, 8, 14]","{u'mouseover': {u'state': {u'target': [], u'time': []}, u'edge': {u'target': [], u'time': []}}, u'click': {u'state': {u'target': [u'13', u'12', u'14', u'15', u'8', u'4'], u'time': [2713, 3669, 4711, 5652, 6609, 7479]}, u'edge': {u'target': [], u'time': []}}, u'mouseout': {u'state': {u'target': [], u'time': []}, u'edge': {u'target': [], u'time': []}}}",,,"[10867, 597, 3161]",0.4,,1379041,11.0,6.0,mouselab-mdp,,7
"[6959, 10879, 13235]","[u'right', u'right', u'up']",,,"[0, 0, 0]","[u'1', 2, 6, 10]","{u'mouseover': {u'state': {u'target': [], u'time': []}, u'edge': {u'target': [], u'time': []}}, u'click': {u'state': {u'target': [u'11', u'10', u'6', u'2'], u'time': [2237, 3292, 4807, 5749]}, u'edge': {u'target': [], u'time': []}}, u'mouseout': {u'state': {u'target': [], u'time': []}, u'edge': {u'target': [], u'time': []}}}",,,"[6959, 5, 1392]",21.6,,1430025,12.0,8.0,mouselab-mdp,,7
"[12657, 17158, 19498]","[u'left', u'left', u'up']",,,"[1, 0, 0]","[u'1', 4, 8, 14]","{u'mouseover': {u'state': {u'target': [], u'time': []}, u'edge': {u'target': [], u'time': []}}, u'click': {u'state': {u'target': [u'14', u'4'], u'time': [4496, 11390]}, u'edge': {u'target': [], u'time': []}}, u'mouseout': {u'state': {u'target': [], u'time': []}, u'edge': {u'target': [], u'time': []}}}",,,"[12657, 1738, 1601]",30.8,,109941,1.0,5.0,mouselab-mdp,,8
"[8580, 11855, 13592]","[u'right', u'right', u'up']",,,"[1, 0, 0]","[u'1', 2, 6, 10]","{u'mouseover': {u'state': {u'target': [], u'time': []}, u'edge': {u'target': [], u'time': []}}, u'click': {u'state': {u'target': [u'10', u'2'], u'time': [2071, 7222]}, u'edge': {u'target': [], u'time': []}}, u'mouseout': {u'state': {u'target': [], u'time': []}, u'edge': {u'target': [], u'time': []}}}",,,"[8580, 522, 999]",30.8,,162353,2.0,3.0,mouselab-mdp,,8
"[6268, 8168, 9550]","[u'left', u'left', u'up']",,,"[0, 0, 0]","[u'1', 4, 8, 14]","{u'mouseover': {u'state': {u'target': [], u'time': []}, u'edge': {u'target': [], u'time': []}}, u'click': {u'state': {u'target': [u'13', u'14', u'4'], u'time': [1085, 2756, 5228]}, u'edge': {u'target': [], u'time': []}}, u'mouseout': {u'state': {u'target': [], u'time': []}, u'edge': {u'target': [], u'time': []}}}",,,"[6268, 1, 638]",13.2,,215440,3.0,10.0,mouselab-mdp,,8
"[6768, 9938, 10690]","[u'right', u'right', u'down']",,,"[1, 0, 0]","[u'1', 2, 6, 11]","{u'mouseover': {u'state': {u'target': [], u'time': []}, u'edge': {u'target': [], u'time': []}}, u'click': {u'state': {u'target': [u'11', u'2'], u'time': [2247, 5398]}, u'edge': {u'target': [], u'time': []}}, u'mouseout': {u'state': {u'target': [], u'time': []}, u'edge': {u'target': [], u'time': []}}}",,,"[6768, 417, 5]",34.8,,276089,4.0,11.0,mouselab-mdp,,8
"[4933, 8326, 9763]","[u'up', u'up', u'left']",,,"[1, 0, 0]","[u'1', 3, 7, 12]","{u'mouseover': {u'state': {u'target': [], u'time': []}, u'edge': {u'target': [], u'time': []}}, u'click': {u'state': {u'target': [u'12', u'3'], u'time': [1612, 4052]}, u'edge': {u'target': [], u'time': []}}, u'mouseout': {u'state': {u'target': [], u'time': []}, u'edge': {u'target': [], u'time': []}}}",,,"[4933, 620, 676]",37.8,,345680,5.0,8.0,mouselab-mdp,,8
"[17391, 19193, 20873]","[u'left', u'left', u'down']",,,"[0, 0, 0]","[u'1', 4, 8, 15]","{u'mouseover': {u'state': {u'target': [], u'time': []}, u'edge': {u'target': [], u'time': []}}, u'click': {u'state': {u'target': [u'13', u'15'], u'time': [14439, 15557]}, u'edge': {u'target': [], u'time': []}}, u'mouseout': {u'state': {u'target': [], u'time': []}, u'edge': {u'target': [], u'time': []}}}",,,"[17391, 2, 926]",36.8,,397546,6.0,0.0,mouselab-mdp,,8
"[4062, 7537, 8707]","[u'right', u'right', u'up']",,,"[1, 0, 0]","[u'1', 2, 6, 10]","{u'mouseover': {u'state': {u'target': [], u'time': []}, u'edge': {u'target': [], u'time': []}}, u'click': {u'state': {u'target': [u'10'], u'time': [1477]}, u'edge': {u'target': [], u'time': []}}, u'mouseout': {u'state': {u'target': [], u'time': []}, u'edge': {u'target': [], u'time': []}}}",,,"[4061, 832, 430]",20.4,,460882,7.0,4.0,mouselab-mdp,,8
"[3457, 7642, 8998]","[u'up', u'up', u'left']",,,"[2, 0, 0]","[u'1', 3, 7, 12]","{u'mouseover': {u'state': {u'target': [], u'time': []}, u'edge': {u'target': [], u'time': []}}, u'click': {u'state': {u'target': [u'12'], u'time': [1173]}, u'edge': {u'target': [], u'time': []}}, u'mouseout': {u'state': {u'target': [], u'time': []}, u'edge': {u'target': [], u'time': []}}}",,,"[3457, 551, 606]",13.4,,533147,8.0,2.0,mouselab-mdp,,8
"[3171, 6256, 7395]","[u'left', u'left', u'up']",,,"[1, 0, 0]","[u'1', 4, 8, 14]","{u'mouseover': {u'state': {u'target': [], u'time': []}, u'edge': {u'target': [], u'time': []}}, u'click': {u'state': {u'target': [u'14', u'4'], u'time': [738, 2161]}, u'edge': {u'target': [], u'time': []}}, u'mouseout': {u'state': {u'target': [], u'time': []}, u'edge': {u'target': [], u'time': []}}}",,,"[3170, 274, 388]",6.8,,602687,9.0,6.0,mouselab-mdp,,8
"[9615, 13982, 15133]","[u'right', u'right', u'down']",,,"[2, 0, 0]","[u'1', 2, 6, 11]","{u'mouseover': {u'state': {u'target': [], u'time': []}, u'edge': {u'target': [], u'time': []}}, u'click': {u'state': {u'target': [u'14', u'11', u'17'], u'time': [1354, 2714, 5194]}, u'edge': {u'target': [], u'time': []}}, u'mouseout': {u'state': {u'target': [], u'time': []}, u'edge': {u'target': [], u'time': []}}}",,,"[9615, 400, 399]",-2.8,,653140,10.0,1.0,mouselab-mdp,,8
"[6662, 9033, 10252]","[u'up', u'up', u'right']",,,"[0, 0, 0]","[u'1', 3, 7, 13]","{u'mouseover': {u'state': {u'target': [], u'time': []}, u'edge': {u'target': [], u'time': []}}, u'click': {u'state': {u'target': [u'14', u'11', u'2', u'13', u'3'], u'time': [1046, 2118, 3454, 4358, 5870]}, u'edge': {u'target': [], u'time': []}}, u'mouseout': {u'state': {u'target': [], u'time': []}, u'edge': {u'target': [], u'time': []}}}",,,"[6661, 2, 465]",23.0,,712486,11.0,9.0,mouselab-mdp,,8
"[8384, 11729, 13008]","[u'left', u'left', u'up']",,,"[1, 0, 0]","[u'1', 4, 8, 14]","{u'mouseover': {u'state': {u'target': [], u'time': []}, u'edge': {u'target': [], u'time': []}}, u'click': {u'state': {u'target': [u'14', u'4', u'11'], u'time': [996, 2156, 4188]}, u'edge': {u'target': [], u'time': []}}, u'mouseout': {u'state': {u'target': [], u'time': []}, u'edge': {u'target': [], u'time': []}}}",,,"[8384, 308, 539]",17.2,,779858,12.0,7.0,mouselab-mdp,,8
"[2873, 30860, 44132]","[u'up', u'up', u'left']",,,"[5, 9, 0]","[u'1', 3, 7, 12]","{u'mouseover': {u'state': {u'target': [], u'time': []}, u'edge': {u'target': [], u'time': []}}, u'click': {u'state': {u'target': [u'7', u'4', u'2'], u'time': [14938, 16902, 19693]}, u'edge': {u'target': [], u'time': []}}, u'mouseout': {u'state': {u'target': [], u'time': []}, u'edge': {u'target': [], u'time': []}}}",,,"[2873, 19896, 2010]",-5.8,,403647,1.0,3.0,mouselab-mdp,,9
"[5528, 9458, 13561]","[u'down', u'down', u'left']",,,"[0, 0, 0]","[u'1', 5, 9, 16]","{u'mouseover': {u'state': {u'target': [], u'time': []}, u'edge': {u'target': [], u'time': []}}, u'click': {u'state': {u'target': [u'2', u'5'], u'time': [1986, 3472]}, u'edge': {u'target': [], u'time': []}}, u'mouseout': {u'state': {u'target': [], u'time': []}, u'edge': {u'target': [], u'time': []}}}",,,"[5528, 4, 2918]",42.8,,455856,2.0,1.0,mouselab-mdp,,9
"[2575, 6153, 9078]","[u'left', u'left', u'down']",,,"[0, 0, 0]","[u'1', 4, 8, 15]","{u'mouseover': {u'state': {u'target': [], u'time': []}, u'edge': {u'target': [], u'time': []}}, u'click': {u'state': {u'target': [u'4'], u'time': [1329]}, u'edge': {u'target': [], u'time': []}}, u'mouseout': {u'state': {u'target': [], u'time': []}, u'edge': {u'target': [], u'time': []}}}",,,"[2575, 4, 1737]",2.4,,526227,3.0,5.0,mouselab-mdp,,9
"[8565, 13024, 15983]","[u'down', u'down', u'right']",,,"[0, 0, 0]","[u'1', 5, 9, 17]","{u'mouseover': {u'state': {u'target': [], u'time': []}, u'edge': {u'target': [], u'time': []}}, u'click': {u'state': {u'target': [u'5', u'4', u'2', u'3'], u'time': [1062, 3414, 5333, 7283]}, u'edge': {u'target': [], u'time': []}}, u'mouseout': {u'state': {u'target': [], u'time': []}, u'edge': {u'target': [], u'time': []}}}",,,"[8565, 4, 1758]",-2.4,,589101,4.0,2.0,mouselab-mdp,,9
"[6128, 10018, 13110]","[u'up', u'up', u'right']",,,"[0, 0, 0]","[u'1', 3, 7, 13]","{u'mouseover': {u'state': {u'target': [], u'time': []}, u'edge': {u'target': [], u'time': []}}, u'click': {u'state': {u'target': [u'5', u'3'], u'time': [2719, 4316]}, u'edge': {u'target': [], u'time': []}}, u'mouseout': {u'state': {u'target': [], u'time': []}, u'edge': {u'target': [], u'time': []}}}",,,"[6128, 4, 1852]",27.8,,646635,5.0,9.0,mouselab-mdp,,9
"[6198, 12631, 14637]","[u'left', u'left', u'down']",,,"[2, 0, 0]","[u'1', 4, 8, 15]","{u'mouseover': {u'state': {u'target': [], u'time': []}, u'edge': {u'target': [], u'time': []}}, u'click': {u'state': {u'target': [u'2', u'4'], u'time': [1806, 3970]}, u'edge': {u'target': [], u'time': []}}, u'mouseout': {u'state': {u'target': [], u'time': []}, u'edge': {u'target': [], u'time': []}}}",,,"[6197, 636, 843]",2.8,,700320,6.0,6.0,mouselab-mdp,,9
"[3325, 6807, 8015]","[u'down', u'down', u'left']",,,"[0, 0, 0]","[u'1', 5, 9, 16]","{u'mouseover': {u'state': {u'target': [], u'time': []}, u'edge': {u'target': [], u'time': []}}, u'click': {u'state': {u'target': [u'5'], u'time': [2037]}, u'edge': {u'target': [], u'time': []}}, u'mouseout': {u'state': {u'target': [], u'time': []}, u'edge': {u'target': [], u'time': []}}}",,,"[3325, 3, 63]",12.4,,749406,7.0,4.0,mouselab-mdp,,9
"[5727, 9507, 10756]","[u'up', u'up', u'right']",,,"[0, 0, 0]","[u'1', 3, 7, 13]","{u'mouseover': {u'state': {u'target': [], u'time': []}, u'edge': {u'target': [], u'time': []}}, u'click': {u'state': {u'target': [u'2', u'3'], u'time': [2590, 4465]}, u'edge': {u'target': [], u'time': []}}, u'mouseout': {u'state': {u'target': [], u'time': []}, u'edge': {u'target': [], u'time': []}}}",,,"[5727, 3, 85]",31.8,,800696,8.0,8.0,mouselab-mdp,,9
"[10743, 15143, 16305]","[u'right', u'right', u'up']",,,"[0, 0, 0]","[u'1', 2, 6, 10]","{u'mouseover': {u'state': {u'target': [], u'time': []}, u'edge': {u'target': [], u'time': []}}, u'click': {u'state': {u'target': [u'5', u'4', u'2', u'3'], u'time': [2865, 4840, 7141, 9063]}, u'edge': {u'target': [], u'time': []}}, u'mouseout': {u'state': {u'target': [], u'time': []}, u'edge': {u'target': [], u'time': []}}}",,,"[10743, 2, 3]",15.6,,851939,9.0,10.0,mouselab-mdp,,9
"[2705, 6175, 8831]","[u'down', u'down', u'left']",,,"[0, 0, 0]","[u'1', 5, 9, 16]","{u'mouseover': {u'state': {u'target': [], u'time': []}, u'edge': {u'target': [], u'time': []}}, u'click': {u'state': {u'target': [u'5'], u'time': [1584]}, u'edge': {u'target': [], u'time': []}}, u'mouseout': {u'state': {u'target': [], u'time': []}, u'edge': {u'target': [], u'time': []}}}",,,"[2705, 3, 1453]",2.4,,904426,10.0,0.0,mouselab-mdp,,9
"[3638, 8094, 9571]","[u'up', u'up', u'right']",,,"[1, 0, 0]","[u'1', 3, 7, 13]","{u'mouseover': {u'state': {u'target': [], u'time': []}, u'edge': {u'target': [], u'time': []}}, u'click': {u'state': {u'target': [u'3'], u'time': [1985]}, u'edge': {u'target': [], u'time': []}}, u'mouseout': {u'state': {u'target': [], u'time': []}, u'edge': {u'target': [], u'time': []}}}",,,"[3636, 23, 341]",3.4,,959485,11.0,7.0,mouselab-mdp,,9
"[7746, 13711, 16160]","[u'right', u'right', u'down']",,,"[1, 0, 0]","[u'1', 2, 6, 11]","{u'mouseover': {u'state': {u'target': [], u'time': []}, u'edge': {u'target': [], u'time': []}}, u'click': {u'state': {u'target': [u'5', u'3', u'2', u'4'], u'time': [905, 4701, 5772, 6708]}, u'edge': {u'target': [], u'time': []}}, u'mouseout': {u'state': {u'target': [], u'time': []}, u'edge': {u'target': [], u'time': []}}}",,,"[7745, 617, 1271]",31.6,,1012474,12.0,11.0,mouselab-mdp,,9
"[7629, 13372, 27157]","[u'up', u'up', u'right']",,,"[1, 0, 0]","[u'1', 3, 7, 13]","{u'mouseover': {u'state': {u'target': [], u'time': []}, u'edge': {u'target': [], u'time': []}}, u'click': {u'state': {u'target': [u'3', u'7', u'13', u'12'], u'time': [2488, 5451, 24889, 25886]}, u'edge': {u'target': [], u'time': []}}, u'mouseout': {u'state': {u'target': [], u'time': []}, u'edge': {u'target': [], u'time': []}}}",,,"[7629, 2195, 12880]",8.6,,177428,1.0,0.0,mouselab-mdp,,10
"[3897, 15243, 67883]","[u'right', u'right', u'up']",,,"[0, 3, 6]","[u'1', 2, 6, 10]","{u'mouseover': {u'state': {u'target': [], u'time': []}, u'edge': {u'target': [], u'time': []}}, u'click': {u'state': {u'target': [u'2', u'6', u'11', u'10'], u'time': [1621, 14083, 53217, 54096]}, u'edge': {u'target': [], u'time': []}}, u'mouseout': {u'state': {u'target': [], u'time': []}, u'edge': {u'target': [], u'time': []}}}",,,"[3897, 8927, 48417]",1.6,,281533,2.0,7.0,mouselab-mdp,,10
"[3581, 8782, 13093]","[u'down', u'down', u'left']",,,"[0, 0, 0]","[u'1', 5, 9, 16]","{u'mouseover': {u'state': {u'target': [], u'time': []}, u'edge': {u'target': [], u'time': []}}, u'click': {u'state': {u'target': [u'5', u'17', u'16'], u'time': [1561, 11257, 12025]}, u'edge': {u'target': [], u'time': []}}, u'mouseout': {u'state': {u'target': [], u'time': []}, u'edge': {u'target': [], u'time': []}}}",,,"[3580, 2455, 3312]",11.2,,365415,3.0,5.0,mouselab-mdp,,10
"[4673, 9857, 26167]","[u'left', u'left', u'up']",,,"[1, 0, 0]","[u'1', 4, 8, 14]","{u'mouseover': {u'state': {u'target': [], u'time': []}, u'edge': {u'target': [], u'time': []}}, u'click': {u'state': {u'target': [u'4', u'14', u'15'], u'time': [2636, 12228, 13133]}, u'edge': {u'target': [], u'time': []}}, u'mouseout': {u'state': {u'target': [], u'time': []}, u'edge': {u'target': [], u'time': []}}}",,,"[4671, 1428, 15313]",5.2,,493092,4.0,2.0,mouselab-mdp,,10
"[8374, 14276, 16060]","[u'up', u'up', u'right']",,,"[2, 0, 0]","[u'1', 3, 7, 13]","{u'mouseover': {u'state': {u'target': [], u'time': []}, u'edge': {u'target': [], u'time': []}}, u'click': {u'state': {u'target': [u'3', u'13'], u'time': [2728, 7093]}, u'edge': {u'target': [], u'time': []}}, u'mouseout': {u'state': {u'target': [], u'time': []}, u'edge': {u'target': [], u'time': []}}}",,,"[8373, 630, 782]",31.8,,604792,5.0,8.0,mouselab-mdp,,10
"[4979, 9643, 13603]","[u'right', u'right', u'up']",,,"[1, 0, 5]","[u'1', 2, 6, 10]","{u'mouseover': {u'state': {u'target': [], u'time': []}, u'edge': {u'target': [], u'time': []}}, u'click': {u'state': {u'target': [u'5', u'2', u'11', u'10'], u'time': [1688, 3593, 11636, 12515]}, u'edge': {u'target': [], u'time': []}}, u'mouseout': {u'state': {u'target': [], u'time': []}, u'edge': {u'target': [], u'time': []}}}",,,"[4978, 539, 2917]",15.6,,685970,6.0,10.0,mouselab-mdp,,10
"[10302, 20744, 21690]","[u'left', u'left', u'up']",,,"[7, 0, 0]","[u'1', 4, 8, 14]","{u'mouseover': {u'state': {u'target': [], u'time': []}, u'edge': {u'target': [], u'time': []}}, u'click': {u'state': {u'target': [u'4', u'8', u'14'], u'time': [2450, 6753, 9148]}, u'edge': {u'target': [], u'time': []}}, u'mouseout': {u'state': {u'target': [], u'time': []}, u'edge': {u'target': [], u'time': []}}}",,,"[10301, 422, 20]",5.2,,755755,7.0,6.0,mouselab-mdp,,10
"[4961, 18813, 26760]","[u'up', u'up', u'right']",,,"[0, 6, 0]","[u'1', 3, 7, 13]","{u'mouseover': {u'state': {u'target': [], u'time': []}, u'edge': {u'target': [], u'time': []}}, u'click': {u'state': {u'target': [u'3', u'13', u'12'], u'time': [3309, 12888, 14215]}, u'edge': {u'target': [], u'time': []}}, u'mouseout': {u'state': {u'target': [], u'time': []}, u'edge': {u'target': [], u'time': []}}}",,,"[4961, 11294, 474]",16.2,,812017,8.0,1.0,mouselab-mdp,,10
"[7343, 11596, 13355]","[u'down', u'down', u'right']",,,"[1, 0, 0]","[u'1', 5, 9, 17]","{u'mouseover': {u'state': {u'target': [], u'time': []}, u'edge': {u'target': [], u'time': []}}, u'click': {u'state': {u'target': [u'5', u'17'], u'time': [4194, 5744]}, u'edge': {u'target': [], u'time': []}}, u'mouseout': {u'state': {u'target': [], u'time': []}, u'edge': {u'target': [], u'time': []}}}",,,"[7342, 538, 857]",38.8,,871808,9.0,4.0,mouselab-mdp,,10
"[6014, 10582, 12093]","[u'left', u'left', u'up']",,,"[1, 0, 0]","[u'1', 4, 8, 14]","{u'mouseover': {u'state': {u'target': [], u'time': []}, u'edge': {u'target': [], u'time': []}}, u'click': {u'state': {u'target': [u'4', u'14'], u'time': [2699, 4056]}, u'edge': {u'target': [], u'time': []}}, u'mouseout': {u'state': {u'target': [], u'time': []}, u'edge': {u'target': [], u'time': []}}}",,,"[6013, 866, 615]",12.8,,928310,10.0,11.0,mouselab-mdp,,10
"[4623, 9834, 11322]","[u'up', u'up', u'right']",,,"[2, 0, 0]","[u'1', 3, 7, 13]","{u'mouseover': {u'state': {u'target': [], u'time': []}, u'edge': {u'target': [], u'time': []}}, u'click': {u'state': {u'target': [u'3', u'13'], u'time': [1818, 3253]}, u'edge': {u'target': [], u'time': []}}, u'mouseout': {u'state': {u'target': [], u'time': []}, u'edge': {u'target': [], u'time': []}}}",,,"[4623, 459, 581]",27.8,,980032,11.0,9.0,mouselab-mdp,,10
"[6477, 9678, 11045]","[u'up', u'up', u'right']",,,"[0, 0, 0]","[u'1', 3, 7, 13]","{u'mouseover': {u'state': {u'target': [], u'time': []}, u'edge': {u'target': [], u'time': []}}, u'click': {u'state': {u'target': [u'3', u'12', u'13'], u'time': [2510, 3633, 5441]}, u'edge': {u'target': [], u'time': []}}, u'mouseout': {u'state': {u'target': [], u'time': []}, u'edge': {u'target': [], u'time': []}}}",,,"[6477, 375, 524]",0.2,,1060094,12.0,3.0,mouselab-mdp,,10
"[1586, 9400, 11512]","[u'left', u'left', u'up']",,,"[5, 0, 1]","[u'1', 4, 8, 14]","{u'mouseover': {u'state': {u'target': [], u'time': []}, u'edge': {u'target': [], u'time': []}}, u'click': {u'state': {u'target': [], u'time': []}, u'edge': {u'target': [], u'time': []}}, u'mouseout': {u'state': {u'target': [], u'time': []}, u'edge': {u'target': [], u'time': []}}}",,,"[1585, 1212, 1318]",16.0,,97052,1.0,11.0,mouselab-mdp,,11
"[1638, 11293, 13661]","[u'right', u'right', u'down']",,,"[5, 0, 1]","[u'1', 2, 6, 11]","{u'mouseover': {u'state': {u'target': [], u'time': []}, u'edge': {u'target': [], u'time': []}}, u'click': {u'state': {u'target': [], u'time': []}, u'edge': {u'target': [], u'time': []}}, u'mouseout': {u'state': {u'target': [], u'time': []}, u'edge': {u'target': [], u'time': []}}}",,,"[1638, 2869, 1494]",16.0,,158507,2.0,9.0,mouselab-mdp,,11
"[1771, 11578, 20138]","[u'up', u'up', u'left']",,,"[5, 0, 1]","[u'1', 3, 7, 12]","{u'mouseover': {u'state': {u'target': [], u'time': []}, u'edge': {u'target': [], u'time': []}}, u'click': {u'state': {u'target': [], u'time': []}, u'edge': {u'target': [], u'time': []}}, u'mouseout': {u'state': {u'target': [], u'time': []}, u'edge': {u'target': [], u'time': []}}}",,,"[1771, 3063, 7728]",-1.0,,218532,3.0,3.0,mouselab-mdp,,11
"[896, 9208, 11599]","[u'down', u'down', u'right']",,,"[5, 0, 1]","[u'1', 5, 9, 17]","{u'mouseover': {u'state': {u'target': [], u'time': []}, u'edge': {u'target': [], u'time': []}}, u'click': {u'state': {u'target': [], u'time': []}, u'edge': {u'target': [], u'time': []}}, u'mouseout': {u'state': {u'target': [], u'time': []}, u'edge': {u'target': [], u'time': []}}}",,,"[895, 1636, 1558]",14.0,,289723,4.0,5.0,mouselab-mdp,,11
"[829, 8438, 10046]","[u'down', u'down', u'right']",,,"[5, 0, 1]","[u'1', 5, 9, 17]","{u'mouseover': {u'state': {u'target': [], u'time': []}, u'edge': {u'target': [], u'time': []}}, u'click': {u'state': {u'target': [], u'time': []}, u'edge': {u'target': [], u'time': []}}, u'mouseout': {u'state': {u'target': [], u'time': []}, u'edge': {u'target': [], u'time': []}}}",,,"[829, 943, 762]",10.0,,347027,5.0,1.0,mouselab-mdp,,11
"[1077, 8124, 10212]","[u'right', u'right', u'up']",,,"[5, 0, 1]","[u'1', 2, 6, 10]","{u'mouseover': {u'state': {u'target': [], u'time': []}, u'edge': {u'target': [], u'time': []}}, u'click': {u'state': {u'target': [], u'time': []}, u'edge': {u'target': [], u'time': []}}, u'mouseout': {u'state': {u'target': [], u'time': []}, u'edge': {u'target': [], u'time': []}}}",,,"[1077, 393, 1238]",8.0,,417700,6.0,7.0,mouselab-mdp,,11
"[886, 8590, 10910]","[u'up', u'up', u'left']",,,"[5, 0, 1]","[u'1', 3, 7, 12]","{u'mouseover': {u'state': {u'target': [], u'time': []}, u'edge': {u'target': [], u'time': []}}, u'click': {u'state': {u'target': [], u'time': []}, u'edge': {u'target': [], u'time': []}}, u'mouseout': {u'state': {u'target': [], u'time': []}, u'edge': {u'target': [], u'time': []}}}",,,"[886, 989, 1502]",3.0,,485739,7.0,10.0,mouselab-mdp,,11
"[4774, 17438, 22630]","[u'up', u'up', u'right']",,,"[5, 0, 1]","[u'1', 3, 7, 13]","{u'mouseover': {u'state': {u'target': [], u'time': []}, u'edge': {u'target': [], u'time': []}}, u'click': {u'state': {u'target': [], u'time': []}, u'edge': {u'target': [], u'time': []}}, u'mouseout': {u'state': {u'target': [], u'time': []}, u'edge': {u'target': [], u'time': []}}}",,,"[4774, 5980, 4351]",13.0,,545829,8.0,4.0,mouselab-mdp,,11
"[2085, 9557, 13342]","[u'left', u'left', u'up']",,,"[5, 0, 1]","[u'1', 4, 8, 14]","{u'mouseover': {u'state': {u'target': [], u'time': []}, u'edge': {u'target': [], u'time': []}}, u'click': {u'state': {u'target': [], u'time': []}, u'edge': {u'target': [], u'time': []}}, u'mouseout': {u'state': {u'target': [], u'time': []}, u'edge': {u'target': [], u'time': []}}}",,,"[2085, 781, 2935]",10.0,,605308,9.0,2.0,mouselab-mdp,,11
"[1288, 9600, 13177]","[u'down', u'down', u'left']",,,"[5, 0, 1]","[u'1', 5, 9, 16]","{u'mouseover': {u'state': {u'target': [], u'time': []}, u'edge': {u'target': [], u'time': []}}, u'click': {u'state': {u'target': [], u'time': []}, u'edge': {u'target': [], u'time': []}}, u'mouseout': {u'state': {u'target': [], u'time': []}, u'edge': {u'target': [], u'time': []}}}",,,"[1288, 1619, 2738]",4.0,,661157,10.0,0.0,mouselab-mdp,,11
"[1906, 9490, 12426]","[u'down', u'down', u'right']",,,"[5, 0, 1]","[u'1', 5, 9, 17]","{u'mouseover': {u'state': {u'target': [], u'time': []}, u'edge': {u'target': [], u'time': []}}, u'click': {u'state': {u'target': [], u'time': []}, u'edge': {u'target': [], u'time': []}}, u'mouseout': {u'state': {u'target': [], u'time': []}, u'edge': {u'target': [], u'time': []}}}",,,"[1906, 952, 2122]",8.0,,719907,11.0,6.0,mouselab-mdp,,11
"[1441, 8833, 14921]","[u'up', u'up', u'right']",,,"[5, 0, 1]","[u'1', 3, 7, 13]","{u'mouseover': {u'state': {u'target': [], u'time': []}, u'edge': {u'target': [], u'time': []}}, u'click': {u'state': {u'target': [], u'time': []}, u'edge': {u'target': [], u'time': []}}, u'mouseout': {u'state': {u'target': [], u'time': []}, u'edge': {u'target': [], u'time': []}}}",,,"[1440, 663, 5227]",35.0,,779996,12.0,8.0,mouselab-mdp,,11
"[18719, 27109, 27932]","[u'down', u'down', u'left']",,,"[4, 0, 0]","[u'1', 5, 9, 16]","{u'mouseover': {u'state': {u'target': [], u'time': []}, u'edge': {u'target': [], u'time': []}}, u'click': {u'state': {u'target': [u'2', u'5', u'3', u'4', u'9', u'7', u'13', u'16'], u'time': [4074, 6362, 7490, 8127, 12836, 13551, 15377, 17379]}, u'edge': {u'target': [], u'time': []}}, u'mouseout': {u'state': {u'target': [], u'time': []}, u'edge': {u'target': [], u'time': []}}}",,,"[18718, 1212, 14]",33.2,,167629,1.0,1.0,mouselab-mdp,,13
"[12471, 20710, 22486]","[u'left', u'left', u'up']",,,"[5, 0, 0]","[u'1', 4, 8, 14]","{u'mouseover': {u'state': {u'target': [], u'time': []}, u'edge': {u'target': [], u'time': []}}, u'click': {u'state': {u'target': [u'4', u'5', u'3', u'9', u'8', u'7', u'14'], u'time': [1252, 2037, 2996, 7415, 8159, 9001, 11385]}, u'edge': {u'target': [], u'time': []}}, u'mouseout': {u'state': {u'target': [], u'time': []}, u'edge': {u'target': [], u'time': []}}}",,,"[12471, 564, 966]",22.8,,228586,2.0,5.0,mouselab-mdp,,13
"[6777, 13921, 18922]","[u'up', u'up', u'right']",,,"[3, 0, 3]","[u'1', 3, 7, 13]","{u'mouseover': {u'state': {u'target': [], u'time': []}, u'edge': {u'target': [], u'time': []}}, u'click': {u'state': {u'target': [u'7', u'9', u'6', u'8', u'12'], u'time': [1580, 3207, 4346, 5531, 17184]}, u'edge': {u'target': [], u'time': []}}, u'mouseout': {u'state': {u'target': [], u'time': []}, u'edge': {u'target': [], u'time': []}}}",,,"[6777, 1929, 4215]",17.0,,299462,3.0,11.0,mouselab-mdp,,13
"[8440, 11649, 14504]","[u'left', u'left', u'up']",,,"[0, 0, 3]","[u'1', 4, 8, 14]","{u'mouseover': {u'state': {u'target': [], u'time': []}, u'edge': {u'target': [], u'time': []}}, u'click': {u'state': {u'target': [u'4', u'5', u'9', u'8', u'15'], u'time': [2990, 3823, 4949, 6100, 13543]}, u'edge': {u'target': [], u'time': []}}, u'mouseout': {u'state': {u'target': [], u'time': []}, u'edge': {u'target': [], u'time': []}}}",,,"[8440, 1002, 2078]",2.0,,400705,4.0,2.0,mouselab-mdp,,13
"[17842, 32354, 35289]","[u'up', u'up', u'right']",,,"[9, 0, 0]","[u'1', 3, 7, 13]","{u'mouseover': {u'state': {u'target': [], u'time': []}, u'edge': {u'target': [], u'time': []}}, u'click': {u'state': {u'target': [u'9', u'8', u'7', u'6', u'5', u'17', u'16', u'14', u'11', u'13', u'3'], u'time': [1469, 2397, 3083, 3806, 5281, 6626, 8037, 13152, 14438, 15406, 16878]}, u'edge': {u'target': [], u'time': []}}, u'mouseout': {u'state': {u'target': [], u'time': []}, u'edge': {u'target': [], u'time': []}}}",,,"[17842, 2424, 2262]",17.4,,458967,5.0,8.0,mouselab-mdp,,13
"[10379, 15682, 17291]","[u'left', u'left', u'down']",,,"[2, 0, 0]","[u'1', 4, 8, 15]","{u'mouseover': {u'state': {u'target': [], u'time': []}, u'edge': {u'target': [], u'time': []}}, u'click': {u'state': {u'target': [u'7', u'8', u'9', u'6', u'2', u'4', u'15'], u'time': [1358, 2049, 2788, 3439, 6097, 7289, 9437]}, u'edge': {u'target': [], u'time': []}}, u'mouseout': {u'state': {u'target': [], u'time': []}, u'edge': {u'target': [], u'time': []}}}",,,"[10379, 428, 802]",28.8,,511360,6.0,0.0,mouselab-mdp,,13
"[11090, 17665, 18937]","[u'right', u'right', u'up']",,,"[3, 0, 0]","[u'1', 2, 6, 10]","{u'mouseover': {u'state': {u'target': [], u'time': []}, u'edge': {u'target': [], u'time': []}}, u'click': {u'state': {u'target': [u'8', u'6', u'7', u'9', u'4', u'2', u'10'], u'time': [1322, 2140, 3164, 4379, 6015, 7788, 10191]}, u'edge': {u'target': [], u'time': []}}, u'mouseout': {u'state': {u'target': [], u'time': []}, u'edge': {u'target': [], u'time': []}}}",,,"[11090, 349, 447]",22.8,,567683,7.0,3.0,mouselab-mdp,,13
"[19990, 36863, 38277]","[u'left', u'left', u'up']",,,"[6, 0, 0]","[u'1', 4, 8, 14]","{u'mouseover': {u'state': {u'target': [], u'time': []}, u'edge': {u'target': [], u'time': []}}, u'click': {u'state': {u'target': [u'6', u'8', u'7', u'2', u'4', u'15'], u'time': [12684, 13832, 14841, 16495, 17550, 19134]}, u'edge': {u'target': [], u'time': []}}, u'mouseout': {u'state': {u'target': [], u'time': []}, u'edge': {u'target': [], u'time': []}}}",,,"[19990, 7949, 590]",-1.6,,631723,8.0,9.0,mouselab-mdp,,13
"[5752, 10944, 12127]","[u'right', u'right', u'down']",,,"[2, 0, 0]","[u'1', 2, 6, 11]","{u'mouseover': {u'state': {u'target': [], u'time': []}, u'edge': {u'target': [], u'time': []}}, u'click': {u'state': {u'target': [u'8', u'6', u'9', u'2', u'10'], u'time': [1494, 2301, 3237, 4179, 5099]}, u'edge': {u'target': [], u'time': []}}, u'mouseout': {u'state': {u'target': [], u'time': []}, u'edge': {u'target': [], u'time': []}}}",,,"[5752, 310, 366]",30.0,,697233,9.0,6.0,mouselab-mdp,,13
"[6827, 12722, 15963]","[u'down', u'down', u'right']",,,"[0, 0, 3]","[u'1', 5, 9, 17]","{u'mouseover': {u'state': {u'target': [], u'time': []}, u'edge': {u'target': [], u'time': []}}, u'click': {u'state': {u'target': [u'6', u'8', u'7', u'9', u'5', u'16'], u'time': [1252, 2097, 3017, 3979, 5324, 14929]}, u'edge': {u'target': [], u'time': []}}, u'mouseout': {u'state': {u'target': [], u'time': []}, u'edge': {u'target': [], u'time': []}}}",,,"[6827, 3114, 2379]",32.4,,750082,10.0,4.0,mouselab-mdp,,13
"[7764, 12909, 15852]","[u'down', u'down', u'right']",,,"[0, 0, 0]","[u'1', 5, 9, 17]","{u'mouseover': {u'state': {u'target': [], u'time': []}, u'edge': {u'target': [], u'time': []}}, u'click': {u'state': {u'target': [u'6', u'8', u'9', u'4', u'5', u'7', u'17'], u'time': [744, 1626, 2476, 4224, 4792, 6034, 14818]}, u'edge': {u'target': [], u'time': []}}, u'mouseout': {u'state': {u'target': [], u'time': []}, u'edge': {u'target': [], u'time': []}}}",,,"[7764, 2136, 2092]",22.8,,810263,11.0,7.0,mouselab-mdp,,13
"[9601, 14336, 17072]","[u'up', u'up', u'left']",,,"[0, 0, 0]","[u'1', 3, 7, 12]","{u'mouseover': {u'state': {u'target': [], u'time': []}, u'edge': {u'target': [], u'time': []}}, u'click': {u'state': {u'target': [u'6', u'9', u'8', u'7', u'3', u'5', u'13'], u'time': [884, 1809, 3030, 3842, 4803, 7754, 16356]}, u'edge': {u'target': [], u'time': []}}, u'mouseout': {u'state': {u'target': [], u'time': []}, u'edge': {u'target': [], u'time': []}}}",,,"[9601, 1819, 1904]",-8.2,,868158,12.0,10.0,mouselab-mdp,,13
"[3099, 13345, 16874]","[u'right', u'right', u'down']",,,"[5, 0, 0]","[u'1', 2, 6, 11]","{u'mouseover': {u'state': {u'target': [], u'time': []}, u'edge': {u'target': [], u'time': []}}, u'click': {u'state': {u'target': [], u'time': []}, u'edge': {u'target': [], u'time': []}}, u'mouseout': {u'state': {u'target': [], u'time': []}, u'edge': {u'target': [], u'time': []}}}",,,"[3097, 2972, 2579]",18.0,,983479,1.0,8.0,mouselab-mdp,,14
"[1629, 12026, 16328]","[u'up', u'up', u'left']",,,"[5, 0, 0]","[u'1', 3, 7, 12]","{u'mouseover': {u'state': {u'target': [], u'time': []}, u'edge': {u'target': [], u'time': []}}, u'click': {u'state': {u'target': [], u'time': []}, u'edge': {u'target': [], u'time': []}}, u'mouseout': {u'state': {u'target': [], u'time': []}, u'edge': {u'target': [], u'time': []}}}",,,"[1628, 2639, 2878]",21.0,,1039672,2.0,1.0,mouselab-mdp,,14
"[765, 11471, 14064]","[u'down', u'down', u'left']",,,"[5, 0, 0]","[u'1', 5, 9, 16]","{u'mouseover': {u'state': {u'target': [], u'time': []}, u'edge': {u'target': [], u'time': []}}, u'click': {u'state': {u'target': [], u'time': []}, u'edge': {u'target': [], u'time': []}}, u'mouseout': {u'state': {u'target': [], u'time': []}, u'edge': {u'target': [], u'time': []}}}",,,"[765, 3588, 1592]",18.0,,1098159,3.0,11.0,mouselab-mdp,,14
"[4124, 8385, 12552]","[u'left', u'left', u'up']",,,"[1, 0, 0]","[u'1', 4, 8, 14]","{u'mouseover': {u'state': {u'target': [], u'time': []}, u'edge': {u'target': [], u'time': []}}, u'click': {u'state': {u'target': [u'4'], u'time': [1271]}, u'edge': {u'target': [], u'time': []}}, u'mouseout': {u'state': {u'target': [], u'time': []}, u'edge': {u'target': [], u'time': []}}}",,,"[4124, 962, 3204]",38.4,,1150073,4.0,0.0,mouselab-mdp,,14
"[2805, 6409, 12611]","[u'up', u'up', u'left']",,,"[0, 0, 5]","[u'1', 3, 7, 12]","{u'mouseover': {u'state': {u'target': [], u'time': []}, u'edge': {u'target': [], u'time': []}}, u'click': {u'state': {u'target': [u'3', u'12', u'13'], u'time': [1222, 10116, 11310]}, u'edge': {u'target': [], u'time': []}}, u'mouseout': {u'state': {u'target': [], u'time': []}, u'edge': {u'target': [], u'time': []}}}",,,"[2805, 1325, 5294]",32.2,,1215592,5.0,9.0,mouselab-mdp,,14
"[4384, 10616, 13797]","[u'right', u'right', u'up']",,,"[1, 0, 0]","[u'1', 2, 6, 10]","{u'mouseover': {u'state': {u'target': [], u'time': []}, u'edge': {u'target': [], u'time': []}}, u'click': {u'state': {u'target': [u'2'], u'time': [1168]}, u'edge': {u'target': [], u'time': []}}, u'mouseout': {u'state': {u'target': [], u'time': []}, u'edge': {u'target': [], u'time': []}}}",,,"[4383, 2956, 2244]",32.4,,1279801,6.0,3.0,mouselab-mdp,,14
"[6623, 12756, 15752]","[u'right', u'right', u'up']",,,"[0, 0, 0]","[u'1', 2, 6, 10]","{u'mouseover': {u'state': {u'target': [], u'time': []}, u'edge': {u'target': [], u'time': []}}, u'click': {u'state': {u'target': [u'4', u'5', u'3', u'2'], u'time': [1452, 2799, 3984, 5219]}, u'edge': {u'target': [], u'time': []}}, u'mouseout': {u'state': {u'target': [], u'time': []}, u'edge': {u'target': [], u'time': []}}}",,,"[6623, 3283, 2043]",1.6,,1335949,7.0,7.0,mouselab-mdp,,14
"[5635, 11962, 17228]","[u'up', u'up', u'right']",,,"[3, 0, 3]","[u'1', 3, 7, 13]","{u'mouseover': {u'state': {u'target': [], u'time': []}, u'edge': {u'target': [], u'time': []}}, u'click': {u'state': {u'target': [u'4', u'5', u'3', u'2', u'12'], u'time': [2045, 2872, 3575, 4336, 14743]}, u'edge': {u'target': [], u'time': []}}, u'mouseout': {u'state': {u'target': [], u'time': []}, u'edge': {u'target': [], u'time': []}}}",,,"[5634, 529, 4351]",-7.0,,1404393,8.0,5.0,mouselab-mdp,,14
"[11071, 19915, 21902]","[u'right', u'right', u'up']",,,"[1, 0, 0]","[u'1', 2, 6, 10]","{u'mouseover': {u'state': {u'target': [], u'time': []}, u'edge': {u'target': [], u'time': []}}, u'click': {u'state': {u'target': [u'2', u'4'], u'time': [7308, 8335]}, u'edge': {u'target': [], u'time': []}}, u'mouseout': {u'state': {u'target': [], u'time': []}, u'edge': {u'target': [], u'time': []}}}",,,"[11071, 5521, 1093]",30.8,,1455864,9.0,2.0,mouselab-mdp,,14
"[10826, 14835, 16748]","[u'down', u'down', u'right']",,,"[0, 0, 0]","[u'1', 5, 9, 17]","{u'mouseover': {u'state': {u'target': [], u'time': []}, u'edge': {u'target': [], u'time': []}}, u'click': {u'state': {u'target': [u'5'], u'time': [9780]}, u'edge': {u'target': [], u'time': []}}, u'mouseout': {u'state': {u'target': [], u'time': []}, u'edge': {u'target': [], u'time': []}}}",,,"[10826, 1584, 1011]",40.4,,1508526,10.0,4.0,mouselab-mdp,,14
"[6216, 29887, 32055]","[u'down', u'down', u'left']",,,"[4, 0, 0]","[u'1', 5, 9, 16]","{u'mouseover': {u'state': {u'target': [], u'time': []}, u'edge': {u'target': [], u'time': []}}, u'click': {u'state': {u'target': [u'3'], u'time': [4214]}, u'edge': {u'target': [], u'time': []}}, u'mouseout': {u'state': {u'target': [], u'time': []}, u'edge': {u'target': [], u'time': []}}}",,,"[6216, 17188, 1006]",10.4,,1563912,11.0,6.0,mouselab-mdp,,14
"[5139, 11804, 13846]","[u'down', u'down', u'right']",,,"[2, 0, 0]","[u'1', 5, 9, 17]","{u'mouseover': {u'state': {u'target': [], u'time': []}, u'edge': {u'target': [], u'time': []}}, u'click': {u'state': {u'target': [u'3', u'4'], u'time': [3074, 3996]}, u'edge': {u'target': [], u'time': []}}, u'mouseout': {u'state': {u'target': [], u'time': []}, u'edge': {u'target': [], u'time': []}}}",,,"[5138, 1541, 1007]",-1.2,,1619322,12.0,10.0,mouselab-mdp,,14
"[37342, 48069, 49717]","[u'right', u'right', u'down']",,,"[5, 0, 1]","[u'1', 2, 6, 11]","{u'mouseover': {u'state': {u'target': [], u'time': []}, u'edge': {u'target': [], u'time': []}}, u'click': {u'state': {u'target': [u'4', u'8', u'14', u'15', u'5', u'9', u'16', u'17', u'3', u'7', u'13', u'12', u'2'], u'time': [1993, 3447, 4423, 5463, 11117, 13342, 19558, 20732, 22729, 29329, 30203, 31231, 32114]}, u'edge': {u'target': [], u'time': []}}, u'mouseout': {u'state': {u'target': [], u'time': []}, u'edge': {u'target': [], u'time': []}}}",,,"[37342, 3136, 1081]",17.2,,121841,1.0,6.0,mouselab-mdp,,15
"[4416, 13256, 17056]","[u'right', u'right', u'up']",,,"[5, 0, 1]","[u'1', 2, 6, 10]","{u'mouseover': {u'state': {u'target': [], u'time': []}, u'edge': {u'target': [], u'time': []}}, u'click': {u'state': {u'target': [u'3', u'2', u'6', u'10'], u'time': [1914, 2932, 11874, 15420]}, u'edge': {u'target': [], u'time': []}}, u'mouseout': {u'state': {u'target': [], u'time': []}, u'edge': {u'target': [], u'time': []}}}",,,"[4416, 1910, 2752]",27.6,,191737,2.0,2.0,mouselab-mdp,,15
"[21411, 32475, 36371]","[u'up', u'up', u'left']",,,"[5, 0, 1]","[u'1', 3, 7, 12]","{u'mouseover': {u'state': {u'target': [], u'time': []}, u'edge': {u'target': [], u'time': []}}, u'click': {u'state': {u'target': [u'3', u'7', u'13', u'12'], u'time': [3488, 16072, 18270, 19340]}, u'edge': {u'target': [], u'time': []}}, u'mouseout': {u'state': {u'target': [], u'time': []}, u'edge': {u'target': [], u'time': []}}}",,,"[21411, 4022, 3040]",12.6,,255960,3.0,7.0,mouselab-mdp,,15
"[16144, 23520, 24984]","[u'down', u'down', u'left']",,,"[5, 0, 1]","[u'1', 5, 9, 16]","{u'mouseover': {u'state': {u'target': [], u'time': []}, u'edge': {u'target': [], u'time': []}}, u'click': {u'state': {u'target': [u'5', u'9', u'17', u'16'], u'time': [2458, 6106, 6907, 7843]}, u'edge': {u'target': [], u'time': []}}, u'mouseout': {u'state': {u'target': [], u'time': []}, u'edge': {u'target': [], u'time': []}}}",,,"[16144, 337, 754]",9.6,,315513,4.0,5.0,mouselab-mdp,,15
"[1579, 8715, 54770]","[u'up', u'up', u'right']",,,"[5, 0, 1]","[u'1', 3, 7, 13]","{u'mouseover': {u'state': {u'target': [], u'time': []}, u'edge': {u'target': [], u'time': []}}, u'click': {u'state': {u'target': [u'13', u'12'], u'time': [15531, 16643]}, u'edge': {u'target': [], u'time': []}}, u'mouseout': {u'state': {u'target': [], u'time': []}, u'edge': {u'target': [], u'time': []}}}",,,"[1579, 628, 45287]",-0.2,,376352,5.0,10.0,mouselab-mdp,,15
"[19681, 27905, 30841]","[u'left', u'left', u'up']",,,"[5, 0, 1]","[u'1', 4, 8, 14]","{u'mouseover': {u'state': {u'target': [], u'time': []}, u'edge': {u'target': [], u'time': []}}, u'click': {u'state': {u'target': [u'2', u'3', u'7', u'13', u'12', u'5', u'9', u'17', u'16', u'4', u'8', u'14'], u'time': [4953, 6376, 8247, 8871, 9473, 10877, 11563, 12291, 13039, 17272, 17864, 18479]}, u'edge': {u'target': [], u'time': []}}, u'mouseout': {u'state': {u'target': [], u'time': []}, u'edge': {u'target': [], u'time': []}}}",,,"[19681, 343, 2303]",20.8,,432567,6.0,0.0,mouselab-mdp,,15
"[4854, 12342, 14574]","[u'right', u'right', u'up']",,,"[5, 0, 1]","[u'1', 2, 6, 10]","{u'mouseover': {u'state': {u'target': [], u'time': []}, u'edge': {u'target': [], u'time': []}}, u'click': {u'state': {u'target': [u'2', u'6', u'10'], u'time': [1872, 2766, 3578]}, u'edge': {u'target': [], u'time': []}}, u'mouseout': {u'state': {u'target': [], u'time': []}, u'edge': {u'target': [], u'time': []}}}",,,"[4854, 422, 1455]",29.2,,518503,7.0,3.0,mouselab-mdp,,15
"[8644, 16108, 19404]","[u'up', u'up', u'left']",,,"[5, 0, 1]","[u'1', 3, 7, 12]","{u'mouseover': {u'state': {u'target': [], u'time': []}, u'edge': {u'target': [], u'time': []}}, u'click': {u'state': {u'target': [u'3', u'7', u'13', u'12'], u'time': [1005, 1898, 2781, 7438]}, u'edge': {u'target': [], u'time': []}}, u'mouseout': {u'state': {u'target': [], u'time': []}, u'edge': {u'target': [], u'time': []}}}",,,"[8644, 449, 2599]",30.6,,604191,8.0,9.0,mouselab-mdp,,15
"[6407, 13783, 16063]","[u'right', u'right', u'down']",,,"[5, 0, 1]","[u'1', 2, 6, 11]","{u'mouseover': {u'state': {u'target': [], u'time': []}, u'edge': {u'target': [], u'time': []}}, u'click': {u'state': {u'target': [u'2', u'6', u'11'], u'time': [3653, 4495, 5243]}, u'edge': {u'target': [], u'time': []}}, u'mouseout': {u'state': {u'target': [], u'time': []}, u'edge': {u'target': [], u'time': []}}}",,,"[6407, 294, 1505]",33.2,,662439,9.0,11.0,mouselab-mdp,,15
"[11618, 19738, 23498]","[u'down', u'down', u'right']",,,"[5, 0, 1]","[u'1', 5, 9, 17]","{u'mouseover': {u'state': {u'target': [], u'time': []}, u'edge': {u'target': [], u'time': []}}, u'click': {u'state': {u'target': [u'2', u'3', u'7', u'13', u'5', u'9', u'16', u'17'], u'time': [3159, 4146, 5082, 5945, 8543, 9188, 9874, 10675]}, u'edge': {u'target': [], u'time': []}}, u'mouseout': {u'state': {u'target': [], u'time': []}, u'edge': {u'target': [], u'time': []}}}",,,"[11618, 478, 3076]",29.2,,717150,10.0,4.0,mouselab-mdp,,15
"[5671, 13247, 16735]","[u'right', u'right', u'up']",,,"[5, 0, 1]","[u'1', 2, 6, 10]","{u'mouseover': {u'state': {u'target': [], u'time': []}, u'edge': {u'target': [], u'time': []}}, u'click': {u'state': {u'target': [u'2', u'6', u'11', u'10'], u'time': [2480, 3228, 3842, 4611]}, u'edge': {u'target': [], u'time': []}}, u'mouseout': {u'state': {u'target': [], u'time': []}, u'edge': {u'target': [], u'time': []}}}",,,"[5671, 526, 2787]",21.6,,770926,11.0,8.0,mouselab-mdp,,15
"[19326, 27614, 30678]","[u'down', u'down', u'left']",,,"[5, 0, 1]","[u'1', 5, 9, 16]","{u'mouseover': {u'state': {u'target': [], u'time': []}, u'edge': {u'target': [], u'time': []}}, u'click': {u'state': {u'target': [u'2', u'6', u'3', u'7', u'13', u'12', u'5', u'9', u'17', u'16'], u'time': [1274, 1887, 3415, 4153, 4902, 5713, 16402, 16891, 17379, 18117]}, u'edge': {u'target': [], u'time': []}}, u'mouseout': {u'state': {u'target': [], u'time': []}, u'edge': {u'target': [], u'time': []}}}",,,"[19326, 393, 2415]",30.0,,827470,12.0,1.0,mouselab-mdp,,15
"[40967, 82425, 84489]","[u'down', u'down', u'right']",,,"[35, 0, 0]","[u'1', 5, 9, 17]","{u'mouseover': {u'state': {u'target': [], u'time': []}, u'edge': {u'target': [], u'time': []}}, u'click': {u'state': {u'target': [u'4', u'8', u'14', u'15', u'3', u'7', u'12', u'13', u'2', u'6', u'10', u'11', u'5', u'9'], u'time': [4337, 8033, 10151, 14564, 17992, 18631, 19234, 29779, 32296, 32925, 33402, 34472, 38046, 39165]}, u'edge': {u'target': [], u'time': []}}, u'mouseout': {u'state': {u'target': [], u'time': []}, u'edge': {u'target': [], u'time': []}}}",,,"[40966, 1679, 1407]",-12.4,,341060,1.0,1.0,mouselab-mdp,,16
"[15291, 25613, 27724]","[u'down', u'down', u'right']",,,"[4, 0, 0]","[u'1', 5, 9, 17]","{u'mouseover': {u'state': {u'target': [], u'time': []}, u'edge': {u'target': [], u'time': []}}, u'click': {u'state': {u'target': [u'13', u'11', u'17', u'15', u'14', u'12', u'10', u'16'], u'time': [5070, 6604, 7502, 8682, 10317, 11202, 12285, 13451]}, u'edge': {u'target': [], u'time': []}}, u'mouseout': {u'state': {u'target': [], u'time': []}, u'edge': {u'target': [], u'time': []}}}",,,"[15291, 2540, 1378]",5.2,,398375,2.0,11.0,mouselab-mdp,,16
"[29212, 32533, 39497]","[u'down', u'down', u'right']",,,"[0, 0, 3]","[u'1', 5, 9, 17]","{u'mouseover': {u'state': {u'target': [], u'time': []}, u'edge': {u'target': [], u'time': []}}, u'click': {u'state': {u'target': [u'10', u'6', u'11', u'2', u'4', u'3', u'5', u'16'], u'time': [4234, 4873, 13486, 16882, 20237, 24602, 27220, 38161]}, u'edge': {u'target': [], u'time': []}}, u'mouseout': {u'state': {u'target': [], u'time': []}, u'edge': {u'target': [], u'time': []}}}",,,"[29212, 2, 6100]",-2.8,,451274,3.0,0.0,mouselab-mdp,,16
"[11178, 21812, 24507]","[u'down', u'down', u'right']",,,"[6, 0, 0]","[u'1', 5, 9, 17]","{u'mouseover': {u'state': {u'target': [], u'time': []}, u'edge': {u'target': [], u'time': []}}, u'click': {u'state': {u'target': [u'3', u'7', u'13', u'12', u'5', u'16'], u'time': [3432, 4009, 4635, 5434, 8065, 9490]}, u'edge': {u'target': [], u'time': []}}, u'mouseout': {u'state': {u'target': [], u'time': []}, u'edge': {u'target': [], u'time': []}}}",,,"[11178, 1397, 1875]",-9.6,,513611,4.0,3.0,mouselab-mdp,,16
"[12421, 15278, 24552]","[u'up', u'up', u'right']",,,"[0, 0, 0]","[u'1', 3, 7, 13]","{u'mouseover': {u'state': {u'target': [], u'time': []}, u'edge': {u'target': [], u'time': []}}, u'click': {u'state': {u'target': [u'2', u'3', u'7', u'13'], u'time': [3131, 4519, 10186, 22062]}, u'edge': {u'target': [], u'time': []}}, u'mouseout': {u'state': {u'target': [], u'time': []}, u'edge': {u'target': [], u'time': []}}}",,,"[12421, 2, 8294]",24.6,,570317,5.0,9.0,mouselab-mdp,,16
"[28523, 40928, 45847]","[u'left', u'left', u'up']",,,"[4, 3, 0]","[u'1', 4, 8, 14]","{u'mouseover': {u'state': {u'target': [], u'time': []}, u'edge': {u'target': [], u'time': []}}, u'click': {u'state': {u'target': [u'3', u'7', u'13', u'12', u'4', u'2', u'5', u'14'], u'time': [2303, 4473, 5506, 6673, 11461, 16262, 17296, 39608]}, u'edge': {u'target': [], u'time': []}}, u'mouseout': {u'state': {u'target': [], u'time': []}, u'edge': {u'target': [], u'time': []}}}",,,"[28523, 4924, 617]",21.2,,642768,6.0,5.0,mouselab-mdp,,16
"[37296, 43980, 46034]","[u'left', u'left', u'up']",,,"[2, 0, 0]","[u'1', 4, 8, 14]","{u'mouseover': {u'state': {u'target': [], u'time': []}, u'edge': {u'target': [], u'time': []}}, u'click': {u'state': {u'target': [u'7', u'3', u'12', u'2', u'10', u'11', u'14', u'4', u'8'], u'time': [1899, 4369, 7773, 14172, 16139, 20317, 23095, 25036, 26008]}, u'edge': {u'target': [], u'time': []}}, u'mouseout': {u'state': {u'target': [], u'time': []}, u'edge': {u'target': [], u'time': []}}}",,,"[37296, 455, 1199]",7.6,,700301,7.0,7.0,mouselab-mdp,,16
"[18193, 21680, 23754]","[u'left', u'left', u'up']",,,"[0, 0, 0]","[u'1', 4, 8, 14]","{u'mouseover': {u'state': {u'target': [], u'time': []}, u'edge': {u'target': [], u'time': []}}, u'click': {u'state': {u'target': [u'13', u'16', u'14', u'4', u'8'], u'time': [2289, 4010, 5544, 8788, 9711]}, u'edge': {u'target': [], u'time': []}}, u'mouseout': {u'state': {u'target': [], u'time': []}, u'edge': {u'target': [], u'time': []}}}",,,"[18193, 2, 1188]",10.0,,753535,8.0,10.0,mouselab-mdp,,16
"[21392, 29925, 32087]","[u'down', u'down', u'right']",,,"[3, 0, 0]","[u'1', 5, 9, 17]","{u'mouseover': {u'state': {u'target': [], u'time': []}, u'edge': {u'target': [], u'time': []}}, u'click': {u'state': {u'target': [u'10', u'16', u'14', u'8', u'4', u'13'], u'time': [2281, 3939, 5192, 7625, 8202, 11277]}, u'edge': {u'target': [], u'time': []}}, u'mouseout': {u'state': {u'target': [], u'time': []}, u'edge': {u'target': [], u'time': []}}}",,,"[21392, 1657, 1285]",-1.6,,811210,9.0,6.0,mouselab-mdp,,16
"[10580, 16545, 18692]","[u'right', u'right', u'up']",,,"[2, 0, 0]","[u'1', 2, 6, 10]","{u'mouseover': {u'state': {u'target': [], u'time': []}, u'edge': {u'target': [], u'time': []}}, u'click': {u'state': {u'target': [u'13', u'10', u'2', u'6'], u'time': [3839, 4870, 6898, 7930]}, u'edge': {u'target': [], u'time': []}}, u'mouseout': {u'state': {u'target': [], u'time': []}, u'edge': {u'target': [], u'time': []}}}",,,"[10579, 656, 1210]",27.6,,866232,10.0,2.0,mouselab-mdp,,16
"[13657, 19788, 21778]","[u'up', u'up', u'right']",,,"[2, 0, 0]","[u'1', 3, 7, 13]","{u'mouseover': {u'state': {u'target': [], u'time': []}, u'edge': {u'target': [], u'time': []}}, u'click': {u'state': {u'target': [u'13', u'3', u'7'], u'time': [3722, 9523, 10959]}, u'edge': {u'target': [], u'time': []}}, u'mouseout': {u'state': {u'target': [], u'time': []}, u'edge': {u'target': [], u'time': []}}}",,,"[13657, 1099, 1028]",30.2,,919642,11.0,8.0,mouselab-mdp,,16
"[15440, 22769, 25251]","[u'down', u'down', u'right']",,,"[3, 0, 0]","[u'1', 5, 9, 17]","{u'mouseover': {u'state': {u'target': [], u'time': []}, u'edge': {u'target': [], u'time': []}}, u'click': {u'state': {u'target': [u'6', u'8', u'7', u'9', u'17', u'5'], u'time': [5832, 7429, 9741, 11215, 12579, 13832]}, u'edge': {u'target': [], u'time': []}}, u'mouseout': {u'state': {u'target': [], u'time': []}, u'edge': {u'target': [], u'time': []}}}",,,"[15440, 498, 1497]",32.4,,993680,12.0,4.0,mouselab-mdp,,16
"[4336, 41287, 48944]","[u'down', u'down', u'left']",,,"[5, 0, 1]","[u'1', 5, 9, 16]","{u'mouseover': {u'state': {u'target': [], u'time': []}, u'edge': {u'target': [], u'time': []}}, u'click': {u'state': {u'target': [u'9', u'16', u'17'], u'time': [26021, 30895, 32403]}, u'edge': {u'target': [], u'time': []}}, u'mouseout': {u'state': {u'target': [], u'time': []}, u'edge': {u'target': [], u'time': []}}}",,,"[4335, 22165, 22]",1.2,,475563,1.0,3.0,mouselab-mdp,,17
"[12684, 39226, 45020]","[u'right', u'right', u'down']",,,"[5, 0, 1]","[u'1', 2, 6, 11]","{u'mouseover': {u'state': {u'target': [], u'time': []}, u'edge': {u'target': [], u'time': []}}, u'click': {u'state': {u'target': [u'5', u'4', u'3', u'2', u'10', u'11'], u'time': [3935, 5322, 7016, 8443, 35719, 36983]}, u'edge': {u'target': [], u'time': []}}, u'mouseout': {u'state': {u'target': [], u'time': []}, u'edge': {u'target': [], u'time': []}}}",,,"[12684, 5949, 19]",28.4,,555228,2.0,11.0,mouselab-mdp,,17
"[49281, 81394, 85990]","[u'right', u'right', u'up']",,,"[5, 0, 1]","[u'1', 2, 6, 10]","{u'mouseover': {u'state': {u'target': [], u'time': []}, u'edge': {u'target': [], u'time': []}}, u'click': {u'state': {u'target': [u'4', u'3', u'2', u'5', u'16', u'17', u'11', u'10', u'13', u'12', u'14', u'15', u'6', u'8'], u'time': [11096, 12338, 13600, 14767, 17404, 18883, 20402, 21915, 23614, 24861, 26041, 27796, 43161, 47128]}, u'edge': {u'target': [], u'time': []}}, u'mouseout': {u'state': {u'target': [], u'time': []}, u'edge': {u'target': [], u'time': []}}}",,,"[49280, 1145, 3119]",-0.4,,649143,3.0,10.0,mouselab-mdp,,17
"[32838, 66249, 68074]","[u'right', u'right', u'up']",,,"[5, 0, 1]","[u'1', 2, 6, 10]","{u'mouseover': {u'state': {u'target': [], u'time': []}, u'edge': {u'target': [], u'time': []}}, u'click': {u'state': {u'target': [u'2', u'3', u'4', u'5', u'16', u'17', u'11', u'10', u'15', u'14', u'6', u'9'], u'time': [1294, 2303, 3462, 4852, 7191, 8378, 10483, 11865, 15037, 16226, 28577, 30163]}, u'edge': {u'target': [], u'time': []}}, u'mouseout': {u'state': {u'target': [], u'time': []}, u'edge': {u'target': [], u'time': []}}}",,,"[32838, 4449, 96]",14.8,,728273,4.0,2.0,mouselab-mdp,,17
"[46419, 75638, 77261]","[u'down', u'down', u'right']",,,"[5, 0, 1]","[u'1', 5, 9, 17]","{u'mouseover': {u'state': {u'target': [], u'time': []}, u'edge': {u'target': [], u'time': []}}, u'click': {u'state': {u'target': [u'2', u'4', u'3', u'5', u'11', u'10', u'13', u'12', u'17', u'16', u'15', u'14'], u'time': [1639, 2870, 3982, 5224, 7545, 8679, 10728, 11789, 13484, 14852, 16888, 17945]}, u'edge': {u'target': [], u'time': []}}, u'mouseout': {u'state': {u'target': [], u'time': []}, u'edge': {u'target': [], u'time': []}}}",,,"[46418, 487, 17]",14.8,,832672,5.0,7.0,mouselab-mdp,,17
"[24483, 60951, 63243]","[u'down', u'down', u'left']",,,"[5, 0, 1]","[u'1', 5, 9, 16]","{u'mouseover': {u'state': {u'target': [], u'time': []}, u'edge': {u'target': [], u'time': []}}, u'click': {u'state': {u'target': [u'3', u'4', u'5', u'2', u'16', u'17', u'12', u'13'], u'time': [7530, 9588, 11132, 12848, 15636, 17147, 19396, 20908]}, u'edge': {u'target': [], u'time': []}}, u'mouseout': {u'state': {u'target': [], u'time': []}, u'edge': {u'target': [], u'time': []}}}",,,"[24481, 12181, 13]",33.2,,921774,6.0,1.0,mouselab-mdp,,17
"[21424, 53526, 55795]","[u'down', u'down', u'right']",,,"[5, 0, 1]","[u'1', 5, 9, 17]","{u'mouseover': {u'state': {u'target': [], u'time': []}, u'edge': {u'target': [], u'time': []}}, u'click': {u'state': {u'target': [u'2', u'4', u'3', u'5', u'16', u'17', u'15', u'14'], u'time': [3115, 4277, 5663, 6902, 9707, 11191, 14404, 15854]}, u'edge': {u'target': [], u'time': []}}, u'mouseout': {u'state': {u'target': [], u'time': []}, u'edge': {u'target': [], u'time': []}}}",,,"[21423, 6786, 39]",29.2,,998457,7.0,4.0,mouselab-mdp,,17
"[34536, 65803, 69930]","[u'up', u'up', u'left']",,,"[5, 0, 1]","[u'1', 3, 7, 12]","{u'mouseover': {u'state': {u'target': [], u'time': []}, u'edge': {u'target': [], u'time': []}}, u'click': {u'state': {u'target': [u'4', u'3', u'2', u'5', u'16', u'17', u'15', u'14', u'12', u'13', u'10', u'11'], u'time': [1271, 2519, 3779, 5018, 7842, 9150, 11403, 12794, 16327, 18079, 27728, 29079]}, u'edge': {u'target': [], u'time': []}}, u'mouseout': {u'state': {u'target': [], u'time': []}, u'edge': {u'target': [], u'time': []}}}",,,"[34535, 1533, 2312]",21.8,,1081267,8.0,8.0,mouselab-mdp,,17
"[35012, 72589, 77495]","[u'left', u'left', u'up']",,,"[5, 0, 1]","[u'1', 4, 8, 14]","{u'mouseover': {u'state': {u'target': [], u'time': []}, u'edge': {u'target': [], u'time': []}}, u'click': {u'state': {u'target': [u'5', u'4', u'3', u'2', u'12', u'13', u'15', u'14', u'16', u'17'], u'time': [1313, 2374, 3824, 5416, 8213, 9530, 12463, 13886, 21118, 29539]}, u'edge': {u'target': [], u'time': []}}, u'mouseout': {u'state': {u'target': [], u'time': []}, u'edge': {u'target': [], u'time': []}}}",,,"[35010, 1216, 2832]",18.0,,1168835,9.0,5.0,mouselab-mdp,,17
"[27417, 55914, 59477]","[u'left', u'left', u'up']",,,"[5, 0, 1]","[u'1', 4, 8, 14]","{u'mouseover': {u'state': {u'target': [], u'time': []}, u'edge': {u'target': [], u'time': []}}, u'click': {u'state': {u'target': [u'5', u'17', u'16', u'4', u'3', u'12', u'13', u'2', u'15', u'14'], u'time': [1915, 5849, 7161, 9109, 10745, 12691, 14244, 15599, 17566, 19010]}, u'edge': {u'target': [], u'time': []}}, u'mouseout': {u'state': {u'target': [], u'time': []}, u'edge': {u'target': [], u'time': []}}}",,,"[27417, 961, 1449]",24.0,,1251766,10.0,0.0,mouselab-mdp,,17
"[11480, 51959, 55962]","[u'up', u'up', u'left']",,,"[5, 0, 1]","[u'1', 3, 7, 12]","{u'mouseover': {u'state': {u'target': [], u'time': []}, u'edge': {u'target': [], u'time': []}}, u'click': {u'state': {u'target': [u'5', u'4', u'15', u'14', u'3', u'12', u'13'], u'time': [1569, 2905, 4203, 5634, 7165, 8382, 9722]}, u'edge': {u'target': [], u'time': []}}, u'mouseout': {u'state': {u'target': [], u'time': []}, u'edge': {u'target': [], u'time': []}}}",,,"[11480, 16979, 1694]",25.8,,1327040,11.0,9.0,mouselab-mdp,,17
"[25981, 66892, 69268]","[u'left', u'left', u'up']",,,"[5, 0, 1]","[u'1', 4, 8, 14]","{u'mouseover': {u'state': {u'target': [], u'time': []}, u'edge': {u'target': [], u'time': []}}, u'click': {u'state': {u'target': [u'5', u'17', u'16', u'4', u'3', u'2', u'13', u'12', u'14', u'15'], u'time': [3824, 5823, 7297, 8481, 10170, 12551, 14656, 15923, 18055, 19946]}, u'edge': {u'target': [], u'time': []}}, u'mouseout': {u'state': {u'target': [], u'time': []}, u'edge': {u'target': [], u'time': []}}}",,,"[25980, 13795, 290]",-6.0,,1411543,12.0,6.0,mouselab-mdp,,17
"[5898, 19318, 68347]","[u'right', u'right', u'down']",,,"[5, 0, 1]","[u'1', 2, 6, 11]","{u'mouseover': {u'state': {u'target': [], u'time': []}, u'edge': {u'target': [], u'time': []}}, u'click': {u'state': {u'target': [u'2', u'6', u'10', u'11'], u'time': [2811, 16237, 62806, 66330]}, u'edge': {u'target': [], u'time': []}}, u'mouseout': {u'state': {u'target': [], u'time': []}, u'edge': {u'target': [], u'time': []}}}",,,"[5898, 5787, 47653]",31.6,,428286,1.0,6.0,mouselab-mdp,,18
"[3545, 13212, 17025]","[u'right', u'right', u'up']",,,"[5, 0, 1]","[u'1', 2, 6, 10]","{u'mouseover': {u'state': {u'target': [], u'time': []}, u'edge': {u'target': [], u'time': []}}, u'click': {u'state': {u'target': [u'2', u'6', u'10', u'11'], u'time': [2442, 12392, 14768, 15660]}, u'edge': {u'target': [], u'time': []}}, u'mouseout': {u'state': {u'target': [], u'time': []}, u'edge': {u'target': [], u'time': []}}}",,,"[3545, 2021, 2413]",1.6,,485210,2.0,7.0,mouselab-mdp,,18
