action_times,actions,button_pressed,correct,delays,path,queries,questions,responses,rt,score,stimulus,time_elapsed,trial_index,trial_i,trial_type,view_history,pid
"[14610, 16520, 17497]","[u'right', u'right', u'down']",,,"[0, 0, 0]","[u'1', 2, 6, 11]","{u'mouseover': {u'state': {u'target': [], u'time': []}, u'edge': {u'target': [], u'time': []}}, u'click': {u'state': {u'target': [u'8', u'6', u'11'], u'time': [5921, 7855, 10917]}, u'edge': {u'target': [], u'time': []}}, u'mouseout': {u'state': {u'target': [], u'time': []}, u'edge': {u'target': [], u'time': []}}}",,,"[14609, 3, 238]",33.2,,319439,1.0,6.0,mouselab-mdp,,0
"[16747, 29020, 30435]","[u'up', u'up', u'left']",,,"[9, 0, 0]","[u'1', 3, 7, 12]","{u'mouseover': {u'state': {u'target': [], u'time': []}, u'edge': {u'target': [], u'time': []}}, u'click': {u'state': {u'target': [u'7', u'6', u'13', u'12', u'9', u'8', u'14', u'15'], u'time': [2194, 4157, 5707, 7140, 9651, 11294, 13408, 14951]}, u'edge': {u'target': [], u'time': []}}, u'mouseout': {u'state': {u'target': [], u'time': []}, u'edge': {u'target': [], u'time': []}}}",,,"[16746, 794, 767]",2.2,,378194,2.0,2.0,mouselab-mdp,,0
"[10570, 12700, 13638]","[u'right', u'right', u'down']",,,"[0, 0, 0]","[u'1', 2, 6, 11]","{u'mouseover': {u'state': {u'target': [], u'time': []}, u'edge': {u'target': [], u'time': []}}, u'click': {u'state': {u'target': [u'7', u'8', u'9', u'6', u'10'], u'time': [1638, 2948, 4286, 5541, 6832]}, u'edge': {u'target': [], u'time': []}}, u'mouseout': {u'state': {u'target': [], u'time': []}, u'edge': {u'target': [], u'time': []}}}",,,"[10570, 4, 190]",-2.0,,427747,3.0,5.0,mouselab-mdp,,0
"[9415, 15034, 16242]","[u'right', u'right', u'down']",,,"[3, 0, 0]","[u'1', 2, 6, 11]","{u'mouseover': {u'state': {u'target': [], u'time': []}, u'edge': {u'target': [], u'time': []}}, u'click': {u'state': {u'target': [u'7', u'6', u'10', u'11'], u'time': [2485, 3892, 5640, 7416]}, u'edge': {u'target': [], u'time': []}}, u'mouseout': {u'state': {u'target': [], u'time': []}, u'edge': {u'target': [], u'time': []}}}",,,"[9415, 755, 543]",9.6,,480286,4.0,9.0,mouselab-mdp,,0
"[21707, 24272, 25739]","[u'right', u'right', u'up']",,,"[0, 0, 0]","[u'1', 2, 6, 10]","{u'mouseover': {u'state': {u'target': [], u'time': []}, u'edge': {u'target': [], u'time': []}}, u'click': {u'state': {u'target': [u'6', u'8', u'7', u'13', u'12', u'9', u'16', u'17', u'3', u'10'], u'time': [970, 2422, 3526, 5104, 6855, 8809, 9875, 13270, 15693, 19545]}, u'edge': {u'target': [], u'time': []}}, u'mouseout': {u'state': {u'target': [], u'time': []}, u'edge': {u'target': [], u'time': []}}}",,,"[21707, 3, 798]",6.0,,529160,5.0,10.0,mouselab-mdp,,0
"[5391, 11824, 13134]","[u'right', u'right', u'up']",,,"[4, 0, 0]","[u'1', 2, 6, 10]","{u'mouseover': {u'state': {u'target': [], u'time': []}, u'edge': {u'target': [], u'time': []}}, u'click': {u'state': {u'target': [u'6', u'10', u'2'], u'time': [1455, 2583, 3652]}, u'edge': {u'target': [], u'time': []}}, u'mouseout': {u'state': {u'target': [], u'time': []}, u'edge': {u'target': [], u'time': []}}}",,,"[5391, 555, 578]",17.2,,582777,6.0,4.0,mouselab-mdp,,0
"[9293, 14344, 15689]","[u'left', u'left', u'down']",,,"[2, 0, 0]","[u'1', 4, 8, 15]","{u'mouseover': {u'state': {u'target': [], u'time': []}, u'edge': {u'target': [], u'time': []}}, u'click': {u'state': {u'target': [u'7', u'12', u'13', u'8', u'15', u'4'], u'time': [451, 2483, 3612, 5997, 6966, 8042]}, u'edge': {u'target': [], u'time': []}}, u'mouseout': {u'state': {u'target': [], u'time': []}, u'edge': {u'target': [], u'time': []}}}",,,"[9293, 674, 638]",4.4,,637761,7.0,1.0,mouselab-mdp,,0
"[6061, 13389, 15061]","[u'right', u'right', u'up']",,,"[5, 0, 0]","[u'1', 2, 6, 10]","{u'mouseover': {u'state': {u'target': [], u'time': []}, u'edge': {u'target': [], u'time': []}}, u'click': {u'state': {u'target': [u'6', u'10', u'11'], u'time': [1740, 3079, 4805]}, u'edge': {u'target': [], u'time': []}}, u'mouseout': {u'state': {u'target': [], u'time': []}, u'edge': {u'target': [], u'time': []}}}",,,"[6060, 586, 997]",3.2,,693592,8.0,0.0,mouselab-mdp,,0
"[3572, 8084, 9245]","[u'left', u'left', u'down']",,,"[2, 0, 0]","[u'1', 4, 8, 15]","{u'mouseover': {u'state': {u'target': [], u'time': []}, u'edge': {u'target': [], u'time': []}}, u'click': {u'state': {u'target': [u'8', u'15'], u'time': [1033, 2256]}, u'edge': {u'target': [], u'time': []}}, u'mouseout': {u'state': {u'target': [], u'time': []}, u'edge': {u'target': [], u'time': []}}}",,,"[3571, 794, 446]",22.8,,744679,9.0,3.0,mouselab-mdp,,0
"[11214, 13293, 14694]","[u'up', u'up', u'right']",,,"[0, 0, 0]","[u'1', 3, 7, 13]","{u'mouseover': {u'state': {u'target': [], u'time': []}, u'edge': {u'target': [], u'time': []}}, u'click': {u'state': {u'target': [u'6', u'10', u'8', u'15', u'7'], u'time': [1686, 3662, 7836, 8783, 9860]}, u'edge': {u'target': [], u'time': []}}, u'mouseout': {u'state': {u'target': [], u'time': []}, u'edge': {u'target': [], u'time': []}}}",,,"[11214, 3, 664]",17.0,,792716,10.0,11.0,mouselab-mdp,,0
"[4003, 7507, 8815]","[u'up', u'up', u'right']",,,"[1, 0, 0]","[u'1', 3, 7, 13]","{u'mouseover': {u'state': {u'target': [], u'time': []}, u'edge': {u'target': [], u'time': []}}, u'click': {u'state': {u'target': [u'7', u'13'], u'time': [1668, 2891]}, u'edge': {u'target': [], u'time': []}}, u'mouseout': {u'state': {u'target': [], u'time': []}, u'edge': {u'target': [], u'time': []}}}",,,"[4003, 811, 577]",31.8,,842313,11.0,8.0,mouselab-mdp,,0
"[3821, 7325, 8878]","[u'down', u'down', u'right']",,,"[1, 0, 0]","[u'1', 5, 9, 17]","{u'mouseover': {u'state': {u'target': [], u'time': []}, u'edge': {u'target': [], u'time': []}}, u'click': {u'state': {u'target': [u'9', u'17'], u'time': [1771, 2804]}, u'edge': {u'target': [], u'time': []}}, u'mouseout': {u'state': {u'target': [], u'time': []}, u'edge': {u'target': [], u'time': []}}}",,,"[3821, 807, 828]",30.8,,891761,12.0,7.0,mouselab-mdp,,0
"[2231, 11708, 22027]","[u'right', u'right', u'up']",,,"[5, 0, 1]","[u'1', 2, 6, 10]","{u'mouseover': {u'state': {u'target': [], u'time': []}, u'edge': {u'target': [], u'time': []}}, u'click': {u'state': {u'target': [], u'time': []}, u'edge': {u'target': [], u'time': []}}, u'mouseout': {u'state': {u'target': [], u'time': []}, u'edge': {u'target': [], u'time': []}}}",,,"[2231, 1604, 9218]",22.0,,326318,1.0,10.0,mouselab-mdp,,1
"[2722, 12111, 15859]","[u'down', u'down', u'left']",,,"[5, 0, 1]","[u'1', 5, 9, 16]","{u'mouseover': {u'state': {u'target': [], u'time': []}, u'edge': {u'target': [], u'time': []}}, u'click': {u'state': {u'target': [], u'time': []}, u'edge': {u'target': [], u'time': []}}, u'mouseout': {u'state': {u'target': [], u'time': []}, u'edge': {u'target': [], u'time': []}}}",,,"[2722, 1582, 2668]",18.0,,385694,2.0,11.0,mouselab-mdp,,1
"[3790, 12437, 13876]","[u'down', u'down', u'right']",,,"[5, 0, 1]","[u'1', 5, 9, 17]","{u'mouseover': {u'state': {u'target': [], u'time': []}, u'edge': {u'target': [], u'time': []}}, u'click': {u'state': {u'target': [u'5'], u'time': [1943]}, u'edge': {u'target': [], u'time': []}}, u'mouseout': {u'state': {u'target': [], u'time': []}, u'edge': {u'target': [], u'time': []}}}",,,"[3790, 413, 311]",12.4,,464398,3.0,5.0,mouselab-mdp,,1
"[4152, 13592, 15077]","[u'left', u'left', u'down']",,,"[5, 0, 1]","[u'1', 4, 8, 15]","{u'mouseover': {u'state': {u'target': [], u'time': []}, u'edge': {u'target': [], u'time': []}}, u'click': {u'state': {u'target': [u'3'], u'time': [2443]}, u'edge': {u'target': [], u'time': []}}, u'mouseout': {u'state': {u'target': [], u'time': []}, u'edge': {u'target': [], u'time': []}}}",,,"[4152, 1149, 345]",6.4,,531512,4.0,2.0,mouselab-mdp,,1
"[3439, 11907, 13098]","[u'right', u'right', u'down']",,,"[5, 0, 1]","[u'1', 2, 6, 11]","{u'mouseover': {u'state': {u'target': [], u'time': []}, u'edge': {u'target': [], u'time': []}}, u'click': {u'state': {u'target': [], u'time': []}, u'edge': {u'target': [], u'time': []}}, u'mouseout': {u'state': {u'target': [], u'time': []}, u'edge': {u'target': [], u'time': []}}}",,,"[3439, 689, 67]",0.0,,592867,5.0,3.0,mouselab-mdp,,1
"[3489, 12318, 13448]","[u'down', u'down', u'right']",,,"[5, 0, 1]","[u'1', 5, 9, 17]","{u'mouseover': {u'state': {u'target': [], u'time': []}, u'edge': {u'target': [], u'time': []}}, u'click': {u'state': {u'target': [u'3'], u'time': [2837]}, u'edge': {u'target': [], u'time': []}}, u'mouseout': {u'state': {u'target': [], u'time': []}, u'edge': {u'target': [], u'time': []}}}",,,"[3488, 579, 5]",6.4,,655398,6.0,6.0,mouselab-mdp,,1
"[3969, 12621, 13733]","[u'up', u'up', u'right']",,,"[5, 0, 1]","[u'1', 3, 7, 13]","{u'mouseover': {u'state': {u'target': [], u'time': []}, u'edge': {u'target': [], u'time': []}}, u'click': {u'state': {u'target': [u'2'], u'time': [2499]}, u'edge': {u'target': [], u'time': []}}, u'mouseout': {u'state': {u'target': [], u'time': []}, u'edge': {u'target': [], u'time': []}}}",,,"[3969, 441, 4]",11.4,,726471,7.0,4.0,mouselab-mdp,,1
"[8137, 17350, 18670]","[u'down', u'down', u'right']",,,"[5, 0, 1]","[u'1', 5, 9, 17]","{u'mouseover': {u'state': {u'target': [], u'time': []}, u'edge': {u'target': [], u'time': []}}, u'click': {u'state': {u'target': [u'4', u'5'], u'time': [3667, 7473]}, u'edge': {u'target': [], u'time': []}}, u'mouseout': {u'state': {u'target': [], u'time': []}, u'edge': {u'target': [], u'time': []}}}",,,"[8137, 616, 192]",30.8,,794930,8.0,7.0,mouselab-mdp,,1
"[2760, 12380, 14148]","[u'up', u'up', u'right']",,,"[5, 0, 1]","[u'1', 3, 7, 13]","{u'mouseover': {u'state': {u'target': [], u'time': []}, u'edge': {u'target': [], u'time': []}}, u'click': {u'state': {u'target': [u'3', u'13'], u'time': [1615, 11743]}, u'edge': {u'target': [], u'time': []}}, u'mouseout': {u'state': {u'target': [], u'time': []}, u'edge': {u'target': [], u'time': []}}}",,,"[2760, 1393, 5]",31.8,,860046,9.0,8.0,mouselab-mdp,,1
"[2667, 12087, 13821]","[u'left', u'left', u'down']",,,"[5, 0, 1]","[u'1', 4, 8, 15]","{u'mouseover': {u'state': {u'target': [], u'time': []}, u'edge': {u'target': [], u'time': []}}, u'click': {u'state': {u'target': [u'4', u'14'], u'time': [1619, 11376]}, u'edge': {u'target': [], u'time': []}}, u'mouseout': {u'state': {u'target': [], u'time': []}, u'edge': {u'target': [], u'time': []}}}",,,"[2667, 1182, 5]",24.8,,931988,10.0,9.0,mouselab-mdp,,1
"[6972, 18755, 20552]","[u'down', u'down', u'left']",,,"[5, 0, 1]","[u'1', 5, 9, 16]","{u'mouseover': {u'state': {u'target': [], u'time': []}, u'edge': {u'target': [], u'time': []}}, u'click': {u'state': {u'target': [u'2', u'5', u'17'], u'time': [3696, 6114, 16197]}, u'edge': {u'target': [], u'time': []}}, u'mouseout': {u'state': {u'target': [], u'time': []}, u'edge': {u'target': [], u'time': []}}}",,,"[6971, 3122, 5]",-0.8,,1003068,11.0,0.0,mouselab-mdp,,1
"[16396, 27075, 28057]","[u'down', u'down', u'left']",,,"[5, 0, 1]","[u'1', 5, 9, 16]","{u'mouseover': {u'state': {u'target': [], u'time': []}, u'edge': {u'target': [], u'time': []}}, u'click': {u'state': {u'target': [u'3', u'13', u'12', u'4', u'14', u'15', u'16', u'5'], u'time': [1538, 4246, 5903, 8237, 10017, 11948, 14518, 15851]}, u'edge': {u'target': [], u'time': []}}, u'mouseout': {u'state': {u'target': [], u'time': []}, u'edge': {u'target': [], u'time': []}}}",,,"[16396, 308, 4]",33.2,,1102121,12.0,1.0,mouselab-mdp,,1
"[73379, 101755, 109819]","[u'right', u'right', u'up']",,,"[5, 0, 1]","[u'1', 2, 6, 10]","{u'mouseover': {u'state': {u'target': [], u'time': []}, u'edge': {u'target': [], u'time': []}}, u'click': {u'state': {u'target': [u'2', u'7', u'13', u'11', u'6', u'10', u'9', u'16', u'17', u'5', u'4', u'8', u'15', u'3'], u'time': [1814, 6395, 7541, 9813, 11622, 12200, 15791, 18685, 19855, 20494, 21234, 21872, 22463, 34027]}, u'edge': {u'target': [], u'time': []}}, u'mouseout': {u'state': {u'target': [], u'time': []}, u'edge': {u'target': [], u'time': []}}}",,,"[73377, 1146, 6551]",11.6,,268931,1.0,3.0,mouselab-mdp,,2
"[23583, 48407, 56253]","[u'right', u'right', u'up']",,,"[5, 0, 1]","[u'1', 2, 6, 10]","{u'mouseover': {u'state': {u'target': [], u'time': []}, u'edge': {u'target': [], u'time': []}}, u'click': {u'state': {u'target': [u'2', u'6', u'11', u'10', u'5', u'9', u'17', u'16', u'3', u'7', u'13', u'12'], u'time': [2293, 3751, 4552, 5662, 6712, 7308, 7917, 9036, 10022, 10464, 10930, 11840]}, u'edge': {u'target': [], u'time': []}}, u'mouseout': {u'state': {u'target': [], u'time': []}, u'edge': {u'target': [], u'time': []}}}",,,"[23582, 4940, 6748]",14.8,,338524,2.0,2.0,mouselab-mdp,,2
"[18552, 42644, 45438]","[u'up', u'up', u'left']",,,"[5, 0, 1]","[u'1', 3, 7, 12]","{u'mouseover': {u'state': {u'target': [], u'time': []}, u'edge': {u'target': [], u'time': []}}, u'click': {u'state': {u'target': [u'4', u'8', u'14', u'15', u'5', u'9', u'16', u'17', u'7', u'3', u'12', u'13', u'2', u'6', u'10', u'11'], u'time': [3658, 4372, 5769, 6595, 7385, 7990, 8369, 9004, 9733, 10015, 11566, 12976, 15488, 16125, 16584, 17293]}, u'edge': {u'target': [], u'time': []}}, u'mouseout': {u'state': {u'target': [], u'time': []}, u'edge': {u'target': [], u'time': []}}}",,,"[18551, 3855, 2264]",11.4,,414281,3.0,9.0,mouselab-mdp,,2
"[9376, 27592, 29076]","[u'right', u'right', u'down']",,,"[5, 0, 1]","[u'1', 2, 6, 11]","{u'mouseover': {u'state': {u'target': [], u'time': []}, u'edge': {u'target': [], u'time': []}}, u'click': {u'state': {u'target': [u'3', u'7', u'12', u'13', u'2', u'6', u'10', u'11'], u'time': [1620, 2397, 3247, 4050, 5431, 6201, 6910, 8206]}, u'edge': {u'target': [], u'time': []}}, u'mouseout': {u'state': {u'target': [], u'time': []}, u'edge': {u'target': [], u'time': []}}}",,,"[9376, 333, 6]",25.2,,485541,4.0,11.0,mouselab-mdp,,2
"[22849, 45240, 46654]","[u'right', u'right', u'up']",,,"[5, 0, 1]","[u'1', 2, 6, 10]","{u'mouseover': {u'state': {u'target': [], u'time': []}, u'edge': {u'target': [], u'time': []}}, u'click': {u'state': {u'target': [u'4', u'8', u'2', u'6', u'5', u'3', u'10', u'11', u'7', u'12', u'13', u'17', u'9', u'16'], u'time': [2028, 2743, 3927, 4701, 6939, 7996, 9870, 14260, 16791, 17279, 18035, 19536, 19918, 20622]}, u'edge': {u'target': [], u'time': []}}, u'mouseout': {u'state': {u'target': [], u'time': []}, u'edge': {u'target': [], u'time': []}}}",,,"[22848, 398, 331]",-0.4,,558676,5.0,10.0,mouselab-mdp,,2
"[16728, 38322, 40011]","[u'up', u'up', u'right']",,,"[5, 0, 1]","[u'1', 3, 7, 13]","{u'mouseover': {u'state': {u'target': [], u'time': []}, u'edge': {u'target': [], u'time': []}}, u'click': {u'state': {u'target': [u'2', u'3', u'7', u'12', u'13', u'5', u'9', u'16', u'17'], u'time': [759, 1688, 2646, 3465, 4260, 6766, 7898, 9406, 10298]}, u'edge': {u'target': [], u'time': []}}, u'mouseout': {u'state': {u'target': [], u'time': []}, u'edge': {u'target': [], u'time': []}}}",,,"[16728, 2222, 221]",0.6,,637089,6.0,0.0,mouselab-mdp,,2
"[6872, 24747, 27034]","[u'right', u'right', u'down']",,,"[5, 0, 1]","[u'1', 2, 6, 11]","{u'mouseover': {u'state': {u'target': [], u'time': []}, u'edge': {u'target': [], u'time': []}}, u'click': {u'state': {u'target': [u'2', u'3', u'7', u'6', u'10', u'11'], u'time': [821, 2039, 2743, 4331, 5018, 5967]}, u'edge': {u'target': [], u'time': []}}, u'mouseout': {u'state': {u'target': [], u'time': []}, u'edge': {u'target': [], u'time': []}}}",,,"[6872, 307, 312]",28.4,,706462,7.0,6.0,mouselab-mdp,,2
"[13166, 35929, 37954]","[u'left', u'left', u'up']",,,"[5, 0, 1]","[u'1', 4, 8, 14]","{u'mouseover': {u'state': {u'target': [], u'time': []}, u'edge': {u'target': [], u'time': []}}, u'click': {u'state': {u'target': [u'2', u'6', u'10', u'11', u'3', u'7', u'5', u'9', u'4', u'8', u'14'], u'time': [989, 1772, 2779, 3899, 6900, 7415, 8619, 9296, 10227, 10887, 11799]}, u'edge': {u'target': [], u'time': []}}, u'mouseout': {u'state': {u'target': [], u'time': []}, u'edge': {u'target': [], u'time': []}}}",,,"[13165, 376, 6]",16.4,,780617,8.0,5.0,mouselab-mdp,,2
"[6991, 28296, 30961]","[u'down', u'down', u'left']",,,"[5, 0, 1]","[u'1', 5, 9, 16]","{u'mouseover': {u'state': {u'target': [], u'time': []}, u'edge': {u'target': [], u'time': []}}, u'click': {u'state': {u'target': [u'2', u'4', u'5', u'9', u'16'], u'time': [2154, 3227, 4031, 4958, 5727]}, u'edge': {u'target': [], u'time': []}}, u'mouseout': {u'state': {u'target': [], u'time': []}, u'edge': {u'target': [], u'time': []}}}",,,"[6991, 1549, 6]",38.0,,854712,9.0,1.0,mouselab-mdp,,2
"[6093, 23509, 25838]","[u'up', u'up', u'left']",,,"[5, 0, 1]","[u'1', 3, 7, 12]","{u'mouseover': {u'state': {u'target': [], u'time': []}, u'edge': {u'target': [], u'time': []}}, u'click': {u'state': {u'target': [u'3', u'7', u'12'], u'time': [744, 1758, 2478]}, u'edge': {u'target': [], u'time': []}}, u'mouseout': {u'state': {u'target': [], u'time': []}, u'edge': {u'target': [], u'time': []}}}",,,"[6092, 994, 6]",14.2,,921836,10.0,7.0,mouselab-mdp,,2
"[3430, 21127, 23497]","[u'up', u'up', u'left']",,,"[5, 0, 1]","[u'1', 3, 7, 12]","{u'mouseover': {u'state': {u'target': [], u'time': []}, u'edge': {u'target': [], u'time': []}}, u'click': {u'state': {u'target': [u'3', u'7', u'12'], u'time': [840, 1430, 2470]}, u'edge': {u'target': [], u'time': []}}, u'mouseout': {u'state': {u'target': [], u'time': []}, u'edge': {u'target': [], u'time': []}}}",,,"[3430, 1612, 6]",36.2,,990583,11.0,8.0,mouselab-mdp,,2
"[9952, 30913, 33101]","[u'up', u'up', u'left']",,,"[5, 0, 1]","[u'1', 3, 7, 12]","{u'mouseover': {u'state': {u'target': [], u'time': []}, u'edge': {u'target': [], u'time': []}}, u'click': {u'state': {u'target': [u'3', u'2', u'4', u'8', u'14', u'15', u'7', u'12'], u'time': [2307, 3616, 4566, 5522, 6138, 6907, 8020, 8545]}, u'edge': {u'target': [], u'time': []}}, u'mouseout': {u'state': {u'target': [], u'time': []}, u'edge': {u'target': [], u'time': []}}}",,,"[9950, 1479, 395]",10.2,,1069721,12.0,4.0,mouselab-mdp,,2
"[13465, 30608, 39784]","[u'up', u'up', u'right']",,,"[4, 3, 0]","[u'1', 3, 7, 13]","{u'mouseover': {u'state': {u'target': [], u'time': []}, u'edge': {u'target': [], u'time': []}}, u'click': {u'state': {u'target': [u'3', u'7', u'13'], u'time': [7784, 28236, 37393]}, u'edge': {u'target': [], u'time': []}}, u'mouseout': {u'state': {u'target': [], u'time': []}, u'edge': {u'target': [], u'time': []}}}",,,"[13464, 7791, 3802]",8.2,,351899,1.0,4.0,mouselab-mdp,,3
"[7927, 15525, 19551]","[u'left', u'left', u'down']",,,"[0, 0, 0]","[u'1', 4, 8, 15]","{u'mouseover': {u'state': {u'target': [], u'time': []}, u'edge': {u'target': [], u'time': []}}, u'click': {u'state': {u'target': [u'2', u'4'], u'time': [4502, 6190]}, u'edge': {u'target': [], u'time': []}}, u'mouseout': {u'state': {u'target': [], u'time': []}, u'edge': {u'target': [], u'time': []}}}",,,"[7927, 1300, 2328]",24.8,,412133,2.0,9.0,mouselab-mdp,,3
"[3512, 9881, 15545]","[u'down', u'down', u'left']",,,"[0, 0, 0]","[u'1', 5, 9, 16]","{u'mouseover': {u'state': {u'target': [], u'time': []}, u'edge': {u'target': [], u'time': []}}, u'click': {u'state': {u'target': [u'5'], u'time': [1625]}, u'edge': {u'target': [], u'time': []}}, u'mouseout': {u'state': {u'target': [], u'time': []}, u'edge': {u'target': [], u'time': []}}}",,,"[3512, 883, 3912]",10.4,,468771,3.0,8.0,mouselab-mdp,,3
"[5465, 11469, 15675]","[u'down', u'down', u'right']",,,"[0, 0, 0]","[u'1', 5, 9, 17]","{u'mouseover': {u'state': {u'target': [], u'time': []}, u'edge': {u'target': [], u'time': []}}, u'click': {u'state': {u'target': [u'2', u'5'], u'time': [2363, 3863]}, u'edge': {u'target': [], u'time': []}}, u'mouseout': {u'state': {u'target': [], u'time': []}, u'edge': {u'target': [], u'time': []}}}",,,"[5465, 6, 2555]",0.8,,522931,4.0,2.0,mouselab-mdp,,3
"[3800, 12914, 23827]","[u'left', u'left', u'down']",,,"[1, 0, 0]","[u'1', 4, 8, 15]","{u'mouseover': {u'state': {u'target': [], u'time': []}, u'edge': {u'target': [], u'time': []}}, u'click': {u'state': {u'target': [u'4'], u'time': [1143]}, u'edge': {u'target': [], u'time': []}}, u'mouseout': {u'state': {u'target': [], u'time': []}, u'edge': {u'target': [], u'time': []}}}",,,"[3800, 2516, 9246]",38.4,,579436,5.0,0.0,mouselab-mdp,,3
"[4543, 15264, 21654]","[u'up', u'up', u'right']",,,"[1, 0, 0]","[u'1', 3, 7, 13]","{u'mouseover': {u'state': {u'target': [], u'time': []}, u'edge': {u'target': [], u'time': []}}, u'click': {u'state': {u'target': [u'4', u'3'], u'time': [1024, 2376]}, u'edge': {u'target': [], u'time': []}}, u'mouseout': {u'state': {u'target': [], u'time': []}, u'edge': {u'target': [], u'time': []}}}",,,"[4542, 3457, 4702]",1.8,,638708,6.0,7.0,mouselab-mdp,,3
"[5044, 12422, 18645]","[u'right', u'right', u'up']",,,"[1, 0, 0]","[u'1', 2, 6, 10]","{u'mouseover': {u'state': {u'target': [], u'time': []}, u'edge': {u'target': [], u'time': []}}, u'click': {u'state': {u'target': [u'2'], u'time': [2349]}, u'edge': {u'target': [], u'time': []}}, u'mouseout': {u'state': {u'target': [], u'time': []}, u'edge': {u'target': [], u'time': []}}}",,,"[5044, 1515, 4814]",20.4,,707692,7.0,10.0,mouselab-mdp,,3
"[5501, 13151, 17632]","[u'up', u'up', u'right']",,,"[1, 0, 0]","[u'1', 3, 7, 13]","{u'mouseover': {u'state': {u'target': [], u'time': []}, u'edge': {u'target': [], u'time': []}}, u'click': {u'state': {u'target': [u'4', u'3'], u'time': [2891, 3911]}, u'edge': {u'target': [], u'time': []}}, u'mouseout': {u'state': {u'target': [], u'time': []}, u'edge': {u'target': [], u'time': []}}}",,,"[5501, 1483, 3027]",1.8,,760981,8.0,3.0,mouselab-mdp,,3
"[5123, 11296, 37319]","[u'down', u'down', u'left']",,,"[0, 0, 6]","[u'1', 5, 9, 16]","{u'mouseover': {u'state': {u'target': [], u'time': []}, u'edge': {u'target': [], u'time': []}}, u'click': {u'state': {u'target': [u'2', u'5', u'16', u'17'], u'time': [1313, 3813, 15770, 17583]}, u'edge': {u'target': [], u'time': []}}, u'mouseout': {u'state': {u'target': [], u'time': []}, u'edge': {u'target': [], u'time': []}}}",,,"[5123, 1064, 24566]",5.6,,831731,9.0,6.0,mouselab-mdp,,3
"[3978, 9831, 13110]","[u'up', u'up', u'left']",,,"[0, 0, 0]","[u'1', 3, 7, 12]","{u'mouseover': {u'state': {u'target': [], u'time': []}, u'edge': {u'target': [], u'time': []}}, u'click': {u'state': {u'target': [u'3'], u'time': [2291]}, u'edge': {u'target': [], u'time': []}}, u'mouseout': {u'state': {u'target': [], u'time': []}, u'edge': {u'target': [], u'time': []}}}",,,"[3978, 1208, 1839]",-0.6,,895356,10.0,5.0,mouselab-mdp,,3
"[3014, 10092, 14006]","[u'up', u'up', u'right']",,,"[1, 0, 0]","[u'1', 3, 7, 13]","{u'mouseover': {u'state': {u'target': [], u'time': []}, u'edge': {u'target': [], u'time': []}}, u'click': {u'state': {u'target': [u'3'], u'time': [1516]}, u'edge': {u'target': [], u'time': []}}, u'mouseout': {u'state': {u'target': [], u'time': []}, u'edge': {u'target': [], u'time': []}}}",,,"[3014, 1470, 2469]",23.4,,959905,11.0,11.0,mouselab-mdp,,3
"[4737, 11523, 14764]","[u'up', u'up', u'right']",,,"[0, 0, 0]","[u'1', 3, 7, 13]","{u'mouseover': {u'state': {u'target': [], u'time': []}, u'edge': {u'target': [], u'time': []}}, u'click': {u'state': {u'target': [u'2', u'4', u'3'], u'time': [1441, 2365, 3245]}, u'edge': {u'target': [], u'time': []}}, u'mouseout': {u'state': {u'target': [], u'time': []}, u'edge': {u'target': [], u'time': []}}}",,,"[4737, 870, 1675]",16.2,,1012796,12.0,1.0,mouselab-mdp,,3
"[4847, 17277, 24156]","[u'right', u'right', u'up']",,,"[5, 3, 3]","[u'1', 2, 6, 10]","{u'mouseover': {u'state': {u'target': [], u'time': []}, u'edge': {u'target': [], u'time': []}}, u'click': {u'state': {u'target': [u'6', u'11'], u'time': [14570, 23058]}, u'edge': {u'target': [], u'time': []}}, u'mouseout': {u'state': {u'target': [], u'time': []}, u'edge': {u'target': [], u'time': []}}}",,,"[4846, 5472, 2724]",4.8,,197538,1.0,0.0,mouselab-mdp,,4
"[7419, 15116, 18987]","[u'left', u'left', u'down']",,,"[2, 0, 0]","[u'1', 4, 8, 15]","{u'mouseover': {u'state': {u'target': [], u'time': []}, u'edge': {u'target': [], u'time': []}}, u'click': {u'state': {u'target': [u'2', u'4'], u'time': [2310, 3925]}, u'edge': {u'target': [], u'time': []}}, u'mouseout': {u'state': {u'target': [], u'time': []}, u'edge': {u'target': [], u'time': []}}}",,,"[7419, 2854, 2928]",2.8,,256624,2.0,6.0,mouselab-mdp,,4
"[7484, 13085, 15612]","[u'down', u'down', u'left']",,,"[0, 0, 0]","[u'1', 5, 9, 16]","{u'mouseover': {u'state': {u'target': [], u'time': []}, u'edge': {u'target': [], u'time': []}}, u'click': {u'state': {u'target': [u'3', u'5', u'4', u'2'], u'time': [1046, 2086, 2986, 5182]}, u'edge': {u'target': [], u'time': []}}, u'mouseout': {u'state': {u'target': [], u'time': []}, u'edge': {u'target': [], u'time': []}}}",,,"[7484, 2429, 1575]",-0.4,,321888,3.0,3.0,mouselab-mdp,,4
"[4809, 10297, 17864]","[u'up', u'up', u'left']",,,"[1, 0, 0]","[u'1', 3, 7, 12]","{u'mouseover': {u'state': {u'target': [], u'time': []}, u'edge': {u'target': [], u'time': []}}, u'click': {u'state': {u'target': [u'2', u'3', u'4', u'5', u'13', u'12'], u'time': [1372, 1939, 2580, 3371, 13418, 14148]}, u'edge': {u'target': [], u'time': []}}, u'mouseout': {u'state': {u'target': [], u'time': []}, u'edge': {u'target': [], u'time': []}}}",,,"[4808, 685, 6517]",11.4,,425474,4.0,1.0,mouselab-mdp,,4
"[1037, 15180, 23821]","[u'up', u'up', u'right']",,,"[5, 0, 0]","[u'1', 3, 7, 13]","{u'mouseover': {u'state': {u'target': [], u'time': []}, u'edge': {u'target': [], u'time': []}}, u'click': {u'state': {u'target': [], u'time': []}, u'edge': {u'target': [], u'time': []}}, u'mouseout': {u'state': {u'target': [], u'time': []}, u'edge': {u'target': [], u'time': []}}}",,,"[1035, 7030, 7708]",13.0,,500830,5.0,4.0,mouselab-mdp,,4
"[6357, 15285, 25173]","[u'right', u'right', u'down']",,,"[4, 0, 3]","[u'1', 2, 6, 11]","{u'mouseover': {u'state': {u'target': [], u'time': []}, u'edge': {u'target': [], u'time': []}}, u'click': {u'state': {u'target': [u'2', u'4', u'5', u'3', u'11'], u'time': [2352, 3214, 3766, 4471, 24118]}, u'edge': {u'target': [], u'time': []}}, u'mouseout': {u'state': {u'target': [], u'time': []}, u'edge': {u'target': [], u'time': []}}}",,,"[6357, 1474, 8850]",30.0,,571630,6.0,11.0,mouselab-mdp,,4
"[7891, 17060, 26627]","[u'up', u'up', u'left']",,,"[1, 0, 0]","[u'1', 3, 7, 12]","{u'mouseover': {u'state': {u'target': [], u'time': []}, u'edge': {u'target': [], u'time': []}}, u'click': {u'state': {u'target': [u'2', u'3', u'4', u'13', u'12'], u'time': [3976, 4856, 5661, 21677, 25069]}, u'edge': {u'target': [], u'time': []}}, u'mouseout': {u'state': {u'target': [], u'time': []}, u'edge': {u'target': [], u'time': []}}}",,,"[7891, 4680, 8524]",33.0,,633631,7.0,8.0,mouselab-mdp,,4
"[5065, 9676, 15850]","[u'down', u'down', u'left']",,,"[0, 0, 0]","[u'1', 5, 9, 16]","{u'mouseover': {u'state': {u'target': [], u'time': []}, u'edge': {u'target': [], u'time': []}}, u'click': {u'state': {u'target': [u'2', u'3', u'4', u'5', u'17', u'16'], u'time': [1980, 2616, 3227, 3781, 13691, 14388]}, u'edge': {u'target': [], u'time': []}}, u'mouseout': {u'state': {u'target': [], u'time': []}, u'edge': {u'target': [], u'time': []}}}",,,"[5065, 1345, 5226]",-5.6,,683429,8.0,2.0,mouselab-mdp,,4
"[6114, 12802, 17170]","[u'right', u'right', u'up']",,,"[0, 0, 3]","[u'1', 2, 6, 10]","{u'mouseover': {u'state': {u'target': [], u'time': []}, u'edge': {u'target': [], u'time': []}}, u'click': {u'state': {u'target': [u'5', u'2', u'4', u'11'], u'time': [1782, 2628, 4101, 15964]}, u'edge': {u'target': [], u'time': []}}, u'mouseout': {u'state': {u'target': [], u'time': []}, u'edge': {u'target': [], u'time': []}}}",,,"[6114, 3295, 3256]",1.6,,740237,9.0,7.0,mouselab-mdp,,4
"[14472, 17464, 22936]","[u'up', u'up', u'right']",,,"[0, 0, 0]","[u'1', 3, 7, 13]","{u'mouseover': {u'state': {u'target': [], u'time': []}, u'edge': {u'target': [], u'time': []}}, u'click': {u'state': {u'target': [u'2', u'5', u'3', u'13', u'12'], u'time': [11810, 12697, 13421, 20114, 20714]}, u'edge': {u'target': [], u'time': []}}, u'mouseout': {u'state': {u'target': [], u'time': []}, u'edge': {u'target': [], u'time': []}}}",,,"[14472, 5, 4532]",-7.0,,792735,10.0,5.0,mouselab-mdp,,4
"[4566, 8743, 10598]","[u'right', u'right', u'up']",,,"[0, 0, 0]","[u'1', 2, 6, 10]","{u'mouseover': {u'state': {u'target': [], u'time': []}, u'edge': {u'target': [], u'time': []}}, u'click': {u'state': {u'target': [u'3', u'5', u'2', u'4'], u'time': [1196, 1857, 2449, 3139]}, u'edge': {u'target': [], u'time': []}}, u'mouseout': {u'state': {u'target': [], u'time': []}, u'edge': {u'target': [], u'time': []}}}",,,"[4566, 1046, 847]",15.6,,849037,11.0,10.0,mouselab-mdp,,4
"[22385, 27280, 32256]","[u'up', u'up', u'left']",,,"[1, 0, 0]","[u'1', 3, 7, 12]","{u'mouseover': {u'state': {u'target': [], u'time': []}, u'edge': {u'target': [], u'time': []}}, u'click': {u'state': {u'target': [u'2', u'5', u'4', u'3', u'13', u'12'], u'time': [18443, 19364, 20041, 20763, 30283, 31326]}, u'edge': {u'target': [], u'time': []}}, u'mouseout': {u'state': {u'target': [], u'time': []}, u'edge': {u'target': [], u'time': []}}}",,,"[22385, 495, 3917]",27.4,,906115,12.0,9.0,mouselab-mdp,,4
"[42907, 48409, 52714]","[u'right', u'right', u'up']",,,"[0, 0, 0]","[u'1', 2, 6, 10]","{u'mouseover': {u'state': {u'target': [], u'time': []}, u'edge': {u'target': [], u'time': []}}, u'click': {u'state': {u'target': [u'2', u'7', u'11'], u'time': [26608, 33309, 37389]}, u'edge': {u'target': [], u'time': []}}, u'mouseout': {u'state': {u'target': [], u'time': []}, u'edge': {u'target': [], u'time': []}}}",,,"[42905, 14, 2947]",29.2,,184628,1.0,3.0,mouselab-mdp,,5
"[14944, 27087, 40347]","[u'left', u'left', u'up']",,,"[0, 6, 0]","[u'1', 4, 8, 14]","{u'mouseover': {u'state': {u'target': [], u'time': []}, u'edge': {u'target': [], u'time': []}}, u'click': {u'state': {u'target': [u'3', u'7', u'12', u'13', u'9', u'4', u'8'], u'time': [3451, 5726, 6668, 7759, 10042, 11146, 27095]}, u'edge': {u'target': [], u'time': []}}, u'mouseout': {u'state': {u'target': [], u'time': []}, u'edge': {u'target': [], u'time': []}}}",,,"[14944, 24, 3568]",22.8,,265222,2.0,5.0,mouselab-mdp,,5
"[14078, 21261, 23516]","[u'down', u'down', u'left']",,,"[0, 0, 0]","[u'1', 5, 9, 16]","{u'mouseover': {u'state': {u'target': [], u'time': []}, u'edge': {u'target': [], u'time': []}}, u'click': {u'state': {u'target': [u'6', u'8', u'7', u'9', u'17', u'16', u'5'], u'time': [3348, 4666, 5622, 6422, 9229, 10164, 11139]}, u'edge': {u'target': [], u'time': []}}, u'mouseout': {u'state': {u'target': [], u'time': []}, u'edge': {u'target': [], u'time': []}}}",,,"[14076, 15, 1041]",34.8,,363926,3.0,1.0,mouselab-mdp,,5
"[14523, 29551, 31408]","[u'right', u'right', u'down']",,,"[7, 0, 0]","[u'1', 2, 6, 11]","{u'mouseover': {u'state': {u'target': [], u'time': []}, u'edge': {u'target': [], u'time': []}}, u'click': {u'state': {u'target': [u'6', u'7', u'9', u'8', u'2', u'10', u'11'], u'time': [7425, 8351, 9384, 10170, 11227, 12158, 12821]}, u'edge': {u'target': [], u'time': []}}, u'mouseout': {u'state': {u'target': [], u'time': []}, u'edge': {u'target': [], u'time': []}}}",,,"[14523, 478, 601]",26.8,,428670,4.0,6.0,mouselab-mdp,,5
"[27683, 51317, 53231]","[u'down', u'down', u'left']",,,"[5, 0, 0]","[u'1', 5, 9, 16]","{u'mouseover': {u'state': {u'target': [], u'time': []}, u'edge': {u'target': [], u'time': []}}, u'click': {u'state': {u'target': [u'6', u'9', u'8', u'7', u'4', u'3', u'2', u'11', u'10', u'5', u'16'], u'time': [1728, 2541, 3509, 5726, 7354, 8591, 10103, 11541, 12468, 17591, 25858]}, u'edge': {u'target': [], u'time': []}}, u'mouseout': {u'state': {u'target': [], u'time': []}, u'edge': {u'target': [], u'time': []}}}",,,"[27682, 608, 14]",16.4,,508992,5.0,7.0,mouselab-mdp,,5
"[7600, 16226, 18168]","[u'up', u'up', u'left']",,,"[2, 0, 0]","[u'1', 3, 7, 12]","{u'mouseover': {u'state': {u'target': [], u'time': []}, u'edge': {u'target': [], u'time': []}}, u'click': {u'state': {u'target': [u'2', u'3', u'7', u'12'], u'time': [2270, 3144, 5112, 6030]}, u'edge': {u'target': [], u'time': []}}, u'mouseout': {u'state': {u'target': [], u'time': []}, u'edge': {u'target': [], u'time': []}}}",,,"[7600, 549, 577]",34.6,,564531,6.0,8.0,mouselab-mdp,,5
"[21085, 44602, 46428]","[u'right', u'right', u'down']",,,"[15, 0, 0]","[u'1', 2, 6, 11]","{u'mouseover': {u'state': {u'target': [], u'time': []}, u'edge': {u'target': [], u'time': []}}, u'click': {u'state': {u'target': [u'3', u'4', u'8', u'14', u'7', u'13', u'12', u'2', u'6', u'10', u'11'], u'time': [5692, 7087, 9203, 10004, 11383, 12472, 13560, 17048, 18398, 19146, 19893]}, u'edge': {u'target': [], u'time': []}}, u'mouseout': {u'state': {u'target': [], u'time': []}, u'edge': {u'target': [], u'time': []}}}",,,"[21085, 597, 882]",20.4,,634825,7.0,11.0,mouselab-mdp,,5
"[14913, 24352, 27648]","[u'right', u'right', u'down']",,,"[0, 0, 0]","[u'1', 2, 6, 11]","{u'mouseover': {u'state': {u'target': [], u'time': []}, u'edge': {u'target': [], u'time': []}}, u'click': {u'state': {u'target': [u'2', u'3', u'4', u'5', u'16', u'17', u'9', u'6', u'11'], u'time': [1834, 3178, 4136, 5178, 6848, 7734, 8424, 9544, 10354]}, u'edge': {u'target': [], u'time': []}}, u'mouseout': {u'state': {u'target': [], u'time': []}, u'edge': {u'target': [], u'time': []}}}",,,"[14913, 45, 2107]",17.6,,695698,8.0,2.0,mouselab-mdp,,5
"[11313, 30998, 32158]","[u'up', u'up', u'left']",,,"[12, 0, 0]","[u'1', 3, 7, 12]","{u'mouseover': {u'state': {u'target': [], u'time': []}, u'edge': {u'target': [], u'time': []}}, u'click': {u'state': {u'target': [u'4', u'8', u'14', u'15', u'2', u'3', u'13', u'12', u'7'], u'time': [1962, 3425, 4023, 4679, 6373, 7201, 8285, 9037, 9681]}, u'edge': {u'target': [], u'time': []}}, u'mouseout': {u'state': {u'target': [], u'time': []}, u'edge': {u'target': [], u'time': []}}}",,,"[11313, 606, 140]",22.6,,762514,9.0,9.0,mouselab-mdp,,5
"[15750, 27954, 30589]","[u'left', u'left', u'up']",,,"[2, 0, 0]","[u'1', 4, 8, 14]","{u'mouseover': {u'state': {u'target': [], u'time': []}, u'edge': {u'target': [], u'time': []}}, u'click': {u'state': {u'target': [u'2', u'3', u'4', u'5', u'16', u'17', u'7', u'12', u'13', u'14', u'8'], u'time': [2027, 3029, 4451, 5441, 6908, 7876, 9892, 10583, 11315, 13078, 14395]}, u'edge': {u'target': [], u'time': []}}, u'mouseout': {u'state': {u'target': [], u'time': []}, u'edge': {u'target': [], u'time': []}}}",,,"[15750, 963, 1542]",22.4,,820638,10.0,0.0,mouselab-mdp,,5
"[10402, 18593, 19784]","[u'up', u'up', u'left']",,,"[1, 0, 0]","[u'1', 3, 7, 12]","{u'mouseover': {u'state': {u'target': [], u'time': []}, u'edge': {u'target': [], u'time': []}}, u'click': {u'state': {u'target': [u'3', u'12', u'13', u'7', u'8', u'6', u'16'], u'time': [1358, 2726, 3600, 4218, 5558, 6634, 7652]}, u'edge': {u'target': [], u'time': []}}, u'mouseout': {u'state': {u'target': [], u'time': []}, u'edge': {u'target': [], u'time': []}}}",,,"[10402, 446, 69]",11.8,,874912,11.0,4.0,mouselab-mdp,,5
"[10852, 21594, 28230]","[u'left', u'left', u'up']",,,"[3, 0, 0]","[u'1', 4, 8, 14]","{u'mouseover': {u'state': {u'target': [], u'time': []}, u'edge': {u'target': [], u'time': []}}, u'click': {u'state': {u'target': [u'3', u'7', u'12', u'13', u'9', u'5', u'17', u'16', u'14', u'4', u'15'], u'time': [847, 1986, 2816, 3496, 4450, 5138, 5886, 6534, 7956, 9280, 24083]}, u'edge': {u'target': [], u'time': []}}, u'mouseout': {u'state': {u'target': [], u'time': []}, u'edge': {u'target': [], u'time': []}}}",,,"[10852, 478, 5700]",0.4,,937404,12.0,10.0,mouselab-mdp,,5
"[6023, 15127, 18171]","[u'up', u'up', u'right']",,,"[5, 0, 1]","[u'1', 3, 7, 13]","{u'mouseover': {u'state': {u'target': [], u'time': []}, u'edge': {u'target': [], u'time': []}}, u'click': {u'state': {u'target': [], u'time': []}, u'edge': {u'target': [], u'time': []}}, u'mouseout': {u'state': {u'target': [], u'time': []}, u'edge': {u'target': [], u'time': []}}}",,,"[6022, 1213, 1880]",13.0,,782976,1.0,4.0,mouselab-mdp,,6
"[2684, 13147, 17402]","[u'down', u'down', u'left']",,,"[5, 0, 1]","[u'1', 5, 9, 16]","{u'mouseover': {u'state': {u'target': [], u'time': []}, u'edge': {u'target': [], u'time': []}}, u'click': {u'state': {u'target': [], u'time': []}, u'edge': {u'target': [], u'time': []}}, u'mouseout': {u'state': {u'target': [], u'time': []}, u'edge': {u'target': [], u'time': []}}}",,,"[2684, 2566, 3102]",18.0,,851650,2.0,11.0,mouselab-mdp,,6
"[1956, 10554, 14022]","[u'left', u'left', u'up']",,,"[5, 0, 1]","[u'1', 4, 8, 14]","{u'mouseover': {u'state': {u'target': [], u'time': []}, u'edge': {u'target': [], u'time': []}}, u'click': {u'state': {u'target': [], u'time': []}, u'edge': {u'target': [], u'time': []}}, u'mouseout': {u'state': {u'target': [], u'time': []}, u'edge': {u'target': [], u'time': []}}}",,,"[1955, 640, 2298]",22.0,,925480,3.0,7.0,mouselab-mdp,,6
"[3882, 61022, 63963]","[u'right', u'right', u'up']",,,"[5, 0, 1]","[u'1', 2, 6, 10]","{u'mouseover': {u'state': {u'target': [], u'time': []}, u'edge': {u'target': [], u'time': []}}, u'click': {u'state': {u'target': [], u'time': []}, u'edge': {u'target': [], u'time': []}}, u'mouseout': {u'state': {u'target': [], u'time': []}, u'edge': {u'target': [], u'time': []}}}",,,"[3882, 49257, 1755]",8.0,,995228,4.0,0.0,mouselab-mdp,,6
"[3551, 13065, 14830]","[u'up', u'up', u'left']",,,"[5, 0, 1]","[u'1', 3, 7, 12]","{u'mouseover': {u'state': {u'target': [], u'time': []}, u'edge': {u'target': [], u'time': []}}, u'click': {u'state': {u'target': [], u'time': []}, u'edge': {u'target': [], u'time': []}}, u'mouseout': {u'state': {u'target': [], u'time': []}, u'edge': {u'target': [], u'time': []}}}",,,"[3551, 1630, 592]",37.0,,1054024,5.0,9.0,mouselab-mdp,,6
"[15117, 23043, 30049]","[u'up', u'up', u'right']",,,"[1, 0, 0]","[u'1', 3, 7, 13]","{u'mouseover': {u'state': {u'target': [], u'time': []}, u'edge': {u'target': [], u'time': []}}, u'click': {u'state': {u'target': [u'3', u'2', u'13'], u'time': [6401, 7786, 29096]}, u'edge': {u'target': [], u'time': []}}, u'mouseout': {u'state': {u'target': [], u'time': []}, u'edge': {u'target': [], u'time': []}}}",,,"[15116, 4415, 6091]",30.2,,241700,1.0,8.0,mouselab-mdp,,7
"[8171, 16442, 23143]","[u'right', u'right', u'up']",,,"[1, 0, 3]","[u'1', 2, 6, 10]","{u'mouseover': {u'state': {u'target': [], u'time': []}, u'edge': {u'target': [], u'time': []}}, u'click': {u'state': {u'target': [u'5', u'2', u'11'], u'time': [1780, 3448, 22047]}, u'edge': {u'target': [], u'time': []}}, u'mouseout': {u'state': {u'target': [], u'time': []}, u'edge': {u'target': [], u'time': []}}}",,,"[8171, 4469, 5782]",17.2,,299403,2.0,10.0,mouselab-mdp,,7
"[7750, 11245, 16625]","[u'down', u'down', u'right']",,,"[0, 0, 0]","[u'1', 5, 9, 17]","{u'mouseover': {u'state': {u'target': [], u'time': []}, u'edge': {u'target': [], u'time': []}}, u'click': {u'state': {u'target': [u'3', u'4', u'5', u'17'], u'time': [1046, 3859, 6179, 13879]}, u'edge': {u'target': [], u'time': []}}, u'mouseout': {u'state': {u'target': [], u'time': []}, u'edge': {u'target': [], u'time': []}}}",,,"[7750, 5, 4394]",-2.4,,352116,3.0,2.0,mouselab-mdp,,7
"[6489, 9259, 14602]","[u'left', u'left', u'down']",,,"[0, 0, 0]","[u'1', 4, 8, 15]","{u'mouseover': {u'state': {u'target': [], u'time': []}, u'edge': {u'target': [], u'time': []}}, u'click': {u'state': {u'target': [u'2', u'4', u'14'], u'time': [3473, 5224, 12687]}, u'edge': {u'target': [], u'time': []}}, u'mouseout': {u'state': {u'target': [], u'time': []}, u'edge': {u'target': [], u'time': []}}}",,,"[6489, 2, 4329]",23.2,,401964,4.0,9.0,mouselab-mdp,,7
"[3329, 8053, 11670]","[u'up', u'up', u'right']",,,"[1, 0, 3]","[u'1', 3, 7, 13]","{u'mouseover': {u'state': {u'target': [], u'time': []}, u'edge': {u'target': [], u'time': []}}, u'click': {u'state': {u'target': [u'3', u'13'], u'time': [1440, 10659]}, u'edge': {u'target': [], u'time': []}}, u'mouseout': {u'state': {u'target': [], u'time': []}, u'edge': {u'target': [], u'time': []}}}",,,"[3329, 1296, 2582]",21.8,,469922,5.0,11.0,mouselab-mdp,,7
"[4673, 8097, 11626]","[u'left', u'left', u'down']",,,"[0, 0, 0]","[u'1', 4, 8, 15]","{u'mouseover': {u'state': {u'target': [], u'time': []}, u'edge': {u'target': [], u'time': []}}, u'click': {u'state': {u'target': [u'4', u'14'], u'time': [3436, 10210]}, u'edge': {u'target': [], u'time': []}}, u'mouseout': {u'state': {u'target': [], u'time': []}, u'edge': {u'target': [], u'time': []}}}",,,"[4673, 839, 2608]",4.8,,519092,6.0,4.0,mouselab-mdp,,7
"[3500, 7912, 11241]","[u'up', u'up', u'right']",,,"[1, 0, 0]","[u'1', 3, 7, 13]","{u'mouseover': {u'state': {u'target': [], u'time': []}, u'edge': {u'target': [], u'time': []}}, u'click': {u'state': {u'target': [u'3', u'13'], u'time': [1621, 10055]}, u'edge': {u'target': [], u'time': []}}, u'mouseout': {u'state': {u'target': [], u'time': []}, u'edge': {u'target': [], u'time': []}}}",,,"[3500, 1032, 2379]",1.8,,570305,7.0,3.0,mouselab-mdp,,7
"[5996, 10186, 16057]","[u'down', u'down', u'right']",,,"[0, 0, 3]","[u'1', 5, 9, 17]","{u'mouseover': {u'state': {u'target': [], u'time': []}, u'edge': {u'target': [], u'time': []}}, u'click': {u'state': {u'target': [u'2', u'4', u'5', u'16'], u'time': [1186, 3403, 4744, 14961]}, u'edge': {u'target': [], u'time': []}}, u'mouseout': {u'state': {u'target': [], u'time': []}, u'edge': {u'target': [], u'time': []}}}",,,"[5996, 1167, 4868]",1.6,,631390,8.0,6.0,mouselab-mdp,,7
"[1979, 5658, 8720]","[u'up', u'up', u'right']",,,"[0, 0, 3]","[u'1', 3, 7, 13]","{u'mouseover': {u'state': {u'target': [], u'time': []}, u'edge': {u'target': [], u'time': []}}, u'click': {u'state': {u'target': [u'3', u'13'], u'time': [689, 7595]}, u'edge': {u'target': [], u'time': []}}, u'mouseout': {u'state': {u'target': [], u'time': []}, u'edge': {u'target': [], u'time': []}}}",,,"[1978, 1307, 2138]",11.8,,684138,9.0,0.0,mouselab-mdp,,7
"[2357, 5981, 9585]","[u'up', u'up', u'left']",,,"[0, 0, 0]","[u'1', 3, 7, 12]","{u'mouseover': {u'state': {u'target': [], u'time': []}, u'edge': {u'target': [], u'time': []}}, u'click': {u'state': {u'target': [u'3', u'13'], u'time': [1376, 7943]}, u'edge': {u'target': [], u'time': []}}, u'mouseout': {u'state': {u'target': [], u'time': []}, u'edge': {u'target': [], u'time': []}}}",,,"[2357, 1250, 2600]",-2.2,,734554,10.0,5.0,mouselab-mdp,,7
"[4553, 8144, 12797]","[u'up', u'up', u'left']",,,"[0, 0, 0]","[u'1', 3, 7, 12]","{u'mouseover': {u'state': {u'target': [], u'time': []}, u'edge': {u'target': [], u'time': []}}, u'click': {u'state': {u'target': [u'3', u'13'], u'time': [3312, 11232]}, u'edge': {u'target': [], u'time': []}}, u'mouseout': {u'state': {u'target': [], u'time': []}, u'edge': {u'target': [], u'time': []}}}",,,"[4553, 1121, 3697]",17.8,,787217,11.0,1.0,mouselab-mdp,,7
"[1689, 5261, 8836]","[u'right', u'right', u'down']",,,"[0, 0, 0]","[u'1', 2, 6, 11]","{u'mouseover': {u'state': {u'target': [], u'time': []}, u'edge': {u'target': [], u'time': []}}, u'click': {u'state': {u'target': [u'2', u'10'], u'time': [683, 7579]}, u'edge': {u'target': [], u'time': []}}, u'mouseout': {u'state': {u'target': [], u'time': []}, u'edge': {u'target': [], u'time': []}}}",,,"[1689, 414, 2457]",-1.2,,838718,12.0,7.0,mouselab-mdp,,7
"[6211, 13865, 21490]","[u'right', u'right', u'up']",,,"[1, 6, 0]","[u'1', 2, 6, 10]","{u'mouseover': {u'state': {u'target': [], u'time': []}, u'edge': {u'target': [], u'time': []}}, u'click': {u'state': {u'target': [u'2', u'6', u'11'], u'time': [4762, 11695, 12435]}, u'edge': {u'target': [], u'time': []}}, u'mouseout': {u'state': {u'target': [], u'time': []}, u'edge': {u'target': [], u'time': []}}}",,,"[6211, 4991, 421]",29.2,,220921,1.0,3.0,mouselab-mdp,,8
"[7282, 11078, 18862]","[u'down', u'down', u'right']",,,"[0, 6, 0]","[u'1', 5, 9, 17]","{u'mouseover': {u'state': {u'target': [], u'time': []}, u'edge': {u'target': [], u'time': []}}, u'click': {u'state': {u'target': [u'3', u'4', u'5', u'2', u'9', u'17'], u'time': [1682, 2770, 4362, 4972, 9453, 10132]}, u'edge': {u'target': [], u'time': []}}, u'mouseout': {u'state': {u'target': [], u'time': []}, u'edge': {u'target': [], u'time': []}}}",,,"[7282, 1630, 535]",-5.6,,277978,2.0,2.0,mouselab-mdp,,8
"[9168, 18222, 21791]","[u'down', u'down', u'left']",,,"[6, 0, 0]","[u'1', 5, 9, 16]","{u'mouseover': {u'state': {u'target': [], u'time': []}, u'edge': {u'target': [], u'time': []}}, u'click': {u'state': {u'target': [u'7', u'6', u'9', u'8', u'17'], u'time': [2233, 3839, 4773, 5769, 19921]}, u'edge': {u'target': [], u'time': []}}, u'mouseout': {u'state': {u'target': [], u'time': []}, u'edge': {u'target': [], u'time': []}}}",,,"[9168, 974, 2777]",38.0,,333109,3.0,1.0,mouselab-mdp,,8
"[9336, 18193, 19929]","[u'right', u'right', u'down']",,,"[5, 0, 0]","[u'1', 2, 6, 11]","{u'mouseover': {u'state': {u'target': [], u'time': []}, u'edge': {u'target': [], u'time': []}}, u'click': {u'state': {u'target': [u'6', u'8', u'10', u'11'], u'time': [1948, 4604, 5894, 7254]}, u'edge': {u'target': [], u'time': []}}, u'mouseout': {u'state': {u'target': [], u'time': []}, u'edge': {u'target': [], u'time': []}}}",,,"[9336, 1711, 1022]",31.6,,394808,4.0,6.0,mouselab-mdp,,8
"[10819, 14373, 16223]","[u'up', u'up', u'right']",,,"[0, 0, 3]","[u'1', 3, 7, 13]","{u'mouseover': {u'state': {u'target': [], u'time': []}, u'edge': {u'target': [], u'time': []}}, u'click': {u'state': {u'target': [u'6', u'8', u'7', u'13'], u'time': [2729, 4087, 7169, 9363]}, u'edge': {u'target': [], u'time': []}}, u'mouseout': {u'state': {u'target': [], u'time': []}, u'edge': {u'target': [], u'time': []}}}",,,"[10819, 1476, 1094]",18.6,,451963,5.0,11.0,mouselab-mdp,,8
"[4052, 9180, 10589]","[u'right', u'right', u'up']",,,"[2, 0, 0]","[u'1', 2, 6, 10]","{u'mouseover': {u'state': {u'target': [], u'time': []}, u'edge': {u'target': [], u'time': []}}, u'click': {u'state': {u'target': [u'6', u'10'], u'time': [1254, 2574]}, u'edge': {u'target': [], u'time': []}}, u'mouseout': {u'state': {u'target': [], u'time': []}, u'edge': {u'target': [], u'time': []}}}",,,"[4052, 1259, 647]",4.8,,518934,6.0,0.0,mouselab-mdp,,8
"[14709, 25073, 26318]","[u'left', u'left', u'up']",,,"[7, 0, 0]","[u'1', 4, 8, 14]","{u'mouseover': {u'state': {u'target': [], u'time': []}, u'edge': {u'target': [], u'time': []}}, u'click': {u'state': {u'target': [u'7', u'8', u'2', u'9', u'11', u'14'], u'time': [3392, 4063, 5276, 7377, 8273, 11950]}, u'edge': {u'target': [], u'time': []}}, u'mouseout': {u'state': {u'target': [], u'time': []}, u'edge': {u'target': [], u'time': []}}}",,,"[14709, 846, 496]",8.4,,585925,7.0,10.0,mouselab-mdp,,8
"[22686, 40209, 41457]","[u'left', u'left', u'up']",,,"[13, 0, 0]","[u'1', 4, 8, 14]","{u'mouseover': {u'state': {u'target': [], u'time': []}, u'edge': {u'target': [], u'time': []}}, u'click': {u'state': {u'target': [u'3', u'13', u'12', u'6', u'10', u'9', u'16', u'5', u'8', u'15'], u'time': [2287, 4123, 5150, 6900, 8546, 10375, 11795, 13802, 16568, 20398]}, u'edge': {u'target': [], u'time': []}}, u'mouseout': {u'state': {u'target': [], u'time': []}, u'edge': {u'target': [], u'time': []}}}",,,"[22686, 1456, 519]",18.0,,649037,8.0,5.0,mouselab-mdp,,8
"[5647, 22457, 27786]","[u'right', u'right', u'up']",,,"[5, 0, 0]","[u'1', 2, 6, 10]","{u'mouseover': {u'state': {u'target': [], u'time': []}, u'edge': {u'target': [], u'time': []}}, u'click': {u'state': {u'target': [u'6', u'8', u'7', u'9', u'10'], u'time': [811, 1847, 2519, 3437, 4711]}, u'edge': {u'target': [], u'time': []}}, u'mouseout': {u'state': {u'target': [], u'time': []}, u'edge': {u'target': [], u'time': []}}}",,,"[5647, 9472, 4557]",8.0,,704670,9.0,9.0,mouselab-mdp,,8
"[10451, 15723, 19535]","[u'down', u'down', u'right']",,,"[0, 0, 0]","[u'1', 5, 9, 17]","{u'mouseover': {u'state': {u'target': [], u'time': []}, u'edge': {u'target': [], u'time': []}}, u'click': {u'state': {u'target': [u'6', u'8', u'9', u'17'], u'time': [3008, 3856, 8344, 9372]}, u'edge': {u'target': [], u'time': []}}, u'mouseout': {u'state': {u'target': [], u'time': []}, u'edge': {u'target': [], u'time': []}}}",,,"[10451, 3110, 3020]",35.6,,755544,10.0,4.0,mouselab-mdp,,8
"[16865, 25666, 28811]","[u'up', u'up', u'left']",,,"[0, 0, 0]","[u'1', 3, 7, 12]","{u'mouseover': {u'state': {u'target': [], u'time': []}, u'edge': {u'target': [], u'time': []}}, u'click': {u'state': {u'target': [u'6', u'9', u'16', u'17', u'8', u'14', u'7', u'12'], u'time': [9219, 9968, 11302, 12418, 13583, 14204, 15133, 16111]}, u'edge': {u'target': [], u'time': []}}, u'mouseout': {u'state': {u'target': [], u'time': []}, u'edge': {u'target': [], u'time': []}}}",,,"[16865, 5922, 2384]",28.2,,808619,11.0,8.0,mouselab-mdp,,8
"[6127, 9557, 10788]","[u'down', u'down', u'left']",,,"[0, 0, 0]","[u'1', 5, 9, 16]","{u'mouseover': {u'state': {u'target': [], u'time': []}, u'edge': {u'target': [], u'time': []}}, u'click': {u'state': {u'target': [u'8', u'9', u'16'], u'time': [2788, 3635, 4701]}, u'edge': {u'target': [], u'time': []}}, u'mouseout': {u'state': {u'target': [], u'time': []}, u'edge': {u'target': [], u'time': []}}}",,,"[6127, 1407, 477]",29.2,,857056,12.0,7.0,mouselab-mdp,,8
"[3729, 14369, 21455]","[u'right', u'right', u'down']",,,"[2, 0, 0]","[u'1', 2, 6, 11]","{u'mouseover': {u'state': {u'target': [], u'time': []}, u'edge': {u'target': [], u'time': []}}, u'click': {u'state': {u'target': [u'4', u'10'], u'time': [2733, 20103]}, u'edge': {u'target': [], u'time': []}}, u'mouseout': {u'state': {u'target': [], u'time': []}, u'edge': {u'target': [], u'time': []}}}",,,"[3729, 6793, 6278]",-1.2,,159261,1.0,7.0,mouselab-mdp,,10
"[4640, 21862, 39173]","[u'up', u'up', u'left']",,,"[0, 0, 0]","[u'1', 3, 7, 12]","{u'mouseover': {u'state': {u'target': [], u'time': []}, u'edge': {u'target': [], u'time': []}}, u'click': {u'state': {u'target': [u'3', u'13'], u'time': [3353, 37588]}, u'edge': {u'target': [], u'time': []}}, u'mouseout': {u'state': {u'target': [], u'time': []}, u'edge': {u'target': [], u'time': []}}}",,,"[4640, 15487, 16502]",17.8,,209801,2.0,1.0,mouselab-mdp,,10
"[6934, 16179, 21322]","[u'down', u'down', u'right']",,,"[2, 0, 3]","[u'1', 5, 9, 17]","{u'mouseover': {u'state': {u'target': [], u'time': []}, u'edge': {u'target': [], u'time': []}}, u'click': {u'state': {u'target': [u'2', u'16'], u'time': [2683, 19886]}, u'edge': {u'target': [], u'time': []}}, u'mouseout': {u'state': {u'target': [], u'time': []}, u'edge': {u'target': [], u'time': []}}}",,,"[6934, 5548, 4364]",4.8,,277812,3.0,6.0,mouselab-mdp,,10
"[7632, 16575, 21579]","[u'right', u'right', u'up']",,,"[1, 3, 0]","[u'1', 2, 6, 10]","{u'mouseover': {u'state': {u'target': [], u'time': []}, u'edge': {u'target': [], u'time': []}}, u'click': {u'state': {u'target': [u'2', u'5', u'10'], u'time': [1505, 6789, 15303]}, u'edge': {u'target': [], u'time': []}}, u'mouseout': {u'state': {u'target': [], u'time': []}, u'edge': {u'target': [], u'time': []}}}",,,"[7632, 6093, 955]",17.2,,333367,4.0,10.0,mouselab-mdp,,10
"[5327, 12307, 14832]","[u'up', u'up', u'left']",,,"[0, 0, 0]","[u'1', 3, 7, 12]","{u'mouseover': {u'state': {u'target': [], u'time': []}, u'edge': {u'target': [], u'time': []}}, u'click': {u'state': {u'target': [u'3', u'13'], u'time': [2944, 13944]}, u'edge': {u'target': [], u'time': []}}, u'mouseout': {u'state': {u'target': [], u'time': []}, u'edge': {u'target': [], u'time': []}}}",,,"[5327, 5239, 1744]",-2.2,,385113,5.0,5.0,mouselab-mdp,,10
"[4136, 8134, 13031]","[u'right', u'right', u'down']",,,"[0, 0, 3]","[u'1', 2, 6, 11]","{u'mouseover': {u'state': {u'target': [], u'time': []}, u'edge': {u'target': [], u'time': []}}, u'click': {u'state': {u'target': [u'2', u'11'], u'time': [1470, 10405]}, u'edge': {u'target': [], u'time': []}}, u'mouseout': {u'state': {u'target': [], u'time': []}, u'edge': {u'target': [], u'time': []}}}",,,"[4136, 2295, 4120]",34.8,,438596,6.0,11.0,mouselab-mdp,,10
"[3987, 15500, 20281]","[u'down', u'down', u'right']",,,"[0, 3, 0]","[u'1', 5, 9, 17]","{u'mouseover': {u'state': {u'target': [], u'time': []}, u'edge': {u'target': [], u'time': []}}, u'click': {u'state': {u'target': [u'5', u'17'], u'time': [1077, 7802]}, u'edge': {u'target': [], u'time': []}}, u'mouseout': {u'state': {u'target': [], u'time': []}, u'edge': {u'target': [], u'time': []}}}",,,"[3987, 9811, 668]",38.8,,510479,7.0,4.0,mouselab-mdp,,10
"[7885, 13195, 16942]","[u'down', u'down', u'left']",,,"[1, 0, 0]","[u'1', 5, 9, 16]","{u'mouseover': {u'state': {u'target': [], u'time': []}, u'edge': {u'target': [], u'time': []}}, u'click': {u'state': {u'target': [u'5', u'4', u'17'], u'time': [1409, 3501, 15030]}, u'edge': {u'target': [], u'time': []}}, u'mouseout': {u'state': {u'target': [], u'time': []}, u'edge': {u'target': [], u'time': []}}}",,,"[7884, 2439, 2921]",-0.8,,560110,8.0,0.0,mouselab-mdp,,10
"[6061, 10549, 22407]","[u'right', u'right', u'up']",,,"[1, 0, 0]","[u'1', 2, 6, 10]","{u'mouseover': {u'state': {u'target': [], u'time': []}, u'edge': {u'target': [], u'time': []}}, u'click': {u'state': {u'target': [u'2', u'3', u'10'], u'time': [1630, 3862, 12793]}, u'edge': {u'target': [], u'time': []}}, u'mouseout': {u'state': {u'target': [], u'time': []}, u'edge': {u'target': [], u'time': []}}}",,,"[6061, 1600, 11056]",29.2,,636290,9.0,2.0,mouselab-mdp,,10
"[7757, 12986, 16253]","[u'down', u'down', u'left']",,,"[1, 0, 0]","[u'1', 5, 9, 16]","{u'mouseover': {u'state': {u'target': [], u'time': []}, u'edge': {u'target': [], u'time': []}}, u'click': {u'state': {u'target': [u'5', u'2', u'17'], u'time': [3200, 5607, 14191]}, u'edge': {u'target': [], u'time': []}}, u'mouseout': {u'state': {u'target': [], u'time': []}, u'edge': {u'target': [], u'time': []}}}",,,"[7757, 2312, 2440]",7.2,,706579,10.0,8.0,mouselab-mdp,,10
"[4580, 9385, 17507]","[u'left', u'left', u'down']",,,"[0, 0, 0]","[u'1', 4, 8, 15]","{u'mouseover': {u'state': {u'target': [], u'time': []}, u'edge': {u'target': [], u'time': []}}, u'click': {u'state': {u'target': [u'5', u'4', u'14', u'15'], u'time': [1420, 3159, 14732, 16480]}, u'edge': {u'target': [], u'time': []}}, u'mouseout': {u'state': {u'target': [], u'time': []}, u'edge': {u'target': [], u'time': []}}}",,,"[4579, 2918, 7328]",21.6,,757988,11.0,9.0,mouselab-mdp,,10
"[9986, 14950, 19084]","[u'down', u'down', u'left']",,,"[0, 0, 0]","[u'1', 5, 9, 16]","{u'mouseover': {u'state': {u'target': [], u'time': []}, u'edge': {u'target': [], u'time': []}}, u'click': {u'state': {u'target': [u'3', u'4', u'2', u'5', u'17', u'16'], u'time': [5702, 6665, 8320, 9323, 17363, 18205]}, u'edge': {u'target': [], u'time': []}}, u'mouseout': {u'state': {u'target': [], u'time': []}, u'edge': {u'target': [], u'time': []}}}",,,"[9986, 2845, 3345]",-3.6,,819535,12.0,3.0,mouselab-mdp,,10
"[19628, 26441, 31168]","[u'right', u'right', u'up']",,,"[0, 0, 0]","[u'1', 2, 6, 10]","{u'mouseover': {u'state': {u'target': [], u'time': []}, u'edge': {u'target': [], u'time': []}}, u'click': {u'state': {u'target': [u'2', u'6'], u'time': [4728, 11451]}, u'edge': {u'target': [], u'time': []}}, u'mouseout': {u'state': {u'target': [], u'time': []}, u'edge': {u'target': [], u'time': []}}}",,,"[19627, 191, 3027]",30.8,,280013,1.0,3.0,mouselab-mdp,,11
"[23717, 38557, 40664]","[u'down', u'down', u'right']",,,"[4, 0, 0]","[u'1', 5, 9, 17]","{u'mouseover': {u'state': {u'target': [], u'time': []}, u'edge': {u'target': [], u'time': []}}, u'click': {u'state': {u'target': [u'2', u'4', u'3', u'15', u'14', u'8', u'5', u'17'], u'time': [2147, 3187, 10529, 12866, 13759, 16163, 19696, 20912]}, u'edge': {u'target': [], u'time': []}}, u'mouseout': {u'state': {u'target': [], u'time': []}, u'edge': {u'target': [], u'time': []}}}",,,"[23716, 704, 671]",29.2,,346381,2.0,4.0,mouselab-mdp,,11
"[17191, 29871, 32190]","[u'left', u'left', u'up']",,,"[2, 0, 0]","[u'1', 4, 8, 14]","{u'mouseover': {u'state': {u'target': [], u'time': []}, u'edge': {u'target': [], u'time': []}}, u'click': {u'state': {u'target': [u'4', u'2', u'5', u'3', u'12', u'13', u'7', u'15', u'14'], u'time': [1792, 4770, 6704, 8235, 9778, 11162, 12429, 14337, 15156]}, u'edge': {u'target': [], u'time': []}}, u'mouseout': {u'state': {u'target': [], u'time': []}, u'edge': {u'target': [], u'time': []}}}",,,"[17191, 786, 1081]",19.6,,436030,3.0,5.0,mouselab-mdp,,11
"[23481, 36553, 38768]","[u'right', u'right', u'down']",,,"[0, 0, 0]","[u'1', 2, 6, 11]","{u'mouseover': {u'state': {u'target': [], u'time': []}, u'edge': {u'target': [], u'time': []}}, u'click': {u'state': {u'target': [u'4', u'2', u'5', u'3', u'16', u'17', u'14', u'15', u'11', u'6'], u'time': [5059, 6244, 7841, 8749, 10337, 12988, 16405, 18207, 19007, 20633]}, u'edge': {u'target': [], u'time': []}}, u'mouseout': {u'state': {u'target': [], u'time': []}, u'edge': {u'target': [], u'time': []}}}",,,"[23481, 1623, 760]",16.0,,494590,4.0,2.0,mouselab-mdp,,11
"[12151, 21292, 24422]","[u'right', u'right', u'up']",,,"[1, 0, 0]","[u'1', 2, 6, 10]","{u'mouseover': {u'state': {u'target': [], u'time': []}, u'edge': {u'target': [], u'time': []}}, u'click': {u'state': {u'target': [u'8', u'6', u'10', u'2'], u'time': [1930, 4310, 8591, 9700]}, u'edge': {u'target': [], u'time': []}}, u'mouseout': {u'state': {u'target': [], u'time': []}, u'edge': {u'target': [], u'time': []}}}",,,"[12150, 547, 1547]",15.6,,556328,5.0,10.0,mouselab-mdp,,11
"[14500, 26691, 28962]","[u'up', u'up', u'left']",,,"[0, 0, 0]","[u'1', 3, 7, 12]","{u'mouseover': {u'state': {u'target': [], u'time': []}, u'edge': {u'target': [], u'time': []}}, u'click': {u'state': {u'target': [u'4', u'2', u'11', u'10', u'3', u'12'], u'time': [4201, 5604, 6619, 8088, 9795, 10893]}, u'edge': {u'target': [], u'time': []}}, u'mouseout': {u'state': {u'target': [], u'time': []}, u'edge': {u'target': [], u'time': []}}}",,,"[14500, 3244, 800]",9.4,,613909,6.0,7.0,mouselab-mdp,,11
"[25071, 35759, 38120]","[u'left', u'left', u'down']",,,"[1, 0, 0]","[u'1', 4, 8, 15]","{u'mouseover': {u'state': {u'target': [], u'time': []}, u'edge': {u'target': [], u'time': []}}, u'click': {u'state': {u'target': [u'4', u'2', u'5', u'9', u'16', u'17', u'3', u'13', u'12'], u'time': [5241, 6681, 7486, 8726, 9765, 10566, 12531, 13608, 16257]}, u'edge': {u'target': [], u'time': []}}, u'mouseout': {u'state': {u'target': [], u'time': []}, u'edge': {u'target': [], u'time': []}}}",,,"[25071, 560, 1150]",-8.4,,679225,7.0,6.0,mouselab-mdp,,11
"[9852, 20311, 22406]","[u'up', u'up', u'right']",,,"[1, 0, 0]","[u'1', 3, 7, 13]","{u'mouseover': {u'state': {u'target': [], u'time': []}, u'edge': {u'target': [], u'time': []}}, u'click': {u'state': {u'target': [u'8', u'6', u'9', u'7', u'3', u'12', u'13'], u'time': [773, 2374, 3277, 4393, 5962, 7151, 8582]}, u'edge': {u'target': [], u'time': []}}, u'mouseout': {u'state': {u'target': [], u'time': []}, u'edge': {u'target': [], u'time': []}}}",,,"[9852, 722, 724]",13.8,,738862,8.0,11.0,mouselab-mdp,,11
"[9547, 21548, 24209]","[u'down', u'down', u'left']",,,"[0, 0, 0]","[u'1', 5, 9, 16]","{u'mouseover': {u'state': {u'target': [], u'time': []}, u'edge': {u'target': [], u'time': []}}, u'click': {u'state': {u'target': [u'4', u'2', u'5', u'16', u'17'], u'time': [1390, 2363, 3264, 6299, 8453]}, u'edge': {u'target': [], u'time': []}}, u'mouseout': {u'state': {u'target': [], u'time': []}, u'edge': {u'target': [], u'time': []}}}",,,"[9546, 3854, 1039]",38.0,,794719,9.0,1.0,mouselab-mdp,,11
"[10624, 21793, 24496]","[u'up', u'up', u'left']",,,"[2, 0, 0]","[u'1', 3, 7, 12]","{u'mouseover': {u'state': {u'target': [], u'time': []}, u'edge': {u'target': [], u'time': []}}, u'click': {u'state': {u'target': [u'5', u'16', u'17', u'3', u'12'], u'time': [1767, 3134, 4465, 6263, 8082]}, u'edge': {u'target': [], u'time': []}}, u'mouseout': {u'state': {u'target': [], u'time': []}, u'edge': {u'target': [], u'time': []}}}",,,"[10624, 1129, 1149]",33.0,,853820,10.0,8.0,mouselab-mdp,,11
"[19627, 28060, 32260]","[u'left', u'left', u'down']",,,"[0, 0, 0]","[u'1', 4, 8, 15]","{u'mouseover': {u'state': {u'target': [], u'time': []}, u'edge': {u'target': [], u'time': []}}, u'click': {u'state': {u'target': [u'3', u'13', u'4', u'15'], u'time': [9270, 11665, 13526, 14968]}, u'edge': {u'target': [], u'time': []}}, u'mouseout': {u'state': {u'target': [], u'time': []}, u'edge': {u'target': [], u'time': []}}}",,,"[19627, 1086, 2591]",33.6,,913790,11.0,0.0,mouselab-mdp,,11
"[11637, 24387, 26842]","[u'up', u'up', u'left']",,,"[2, 0, 0]","[u'1', 3, 7, 12]","{u'mouseover': {u'state': {u'target': [], u'time': []}, u'edge': {u'target': [], u'time': []}}, u'click': {u'state': {u'target': [u'4', u'15', u'14', u'2', u'5', u'3', u'12', u'13'], u'time': [1169, 2274, 4160, 5508, 6612, 7459, 8510, 10037]}, u'edge': {u'target': [], u'time': []}}, u'mouseout': {u'state': {u'target': [], u'time': []}, u'edge': {u'target': [], u'time': []}}}",,,"[11637, 853, 1057]",24.2,,978985,12.0,9.0,mouselab-mdp,,11
"[6149, 12684, 231221]","[u'right', u'right', u'up']",,,"[0, 3, 0]","[u'1', 2, 6, 10]","{u'mouseover': {u'state': {u'target': [], u'time': []}, u'edge': {u'target': [], u'time': []}}, u'click': {u'state': {u'target': [u'2', u'6', u'10', u'11', u'3'], u'time': [3916, 10814, 23565, 25696, 221971]}, u'edge': {u'target': [], u'time': []}}, u'mouseout': {u'state': {u'target': [], u'time': []}, u'edge': {u'target': [], u'time': []}}}",,,"[6148, 3527, 213953]",0.0,,792690,1.0,7.0,mouselab-mdp,,12
"[10702, 17724, 24465]","[u'right', u'right', u'down']",,,"[1, 3, 3]","[u'1', 2, 6, 11]","{u'mouseover': {u'state': {u'target': [], u'time': []}, u'edge': {u'target': [], u'time': []}}, u'click': {u'state': {u'target': [u'3', u'2', u'6', u'11'], u'time': [6542, 8720, 16506, 23204]}, u'edge': {u'target': [], u'time': []}}, u'mouseout': {u'state': {u'target': [], u'time': []}, u'edge': {u'target': [], u'time': []}}}",,,"[10702, 2382, 2142]",25.6,,856339,2.0,2.0,mouselab-mdp,,12
"[24637, 33727, 36785]","[u'left', u'left', u'up']",,,"[3, 0, 0]","[u'1', 4, 8, 14]","{u'mouseover': {u'state': {u'target': [], u'time': []}, u'edge': {u'target': [], u'time': []}}, u'click': {u'state': {u'target': [u'3', u'7', u'12', u'13', u'8', u'4', u'14'], u'time': [6403, 11415, 13629, 16081, 19445, 21165, 22686]}, u'edge': {u'target': [], u'time': []}}, u'mouseout': {u'state': {u'target': [], u'time': []}, u'edge': {u'target': [], u'time': []}}}",,,"[24637, 1440, 2150]",6.8,,915067,3.0,10.0,mouselab-mdp,,12
"[15775, 20665, 23495]","[u'left', u'left', u'down']",,,"[0, 0, 0]","[u'1', 4, 8, 15]","{u'mouseover': {u'state': {u'target': [], u'time': []}, u'edge': {u'target': [], u'time': []}}, u'click': {u'state': {u'target': [u'5', u'17', u'16', u'14', u'15', u'4', u'8'], u'time': [2990, 4344, 5451, 9169, 10876, 12518, 13944]}, u'edge': {u'target': [], u'time': []}}, u'mouseout': {u'state': {u'target': [], u'time': []}, u'edge': {u'target': [], u'time': []}}}",,,"[15775, 2, 1934]",14.8,,968591,4.0,3.0,mouselab-mdp,,12
"[7254, 20802, 25317]","[u'right', u'right', u'up']",,,"[9, 0, 0]","[u'1', 2, 6, 10]","{u'mouseover': {u'state': {u'target': [], u'time': []}, u'edge': {u'target': [], u'time': []}}, u'click': {u'state': {u'target': [u'10', u'6', u'2'], u'time': [2542, 4225, 5463]}, u'edge': {u'target': [], u'time': []}}, u'mouseout': {u'state': {u'target': [], u'time': []}, u'edge': {u'target': [], u'time': []}}}",,,"[7254, 743, 3454]",3.2,,1036092,5.0,1.0,mouselab-mdp,,12
"[11005, 18261, 19979]","[u'down', u'down', u'left']",,,"[3, 0, 0]","[u'1', 5, 9, 16]","{u'mouseover': {u'state': {u'target': [], u'time': []}, u'edge': {u'target': [], u'time': []}}, u'click': {u'state': {u'target': [u'16', u'9', u'5', u'17'], u'time': [2631, 4806, 6182, 9223]}, u'edge': {u'target': [], u'time': []}}, u'mouseout': {u'state': {u'target': [], u'time': []}, u'edge': {u'target': [], u'time': []}}}",,,"[11005, 550, 802]",9.6,,1093696,6.0,5.0,mouselab-mdp,,12
"[14951, 20879, 22993]","[u'right', u'right', u'down']",,,"[0, 0, 0]","[u'1', 2, 6, 11]","{u'mouseover': {u'state': {u'target': [], u'time': []}, u'edge': {u'target': [], u'time': []}}, u'click': {u'state': {u'target': [u'13', u'12', u'14', u'15', u'16', u'17', u'11', u'2', u'6'], u'time': [2733, 4803, 6134, 7238, 8188, 9123, 10130, 12101, 13287]}, u'edge': {u'target': [], u'time': []}}, u'mouseout': {u'state': {u'target': [], u'time': []}, u'edge': {u'target': [], u'time': []}}}",,,"[14951, 4, 1206]",23.6,,1153760,7.0,11.0,mouselab-mdp,,12
"[8820, 14137, 16510]","[u'up', u'up', u'left']",,,"[1, 0, 0]","[u'1', 3, 7, 12]","{u'mouseover': {u'state': {u'target': [], u'time': []}, u'edge': {u'target': [], u'time': []}}, u'click': {u'state': {u'target': [u'13', u'12', u'7', u'3'], u'time': [2783, 3682, 6470, 7383]}, u'edge': {u'target': [], u'time': []}}, u'mouseout': {u'state': {u'target': [], u'time': []}, u'edge': {u'target': [], u'time': []}}}",,,"[8820, 588, 1467]",16.6,,1208024,8.0,4.0,mouselab-mdp,,12
"[8109, 17792, 20572]","[u'left', u'left', u'up']",,,"[5, 0, 0]","[u'1', 4, 8, 14]","{u'mouseover': {u'state': {u'target': [], u'time': []}, u'edge': {u'target': [], u'time': []}}, u'click': {u'state': {u'target': [u'14', u'8', u'4'], u'time': [3095, 4910, 5907]}, u'edge': {u'target': [], u'time': []}}, u'mouseout': {u'state': {u'target': [], u'time': []}, u'edge': {u'target': [], u'time': []}}}",,,"[8109, 641, 1689]",35.2,,1266009,9.0,0.0,mouselab-mdp,,12
"[11832, 17868, 22975]","[u'right', u'right', u'down']",,,"[1, 0, 0]","[u'1', 2, 6, 11]","{u'mouseover': {u'state': {u'target': [], u'time': []}, u'edge': {u'target': [], u'time': []}}, u'click': {u'state': {u'target': [u'16', u'17', u'11', u'10', u'6', u'2'], u'time': [2865, 4099, 6597, 7691, 9334, 10309]}, u'edge': {u'target': [], u'time': []}}, u'mouseout': {u'state': {u'target': [], u'time': []}, u'edge': {u'target': [], u'time': []}}}",,,"[11831, 578, 4236]",6.4,,1319869,10.0,9.0,mouselab-mdp,,12
"[10867, 21021, 25072]","[u'left', u'left', u'up']",,,"[5, 0, 0]","[u'1', 4, 8, 14]","{u'mouseover': {u'state': {u'target': [], u'time': []}, u'edge': {u'target': [], u'time': []}}, u'click': {u'state': {u'target': [u'13', u'12', u'14', u'15', u'8', u'4'], u'time': [2713, 3669, 4711, 5652, 6609, 7479]}, u'edge': {u'target': [], u'time': []}}, u'mouseout': {u'state': {u'target': [], u'time': []}, u'edge': {u'target': [], u'time': []}}}",,,"[10867, 597, 3161]",0.4,,1379041,11.0,6.0,mouselab-mdp,,12
"[6959, 10879, 13235]","[u'right', u'right', u'up']",,,"[0, 0, 0]","[u'1', 2, 6, 10]","{u'mouseover': {u'state': {u'target': [], u'time': []}, u'edge': {u'target': [], u'time': []}}, u'click': {u'state': {u'target': [u'11', u'10', u'6', u'2'], u'time': [2237, 3292, 4807, 5749]}, u'edge': {u'target': [], u'time': []}}, u'mouseout': {u'state': {u'target': [], u'time': []}, u'edge': {u'target': [], u'time': []}}}",,,"[6959, 5, 1392]",21.6,,1430025,12.0,8.0,mouselab-mdp,,12
"[12657, 17158, 19498]","[u'left', u'left', u'up']",,,"[1, 0, 0]","[u'1', 4, 8, 14]","{u'mouseover': {u'state': {u'target': [], u'time': []}, u'edge': {u'target': [], u'time': []}}, u'click': {u'state': {u'target': [u'14', u'4'], u'time': [4496, 11390]}, u'edge': {u'target': [], u'time': []}}, u'mouseout': {u'state': {u'target': [], u'time': []}, u'edge': {u'target': [], u'time': []}}}",,,"[12657, 1738, 1601]",30.8,,109941,1.0,5.0,mouselab-mdp,,13
"[8580, 11855, 13592]","[u'right', u'right', u'up']",,,"[1, 0, 0]","[u'1', 2, 6, 10]","{u'mouseover': {u'state': {u'target': [], u'time': []}, u'edge': {u'target': [], u'time': []}}, u'click': {u'state': {u'target': [u'10', u'2'], u'time': [2071, 7222]}, u'edge': {u'target': [], u'time': []}}, u'mouseout': {u'state': {u'target': [], u'time': []}, u'edge': {u'target': [], u'time': []}}}",,,"[8580, 522, 999]",30.8,,162353,2.0,3.0,mouselab-mdp,,13
"[6268, 8168, 9550]","[u'left', u'left', u'up']",,,"[0, 0, 0]","[u'1', 4, 8, 14]","{u'mouseover': {u'state': {u'target': [], u'time': []}, u'edge': {u'target': [], u'time': []}}, u'click': {u'state': {u'target': [u'13', u'14', u'4'], u'time': [1085, 2756, 5228]}, u'edge': {u'target': [], u'time': []}}, u'mouseout': {u'state': {u'target': [], u'time': []}, u'edge': {u'target': [], u'time': []}}}",,,"[6268, 1, 638]",13.2,,215440,3.0,10.0,mouselab-mdp,,13
"[6768, 9938, 10690]","[u'right', u'right', u'down']",,,"[1, 0, 0]","[u'1', 2, 6, 11]","{u'mouseover': {u'state': {u'target': [], u'time': []}, u'edge': {u'target': [], u'time': []}}, u'click': {u'state': {u'target': [u'11', u'2'], u'time': [2247, 5398]}, u'edge': {u'target': [], u'time': []}}, u'mouseout': {u'state': {u'target': [], u'time': []}, u'edge': {u'target': [], u'time': []}}}",,,"[6768, 417, 5]",34.8,,276089,4.0,11.0,mouselab-mdp,,13
"[4933, 8326, 9763]","[u'up', u'up', u'left']",,,"[1, 0, 0]","[u'1', 3, 7, 12]","{u'mouseover': {u'state': {u'target': [], u'time': []}, u'edge': {u'target': [], u'time': []}}, u'click': {u'state': {u'target': [u'12', u'3'], u'time': [1612, 4052]}, u'edge': {u'target': [], u'time': []}}, u'mouseout': {u'state': {u'target': [], u'time': []}, u'edge': {u'target': [], u'time': []}}}",,,"[4933, 620, 676]",37.8,,345680,5.0,8.0,mouselab-mdp,,13
"[17391, 19193, 20873]","[u'left', u'left', u'down']",,,"[0, 0, 0]","[u'1', 4, 8, 15]","{u'mouseover': {u'state': {u'target': [], u'time': []}, u'edge': {u'target': [], u'time': []}}, u'click': {u'state': {u'target': [u'13', u'15'], u'time': [14439, 15557]}, u'edge': {u'target': [], u'time': []}}, u'mouseout': {u'state': {u'target': [], u'time': []}, u'edge': {u'target': [], u'time': []}}}",,,"[17391, 2, 926]",36.8,,397546,6.0,0.0,mouselab-mdp,,13
"[4062, 7537, 8707]","[u'right', u'right', u'up']",,,"[1, 0, 0]","[u'1', 2, 6, 10]","{u'mouseover': {u'state': {u'target': [], u'time': []}, u'edge': {u'target': [], u'time': []}}, u'click': {u'state': {u'target': [u'10'], u'time': [1477]}, u'edge': {u'target': [], u'time': []}}, u'mouseout': {u'state': {u'target': [], u'time': []}, u'edge': {u'target': [], u'time': []}}}",,,"[4061, 832, 430]",20.4,,460882,7.0,4.0,mouselab-mdp,,13
"[3457, 7642, 8998]","[u'up', u'up', u'left']",,,"[2, 0, 0]","[u'1', 3, 7, 12]","{u'mouseover': {u'state': {u'target': [], u'time': []}, u'edge': {u'target': [], u'time': []}}, u'click': {u'state': {u'target': [u'12'], u'time': [1173]}, u'edge': {u'target': [], u'time': []}}, u'mouseout': {u'state': {u'target': [], u'time': []}, u'edge': {u'target': [], u'time': []}}}",,,"[3457, 551, 606]",13.4,,533147,8.0,2.0,mouselab-mdp,,13
"[3171, 6256, 7395]","[u'left', u'left', u'up']",,,"[1, 0, 0]","[u'1', 4, 8, 14]","{u'mouseover': {u'state': {u'target': [], u'time': []}, u'edge': {u'target': [], u'time': []}}, u'click': {u'state': {u'target': [u'14', u'4'], u'time': [738, 2161]}, u'edge': {u'target': [], u'time': []}}, u'mouseout': {u'state': {u'target': [], u'time': []}, u'edge': {u'target': [], u'time': []}}}",,,"[3170, 274, 388]",6.8,,602687,9.0,6.0,mouselab-mdp,,13
"[9615, 13982, 15133]","[u'right', u'right', u'down']",,,"[2, 0, 0]","[u'1', 2, 6, 11]","{u'mouseover': {u'state': {u'target': [], u'time': []}, u'edge': {u'target': [], u'time': []}}, u'click': {u'state': {u'target': [u'14', u'11', u'17'], u'time': [1354, 2714, 5194]}, u'edge': {u'target': [], u'time': []}}, u'mouseout': {u'state': {u'target': [], u'time': []}, u'edge': {u'target': [], u'time': []}}}",,,"[9615, 400, 399]",-2.8,,653140,10.0,1.0,mouselab-mdp,,13
"[6662, 9033, 10252]","[u'up', u'up', u'right']",,,"[0, 0, 0]","[u'1', 3, 7, 13]","{u'mouseover': {u'state': {u'target': [], u'time': []}, u'edge': {u'target': [], u'time': []}}, u'click': {u'state': {u'target': [u'14', u'11', u'2', u'13', u'3'], u'time': [1046, 2118, 3454, 4358, 5870]}, u'edge': {u'target': [], u'time': []}}, u'mouseout': {u'state': {u'target': [], u'time': []}, u'edge': {u'target': [], u'time': []}}}",,,"[6661, 2, 465]",23.0,,712486,11.0,9.0,mouselab-mdp,,13
"[8384, 11729, 13008]","[u'left', u'left', u'up']",,,"[1, 0, 0]","[u'1', 4, 8, 14]","{u'mouseover': {u'state': {u'target': [], u'time': []}, u'edge': {u'target': [], u'time': []}}, u'click': {u'state': {u'target': [u'14', u'4', u'11'], u'time': [996, 2156, 4188]}, u'edge': {u'target': [], u'time': []}}, u'mouseout': {u'state': {u'target': [], u'time': []}, u'edge': {u'target': [], u'time': []}}}",,,"[8384, 308, 539]",17.2,,779858,12.0,7.0,mouselab-mdp,,13
"[2873, 30860, 44132]","[u'up', u'up', u'left']",,,"[5, 9, 0]","[u'1', 3, 7, 12]","{u'mouseover': {u'state': {u'target': [], u'time': []}, u'edge': {u'target': [], u'time': []}}, u'click': {u'state': {u'target': [u'7', u'4', u'2'], u'time': [14938, 16902, 19693]}, u'edge': {u'target': [], u'time': []}}, u'mouseout': {u'state': {u'target': [], u'time': []}, u'edge': {u'target': [], u'time': []}}}",,,"[2873, 19896, 2010]",-5.8,,403647,1.0,3.0,mouselab-mdp,,14
"[5528, 9458, 13561]","[u'down', u'down', u'left']",,,"[0, 0, 0]","[u'1', 5, 9, 16]","{u'mouseover': {u'state': {u'target': [], u'time': []}, u'edge': {u'target': [], u'time': []}}, u'click': {u'state': {u'target': [u'2', u'5'], u'time': [1986, 3472]}, u'edge': {u'target': [], u'time': []}}, u'mouseout': {u'state': {u'target': [], u'time': []}, u'edge': {u'target': [], u'time': []}}}",,,"[5528, 4, 2918]",42.8,,455856,2.0,1.0,mouselab-mdp,,14
"[2575, 6153, 9078]","[u'left', u'left', u'down']",,,"[0, 0, 0]","[u'1', 4, 8, 15]","{u'mouseover': {u'state': {u'target': [], u'time': []}, u'edge': {u'target': [], u'time': []}}, u'click': {u'state': {u'target': [u'4'], u'time': [1329]}, u'edge': {u'target': [], u'time': []}}, u'mouseout': {u'state': {u'target': [], u'time': []}, u'edge': {u'target': [], u'time': []}}}",,,"[2575, 4, 1737]",2.4,,526227,3.0,5.0,mouselab-mdp,,14
"[8565, 13024, 15983]","[u'down', u'down', u'right']",,,"[0, 0, 0]","[u'1', 5, 9, 17]","{u'mouseover': {u'state': {u'target': [], u'time': []}, u'edge': {u'target': [], u'time': []}}, u'click': {u'state': {u'target': [u'5', u'4', u'2', u'3'], u'time': [1062, 3414, 5333, 7283]}, u'edge': {u'target': [], u'time': []}}, u'mouseout': {u'state': {u'target': [], u'time': []}, u'edge': {u'target': [], u'time': []}}}",,,"[8565, 4, 1758]",-2.4,,589101,4.0,2.0,mouselab-mdp,,14
"[6128, 10018, 13110]","[u'up', u'up', u'right']",,,"[0, 0, 0]","[u'1', 3, 7, 13]","{u'mouseover': {u'state': {u'target': [], u'time': []}, u'edge': {u'target': [], u'time': []}}, u'click': {u'state': {u'target': [u'5', u'3'], u'time': [2719, 4316]}, u'edge': {u'target': [], u'time': []}}, u'mouseout': {u'state': {u'target': [], u'time': []}, u'edge': {u'target': [], u'time': []}}}",,,"[6128, 4, 1852]",27.8,,646635,5.0,9.0,mouselab-mdp,,14
"[6198, 12631, 14637]","[u'left', u'left', u'down']",,,"[2, 0, 0]","[u'1', 4, 8, 15]","{u'mouseover': {u'state': {u'target': [], u'time': []}, u'edge': {u'target': [], u'time': []}}, u'click': {u'state': {u'target': [u'2', u'4'], u'time': [1806, 3970]}, u'edge': {u'target': [], u'time': []}}, u'mouseout': {u'state': {u'target': [], u'time': []}, u'edge': {u'target': [], u'time': []}}}",,,"[6197, 636, 843]",2.8,,700320,6.0,6.0,mouselab-mdp,,14
"[3325, 6807, 8015]","[u'down', u'down', u'left']",,,"[0, 0, 0]","[u'1', 5, 9, 16]","{u'mouseover': {u'state': {u'target': [], u'time': []}, u'edge': {u'target': [], u'time': []}}, u'click': {u'state': {u'target': [u'5'], u'time': [2037]}, u'edge': {u'target': [], u'time': []}}, u'mouseout': {u'state': {u'target': [], u'time': []}, u'edge': {u'target': [], u'time': []}}}",,,"[3325, 3, 63]",12.4,,749406,7.0,4.0,mouselab-mdp,,14
"[5727, 9507, 10756]","[u'up', u'up', u'right']",,,"[0, 0, 0]","[u'1', 3, 7, 13]","{u'mouseover': {u'state': {u'target': [], u'time': []}, u'edge': {u'target': [], u'time': []}}, u'click': {u'state': {u'target': [u'2', u'3'], u'time': [2590, 4465]}, u'edge': {u'target': [], u'time': []}}, u'mouseout': {u'state': {u'target': [], u'time': []}, u'edge': {u'target': [], u'time': []}}}",,,"[5727, 3, 85]",31.8,,800696,8.0,8.0,mouselab-mdp,,14
"[10743, 15143, 16305]","[u'right', u'right', u'up']",,,"[0, 0, 0]","[u'1', 2, 6, 10]","{u'mouseover': {u'state': {u'target': [], u'time': []}, u'edge': {u'target': [], u'time': []}}, u'click': {u'state': {u'target': [u'5', u'4', u'2', u'3'], u'time': [2865, 4840, 7141, 9063]}, u'edge': {u'target': [], u'time': []}}, u'mouseout': {u'state': {u'target': [], u'time': []}, u'edge': {u'target': [], u'time': []}}}",,,"[10743, 2, 3]",15.6,,851939,9.0,10.0,mouselab-mdp,,14
"[2705, 6175, 8831]","[u'down', u'down', u'left']",,,"[0, 0, 0]","[u'1', 5, 9, 16]","{u'mouseover': {u'state': {u'target': [], u'time': []}, u'edge': {u'target': [], u'time': []}}, u'click': {u'state': {u'target': [u'5'], u'time': [1584]}, u'edge': {u'target': [], u'time': []}}, u'mouseout': {u'state': {u'target': [], u'time': []}, u'edge': {u'target': [], u'time': []}}}",,,"[2705, 3, 1453]",2.4,,904426,10.0,0.0,mouselab-mdp,,14
"[3638, 8094, 9571]","[u'up', u'up', u'right']",,,"[1, 0, 0]","[u'1', 3, 7, 13]","{u'mouseover': {u'state': {u'target': [], u'time': []}, u'edge': {u'target': [], u'time': []}}, u'click': {u'state': {u'target': [u'3'], u'time': [1985]}, u'edge': {u'target': [], u'time': []}}, u'mouseout': {u'state': {u'target': [], u'time': []}, u'edge': {u'target': [], u'time': []}}}",,,"[3636, 23, 341]",3.4,,959485,11.0,7.0,mouselab-mdp,,14
"[7746, 13711, 16160]","[u'right', u'right', u'down']",,,"[1, 0, 0]","[u'1', 2, 6, 11]","{u'mouseover': {u'state': {u'target': [], u'time': []}, u'edge': {u'target': [], u'time': []}}, u'click': {u'state': {u'target': [u'5', u'3', u'2', u'4'], u'time': [905, 4701, 5772, 6708]}, u'edge': {u'target': [], u'time': []}}, u'mouseout': {u'state': {u'target': [], u'time': []}, u'edge': {u'target': [], u'time': []}}}",,,"[7745, 617, 1271]",31.6,,1012474,12.0,11.0,mouselab-mdp,,14
"[31821, 59697, 71895]","[u'right', u'right', u'up']",,,"[3, 0, 0]","[u'1', 2, 6, 10]","{u'mouseover': {u'state': {u'target': [], u'time': []}, u'edge': {u'target': [], u'time': []}}, u'click': {u'state': {u'target': [u'2', u'4', u'6', u'10', u'11'], u'time': [5974, 19665, 66085, 68313, 70273]}, u'edge': {u'target': [], u'time': []}}, u'mouseout': {u'state': {u'target': [], u'time': []}, u'edge': {u'target': [], u'time': []}}}",,,"[31820, 5512, 8687]",14.0,,488692,1.0,10.0,mouselab-mdp,,15
"[10487, 29548, 38696]","[u'right', u'right', u'up']",,,"[1, 0, 0]","[u'1', 2, 6, 10]","{u'mouseover': {u'state': {u'target': [], u'time': []}, u'edge': {u'target': [], u'time': []}}, u'click': {u'state': {u'target': [u'2', u'6', u'10', u'11'], u'time': [4469, 9596, 33661, 35419]}, u'edge': {u'target': [], u'time': []}}, u'mouseout': {u'state': {u'target': [], u'time': []}, u'edge': {u'target': [], u'time': []}}}",,,"[10487, 1742, 5091]",1.6,,569036,2.0,7.0,mouselab-mdp,,15
"[17487, 41881, 51892]","[u'down', u'down', u'left']",,,"[0, 3, 0]","[u'1', 5, 9, 16]","{u'mouseover': {u'state': {u'target': [], u'time': []}, u'edge': {u'target': [], u'time': []}}, u'click': {u'state': {u'target': [u'10', u'12', u'14', u'16', u'5', u'9'], u'time': [6860, 8278, 9411, 12262, 15830, 39256]}, u'edge': {u'target': [], u'time': []}}, u'mouseout': {u'state': {u'target': [], u'time': []}, u'edge': {u'target': [], u'time': []}}}",,,"[17487, 2644, 1593]",36.4,,650677,3.0,1.0,mouselab-mdp,,15
"[25708, 54780, 56491]","[u'down', u'down', u'right']",,,"[3, 0, 0]","[u'1', 5, 9, 17]","{u'mouseover': {u'state': {u'target': [], u'time': []}, u'edge': {u'target': [], u'time': []}}, u'click': {u'state': {u'target': [u'10', u'12', u'14', u'16', u'3', u'7', u'13', u'2', u'5', u'9', u'17'], u'time': [5873, 7468, 8469, 9391, 12601, 13996, 15268, 20823, 21877, 23131, 23922]}, u'edge': {u'target': [], u'time': []}}, u'mouseout': {u'state': {u'target': [], u'time': []}, u'edge': {u'target': [], u'time': []}}}",,,"[25707, 900, 13]",24.4,,728995,4.0,4.0,mouselab-mdp,,15
"[14599, 48897, 52153]","[u'up', u'up', u'left']",,,"[7, 0, 0]","[u'1', 3, 7, 12]","{u'mouseover': {u'state': {u'target': [], u'time': []}, u'edge': {u'target': [], u'time': []}}, u'click': {u'state': {u'target': [u'10', u'12', u'14', u'16', u'17', u'3', u'7', u'2'], u'time': [2897, 4457, 5314, 6384, 7572, 9550, 10576, 12590]}, u'edge': {u'target': [], u'time': []}}, u'mouseout': {u'state': {u'target': [], u'time': []}, u'edge': {u'target': [], u'time': []}}}",,,"[14599, 888, 43]",28.2,,816579,5.0,8.0,mouselab-mdp,,15
"[10887, 34230, 38783]","[u'right', u'right', u'up']",,,"[4, 0, 0]","[u'1', 2, 6, 10]","{u'mouseover': {u'state': {u'target': [], u'time': []}, u'edge': {u'target': [], u'time': []}}, u'click': {u'state': {u'target': [u'10', u'2', u'6'], u'time': [3258, 6016, 8316]}, u'edge': {u'target': [], u'time': []}}, u'mouseout': {u'state': {u'target': [], u'time': []}, u'edge': {u'target': [], u'time': []}}}",,,"[10887, 1175, 55]",29.2,,894264,6.0,3.0,mouselab-mdp,,15
"[17068, 40174, 47174]","[u'right', u'right', u'down']",,,"[0, 0, 0]","[u'1', 2, 6, 11]","{u'mouseover': {u'state': {u'target': [], u'time': []}, u'edge': {u'target': [], u'time': []}}, u'click': {u'state': {u'target': [u'4', u'10', u'12', u'13', u'11', u'6', u'2'], u'time': [2844, 6502, 7819, 8872, 10005, 12155, 14156]}, u'edge': {u'target': [], u'time': []}}, u'mouseout': {u'state': {u'target': [], u'time': []}, u'edge': {u'target': [], u'time': []}}}",,,"[17068, 13, 3629]",26.8,,985450,7.0,6.0,mouselab-mdp,,15
"[17454, 42182, 44996]","[u'up', u'up', u'left']",,,"[0, 0, 0]","[u'1', 3, 7, 12]","{u'mouseover': {u'state': {u'target': [], u'time': []}, u'edge': {u'target': [], u'time': []}}, u'click': {u'state': {u'target': [u'10', u'13', u'12', u'14', u'15', u'16', u'17', u'11', u'7', u'3'], u'time': [4167, 6231, 7246, 8861, 9905, 11041, 11777, 13117, 15054, 15781]}, u'edge': {u'target': [], u'time': []}}, u'mouseout': {u'state': {u'target': [], u'time': []}, u'edge': {u'target': [], u'time': []}}}",,,"[17454, 16, 857]",21.0,,1059957,8.0,9.0,mouselab-mdp,,15
"[12362, 37120, 39914]","[u'right', u'right', u'up']",,,"[7, 0, 0]","[u'1', 2, 6, 10]","{u'mouseover': {u'state': {u'target': [], u'time': []}, u'edge': {u'target': [], u'time': []}}, u'click': {u'state': {u'target': [u'10', u'6', u'2', u'11'], u'time': [1825, 5546, 9155, 10644]}, u'edge': {u'target': [], u'time': []}}, u'mouseout': {u'state': {u'target': [], u'time': []}, u'edge': {u'target': [], u'time': []}}}",,,"[12362, 1233, 10]",27.6,,1145280,9.0,2.0,mouselab-mdp,,15
"[25749, 69935, 71312]","[u'left', u'left', u'up']",,,"[13, 0, 0]","[u'1', 4, 8, 14]","{u'mouseover': {u'state': {u'target': [], u'time': []}, u'edge': {u'target': [], u'time': []}}, u'click': {u'state': {u'target': [u'13', u'12', u'15', u'14', u'8', u'4', u'10', u'11', u'17', u'16', u'5', u'9', u'2'], u'time': [2305, 4065, 5299, 6360, 7799, 8644, 12191, 13065, 14000, 14802, 16860, 17615, 21657]}, u'edge': {u'target': [], u'time': []}}, u'mouseout': {u'state': {u'target': [], u'time': []}, u'edge': {u'target': [], u'time': []}}}",,,"[25749, 1573, 14]",13.2,,1238061,10.0,5.0,mouselab-mdp,,15
"[14081, 37418, 40734]","[u'left', u'left', u'up']",,,"[1, 0, 0]","[u'1', 4, 8, 14]","{u'mouseover': {u'state': {u'target': [], u'time': []}, u'edge': {u'target': [], u'time': []}}, u'click': {u'state': {u'target': [u'10', u'12', u'13', u'14', u'15', u'4', u'8'], u'time': [2387, 4800, 5843, 6906, 9111, 12094, 12770]}, u'edge': {u'target': [], u'time': []}}, u'mouseout': {u'state': {u'target': [], u'time': []}, u'edge': {u'target': [], u'time': []}}}",,,"[14081, 797, 1219]",28.8,,1320990,11.0,0.0,mouselab-mdp,,15
"[18303, 42679, 48816]","[u'right', u'right', u'down']",,,"[0, 0, 0]","[u'1', 2, 6, 11]","{u'mouseover': {u'state': {u'target': [], u'time': []}, u'edge': {u'target': [], u'time': []}}, u'click': {u'state': {u'target': [u'10', u'13', u'12', u'14', u'17', u'16', u'15', u'11'], u'time': [3626, 4866, 5745, 6825, 8411, 9360, 10434, 12753]}, u'edge': {u'target': [], u'time': []}}, u'mouseout': {u'state': {u'target': [], u'time': []}, u'edge': {u'target': [], u'time': []}}}",,,"[18303, 50, 3870]",25.2,,1397471,12.0,11.0,mouselab-mdp,,15
"[7629, 13372, 27157]","[u'up', u'up', u'right']",,,"[1, 0, 0]","[u'1', 3, 7, 13]","{u'mouseover': {u'state': {u'target': [], u'time': []}, u'edge': {u'target': [], u'time': []}}, u'click': {u'state': {u'target': [u'3', u'7', u'13', u'12'], u'time': [2488, 5451, 24889, 25886]}, u'edge': {u'target': [], u'time': []}}, u'mouseout': {u'state': {u'target': [], u'time': []}, u'edge': {u'target': [], u'time': []}}}",,,"[7629, 2195, 12880]",8.6,,177428,1.0,0.0,mouselab-mdp,,16
"[3897, 15243, 67883]","[u'right', u'right', u'up']",,,"[0, 3, 6]","[u'1', 2, 6, 10]","{u'mouseover': {u'state': {u'target': [], u'time': []}, u'edge': {u'target': [], u'time': []}}, u'click': {u'state': {u'target': [u'2', u'6', u'11', u'10'], u'time': [1621, 14083, 53217, 54096]}, u'edge': {u'target': [], u'time': []}}, u'mouseout': {u'state': {u'target': [], u'time': []}, u'edge': {u'target': [], u'time': []}}}",,,"[3897, 8927, 48417]",1.6,,281533,2.0,7.0,mouselab-mdp,,16
"[3581, 8782, 13093]","[u'down', u'down', u'left']",,,"[0, 0, 0]","[u'1', 5, 9, 16]","{u'mouseover': {u'state': {u'target': [], u'time': []}, u'edge': {u'target': [], u'time': []}}, u'click': {u'state': {u'target': [u'5', u'17', u'16'], u'time': [1561, 11257, 12025]}, u'edge': {u'target': [], u'time': []}}, u'mouseout': {u'state': {u'target': [], u'time': []}, u'edge': {u'target': [], u'time': []}}}",,,"[3580, 2455, 3312]",11.2,,365415,3.0,5.0,mouselab-mdp,,16
"[4673, 9857, 26167]","[u'left', u'left', u'up']",,,"[1, 0, 0]","[u'1', 4, 8, 14]","{u'mouseover': {u'state': {u'target': [], u'time': []}, u'edge': {u'target': [], u'time': []}}, u'click': {u'state': {u'target': [u'4', u'14', u'15'], u'time': [2636, 12228, 13133]}, u'edge': {u'target': [], u'time': []}}, u'mouseout': {u'state': {u'target': [], u'time': []}, u'edge': {u'target': [], u'time': []}}}",,,"[4671, 1428, 15313]",5.2,,493092,4.0,2.0,mouselab-mdp,,16
"[8374, 14276, 16060]","[u'up', u'up', u'right']",,,"[2, 0, 0]","[u'1', 3, 7, 13]","{u'mouseover': {u'state': {u'target': [], u'time': []}, u'edge': {u'target': [], u'time': []}}, u'click': {u'state': {u'target': [u'3', u'13'], u'time': [2728, 7093]}, u'edge': {u'target': [], u'time': []}}, u'mouseout': {u'state': {u'target': [], u'time': []}, u'edge': {u'target': [], u'time': []}}}",,,"[8373, 630, 782]",31.8,,604792,5.0,8.0,mouselab-mdp,,16
"[4979, 9643, 13603]","[u'right', u'right', u'up']",,,"[1, 0, 5]","[u'1', 2, 6, 10]","{u'mouseover': {u'state': {u'target': [], u'time': []}, u'edge': {u'target': [], u'time': []}}, u'click': {u'state': {u'target': [u'5', u'2', u'11', u'10'], u'time': [1688, 3593, 11636, 12515]}, u'edge': {u'target': [], u'time': []}}, u'mouseout': {u'state': {u'target': [], u'time': []}, u'edge': {u'target': [], u'time': []}}}",,,"[4978, 539, 2917]",15.6,,685970,6.0,10.0,mouselab-mdp,,16
"[10302, 20744, 21690]","[u'left', u'left', u'up']",,,"[7, 0, 0]","[u'1', 4, 8, 14]","{u'mouseover': {u'state': {u'target': [], u'time': []}, u'edge': {u'target': [], u'time': []}}, u'click': {u'state': {u'target': [u'4', u'8', u'14'], u'time': [2450, 6753, 9148]}, u'edge': {u'target': [], u'time': []}}, u'mouseout': {u'state': {u'target': [], u'time': []}, u'edge': {u'target': [], u'time': []}}}",,,"[10301, 422, 20]",5.2,,755755,7.0,6.0,mouselab-mdp,,16
"[4961, 18813, 26760]","[u'up', u'up', u'right']",,,"[0, 6, 0]","[u'1', 3, 7, 13]","{u'mouseover': {u'state': {u'target': [], u'time': []}, u'edge': {u'target': [], u'time': []}}, u'click': {u'state': {u'target': [u'3', u'13', u'12'], u'time': [3309, 12888, 14215]}, u'edge': {u'target': [], u'time': []}}, u'mouseout': {u'state': {u'target': [], u'time': []}, u'edge': {u'target': [], u'time': []}}}",,,"[4961, 11294, 474]",16.2,,812017,8.0,1.0,mouselab-mdp,,16
"[7343, 11596, 13355]","[u'down', u'down', u'right']",,,"[1, 0, 0]","[u'1', 5, 9, 17]","{u'mouseover': {u'state': {u'target': [], u'time': []}, u'edge': {u'target': [], u'time': []}}, u'click': {u'state': {u'target': [u'5', u'17'], u'time': [4194, 5744]}, u'edge': {u'target': [], u'time': []}}, u'mouseout': {u'state': {u'target': [], u'time': []}, u'edge': {u'target': [], u'time': []}}}",,,"[7342, 538, 857]",38.8,,871808,9.0,4.0,mouselab-mdp,,16
"[6014, 10582, 12093]","[u'left', u'left', u'up']",,,"[1, 0, 0]","[u'1', 4, 8, 14]","{u'mouseover': {u'state': {u'target': [], u'time': []}, u'edge': {u'target': [], u'time': []}}, u'click': {u'state': {u'target': [u'4', u'14'], u'time': [2699, 4056]}, u'edge': {u'target': [], u'time': []}}, u'mouseout': {u'state': {u'target': [], u'time': []}, u'edge': {u'target': [], u'time': []}}}",,,"[6013, 866, 615]",12.8,,928310,10.0,11.0,mouselab-mdp,,16
"[4623, 9834, 11322]","[u'up', u'up', u'right']",,,"[2, 0, 0]","[u'1', 3, 7, 13]","{u'mouseover': {u'state': {u'target': [], u'time': []}, u'edge': {u'target': [], u'time': []}}, u'click': {u'state': {u'target': [u'3', u'13'], u'time': [1818, 3253]}, u'edge': {u'target': [], u'time': []}}, u'mouseout': {u'state': {u'target': [], u'time': []}, u'edge': {u'target': [], u'time': []}}}",,,"[4623, 459, 581]",27.8,,980032,11.0,9.0,mouselab-mdp,,16
"[6477, 9678, 11045]","[u'up', u'up', u'right']",,,"[0, 0, 0]","[u'1', 3, 7, 13]","{u'mouseover': {u'state': {u'target': [], u'time': []}, u'edge': {u'target': [], u'time': []}}, u'click': {u'state': {u'target': [u'3', u'12', u'13'], u'time': [2510, 3633, 5441]}, u'edge': {u'target': [], u'time': []}}, u'mouseout': {u'state': {u'target': [], u'time': []}, u'edge': {u'target': [], u'time': []}}}",,,"[6477, 375, 524]",0.2,,1060094,12.0,3.0,mouselab-mdp,,16
"[3670, 11157, 12885]","[u'up', u'up', u'left']",,,"[5, 0, 1]","[u'1', 3, 7, 12]","{u'mouseover': {u'state': {u'target': [], u'time': []}, u'edge': {u'target': [], u'time': []}}, u'click': {u'state': {u'target': [], u'time': []}, u'edge': {u'target': [], u'time': []}}, u'mouseout': {u'state': {u'target': [], u'time': []}, u'edge': {u'target': [], u'time': []}}}",,,"[3668, 450, 809]",23.0,,299255,1.0,4.0,mouselab-mdp,,17
"[726, 8414, 10157]","[u'right', u'right', u'down']",,,"[5, 0, 1]","[u'1', 2, 6, 11]","{u'mouseover': {u'state': {u'target': [], u'time': []}, u'edge': {u'target': [], u'time': []}}, u'click': {u'state': {u'target': [], u'time': []}, u'edge': {u'target': [], u'time': []}}, u'mouseout': {u'state': {u'target': [], u'time': []}, u'edge': {u'target': [], u'time': []}}}",,,"[726, 407, 849]",18.0,,365734,2.0,8.0,mouselab-mdp,,17
"[549, 8030, 10543]","[u'down', u'down', u'left']",,,"[5, 0, 1]","[u'1', 5, 9, 16]","{u'mouseover': {u'state': {u'target': [], u'time': []}, u'edge': {u'target': [], u'time': []}}, u'click': {u'state': {u'target': [], u'time': []}, u'edge': {u'target': [], u'time': []}}, u'mouseout': {u'state': {u'target': [], u'time': []}, u'edge': {u'target': [], u'time': []}}}",,,"[549, 448, 1572]",16.0,,443970,3.0,5.0,mouselab-mdp,,17
"[665, 8482, 10422]","[u'up', u'up', u'left']",,,"[5, 0, 1]","[u'1', 3, 7, 12]","{u'mouseover': {u'state': {u'target': [], u'time': []}, u'edge': {u'target': [], u'time': []}}, u'click': {u'state': {u'target': [], u'time': []}, u'edge': {u'target': [], u'time': []}}, u'mouseout': {u'state': {u'target': [], u'time': []}, u'edge': {u'target': [], u'time': []}}}",,,"[664, 798, 1039]",3.0,,510116,4.0,10.0,mouselab-mdp,,17
"[1576, 12839, 15462]","[u'left', u'left', u'down']",,,"[5, 0, 1]","[u'1', 4, 8, 15]","{u'mouseover': {u'state': {u'target': [], u'time': []}, u'edge': {u'target': [], u'time': []}}, u'click': {u'state': {u'target': [], u'time': []}, u'edge': {u'target': [], u'time': []}}, u'mouseout': {u'state': {u'target': [], u'time': []}, u'edge': {u'target': [], u'time': []}}}",,,"[1576, 4292, 1727]",14.0,,596844,5.0,1.0,mouselab-mdp,,17
"[2169, 9739, 13216]","[u'left', u'left', u'up']",,,"[5, 0, 1]","[u'1', 4, 8, 14]","{u'mouseover': {u'state': {u'target': [], u'time': []}, u'edge': {u'target': [], u'time': []}}, u'click': {u'state': {u'target': [], u'time': []}, u'edge': {u'target': [], u'time': []}}, u'mouseout': {u'state': {u'target': [], u'time': []}, u'edge': {u'target': [], u'time': []}}}",,,"[2169, 549, 2438]",40.0,,655562,6.0,0.0,mouselab-mdp,,17
"[1861, 9549, 14084]","[u'left', u'left', u'up']",,,"[5, 0, 1]","[u'1', 4, 8, 14]","{u'mouseover': {u'state': {u'target': [], u'time': []}, u'edge': {u'target': [], u'time': []}}, u'click': {u'state': {u'target': [], u'time': []}, u'edge': {u'target': [], u'time': []}}, u'mouseout': {u'state': {u'target': [], u'time': []}, u'edge': {u'target': [], u'time': []}}}",,,"[1861, 653, 3615]",8.0,,711931,7.0,9.0,mouselab-mdp,,17
"[1354, 8948, 11243]","[u'down', u'down', u'left']",,,"[5, 0, 1]","[u'1', 5, 9, 16]","{u'mouseover': {u'state': {u'target': [], u'time': []}, u'edge': {u'target': [], u'time': []}}, u'click': {u'state': {u'target': [], u'time': []}, u'edge': {u'target': [], u'time': []}}, u'mouseout': {u'state': {u'target': [], u'time': []}, u'edge': {u'target': [], u'time': []}}}",,,"[1353, 591, 1420]",34.0,,768033,8.0,7.0,mouselab-mdp,,17
"[1138, 8905, 10651]","[u'down', u'down', u'right']",,,"[5, 0, 1]","[u'1', 5, 9, 17]","{u'mouseover': {u'state': {u'target': [], u'time': []}, u'edge': {u'target': [], u'time': []}}, u'click': {u'state': {u'target': [], u'time': []}, u'edge': {u'target': [], u'time': []}}, u'mouseout': {u'state': {u'target': [], u'time': []}, u'edge': {u'target': [], u'time': []}}}",,,"[1138, 731, 846]",18.0,,823642,9.0,11.0,mouselab-mdp,,17
"[1057, 8616, 10944]","[u'down', u'down', u'left']",,,"[5, 0, 1]","[u'1', 5, 9, 16]","{u'mouseover': {u'state': {u'target': [], u'time': []}, u'edge': {u'target': [], u'time': []}}, u'click': {u'state': {u'target': [], u'time': []}, u'edge': {u'target': [], u'time': []}}, u'mouseout': {u'state': {u'target': [], u'time': []}, u'edge': {u'target': [], u'time': []}}}",,,"[1057, 552, 1294]",4.0,,879897,10.0,2.0,mouselab-mdp,,17
"[1044, 8724, 11061]","[u'up', u'up', u'left']",,,"[5, 0, 1]","[u'1', 3, 7, 12]","{u'mouseover': {u'state': {u'target': [], u'time': []}, u'edge': {u'target': [], u'time': []}}, u'click': {u'state': {u'target': [], u'time': []}, u'edge': {u'target': [], u'time': []}}, u'mouseout': {u'state': {u'target': [], u'time': []}, u'edge': {u'target': [], u'time': []}}}",,,"[1044, 645, 1420]",5.0,,935444,11.0,6.0,mouselab-mdp,,17
"[493, 7967, 9535]","[u'left', u'left', u'up']",,,"[5, 0, 1]","[u'1', 4, 8, 14]","{u'mouseover': {u'state': {u'target': [], u'time': []}, u'edge': {u'target': [], u'time': []}}, u'click': {u'state': {u'target': [], u'time': []}, u'edge': {u'target': [], u'time': []}}, u'mouseout': {u'state': {u'target': [], u'time': []}, u'edge': {u'target': [], u'time': []}}}",,,"[493, 478, 637]",4.0,,995090,12.0,3.0,mouselab-mdp,,17
"[1586, 9400, 11512]","[u'left', u'left', u'up']",,,"[5, 0, 1]","[u'1', 4, 8, 14]","{u'mouseover': {u'state': {u'target': [], u'time': []}, u'edge': {u'target': [], u'time': []}}, u'click': {u'state': {u'target': [], u'time': []}, u'edge': {u'target': [], u'time': []}}, u'mouseout': {u'state': {u'target': [], u'time': []}, u'edge': {u'target': [], u'time': []}}}",,,"[1585, 1212, 1318]",16.0,,97052,1.0,11.0,mouselab-mdp,,18
"[1638, 11293, 13661]","[u'right', u'right', u'down']",,,"[5, 0, 1]","[u'1', 2, 6, 11]","{u'mouseover': {u'state': {u'target': [], u'time': []}, u'edge': {u'target': [], u'time': []}}, u'click': {u'state': {u'target': [], u'time': []}, u'edge': {u'target': [], u'time': []}}, u'mouseout': {u'state': {u'target': [], u'time': []}, u'edge': {u'target': [], u'time': []}}}",,,"[1638, 2869, 1494]",16.0,,158507,2.0,9.0,mouselab-mdp,,18
"[1771, 11578, 20138]","[u'up', u'up', u'left']",,,"[5, 0, 1]","[u'1', 3, 7, 12]","{u'mouseover': {u'state': {u'target': [], u'time': []}, u'edge': {u'target': [], u'time': []}}, u'click': {u'state': {u'target': [], u'time': []}, u'edge': {u'target': [], u'time': []}}, u'mouseout': {u'state': {u'target': [], u'time': []}, u'edge': {u'target': [], u'time': []}}}",,,"[1771, 3063, 7728]",-1.0,,218532,3.0,3.0,mouselab-mdp,,18
"[896, 9208, 11599]","[u'down', u'down', u'right']",,,"[5, 0, 1]","[u'1', 5, 9, 17]","{u'mouseover': {u'state': {u'target': [], u'time': []}, u'edge': {u'target': [], u'time': []}}, u'click': {u'state': {u'target': [], u'time': []}, u'edge': {u'target': [], u'time': []}}, u'mouseout': {u'state': {u'target': [], u'time': []}, u'edge': {u'target': [], u'time': []}}}",,,"[895, 1636, 1558]",14.0,,289723,4.0,5.0,mouselab-mdp,,18
"[829, 8438, 10046]","[u'down', u'down', u'right']",,,"[5, 0, 1]","[u'1', 5, 9, 17]","{u'mouseover': {u'state': {u'target': [], u'time': []}, u'edge': {u'target': [], u'time': []}}, u'click': {u'state': {u'target': [], u'time': []}, u'edge': {u'target': [], u'time': []}}, u'mouseout': {u'state': {u'target': [], u'time': []}, u'edge': {u'target': [], u'time': []}}}",,,"[829, 943, 762]",10.0,,347027,5.0,1.0,mouselab-mdp,,18
"[1077, 8124, 10212]","[u'right', u'right', u'up']",,,"[5, 0, 1]","[u'1', 2, 6, 10]","{u'mouseover': {u'state': {u'target': [], u'time': []}, u'edge': {u'target': [], u'time': []}}, u'click': {u'state': {u'target': [], u'time': []}, u'edge': {u'target': [], u'time': []}}, u'mouseout': {u'state': {u'target': [], u'time': []}, u'edge': {u'target': [], u'time': []}}}",,,"[1077, 393, 1238]",8.0,,417700,6.0,7.0,mouselab-mdp,,18
"[886, 8590, 10910]","[u'up', u'up', u'left']",,,"[5, 0, 1]","[u'1', 3, 7, 12]","{u'mouseover': {u'state': {u'target': [], u'time': []}, u'edge': {u'target': [], u'time': []}}, u'click': {u'state': {u'target': [], u'time': []}, u'edge': {u'target': [], u'time': []}}, u'mouseout': {u'state': {u'target': [], u'time': []}, u'edge': {u'target': [], u'time': []}}}",,,"[886, 989, 1502]",3.0,,485739,7.0,10.0,mouselab-mdp,,18
"[4774, 17438, 22630]","[u'up', u'up', u'right']",,,"[5, 0, 1]","[u'1', 3, 7, 13]","{u'mouseover': {u'state': {u'target': [], u'time': []}, u'edge': {u'target': [], u'time': []}}, u'click': {u'state': {u'target': [], u'time': []}, u'edge': {u'target': [], u'time': []}}, u'mouseout': {u'state': {u'target': [], u'time': []}, u'edge': {u'target': [], u'time': []}}}",,,"[4774, 5980, 4351]",13.0,,545829,8.0,4.0,mouselab-mdp,,18
"[2085, 9557, 13342]","[u'left', u'left', u'up']",,,"[5, 0, 1]","[u'1', 4, 8, 14]","{u'mouseover': {u'state': {u'target': [], u'time': []}, u'edge': {u'target': [], u'time': []}}, u'click': {u'state': {u'target': [], u'time': []}, u'edge': {u'target': [], u'time': []}}, u'mouseout': {u'state': {u'target': [], u'time': []}, u'edge': {u'target': [], u'time': []}}}",,,"[2085, 781, 2935]",10.0,,605308,9.0,2.0,mouselab-mdp,,18
"[1288, 9600, 13177]","[u'down', u'down', u'left']",,,"[5, 0, 1]","[u'1', 5, 9, 16]","{u'mouseover': {u'state': {u'target': [], u'time': []}, u'edge': {u'target': [], u'time': []}}, u'click': {u'state': {u'target': [], u'time': []}, u'edge': {u'target': [], u'time': []}}, u'mouseout': {u'state': {u'target': [], u'time': []}, u'edge': {u'target': [], u'time': []}}}",,,"[1288, 1619, 2738]",4.0,,661157,10.0,0.0,mouselab-mdp,,18
"[1906, 9490, 12426]","[u'down', u'down', u'right']",,,"[5, 0, 1]","[u'1', 5, 9, 17]","{u'mouseover': {u'state': {u'target': [], u'time': []}, u'edge': {u'target': [], u'time': []}}, u'click': {u'state': {u'target': [], u'time': []}, u'edge': {u'target': [], u'time': []}}, u'mouseout': {u'state': {u'target': [], u'time': []}, u'edge': {u'target': [], u'time': []}}}",,,"[1906, 952, 2122]",8.0,,719907,11.0,6.0,mouselab-mdp,,18
"[1441, 8833, 14921]","[u'up', u'up', u'right']",,,"[5, 0, 1]","[u'1', 3, 7, 13]","{u'mouseover': {u'state': {u'target': [], u'time': []}, u'edge': {u'target': [], u'time': []}}, u'click': {u'state': {u'target': [], u'time': []}, u'edge': {u'target': [], u'time': []}}, u'mouseout': {u'state': {u'target': [], u'time': []}, u'edge': {u'target': [], u'time': []}}}",,,"[1440, 663, 5227]",35.0,,779996,12.0,8.0,mouselab-mdp,,18
"[18719, 27109, 27932]","[u'down', u'down', u'left']",,,"[4, 0, 0]","[u'1', 5, 9, 16]","{u'mouseover': {u'state': {u'target': [], u'time': []}, u'edge': {u'target': [], u'time': []}}, u'click': {u'state': {u'target': [u'2', u'5', u'3', u'4', u'9', u'7', u'13', u'16'], u'time': [4074, 6362, 7490, 8127, 12836, 13551, 15377, 17379]}, u'edge': {u'target': [], u'time': []}}, u'mouseout': {u'state': {u'target': [], u'time': []}, u'edge': {u'target': [], u'time': []}}}",,,"[18718, 1212, 14]",33.2,,167629,1.0,1.0,mouselab-mdp,,20
"[12471, 20710, 22486]","[u'left', u'left', u'up']",,,"[5, 0, 0]","[u'1', 4, 8, 14]","{u'mouseover': {u'state': {u'target': [], u'time': []}, u'edge': {u'target': [], u'time': []}}, u'click': {u'state': {u'target': [u'4', u'5', u'3', u'9', u'8', u'7', u'14'], u'time': [1252, 2037, 2996, 7415, 8159, 9001, 11385]}, u'edge': {u'target': [], u'time': []}}, u'mouseout': {u'state': {u'target': [], u'time': []}, u'edge': {u'target': [], u'time': []}}}",,,"[12471, 564, 966]",22.8,,228586,2.0,5.0,mouselab-mdp,,20
