action_times,actions,button_pressed,correct,delays,path,queries,questions,responses,rt,score,stimulus,time_elapsed,trial_index,trial_i,trial_type,view_history,pid
,,,"[True, True, True, True, True]",,,,"[""True or false: The hidden values will change each time I start a new round."",""How much does it cost to observe each hidden value?"",""How many hidden values am I allowed to observe in each round?"",""How is your bonus determined?"",""What does the feedback teach you?""]","[""True"",""$1.60"",""As many or as few as I wish"",""5% of my score on a random round"",""All of the above.""]",69893,,,269283,,,survey-multi-choice,,0
,,,"[True, True, True, False]",,,,"[""True or false: The hidden values will change each time I start a new round."",""How much does it cost to observe each hidden value?"",""How many hidden values am I allowed to observe in each round?"",""How is your bonus determined?""]","[""True"",""$1.60"",""As many or as few as I wish"",""5% of my best score on any round""]",16925,,,200342,,,survey-multi-choice,,1
,,,"[True, True, True, True]",,,,"[""True or false: The hidden values will change each time I start a new round."",""How much does it cost to observe each hidden value?"",""How many hidden values am I allowed to observe in each round?"",""How is your bonus determined?""]","[""True"",""$1.60"",""As many or as few as I wish"",""5% of my score on a random round""]",5787,,,258028,,,survey-multi-choice,,1
,,,"[True, True, False, False]",,,,"[""True or false: The hidden values will change each time I start a new round."",""How much does it cost to observe each hidden value?"",""How many hidden values am I allowed to observe in each round?"",""How is your bonus determined?""]","[""True"",""$1.60"",""At most 1"",""10% of my total score on all rounds""]",22433,,,42897,,,survey-multi-choice,,2
,,,"[True, True, True, True]",,,,"[""True or false: The hidden values will change each time I start a new round."",""How much does it cost to observe each hidden value?"",""How many hidden values am I allowed to observe in each round?"",""How is your bonus determined?""]","[""True"",""$1.60"",""As many or as few as I wish"",""5% of my score on a random round""]",56434,,,146416,,,survey-multi-choice,,2
,,,"[True, True, True, True, True]",,,,"[""True or false: The hidden values will change each time I start a new round."",""How much does it cost to observe each hidden value?"",""How many hidden values am I allowed to observe in each round?"",""How is your bonus determined?"",""What does the feedback teach you?""]","[""True"",""$1.60"",""As many or as few as I wish"",""5% of my score on a random round"",""All of the above.""]",45210,,,287227,,,survey-multi-choice,,3
,,,"[True, False, False, False, True]",,,,"[""True or false: The hidden values will change each time I start a new round."",""How much does it cost to observe each hidden value?"",""How many hidden values am I allowed to observe in each round?"",""How is your bonus determined?"",""What does the feedback teach you?""]","[""True"",""$0.01"",""At most 5"",""10% of my total score on all rounds"",""All of the above.""]",45540,,,60290,,,survey-multi-choice,,4
,,,"[True, True, True, True, True]",,,,"[""True or false: The hidden values will change each time I start a new round."",""How much does it cost to observe each hidden value?"",""How many hidden values am I allowed to observe in each round?"",""How is your bonus determined?"",""What does the feedback teach you?""]","[""True"",""$1.60"",""As many or as few as I wish"",""5% of my score on a random round"",""All of the above.""]",37974,,,134980,,,survey-multi-choice,,4
,,,"[True, True, True, True, True]",,,,"[""True or false: The hidden values will change each time I start a new round."",""How much does it cost to observe each hidden value?"",""How many hidden values am I allowed to observe in each round?"",""How is your bonus determined?"",""What does the feedback teach you?""]","[""True"",""$1.60"",""As many or as few as I wish"",""5% of my score on a random round"",""All of the above.""]",41035,,,110601,,,survey-multi-choice,,5
,,,"[True, True, True, True]",,,,"[""True or false: The hidden values will change each time I start a new round."",""How much does it cost to observe each hidden value?"",""How many hidden values am I allowed to observe in each round?"",""How is your bonus determined?""]","[""True"",""$1.60"",""As many or as few as I wish"",""5% of my score on a random round""]",21889,,,573840,,,survey-multi-choice,,6
,,,"[True, True, True, True, True]",,,,"[""True or false: The hidden values will change each time I start a new round."",""How much does it cost to observe each hidden value?"",""How many hidden values am I allowed to observe in each round?"",""How is your bonus determined?"",""What does the feedback teach you?""]","[""True"",""$1.60"",""As many or as few as I wish"",""5% of my score on a random round"",""All of the above.""]",23278,,,190162,,,survey-multi-choice,,7
,,,"[True, False, True, True, False]",,,,"[""True or false: The hidden values will change each time I start a new round."",""How much does it cost to observe each hidden value?"",""How many hidden values am I allowed to observe in each round?"",""How is your bonus determined?"",""What does the feedback teach you?""]","[""True"",""$0.05"",""As many or as few as I wish"",""5% of my score on a random round"",""The length of the delay is based on how much more money I could have earned by planning and deciding better.""]",15990,,,82105,,,survey-multi-choice,,8
,,,"[True, True, True, True, False]",,,,"[""True or false: The hidden values will change each time I start a new round."",""How much does it cost to observe each hidden value?"",""How many hidden values am I allowed to observe in each round?"",""How is your bonus determined?"",""What does the feedback teach you?""]","[""True"",""$1.60"",""As many or as few as I wish"",""5% of my score on a random round"",""The length of the delay is based on how much more money I could have earned by planning and deciding better.""]",7672,,,108535,,,survey-multi-choice,,8
,,,"[True, True, True, True, True]",,,,"[""True or false: The hidden values will change each time I start a new round."",""How much does it cost to observe each hidden value?"",""How many hidden values am I allowed to observe in each round?"",""How is your bonus determined?"",""What does the feedback teach you?""]","[""True"",""$1.60"",""As many or as few as I wish"",""5% of my score on a random round"",""All of the above.""]",18798,,,155992,,,survey-multi-choice,,8
,,,"[True, False, True, False, True]",,,,"[""True or false: The hidden values will change each time I start a new round."",""How much does it cost to observe each hidden value?"",""How many hidden values am I allowed to observe in each round?"",""How is your bonus determined?"",""What does the feedback teach you?""]","[""True"",""$0.05"",""As many or as few as I wish"",""5% of my best score on any round"",""All of the above.""]",28463,,,137843,,,survey-multi-choice,,9
,,,"[True, True, True, True, False]",,,,"[""True or false: The hidden values will change each time I start a new round."",""How much does it cost to observe each hidden value?"",""How many hidden values am I allowed to observe in each round?"",""How is your bonus determined?"",""What does the feedback teach you?""]","[""True"",""$1.60"",""As many or as few as I wish"",""5% of my score on a random round"",""Whether I chose the move that was best according to the information I had.""]",29412,,,191800,,,survey-multi-choice,,9
,,,"[True, True, True, True, True]",,,,"[""True or false: The hidden values will change each time I start a new round."",""How much does it cost to observe each hidden value?"",""How many hidden values am I allowed to observe in each round?"",""How is your bonus determined?"",""What does the feedback teach you?""]","[""True"",""$1.60"",""As many or as few as I wish"",""5% of my score on a random round"",""All of the above.""]",13880,,,223958,,,survey-multi-choice,,9
,,,"[True, True, True, True, True]",,,,"[""True or false: The hidden values will change each time I start a new round."",""How much does it cost to observe each hidden value?"",""How many hidden values am I allowed to observe in each round?"",""How is your bonus determined?"",""What does the feedback teach you?""]","[""True"",""$1.60"",""As many or as few as I wish"",""5% of my score on a random round"",""All of the above.""]",28542,,,105767,,,survey-multi-choice,,10
,,,"[True, True, True, True, True]",,,,"[""True or false: The hidden values will change each time I start a new round."",""How much does it cost to observe each hidden value?"",""How many hidden values am I allowed to observe in each round?"",""How is your bonus determined?"",""What does the feedback teach you?""]","[""True"",""$1.60"",""As many or as few as I wish"",""5% of my score on a random round"",""All of the above.""]",92463,,,218663,,,survey-multi-choice,,11
,,,"[True, False, True, True, True]",,,,"[""True or false: The hidden values will change each time I start a new round."",""How much does it cost to observe each hidden value?"",""How many hidden values am I allowed to observe in each round?"",""How is your bonus determined?"",""What does the feedback teach you?""]","[""True"",""$0.01"",""As many or as few as I wish"",""5% of my score on a random round"",""All of the above.""]",150176,,,439824,,,survey-multi-choice,,12
,,,"[True, True, True, True, True]",,,,"[""True or false: The hidden values will change each time I start a new round."",""How much does it cost to observe each hidden value?"",""How many hidden values am I allowed to observe in each round?"",""How is your bonus determined?"",""What does the feedback teach you?""]","[""True"",""$1.60"",""As many or as few as I wish"",""5% of my score on a random round"",""All of the above.""]",46278,,,552370,,,survey-multi-choice,,12
,,,"[True, True, True, True, True]",,,,"[""True or false: The hidden values will change each time I start a new round."",""How much does it cost to observe each hidden value?"",""How many hidden values am I allowed to observe in each round?"",""How is your bonus determined?"",""What does the feedback teach you?""]","[""True"",""$1.60"",""As many or as few as I wish"",""5% of my score on a random round"",""All of the above.""]",13547,,,59904,,,survey-multi-choice,,13
,,,"[True, True, True, True, True]",,,,"[""True or false: The hidden values will change each time I start a new round."",""How much does it cost to observe each hidden value?"",""How many hidden values am I allowed to observe in each round?"",""How is your bonus determined?"",""What does the feedback teach you?""]","[""True"",""$1.60"",""As many or as few as I wish"",""5% of my score on a random round"",""All of the above.""]",83916,,,336507,,,survey-multi-choice,,14
,,,"[True, True, True, True, False]",,,,"[""True or false: The hidden values will change each time I start a new round."",""How much does it cost to observe each hidden value?"",""How many hidden values am I allowed to observe in each round?"",""How is your bonus determined?"",""What does the feedback teach you?""]","[""True"",""$1.60"",""As many or as few as I wish"",""5% of my score on a random round"",""The length of the delay is based on how much more money I could have earned by planning and deciding better.""]",69557,,,316461,,,survey-multi-choice,,15
,,,"[True, True, True, True, False]",,,,"[""True or false: The hidden values will change each time I start a new round."",""How much does it cost to observe each hidden value?"",""How many hidden values am I allowed to observe in each round?"",""How is your bonus determined?"",""What does the feedback teach you?""]","[""True"",""$1.60"",""As many or as few as I wish"",""5% of my score on a random round"",""Whether I chose the move that was best according to the information I had.""]",16537,,,366804,,,survey-multi-choice,,15
,,,"[True, True, True, True, True]",,,,"[""True or false: The hidden values will change each time I start a new round."",""How much does it cost to observe each hidden value?"",""How many hidden values am I allowed to observe in each round?"",""How is your bonus determined?"",""What does the feedback teach you?""]","[""True"",""$1.60"",""As many or as few as I wish"",""5% of my score on a random round"",""All of the above.""]",15179,,,395451,,,survey-multi-choice,,15
,,,"[True, True, True, True, True]",,,,"[""True or false: The hidden values will change each time I start a new round."",""How much does it cost to observe each hidden value?"",""How many hidden values am I allowed to observe in each round?"",""How is your bonus determined?"",""What does the feedback teach you?""]","[""True"",""$1.60"",""As many or as few as I wish"",""5% of my score on a random round"",""All of the above.""]",17671,,,126538,,,survey-multi-choice,,16
,,,"[False, True, False, False]",,,,"[""True or false: The hidden values will change each time I start a new round."",""How much does it cost to observe each hidden value?"",""How many hidden values am I allowed to observe in each round?"",""How is your bonus determined?""]","[""False"",""$1.60"",""At most 1"",""10% of my total score on all rounds""]",21824,,,70495,,,survey-multi-choice,,17
,,,"[True, True, False, True]",,,,"[""True or false: The hidden values will change each time I start a new round."",""How much does it cost to observe each hidden value?"",""How many hidden values am I allowed to observe in each round?"",""How is your bonus determined?""]","[""True"",""$1.60"",""At most 1"",""5% of my score on a random round""]",15619,,,130598,,,survey-multi-choice,,17
,,,"[False, True, True, True]",,,,"[""True or false: The hidden values will change each time I start a new round."",""How much does it cost to observe each hidden value?"",""How many hidden values am I allowed to observe in each round?"",""How is your bonus determined?""]","[""False"",""$1.60"",""As many or as few as I wish"",""5% of my score on a random round""]",10067,,,173659,,,survey-multi-choice,,17
,,,"[True, True, False, True]",,,,"[""True or false: The hidden values will change each time I start a new round."",""How much does it cost to observe each hidden value?"",""How many hidden values am I allowed to observe in each round?"",""How is your bonus determined?""]","[""True"",""$1.60"",""At most 1"",""5% of my score on a random round""]",5865,,,186162,,,survey-multi-choice,,17
,,,"[False, True, True, True]",,,,"[""True or false: The hidden values will change each time I start a new round."",""How much does it cost to observe each hidden value?"",""How many hidden values am I allowed to observe in each round?"",""How is your bonus determined?""]","[""False"",""$1.60"",""As many or as few as I wish"",""5% of my score on a random round""]",6295,,,228989,,,survey-multi-choice,,17
,,,"[True, True, True, True]",,,,"[""True or false: The hidden values will change each time I start a new round."",""How much does it cost to observe each hidden value?"",""How many hidden values am I allowed to observe in each round?"",""How is your bonus determined?""]","[""True"",""$1.60"",""As many or as few as I wish"",""5% of my score on a random round""]",4944,,,238573,,,survey-multi-choice,,17
,,,"[True, True, True, True]",,,,"[""True or false: The hidden values will change each time I start a new round."",""How much does it cost to observe each hidden value?"",""How many hidden values am I allowed to observe in each round?"",""How is your bonus determined?""]","[""True"",""$1.60"",""As many or as few as I wish"",""5% of my score on a random round""]",10929,,,41094,,,survey-multi-choice,,18
,,,"[True, True, True, True, True]",,,,"[""True or false: The hidden values will change each time I start a new round."",""How much does it cost to observe each hidden value?"",""How many hidden values am I allowed to observe in each round?"",""How is your bonus determined?"",""What does the feedback teach you?""]","[""True"",""$1.60"",""As many or as few as I wish"",""5% of my score on a random round"",""All of the above.""]",41219,,,196338,,,survey-multi-choice,,19
,,,"[False, False, True, True, True]",,,,"[""True or false: The hidden values will change each time I start a new round."",""How much does it cost to observe each hidden value?"",""How many hidden values am I allowed to observe in each round?"",""How is your bonus determined?"",""What does the feedback teach you?""]","[""False"",""$0.05"",""As many or as few as I wish"",""5% of my score on a random round"",""All of the above.""]",31120,,,58866,,,survey-multi-choice,,20
,,,"[True, True, True, True, True]",,,,"[""True or false: The hidden values will change each time I start a new round."",""How much does it cost to observe each hidden value?"",""How many hidden values am I allowed to observe in each round?"",""How is your bonus determined?"",""What does the feedback teach you?""]","[""True"",""$1.60"",""As many or as few as I wish"",""5% of my score on a random round"",""All of the above.""]",19763,,,112394,,,survey-multi-choice,,20
,,,"[True, True, True, True, True]",,,,"[""True or false: The hidden values will change each time I start a new round."",""How much does it cost to observe each hidden value?"",""How many hidden values am I allowed to observe in each round?"",""How is your bonus determined?"",""What does the feedback teach you?""]","[""True"",""$1.60"",""As many or as few as I wish"",""5% of my score on a random round"",""All of the above.""]",27633,,,233545,,,survey-multi-choice,,21
,,,"[True, True, True, True, True]",,,,"[""True or false: The hidden values will change each time I start a new round."",""How much does it cost to observe each hidden value?"",""How many hidden values am I allowed to observe in each round?"",""How is your bonus determined?"",""What does the feedback teach you?""]","[""True"",""$1.60"",""As many or as few as I wish"",""5% of my score on a random round"",""All of the above.""]",25669,,,138700,,,survey-multi-choice,,22
,,,"[True, False, False, False, False]",,,,"[""True or false: The hidden values will change each time I start a new round."",""How much does it cost to observe each hidden value?"",""How many hidden values am I allowed to observe in each round?"",""How is your bonus determined?"",""What does the feedback teach you?""]","[""True"",""$0.05"",""At most 1"",""10% of my best score on any round"",""Whether I chose the move that was best according to the information I had.""]",52972,,,336625,,,survey-multi-choice,,23
,,,"[True, True, False, False, False]",,,,"[""True or false: The hidden values will change each time I start a new round."",""How much does it cost to observe each hidden value?"",""How many hidden values am I allowed to observe in each round?"",""How is your bonus determined?"",""What does the feedback teach you?""]","[""True"",""$1.60"",""At most 5"",""5% of my best score on any round"",""Whether I observed the rewards of relevant locations.""]",42563,,,423289,,,survey-multi-choice,,23
,,,"[True, True, False, False, False]",,,,"[""True or false: The hidden values will change each time I start a new round."",""How much does it cost to observe each hidden value?"",""How many hidden values am I allowed to observe in each round?"",""How is your bonus determined?"",""What does the feedback teach you?""]","[""True"",""$1.60"",""At most 1"",""5% of my best score on any round"",""The length of the delay is based on how much more money I could have earned by planning and deciding better.""]",69768,,,542676,,,survey-multi-choice,,23
,,,"[True, True, True, False, False]",,,,"[""True or false: The hidden values will change each time I start a new round."",""How much does it cost to observe each hidden value?"",""How many hidden values am I allowed to observe in each round?"",""How is your bonus determined?"",""What does the feedback teach you?""]","[""True"",""$1.60"",""As many or as few as I wish"",""5% of my best score on any round"",""The length of the delay is based on how much more money I could have earned by planning and deciding better.""]",26629,,,628387,,,survey-multi-choice,,23
,,,"[True, True, True, False, False]",,,,"[""True or false: The hidden values will change each time I start a new round."",""How much does it cost to observe each hidden value?"",""How many hidden values am I allowed to observe in each round?"",""How is your bonus determined?"",""What does the feedback teach you?""]","[""True"",""$1.60"",""As many or as few as I wish"",""5% of my best score on any round"",""Whether I chose the move that was best according to the information I had.""]",32314,,,690893,,,survey-multi-choice,,23
,,,"[True, True, True, True, False]",,,,"[""True or false: The hidden values will change each time I start a new round."",""How much does it cost to observe each hidden value?"",""How many hidden values am I allowed to observe in each round?"",""How is your bonus determined?"",""What does the feedback teach you?""]","[""True"",""$1.60"",""As many or as few as I wish"",""5% of my score on a random round"",""Whether I chose the move that was best according to the information I had.""]",21811,,,881731,,,survey-multi-choice,,23
,,,"[True, True, True, True, True]",,,,"[""True or false: The hidden values will change each time I start a new round."",""How much does it cost to observe each hidden value?"",""How many hidden values am I allowed to observe in each round?"",""How is your bonus determined?"",""What does the feedback teach you?""]","[""True"",""$1.60"",""As many or as few as I wish"",""5% of my score on a random round"",""All of the above.""]",32236,,,922937,,,survey-multi-choice,,23
,,,"[True, True, True, True]",,,,"[""True or false: The hidden values will change each time I start a new round."",""How much does it cost to observe each hidden value?"",""How many hidden values am I allowed to observe in each round?"",""How is your bonus determined?""]","[""True"",""$1.60"",""As many or as few as I wish"",""5% of my score on a random round""]",18225,,,65806,,,survey-multi-choice,,24
,,,"[True, True, True, True, True]",,,,"[""True or false: The hidden values will change each time I start a new round."",""How much does it cost to observe each hidden value?"",""How many hidden values am I allowed to observe in each round?"",""How is your bonus determined?"",""What does the feedback teach you?""]","[""True"",""$1.60"",""As many or as few as I wish"",""5% of my score on a random round"",""All of the above.""]",41894,,,251734,,,survey-multi-choice,,25
,,,"[True, True, True, True]",,,,"[""True or false: The hidden values will change each time I start a new round."",""How much does it cost to observe each hidden value?"",""How many hidden values am I allowed to observe in each round?"",""How is your bonus determined?""]","[""True"",""$1.60"",""As many or as few as I wish"",""5% of my score on a random round""]",12358,,,59279,,,survey-multi-choice,,26
,,,"[True, True, True, True, True]",,,,"[""True or false: The hidden values will change each time I start a new round."",""How much does it cost to observe each hidden value?"",""How many hidden values am I allowed to observe in each round?"",""How is your bonus determined?"",""What does the feedback teach you?""]","[""True"",""$1.60"",""As many or as few as I wish"",""5% of my score on a random round"",""All of the above.""]",60785,,,269333,,,survey-multi-choice,,27
,,,"[False, True, False, False, True]",,,,"[""True or false: The hidden values will change each time I start a new round."",""How much does it cost to observe each hidden value?"",""How many hidden values am I allowed to observe in each round?"",""How is your bonus determined?"",""What does the feedback teach you?""]","[""False"",""$1.60"",""At most 1"",""5% of my best score on any round"",""All of the above.""]",18165,,,47986,,,survey-multi-choice,,28
,,,"[True, True, True, False, True]",,,,"[""True or false: The hidden values will change each time I start a new round."",""How much does it cost to observe each hidden value?"",""How many hidden values am I allowed to observe in each round?"",""How is your bonus determined?"",""What does the feedback teach you?""]","[""True"",""$1.60"",""As many or as few as I wish"",""5% of my best score on any round"",""All of the above.""]",13372,,,111448,,,survey-multi-choice,,28
,,,"[True, True, True, False, False]",,,,"[""True or false: The hidden values will change each time I start a new round."",""How much does it cost to observe each hidden value?"",""How many hidden values am I allowed to observe in each round?"",""How is your bonus determined?"",""What does the feedback teach you?""]","[""True"",""$1.60"",""As many or as few as I wish"",""5% of my best score on any round"",""The length of the delay is based on how much more money I could have earned by planning and deciding better.""]",17879,,,159566,,,survey-multi-choice,,28
,,,"[True, True, True, False, False]",,,,"[""True or false: The hidden values will change each time I start a new round."",""How much does it cost to observe each hidden value?"",""How many hidden values am I allowed to observe in each round?"",""How is your bonus determined?"",""What does the feedback teach you?""]","[""True"",""$1.60"",""As many or as few as I wish"",""5% of my best score on any round"",""Whether I chose the move that was best according to the information I had.""]",17754,,,211604,,,survey-multi-choice,,28
,,,"[True, True, True, False, False]",,,,"[""True or false: The hidden values will change each time I start a new round."",""How much does it cost to observe each hidden value?"",""How many hidden values am I allowed to observe in each round?"",""How is your bonus determined?"",""What does the feedback teach you?""]","[""True"",""$1.60"",""As many or as few as I wish"",""5% of my best score on any round"",""The length of the delay is based on how much more money I could have earned by planning and deciding better.""]",17300,,,248938,,,survey-multi-choice,,28
,,,"[True, True, True, True, False]",,,,"[""True or false: The hidden values will change each time I start a new round."",""How much does it cost to observe each hidden value?"",""How many hidden values am I allowed to observe in each round?"",""How is your bonus determined?"",""What does the feedback teach you?""]","[""True"",""$1.60"",""As many or as few as I wish"",""5% of my score on a random round"",""The length of the delay is based on how much more money I could have earned by planning and deciding better.""]",18443,,,295041,,,survey-multi-choice,,28
,,,"[True, True, False, True, True]",,,,"[""True or false: The hidden values will change each time I start a new round."",""How much does it cost to observe each hidden value?"",""How many hidden values am I allowed to observe in each round?"",""How is your bonus determined?"",""What does the feedback teach you?""]","[""True"",""$1.60"",""At most 1"",""5% of my score on a random round"",""All of the above.""]",12696,,,316736,,,survey-multi-choice,,28
,,,"[True, True, True, True, True]",,,,"[""True or false: The hidden values will change each time I start a new round."",""How much does it cost to observe each hidden value?"",""How many hidden values am I allowed to observe in each round?"",""How is your bonus determined?"",""What does the feedback teach you?""]","[""True"",""$1.60"",""As many or as few as I wish"",""5% of my score on a random round"",""All of the above.""]",13248,,,360494,,,survey-multi-choice,,28
,,,"[True, False, True, False, False]",,,,"[""True or false: The hidden values will change each time I start a new round."",""How much does it cost to observe each hidden value?"",""How many hidden values am I allowed to observe in each round?"",""How is your bonus determined?"",""What does the feedback teach you?""]","[""True"",""$0.05"",""As many or as few as I wish"",""10% of my total score on all rounds"",""The length of the delay is based on how much more money I could have earned by planning and deciding better.""]",41230,,,157944,,,survey-multi-choice,,29
,,,"[True, False, True, False, False]",,,,"[""True or false: The hidden values will change each time I start a new round."",""How much does it cost to observe each hidden value?"",""How many hidden values am I allowed to observe in each round?"",""How is your bonus determined?"",""What does the feedback teach you?""]","[""True"",""$0.01"",""As many or as few as I wish"",""10% of my total score on all rounds"",""Whether I observed the rewards of relevant locations.""]",33064,,,248979,,,survey-multi-choice,,29
,,,"[True, True, True, False, True]",,,,"[""True or false: The hidden values will change each time I start a new round."",""How much does it cost to observe each hidden value?"",""How many hidden values am I allowed to observe in each round?"",""How is your bonus determined?"",""What does the feedback teach you?""]","[""True"",""$1.60"",""As many or as few as I wish"",""10% of my total score on all rounds"",""All of the above.""]",22887,,,328247,,,survey-multi-choice,,29
,,,"[True, True, True, False, False]",,,,"[""True or false: The hidden values will change each time I start a new round."",""How much does it cost to observe each hidden value?"",""How many hidden values am I allowed to observe in each round?"",""How is your bonus determined?"",""What does the feedback teach you?""]","[""True"",""$1.60"",""As many or as few as I wish"",""5% of my best score on any round"",""Whether I observed the rewards of relevant locations.""]",49408,,,435653,,,survey-multi-choice,,29
,,,"[True, True, False, False, True]",,,,"[""True or false: The hidden values will change each time I start a new round."",""How much does it cost to observe each hidden value?"",""How many hidden values am I allowed to observe in each round?"",""How is your bonus determined?"",""What does the feedback teach you?""]","[""True"",""$1.60"",""At most 15"",""5% of my best score on any round"",""All of the above.""]",17665,,,462993,,,survey-multi-choice,,29
,,,"[True, True, True, True, False]",,,,"[""True or false: The hidden values will change each time I start a new round."",""How much does it cost to observe each hidden value?"",""How many hidden values am I allowed to observe in each round?"",""How is your bonus determined?"",""What does the feedback teach you?""]","[""True"",""$1.60"",""As many or as few as I wish"",""5% of my score on a random round"",""Whether I observed the rewards of relevant locations.""]",14123,,,511075,,,survey-multi-choice,,29
,,,"[True, True, True, True, False]",,,,"[""True or false: The hidden values will change each time I start a new round."",""How much does it cost to observe each hidden value?"",""How many hidden values am I allowed to observe in each round?"",""How is your bonus determined?"",""What does the feedback teach you?""]","[""True"",""$1.60"",""As many or as few as I wish"",""5% of my score on a random round"",""Whether I chose the move that was best according to the information I had.""]",11637,,,531412,,,survey-multi-choice,,29
,,,"[True, True, True, True, False]",,,,"[""True or false: The hidden values will change each time I start a new round."",""How much does it cost to observe each hidden value?"",""How many hidden values am I allowed to observe in each round?"",""How is your bonus determined?"",""What does the feedback teach you?""]","[""True"",""$1.60"",""As many or as few as I wish"",""5% of my score on a random round"",""The length of the delay is based on how much more money I could have earned by planning and deciding better.""]",10022,,,549683,,,survey-multi-choice,,29
,,,"[True, True, True, True, False]",,,,"[""True or false: The hidden values will change each time I start a new round."",""How much does it cost to observe each hidden value?"",""How many hidden values am I allowed to observe in each round?"",""How is your bonus determined?"",""What does the feedback teach you?""]","[""True"",""$1.60"",""As many or as few as I wish"",""5% of my score on a random round"",""The length of the delay is based on how much more money I could have earned by planning and deciding better.""]",9154,,,567440,,,survey-multi-choice,,29
,,,"[True, True, True, True, True]",,,,"[""True or false: The hidden values will change each time I start a new round."",""How much does it cost to observe each hidden value?"",""How many hidden values am I allowed to observe in each round?"",""How is your bonus determined?"",""What does the feedback teach you?""]","[""True"",""$1.60"",""As many or as few as I wish"",""5% of my score on a random round"",""All of the above.""]",8921,,,582686,,,survey-multi-choice,,29
,,,"[True, True, True, False, True]",,,,"[""True or false: The hidden values will change each time I start a new round."",""How much does it cost to observe each hidden value?"",""How many hidden values am I allowed to observe in each round?"",""How is your bonus determined?"",""What does the feedback teach you?""]","[""True"",""$1.60"",""As many or as few as I wish"",""5% of my best score on any round"",""All of the above.""]",47741,,,217504,,,survey-multi-choice,,30
,,,"[True, True, True, True, False]",,,,"[""True or false: The hidden values will change each time I start a new round."",""How much does it cost to observe each hidden value?"",""How many hidden values am I allowed to observe in each round?"",""How is your bonus determined?"",""What does the feedback teach you?""]","[""True"",""$1.60"",""As many or as few as I wish"",""5% of my score on a random round"",""Whether I chose the move that was best according to the information I had.""]",44060,,,367890,,,survey-multi-choice,,30
,,,"[True, True, False, True, True]",,,,"[""True or false: The hidden values will change each time I start a new round."",""How much does it cost to observe each hidden value?"",""How many hidden values am I allowed to observe in each round?"",""How is your bonus determined?"",""What does the feedback teach you?""]","[""True"",""$1.60"",""At most 10"",""5% of my score on a random round"",""All of the above.""]",65744,,,507848,,,survey-multi-choice,,30
,,,"[False, True, False, True, True]",,,,"[""True or false: The hidden values will change each time I start a new round."",""How much does it cost to observe each hidden value?"",""How many hidden values am I allowed to observe in each round?"",""How is your bonus determined?"",""What does the feedback teach you?""]","[""False"",""$1.60"",""At most 10"",""5% of my score on a random round"",""All of the above.""]",20492,,,546039,,,survey-multi-choice,,30
,,,"[True, True, False, True, True]",,,,"[""True or false: The hidden values will change each time I start a new round."",""How much does it cost to observe each hidden value?"",""How many hidden values am I allowed to observe in each round?"",""How is your bonus determined?"",""What does the feedback teach you?""]","[""True"",""$1.60"",""At most 5"",""5% of my score on a random round"",""All of the above.""]",23624,,,597746,,,survey-multi-choice,,30
,,,"[True, True, True, True, True]",,,,"[""True or false: The hidden values will change each time I start a new round."",""How much does it cost to observe each hidden value?"",""How many hidden values am I allowed to observe in each round?"",""How is your bonus determined?"",""What does the feedback teach you?""]","[""True"",""$1.60"",""As many or as few as I wish"",""5% of my score on a random round"",""All of the above.""]",13093,,,650712,,,survey-multi-choice,,30
,,,"[True, False, True, False]",,,,"[""True or false: The hidden values will change each time I start a new round."",""How much does it cost to observe each hidden value?"",""How many hidden values am I allowed to observe in each round?"",""How is your bonus determined?""]","[""True"",""$0.01"",""As many or as few as I wish"",""10% of my best score on any round""]",29627,,,172141,,,survey-multi-choice,,31
,,,"[True, False, True, True]",,,,"[""True or false: The hidden values will change each time I start a new round."",""How much does it cost to observe each hidden value?"",""How many hidden values am I allowed to observe in each round?"",""How is your bonus determined?""]","[""True"",""$0.01"",""As many or as few as I wish"",""5% of my score on a random round""]",25401,,,232340,,,survey-multi-choice,,31
,,,"[True, False, True, True]",,,,"[""True or false: The hidden values will change each time I start a new round."",""How much does it cost to observe each hidden value?"",""How many hidden values am I allowed to observe in each round?"",""How is your bonus determined?""]","[""True"",""$0.05"",""As many or as few as I wish"",""5% of my score on a random round""]",23722,,,274393,,,survey-multi-choice,,31
,,,"[True, True, True, True]",,,,"[""True or false: The hidden values will change each time I start a new round."",""How much does it cost to observe each hidden value?"",""How many hidden values am I allowed to observe in each round?"",""How is your bonus determined?""]","[""True"",""$1.60"",""As many or as few as I wish"",""5% of my score on a random round""]",38934,,,388344,,,survey-multi-choice,,31
,,,"[True, False, False, True]",,,,"[""True or false: The hidden values will change each time I start a new round."",""How much does it cost to observe each hidden value?"",""How many hidden values am I allowed to observe in each round?"",""How is your bonus determined?""]","[""True"",""$0.01"",""At most 1"",""5% of my score on a random round""]",23593,,,98411,,,survey-multi-choice,,32
,,,"[True, True, False, True]",,,,"[""True or false: The hidden values will change each time I start a new round."",""How much does it cost to observe each hidden value?"",""How many hidden values am I allowed to observe in each round?"",""How is your bonus determined?""]","[""True"",""$1.60"",""At most 1"",""5% of my score on a random round""]",126373,,,331085,,,survey-multi-choice,,32
,,,"[True, True, True, True]",,,,"[""True or false: The hidden values will change each time I start a new round."",""How much does it cost to observe each hidden value?"",""How many hidden values am I allowed to observe in each round?"",""How is your bonus determined?""]","[""True"",""$1.60"",""As many or as few as I wish"",""5% of my score on a random round""]",14214,,,350761,,,survey-multi-choice,,32
,,,"[True, True, True, True]",,,,"[""True or false: The hidden values will change each time I start a new round."",""How much does it cost to observe each hidden value?"",""How many hidden values am I allowed to observe in each round?"",""How is your bonus determined?""]","[""True"",""$1.60"",""As many or as few as I wish"",""5% of my score on a random round""]",9578,,,82594,,,survey-multi-choice,,33
,,,"[True, True, True, True]",,,,"[""True or false: The hidden values will change each time I start a new round."",""How much does it cost to observe each hidden value?"",""How many hidden values am I allowed to observe in each round?"",""How is your bonus determined?""]","[""True"",""$1.60"",""As many or as few as I wish"",""5% of my score on a random round""]",17312,,,171554,,,survey-multi-choice,,34
,,,"[True, True, True, True]",,,,"[""True or false: The hidden values will change each time I start a new round."",""How much does it cost to observe each hidden value?"",""How many hidden values am I allowed to observe in each round?"",""How is your bonus determined?""]","[""True"",""$1.60"",""As many or as few as I wish"",""5% of my score on a random round""]",14322,,,103144,,,survey-multi-choice,,35
,,,"[True, True, True, True, True]",,,,"[""True or false: The hidden values will change each time I start a new round."",""How much does it cost to observe each hidden value?"",""How many hidden values am I allowed to observe in each round?"",""How is your bonus determined?"",""What does the feedback teach you?""]","[""True"",""$1.60"",""As many or as few as I wish"",""5% of my score on a random round"",""All of the above.""]",17356,,,107387,,,survey-multi-choice,,36
,,,"[True, True, False, True]",,,,"[""True or false: The hidden values will change each time I start a new round."",""How much does it cost to observe each hidden value?"",""How many hidden values am I allowed to observe in each round?"",""How is your bonus determined?""]","[""True"",""$1.60"",""At most 5"",""5% of my score on a random round""]",29309,,,159172,,,survey-multi-choice,,37
,,,"[True, True, True, True]",,,,"[""True or false: The hidden values will change each time I start a new round."",""How much does it cost to observe each hidden value?"",""How many hidden values am I allowed to observe in each round?"",""How is your bonus determined?""]","[""True"",""$1.60"",""As many or as few as I wish"",""5% of my score on a random round""]",134054,,,480354,,,survey-multi-choice,,37
,,,"[True, True, True, True]",,,,"[""True or false: The hidden values will change each time I start a new round."",""How much does it cost to observe each hidden value?"",""How many hidden values am I allowed to observe in each round?"",""How is your bonus determined?""]","[""True"",""$1.60"",""As many or as few as I wish"",""5% of my score on a random round""]",37067,,,175873,,,survey-multi-choice,,38
,,,"[True, True, True, True, True]",,,,"[""True or false: The hidden values will change each time I start a new round."",""How much does it cost to observe each hidden value?"",""How many hidden values am I allowed to observe in each round?"",""How is your bonus determined?"",""What does the feedback teach you?""]","[""True"",""$1.60"",""As many or as few as I wish"",""5% of my score on a random round"",""All of the above.""]",27499,,,75529,,,survey-multi-choice,,39
,,,"[True, True, True, True, False]",,,,"[""True or false: The hidden values will change each time I start a new round."",""How much does it cost to observe each hidden value?"",""How many hidden values am I allowed to observe in each round?"",""How is your bonus determined?"",""What does the feedback teach you?""]","[""True"",""$1.60"",""As many or as few as I wish"",""5% of my score on a random round"",""Whether I chose the move that was best according to the information I had.""]",21831,,,176772,,,survey-multi-choice,,40
,,,"[True, True, True, True, False]",,,,"[""True or false: The hidden values will change each time I start a new round."",""How much does it cost to observe each hidden value?"",""How many hidden values am I allowed to observe in each round?"",""How is your bonus determined?"",""What does the feedback teach you?""]","[""True"",""$1.60"",""As many or as few as I wish"",""5% of my score on a random round"",""Whether I chose the move that was best according to the information I had.""]",151706,,,371929,,,survey-multi-choice,,40
,,,"[True, True, True, True, False]",,,,"[""True or false: The hidden values will change each time I start a new round."",""How much does it cost to observe each hidden value?"",""How many hidden values am I allowed to observe in each round?"",""How is your bonus determined?"",""What does the feedback teach you?""]","[""True"",""$1.60"",""As many or as few as I wish"",""5% of my score on a random round"",""The length of the delay is based on how much more money I could have earned by planning and deciding better.""]",58449,,,444226,,,survey-multi-choice,,40
,,,"[True, True, True, True, True]",,,,"[""True or false: The hidden values will change each time I start a new round."",""How much does it cost to observe each hidden value?"",""How many hidden values am I allowed to observe in each round?"",""How is your bonus determined?"",""What does the feedback teach you?""]","[""True"",""$1.60"",""As many or as few as I wish"",""5% of my score on a random round"",""All of the above.""]",9838,,,460132,,,survey-multi-choice,,40
,,,"[True, True, True, True, False]",,,,"[""True or false: The hidden values will change each time I start a new round."",""How much does it cost to observe each hidden value?"",""How many hidden values am I allowed to observe in each round?"",""How is your bonus determined?"",""What does the feedback teach you?""]","[""True"",""$1.60"",""As many or as few as I wish"",""5% of my score on a random round"",""Whether I chose the move that was best according to the information I had.""]",32291,,,259410,,,survey-multi-choice,,41
,,,"[True, True, True, True, True]",,,,"[""True or false: The hidden values will change each time I start a new round."",""How much does it cost to observe each hidden value?"",""How many hidden values am I allowed to observe in each round?"",""How is your bonus determined?"",""What does the feedback teach you?""]","[""True"",""$1.60"",""As many or as few as I wish"",""5% of my score on a random round"",""All of the above.""]",47290,,,500817,,,survey-multi-choice,,41
,,,"[True, True, True, True, True]",,,,"[""True or false: The hidden values will change each time I start a new round."",""How much does it cost to observe each hidden value?"",""How many hidden values am I allowed to observe in each round?"",""How is your bonus determined?"",""What does the feedback teach you?""]","[""True"",""$1.60"",""As many or as few as I wish"",""5% of my score on a random round"",""All of the above.""]",125930,,,519587,,,survey-multi-choice,,42
,,,"[True, True, True, False]",,,,"[""True or false: The hidden values will change each time I start a new round."",""How much does it cost to observe each hidden value?"",""How many hidden values am I allowed to observe in each round?"",""How is your bonus determined?""]","[""True"",""$1.60"",""As many or as few as I wish"",""10% of my total score on all rounds""]",18428,,,1134621,,,survey-multi-choice,,43
,,,"[True, True, True, True]",,,,"[""True or false: The hidden values will change each time I start a new round."",""How much does it cost to observe each hidden value?"",""How many hidden values am I allowed to observe in each round?"",""How is your bonus determined?""]","[""True"",""$1.60"",""As many or as few as I wish"",""5% of my score on a random round""]",10446,,,1171058,,,survey-multi-choice,,43
,,,"[True, True, True, False, False]",,,,"[""True or false: The hidden values will change each time I start a new round."",""How much does it cost to observe each hidden value?"",""How many hidden values am I allowed to observe in each round?"",""How is your bonus determined?"",""What does the feedback teach you?""]","[""True"",""$1.60"",""As many or as few as I wish"",""5% of my best score on any round"",""The length of the delay is based on how much more money I could have earned by planning and deciding better.""]",34587,,,190105,,,survey-multi-choice,,44
,,,"[True, True, True, True, True]",,,,"[""True or false: The hidden values will change each time I start a new round."",""How much does it cost to observe each hidden value?"",""How many hidden values am I allowed to observe in each round?"",""How is your bonus determined?"",""What does the feedback teach you?""]","[""True"",""$1.60"",""As many or as few as I wish"",""5% of my score on a random round"",""All of the above.""]",35484,,,488965,,,survey-multi-choice,,44
,,,"[True, True, True, True]",,,,"[""True or false: The hidden values will change each time I start a new round."",""How much does it cost to observe each hidden value?"",""How many hidden values am I allowed to observe in each round?"",""How is your bonus determined?""]","[""True"",""$1.60"",""As many or as few as I wish"",""5% of my score on a random round""]",29325,,,191437,,,survey-multi-choice,,45
,,,"[True, True, False, False]",,,,"[""True or false: The hidden values will change each time I start a new round."",""How much does it cost to observe each hidden value?"",""How many hidden values am I allowed to observe in each round?"",""How is your bonus determined?""]","[""True"",""$1.60"",""At most 10"",""10% of my best score on any round""]",38456,,,212408,,,survey-multi-choice,,46
,,,"[True, True, False, True]",,,,"[""True or false: The hidden values will change each time I start a new round."",""How much does it cost to observe each hidden value?"",""How many hidden values am I allowed to observe in each round?"",""How is your bonus determined?""]","[""True"",""$1.60"",""At most 15"",""5% of my score on a random round""]",21989,,,314064,,,survey-multi-choice,,46
,,,"[True, True, True, True]",,,,"[""True or false: The hidden values will change each time I start a new round."",""How much does it cost to observe each hidden value?"",""How many hidden values am I allowed to observe in each round?"",""How is your bonus determined?""]","[""True"",""$1.60"",""As many or as few as I wish"",""5% of my score on a random round""]",15479,,,336587,,,survey-multi-choice,,46
,,,"[True, True, True, True]",,,,"[""True or false: The hidden values will change each time I start a new round."",""How much does it cost to observe each hidden value?"",""How many hidden values am I allowed to observe in each round?"",""How is your bonus determined?""]","[""True"",""$1.60"",""As many or as few as I wish"",""5% of my score on a random round""]",21633,,,165931,,,survey-multi-choice,,47
,,,"[True, True, True, False]",,,,"[""True or false: The hidden values will change each time I start a new round."",""How much does it cost to observe each hidden value?"",""How many hidden values am I allowed to observe in each round?"",""How is your bonus determined?""]","[""True"",""$1.60"",""As many or as few as I wish"",""5% of my best score on any round""]",26703,,,100815,,,survey-multi-choice,,48
,,,"[True, True, True, True]",,,,"[""True or false: The hidden values will change each time I start a new round."",""How much does it cost to observe each hidden value?"",""How many hidden values am I allowed to observe in each round?"",""How is your bonus determined?""]","[""True"",""$1.60"",""As many or as few as I wish"",""5% of my score on a random round""]",9937,,,147834,,,survey-multi-choice,,48
,,,"[True, True, True, False, True]",,,,"[""True or false: The hidden values will change each time I start a new round."",""How much does it cost to observe each hidden value?"",""How many hidden values am I allowed to observe in each round?"",""How is your bonus determined?"",""What does the feedback teach you?""]","[""True"",""$1.60"",""As many or as few as I wish"",""5% of my best score on any round"",""All of the above.""]",45132,,,338681,,,survey-multi-choice,,49
,,,"[True, True, True, True, True]",,,,"[""True or false: The hidden values will change each time I start a new round."",""How much does it cost to observe each hidden value?"",""How many hidden values am I allowed to observe in each round?"",""How is your bonus determined?"",""What does the feedback teach you?""]","[""True"",""$1.60"",""As many or as few as I wish"",""5% of my score on a random round"",""All of the above.""]",19139,,,387885,,,survey-multi-choice,,49
,,,"[True, True, True, True, False]",,,,"[""True or false: The hidden values will change each time I start a new round."",""How much does it cost to observe each hidden value?"",""How many hidden values am I allowed to observe in each round?"",""How is your bonus determined?"",""What does the feedback teach you?""]","[""True"",""$1.60"",""As many or as few as I wish"",""5% of my score on a random round"",""Whether I observed the rewards of relevant locations.""]",26025,,,137512,,,survey-multi-choice,,50
,,,"[True, True, True, True, True]",,,,"[""True or false: The hidden values will change each time I start a new round."",""How much does it cost to observe each hidden value?"",""How many hidden values am I allowed to observe in each round?"",""How is your bonus determined?"",""What does the feedback teach you?""]","[""True"",""$1.60"",""As many or as few as I wish"",""5% of my score on a random round"",""All of the above.""]",10201,,,178775,,,survey-multi-choice,,50
,,,"[True, True, True, True, True]",,,,"[""True or false: The hidden values will change each time I start a new round."",""How much does it cost to observe each hidden value?"",""How many hidden values am I allowed to observe in each round?"",""How is your bonus determined?"",""What does the feedback teach you?""]","[""True"",""$1.60"",""As many or as few as I wish"",""5% of my score on a random round"",""All of the above.""]",37130,,,218497,,,survey-multi-choice,,51
,,,"[True, True, True, True, True]",,,,"[""True or false: The hidden values will change each time I start a new round."",""How much does it cost to observe each hidden value?"",""How many hidden values am I allowed to observe in each round?"",""How is your bonus determined?"",""What does the feedback teach you?""]","[""True"",""$1.60"",""As many or as few as I wish"",""5% of my score on a random round"",""All of the above.""]",39315,,,66339,,,survey-multi-choice,,52
,,,"[False, True, True, True, True]",,,,"[""True or false: The hidden values will change each time I start a new round."",""How much does it cost to observe each hidden value?"",""How many hidden values am I allowed to observe in each round?"",""How is your bonus determined?"",""What does the feedback teach you?""]","[""False"",""$1.60"",""As many or as few as I wish"",""5% of my score on a random round"",""All of the above.""]",29113,,,117936,,,survey-multi-choice,,53
,,,"[False, True, True, True, False]",,,,"[""True or false: The hidden values will change each time I start a new round."",""How much does it cost to observe each hidden value?"",""How many hidden values am I allowed to observe in each round?"",""How is your bonus determined?"",""What does the feedback teach you?""]","[""False"",""$1.60"",""As many or as few as I wish"",""5% of my score on a random round"",""The length of the delay is based on how much more money I could have earned by planning and deciding better.""]",29992,,,189839,,,survey-multi-choice,,53
,,,"[True, True, True, True, True]",,,,"[""True or false: The hidden values will change each time I start a new round."",""How much does it cost to observe each hidden value?"",""How many hidden values am I allowed to observe in each round?"",""How is your bonus determined?"",""What does the feedback teach you?""]","[""True"",""$1.60"",""As many or as few as I wish"",""5% of my score on a random round"",""All of the above.""]",29778,,,266010,,,survey-multi-choice,,53
,,,"[True, True, True, True, True]",,,,"[""True or false: The hidden values will change each time I start a new round."",""How much does it cost to observe each hidden value?"",""How many hidden values am I allowed to observe in each round?"",""How is your bonus determined?"",""What does the feedback teach you?""]","[""True"",""$1.60"",""As many or as few as I wish"",""5% of my score on a random round"",""All of the above.""]",136894,,,290713,,,survey-multi-choice,,54
,,,"[True, True, True, True, True]",,,,"[""True or false: The hidden values will change each time I start a new round."",""How much does it cost to observe each hidden value?"",""How many hidden values am I allowed to observe in each round?"",""How is your bonus determined?"",""What does the feedback teach you?""]","[""True"",""$1.60"",""As many or as few as I wish"",""5% of my score on a random round"",""All of the above.""]",22971,,,149576,,,survey-multi-choice,,55
,,,"[True, True, True, True, False]",,,,"[""True or false: The hidden values will change each time I start a new round."",""How much does it cost to observe each hidden value?"",""How many hidden values am I allowed to observe in each round?"",""How is your bonus determined?"",""What does the feedback teach you?""]","[""True"",""$1.60"",""As many or as few as I wish"",""5% of my score on a random round"",""Whether I chose the move that was best according to the information I had.""]",275121,,,384623,,,survey-multi-choice,,56
,,,"[True, True, True, True, False]",,,,"[""True or false: The hidden values will change each time I start a new round."",""How much does it cost to observe each hidden value?"",""How many hidden values am I allowed to observe in each round?"",""How is your bonus determined?"",""What does the feedback teach you?""]","[""True"",""$1.60"",""As many or as few as I wish"",""5% of my score on a random round"",""The length of the delay is based on how much more money I could have earned by planning and deciding better.""]",40137,,,550746,,,survey-multi-choice,,56
,,,"[True, True, True, True, True]",,,,"[""True or false: The hidden values will change each time I start a new round."",""How much does it cost to observe each hidden value?"",""How many hidden values am I allowed to observe in each round?"",""How is your bonus determined?"",""What does the feedback teach you?""]","[""True"",""$1.60"",""As many or as few as I wish"",""5% of my score on a random round"",""All of the above.""]",33555,,,614406,,,survey-multi-choice,,56
,,,"[True, True, True, False, True]",,,,"[""True or false: The hidden values will change each time I start a new round."",""How much does it cost to observe each hidden value?"",""How many hidden values am I allowed to observe in each round?"",""How is your bonus determined?"",""What does the feedback teach you?""]","[""True"",""$1.60"",""As many or as few as I wish"",""5% of my best score on any round"",""All of the above.""]",31619,,,189558,,,survey-multi-choice,,57
,,,"[True, True, True, True, True]",,,,"[""True or false: The hidden values will change each time I start a new round."",""How much does it cost to observe each hidden value?"",""How many hidden values am I allowed to observe in each round?"",""How is your bonus determined?"",""What does the feedback teach you?""]","[""True"",""$1.60"",""As many or as few as I wish"",""5% of my score on a random round"",""All of the above.""]",25069,,,317627,,,survey-multi-choice,,57
,,,"[True, True, True, True, True]",,,,"[""True or false: The hidden values will change each time I start a new round."",""How much does it cost to observe each hidden value?"",""How many hidden values am I allowed to observe in each round?"",""How is your bonus determined?"",""What does the feedback teach you?""]","[""True"",""$1.60"",""As many or as few as I wish"",""5% of my score on a random round"",""All of the above.""]",39775,,,189196,,,survey-multi-choice,,58
,,,"[True, True, True, True]",,,,"[""True or false: The hidden values will change each time I start a new round."",""How much does it cost to observe each hidden value?"",""How many hidden values am I allowed to observe in each round?"",""How is your bonus determined?""]","[""True"",""$1.60"",""As many or as few as I wish"",""5% of my score on a random round""]",214334,,,429158,,,survey-multi-choice,,59
,,,"[True, True, True, True, True]",,,,"[""True or false: The hidden values will change each time I start a new round."",""How much does it cost to observe each hidden value?"",""How many hidden values am I allowed to observe in each round?"",""How is your bonus determined?"",""What does the feedback teach you?""]","[""True"",""$1.60"",""As many or as few as I wish"",""5% of my score on a random round"",""All of the above.""]",22511,,,113804,,,survey-multi-choice,,60
,,,"[True, True, True, True, True]",,,,"[""True or false: The hidden values will change each time I start a new round."",""How much does it cost to observe each hidden value?"",""How many hidden values am I allowed to observe in each round?"",""How is your bonus determined?"",""What does the feedback teach you?""]","[""True"",""$1.60"",""As many or as few as I wish"",""5% of my score on a random round"",""All of the above.""]",48276,,,125378,,,survey-multi-choice,,61
,,,"[True, True, True, True]",,,,"[""True or false: The hidden values will change each time I start a new round."",""How much does it cost to observe each hidden value?"",""How many hidden values am I allowed to observe in each round?"",""How is your bonus determined?""]","[""True"",""$1.60"",""As many or as few as I wish"",""5% of my score on a random round""]",11066,,,93614,,,survey-multi-choice,,62
,,,"[True, False, False, False]",,,,"[""True or false: The hidden values will change each time I start a new round."",""How much does it cost to observe each hidden value?"",""How many hidden values am I allowed to observe in each round?"",""How is your bonus determined?""]","[""True"",""$0.05"",""At most 1"",""10% of my best score on any round""]",20861,,,47632,,,survey-multi-choice,,63
,,,"[True, True, True, True]",,,,"[""True or false: The hidden values will change each time I start a new round."",""How much does it cost to observe each hidden value?"",""How many hidden values am I allowed to observe in each round?"",""How is your bonus determined?""]","[""True"",""$1.60"",""As many or as few as I wish"",""5% of my score on a random round""]",11105,,,95798,,,survey-multi-choice,,63
,,,"[True, False, True, False]",,,,"[""True or false: The hidden values will change each time I start a new round."",""How much does it cost to observe each hidden value?"",""How many hidden values am I allowed to observe in each round?"",""How is your bonus determined?""]","[""True"",""$0.05"",""As many or as few as I wish"",""10% of my best score on any round""]",10859,,,20934,,,survey-multi-choice,,64
,,,"[True, True, True, True]",,,,"[""True or false: The hidden values will change each time I start a new round."",""How much does it cost to observe each hidden value?"",""How many hidden values am I allowed to observe in each round?"",""How is your bonus determined?""]","[""True"",""$1.60"",""As many or as few as I wish"",""5% of my score on a random round""]",9653,,,56166,,,survey-multi-choice,,64
,,,"[True, True, True, True, True]",,,,"[""True or false: The hidden values will change each time I start a new round."",""How much does it cost to observe each hidden value?"",""How many hidden values am I allowed to observe in each round?"",""How is your bonus determined?"",""What does the feedback teach you?""]","[""True"",""$1.60"",""As many or as few as I wish"",""5% of my score on a random round"",""All of the above.""]",27744,,,405681,,,survey-multi-choice,,65
,,,"[True, True, True, True, True]",,,,"[""True or false: The hidden values will change each time I start a new round."",""How much does it cost to observe each hidden value?"",""How many hidden values am I allowed to observe in each round?"",""How is your bonus determined?"",""What does the feedback teach you?""]","[""True"",""$1.60"",""As many or as few as I wish"",""5% of my score on a random round"",""All of the above.""]",24256,,,166141,,,survey-multi-choice,,66
,,,"[True, True, True, True, False]",,,,"[""True or false: The hidden values will change each time I start a new round."",""How much does it cost to observe each hidden value?"",""How many hidden values am I allowed to observe in each round?"",""How is your bonus determined?"",""What does the feedback teach you?""]","[""True"",""$1.60"",""As many or as few as I wish"",""5% of my score on a random round"",""Whether I observed the rewards of relevant locations.""]",50455,,,187925,,,survey-multi-choice,,67
,,,"[True, True, True, True, True]",,,,"[""True or false: The hidden values will change each time I start a new round."",""How much does it cost to observe each hidden value?"",""How many hidden values am I allowed to observe in each round?"",""How is your bonus determined?"",""What does the feedback teach you?""]","[""True"",""$1.60"",""As many or as few as I wish"",""5% of my score on a random round"",""All of the above.""]",10256,,,231646,,,survey-multi-choice,,67
,,,"[True, True, True, True, True]",,,,"[""True or false: The hidden values will change each time I start a new round."",""How much does it cost to observe each hidden value?"",""How many hidden values am I allowed to observe in each round?"",""How is your bonus determined?"",""What does the feedback teach you?""]","[""True"",""$1.60"",""As many or as few as I wish"",""5% of my score on a random round"",""All of the above.""]",29744,,,225352,,,survey-multi-choice,,68
,,,"[True, True, True, True]",,,,"[""True or false: The hidden values will change each time I start a new round."",""How much does it cost to observe each hidden value?"",""How many hidden values am I allowed to observe in each round?"",""How is your bonus determined?""]","[""True"",""$1.60"",""As many or as few as I wish"",""5% of my score on a random round""]",11552,,,61281,,,survey-multi-choice,,69
,,,"[True, False, False, True, True]",,,,"[""True or false: The hidden values will change each time I start a new round."",""How much does it cost to observe each hidden value?"",""How many hidden values am I allowed to observe in each round?"",""How is your bonus determined?"",""What does the feedback teach you?""]","[""True"",""$0.05"",""At most 1"",""5% of my score on a random round"",""All of the above.""]",23626,,,108966,,,survey-multi-choice,,70
,,,"[True, True, True, True, True]",,,,"[""True or false: The hidden values will change each time I start a new round."",""How much does it cost to observe each hidden value?"",""How many hidden values am I allowed to observe in each round?"",""How is your bonus determined?"",""What does the feedback teach you?""]","[""True"",""$1.60"",""As many or as few as I wish"",""5% of my score on a random round"",""All of the above.""]",10866,,,144112,,,survey-multi-choice,,70
,,,"[True, False, False, False, True]",,,,"[""True or false: The hidden values will change each time I start a new round."",""How much does it cost to observe each hidden value?"",""How many hidden values am I allowed to observe in each round?"",""How is your bonus determined?"",""What does the feedback teach you?""]","[""True"",""$0.05"",""At most 5"",""10% of my best score on any round"",""All of the above.""]",27427,,,91774,,,survey-multi-choice,,71
,,,"[True, True, True, True, True]",,,,"[""True or false: The hidden values will change each time I start a new round."",""How much does it cost to observe each hidden value?"",""How many hidden values am I allowed to observe in each round?"",""How is your bonus determined?"",""What does the feedback teach you?""]","[""True"",""$1.60"",""As many or as few as I wish"",""5% of my score on a random round"",""All of the above.""]",17222,,,171899,,,survey-multi-choice,,71
,,,"[True, True, True, True, True]",,,,"[""True or false: The hidden values will change each time I start a new round."",""How much does it cost to observe each hidden value?"",""How many hidden values am I allowed to observe in each round?"",""How is your bonus determined?"",""What does the feedback teach you?""]","[""True"",""$1.60"",""As many or as few as I wish"",""5% of my score on a random round"",""All of the above.""]",126069,,,397930,,,survey-multi-choice,,72
,,,"[False, True, False, False]",,,,"[""True or false: The hidden values will change each time I start a new round."",""How much does it cost to observe each hidden value?"",""How many hidden values am I allowed to observe in each round?"",""How is your bonus determined?""]","[""False"",""$1.60"",""At most 1"",""5% of my best score on any round""]",20349,,,63519,,,survey-multi-choice,,73
,,,"[False, True, False, True]",,,,"[""True or false: The hidden values will change each time I start a new round."",""How much does it cost to observe each hidden value?"",""How many hidden values am I allowed to observe in each round?"",""How is your bonus determined?""]","[""False"",""$1.60"",""At most 1"",""5% of my score on a random round""]",19007,,,130523,,,survey-multi-choice,,73
,,,"[False, True, False, True]",,,,"[""True or false: The hidden values will change each time I start a new round."",""How much does it cost to observe each hidden value?"",""How many hidden values am I allowed to observe in each round?"",""How is your bonus determined?""]","[""False"",""$1.60"",""At most 10"",""5% of my score on a random round""]",20544,,,162558,,,survey-multi-choice,,73
,,,"[True, True, False, True]",,,,"[""True or false: The hidden values will change each time I start a new round."",""How much does it cost to observe each hidden value?"",""How many hidden values am I allowed to observe in each round?"",""How is your bonus determined?""]","[""True"",""$1.60"",""At most 1"",""5% of my score on a random round""]",5245,,,177515,,,survey-multi-choice,,73
,,,"[True, True, False, True]",,,,"[""True or false: The hidden values will change each time I start a new round."",""How much does it cost to observe each hidden value?"",""How many hidden values am I allowed to observe in each round?"",""How is your bonus determined?""]","[""True"",""$1.60"",""At most 1"",""5% of my score on a random round""]",25176,,,209364,,,survey-multi-choice,,73
,,,"[True, True, False, False]",,,,"[""True or false: The hidden values will change each time I start a new round."",""How much does it cost to observe each hidden value?"",""How many hidden values am I allowed to observe in each round?"",""How is your bonus determined?""]","[""True"",""$1.60"",""At most 1"",""5% of my best score on any round""]",6724,,,222591,,,survey-multi-choice,,73
,,,"[False, True, False, False]",,,,"[""True or false: The hidden values will change each time I start a new round."",""How much does it cost to observe each hidden value?"",""How many hidden values am I allowed to observe in each round?"",""How is your bonus determined?""]","[""False"",""$1.60"",""At most 1"",""5% of my best score on any round""]",7363,,,235118,,,survey-multi-choice,,73
,,,"[True, True, True, True]",,,,"[""True or false: The hidden values will change each time I start a new round."",""How much does it cost to observe each hidden value?"",""How many hidden values am I allowed to observe in each round?"",""How is your bonus determined?""]","[""True"",""$1.60"",""As many or as few as I wish"",""5% of my score on a random round""]",10068,,,307337,,,survey-multi-choice,,73
,,,"[True, True, True, False]",,,,"[""True or false: The hidden values will change each time I start a new round."",""How much does it cost to observe each hidden value?"",""How many hidden values am I allowed to observe in each round?"",""How is your bonus determined?""]","[""True"",""$1.60"",""As many or as few as I wish"",""5% of my best score on any round""]",36524,,,104298,,,survey-multi-choice,,74
,,,"[True, True, True, True]",,,,"[""True or false: The hidden values will change each time I start a new round."",""How much does it cost to observe each hidden value?"",""How many hidden values am I allowed to observe in each round?"",""How is your bonus determined?""]","[""True"",""$1.60"",""As many or as few as I wish"",""5% of my score on a random round""]",11588,,,155197,,,survey-multi-choice,,74
,,,"[False, False, True, True, True]",,,,"[""True or false: The hidden values will change each time I start a new round."",""How much does it cost to observe each hidden value?"",""How many hidden values am I allowed to observe in each round?"",""How is your bonus determined?"",""What does the feedback teach you?""]","[""False"",""$0.05"",""As many or as few as I wish"",""5% of my score on a random round"",""All of the above.""]",60295,,,263500,,,survey-multi-choice,,75
,,,"[True, True, True, True, False]",,,,"[""True or false: The hidden values will change each time I start a new round."",""How much does it cost to observe each hidden value?"",""How many hidden values am I allowed to observe in each round?"",""How is your bonus determined?"",""What does the feedback teach you?""]","[""True"",""$1.60"",""As many or as few as I wish"",""5% of my score on a random round"",""Whether I chose the move that was best according to the information I had.""]",84684,,,549176,,,survey-multi-choice,,75
,,,"[True, True, True, True, True]",,,,"[""True or false: The hidden values will change each time I start a new round."",""How much does it cost to observe each hidden value?"",""How many hidden values am I allowed to observe in each round?"",""How is your bonus determined?"",""What does the feedback teach you?""]","[""True"",""$1.60"",""As many or as few as I wish"",""5% of my score on a random round"",""All of the above.""]",48028,,,746965,,,survey-multi-choice,,75
,,,"[True, True, True, True, True]",,,,"[""True or false: The hidden values will change each time I start a new round."",""How much does it cost to observe each hidden value?"",""How many hidden values am I allowed to observe in each round?"",""How is your bonus determined?"",""What does the feedback teach you?""]","[""True"",""$1.60"",""As many or as few as I wish"",""5% of my score on a random round"",""All of the above.""]",54959,,,241039,,,survey-multi-choice,,76
,,,"[True, False, True, True, True]",,,,"[""True or false: The hidden values will change each time I start a new round."",""How much does it cost to observe each hidden value?"",""How many hidden values am I allowed to observe in each round?"",""How is your bonus determined?"",""What does the feedback teach you?""]","[""True"",""$0.05"",""As many or as few as I wish"",""5% of my score on a random round"",""All of the above.""]",17839,,,70152,,,survey-multi-choice,,77
,,,"[True, True, True, True, True]",,,,"[""True or false: The hidden values will change each time I start a new round."",""How much does it cost to observe each hidden value?"",""How many hidden values am I allowed to observe in each round?"",""How is your bonus determined?"",""What does the feedback teach you?""]","[""True"",""$1.60"",""As many or as few as I wish"",""5% of my score on a random round"",""All of the above.""]",12472,,,116530,,,survey-multi-choice,,77
,,,"[True, True, True, False, True]",,,,"[""True or false: The hidden values will change each time I start a new round."",""How much does it cost to observe each hidden value?"",""How many hidden values am I allowed to observe in each round?"",""How is your bonus determined?"",""What does the feedback teach you?""]","[""True"",""$1.60"",""As many or as few as I wish"",""10% of my best score on any round"",""All of the above.""]",21103,,,121654,,,survey-multi-choice,,78
,,,"[True, True, True, True, True]",,,,"[""True or false: The hidden values will change each time I start a new round."",""How much does it cost to observe each hidden value?"",""How many hidden values am I allowed to observe in each round?"",""How is your bonus determined?"",""What does the feedback teach you?""]","[""True"",""$1.60"",""As many or as few as I wish"",""5% of my score on a random round"",""All of the above.""]",10812,,,162248,,,survey-multi-choice,,78
,,,"[True, True, True, True]",,,,"[""True or false: The hidden values will change each time I start a new round."",""How much does it cost to observe each hidden value?"",""How many hidden values am I allowed to observe in each round?"",""How is your bonus determined?""]","[""True"",""$1.60"",""As many or as few as I wish"",""5% of my score on a random round""]",31532,,,194492,,,survey-multi-choice,,79
,,,"[True, False, True, False]",,,,"[""True or false: The hidden values will change each time I start a new round."",""How much does it cost to observe each hidden value?"",""How many hidden values am I allowed to observe in each round?"",""How is your bonus determined?""]","[""True"",""$0.05"",""As many or as few as I wish"",""5% of my best score on any round""]",12978,,,50631,,,survey-multi-choice,,80
,,,"[True, True, True, True]",,,,"[""True or false: The hidden values will change each time I start a new round."",""How much does it cost to observe each hidden value?"",""How many hidden values am I allowed to observe in each round?"",""How is your bonus determined?""]","[""True"",""$1.60"",""As many or as few as I wish"",""5% of my score on a random round""]",6847,,,88605,,,survey-multi-choice,,80
,,,"[True, True, True, True, True]",,,,"[""True or false: The hidden values will change each time I start a new round."",""How much does it cost to observe each hidden value?"",""How many hidden values am I allowed to observe in each round?"",""How is your bonus determined?"",""What does the feedback teach you?""]","[""True"",""$1.60"",""As many or as few as I wish"",""5% of my score on a random round"",""All of the above.""]",22696,,,78841,,,survey-multi-choice,,81
,,,"[True, True, True, True]",,,,"[""True or false: The hidden values will change each time I start a new round."",""How much does it cost to observe each hidden value?"",""How many hidden values am I allowed to observe in each round?"",""How is your bonus determined?""]","[""True"",""$1.60"",""As many or as few as I wish"",""5% of my score on a random round""]",20338,,,145866,,,survey-multi-choice,,82
,,,"[True, False, True, False, False]",,,,"[""True or false: The hidden values will change each time I start a new round."",""How much does it cost to observe each hidden value?"",""How many hidden values am I allowed to observe in each round?"",""How is your bonus determined?"",""What does the feedback teach you?""]","[""True"",""$0.05"",""As many or as few as I wish"",""5% of my best score on any round"",""Whether I chose the move that was best according to the information I had.""]",35861,,,158519,,,survey-multi-choice,,83
,,,"[True, True, True, False, True]",,,,"[""True or false: The hidden values will change each time I start a new round."",""How much does it cost to observe each hidden value?"",""How many hidden values am I allowed to observe in each round?"",""How is your bonus determined?"",""What does the feedback teach you?""]","[""True"",""$1.60"",""As many or as few as I wish"",""5% of my best score on any round"",""All of the above.""]",29700,,,278198,,,survey-multi-choice,,83
,,,"[True, True, True, False, True]",,,,"[""True or false: The hidden values will change each time I start a new round."",""How much does it cost to observe each hidden value?"",""How many hidden values am I allowed to observe in each round?"",""How is your bonus determined?"",""What does the feedback teach you?""]","[""True"",""$1.60"",""As many or as few as I wish"",""5% of my best score on any round"",""All of the above.""]",12683,,,355974,,,survey-multi-choice,,83
,,,"[True, True, True, False, False]",,,,"[""True or false: The hidden values will change each time I start a new round."",""How much does it cost to observe each hidden value?"",""How many hidden values am I allowed to observe in each round?"",""How is your bonus determined?"",""What does the feedback teach you?""]","[""True"",""$1.60"",""As many or as few as I wish"",""5% of my best score on any round"",""Whether I chose the move that was best according to the information I had.""]",12347,,,385642,,,survey-multi-choice,,83
,,,"[True, True, True, False, False]",,,,"[""True or false: The hidden values will change each time I start a new round."",""How much does it cost to observe each hidden value?"",""How many hidden values am I allowed to observe in each round?"",""How is your bonus determined?"",""What does the feedback teach you?""]","[""True"",""$1.60"",""As many or as few as I wish"",""5% of my best score on any round"",""The length of the delay is based on how much more money I could have earned by planning and deciding better.""]",19392,,,423094,,,survey-multi-choice,,83
,,,"[True, True, True, True, True]",,,,"[""True or false: The hidden values will change each time I start a new round."",""How much does it cost to observe each hidden value?"",""How many hidden values am I allowed to observe in each round?"",""How is your bonus determined?"",""What does the feedback teach you?""]","[""True"",""$1.60"",""As many or as few as I wish"",""5% of my score on a random round"",""All of the above.""]",11151,,,514258,,,survey-multi-choice,,83
,,,"[True, False, True, True, True]",,,,"[""True or false: The hidden values will change each time I start a new round."",""How much does it cost to observe each hidden value?"",""How many hidden values am I allowed to observe in each round?"",""How is your bonus determined?"",""What does the feedback teach you?""]","[""True"",""$0.01"",""As many or as few as I wish"",""5% of my score on a random round"",""All of the above.""]",23849,,,36470,,,survey-multi-choice,,84
,,,"[True, False, True, True, False]",,,,"[""True or false: The hidden values will change each time I start a new round."",""How much does it cost to observe each hidden value?"",""How many hidden values am I allowed to observe in each round?"",""How is your bonus determined?"",""What does the feedback teach you?""]","[""True"",""$0.01"",""As many or as few as I wish"",""5% of my score on a random round"",""Whether I chose the move that was best according to the information I had.""]",14892,,,72549,,,survey-multi-choice,,84
,,,"[True, False, True, True, False]",,,,"[""True or false: The hidden values will change each time I start a new round."",""How much does it cost to observe each hidden value?"",""How many hidden values am I allowed to observe in each round?"",""How is your bonus determined?"",""What does the feedback teach you?""]","[""True"",""$0.01"",""As many or as few as I wish"",""5% of my score on a random round"",""The length of the delay is based on how much more money I could have earned by planning and deciding better.""]",9224,,,94693,,,survey-multi-choice,,84
,,,"[True, True, True, True, False]",,,,"[""True or false: The hidden values will change each time I start a new round."",""How much does it cost to observe each hidden value?"",""How many hidden values am I allowed to observe in each round?"",""How is your bonus determined?"",""What does the feedback teach you?""]","[""True"",""$1.60"",""As many or as few as I wish"",""5% of my score on a random round"",""The length of the delay is based on how much more money I could have earned by planning and deciding better.""]",12378,,,127931,,,survey-multi-choice,,84
,,,"[True, True, True, True, True]",,,,"[""True or false: The hidden values will change each time I start a new round."",""How much does it cost to observe each hidden value?"",""How many hidden values am I allowed to observe in each round?"",""How is your bonus determined?"",""What does the feedback teach you?""]","[""True"",""$1.60"",""As many or as few as I wish"",""5% of my score on a random round"",""All of the above.""]",9355,,,148485,,,survey-multi-choice,,84
,,,"[True, True, False, True, True]",,,,"[""True or false: The hidden values will change each time I start a new round."",""How much does it cost to observe each hidden value?"",""How many hidden values am I allowed to observe in each round?"",""How is your bonus determined?"",""What does the feedback teach you?""]","[""True"",""$1.60"",""At most 5"",""5% of my score on a random round"",""All of the above.""]",31835,,,99773,,,survey-multi-choice,,85
,,,"[True, True, True, True, True]",,,,"[""True or false: The hidden values will change each time I start a new round."",""How much does it cost to observe each hidden value?"",""How many hidden values am I allowed to observe in each round?"",""How is your bonus determined?"",""What does the feedback teach you?""]","[""True"",""$1.60"",""As many or as few as I wish"",""5% of my score on a random round"",""All of the above.""]",13037,,,120961,,,survey-multi-choice,,85
,,,"[True, True, True, True, False]",,,,"[""True or false: The hidden values will change each time I start a new round."",""How much does it cost to observe each hidden value?"",""How many hidden values am I allowed to observe in each round?"",""How is your bonus determined?"",""What does the feedback teach you?""]","[""True"",""$1.60"",""As many or as few as I wish"",""5% of my score on a random round"",""Whether I chose the move that was best according to the information I had.""]",69707,,,414663,,,survey-multi-choice,,86
,,,"[True, True, True, True, True]",,,,"[""True or false: The hidden values will change each time I start a new round."",""How much does it cost to observe each hidden value?"",""How many hidden values am I allowed to observe in each round?"",""How is your bonus determined?"",""What does the feedback teach you?""]","[""True"",""$1.60"",""As many or as few as I wish"",""5% of my score on a random round"",""All of the above.""]",209857,,,777436,,,survey-multi-choice,,86
,,,"[True, True, True, True, True]",,,,"[""True or false: The hidden values will change each time I start a new round."",""How much does it cost to observe each hidden value?"",""How many hidden values am I allowed to observe in each round?"",""How is your bonus determined?"",""What does the feedback teach you?""]","[""True"",""$1.60"",""As many or as few as I wish"",""5% of my score on a random round"",""All of the above.""]",43253,,,136411,,,survey-multi-choice,,87
,,,"[True, True, True, False, True]",,,,"[""True or false: The hidden values will change each time I start a new round."",""How much does it cost to observe each hidden value?"",""How many hidden values am I allowed to observe in each round?"",""How is your bonus determined?"",""What does the feedback teach you?""]","[""True"",""$1.60"",""As many or as few as I wish"",""5% of my best score on any round"",""All of the above.""]",29098,,,124377,,,survey-multi-choice,,88
,,,"[True, True, True, True, True]",,,,"[""True or false: The hidden values will change each time I start a new round."",""How much does it cost to observe each hidden value?"",""How many hidden values am I allowed to observe in each round?"",""How is your bonus determined?"",""What does the feedback teach you?""]","[""True"",""$1.60"",""As many or as few as I wish"",""5% of my score on a random round"",""All of the above.""]",1175491,,,1360209,,,survey-multi-choice,,88
,,,"[True, True, True, True]",,,,"[""True or false: The hidden values will change each time I start a new round."",""How much does it cost to observe each hidden value?"",""How many hidden values am I allowed to observe in each round?"",""How is your bonus determined?""]","[""True"",""$1.60"",""As many or as few as I wish"",""5% of my score on a random round""]",18501,,,302201,,,survey-multi-choice,,89
,,,"[True, True, True, True, True]",,,,"[""True or false: The hidden values will change each time I start a new round."",""How much does it cost to observe each hidden value?"",""How many hidden values am I allowed to observe in each round?"",""How is your bonus determined?"",""What does the feedback teach you?""]","[""True"",""$1.60"",""As many or as few as I wish"",""5% of my score on a random round"",""All of the above.""]",24056,,,147564,,,survey-multi-choice,,90
,,,"[True, True, True, True, True]",,,,"[""True or false: The hidden values will change each time I start a new round."",""How much does it cost to observe each hidden value?"",""How many hidden values am I allowed to observe in each round?"",""How is your bonus determined?"",""What does the feedback teach you?""]","[""True"",""$1.60"",""As many or as few as I wish"",""5% of my score on a random round"",""All of the above.""]",17936,,,139778,,,survey-multi-choice,,91
,,,"[True, True, True, False, False]",,,,"[""True or false: The hidden values will change each time I start a new round."",""How much does it cost to observe each hidden value?"",""How many hidden values am I allowed to observe in each round?"",""How is your bonus determined?"",""What does the feedback teach you?""]","[""True"",""$1.60"",""As many or as few as I wish"",""10% of my best score on any round"",""Whether I chose the move that was best according to the information I had.""]",28162,,,122896,,,survey-multi-choice,,92
,,,"[True, True, True, True, False]",,,,"[""True or false: The hidden values will change each time I start a new round."",""How much does it cost to observe each hidden value?"",""How many hidden values am I allowed to observe in each round?"",""How is your bonus determined?"",""What does the feedback teach you?""]","[""True"",""$1.60"",""As many or as few as I wish"",""5% of my score on a random round"",""Whether I chose the move that was best according to the information I had.""]",11037,,,164914,,,survey-multi-choice,,92
,,,"[True, True, True, True, True]",,,,"[""True or false: The hidden values will change each time I start a new round."",""How much does it cost to observe each hidden value?"",""How many hidden values am I allowed to observe in each round?"",""How is your bonus determined?"",""What does the feedback teach you?""]","[""True"",""$1.60"",""As many or as few as I wish"",""5% of my score on a random round"",""All of the above.""]",12321,,,223055,,,survey-multi-choice,,92
,,,"[True, True, True, False, True]",,,,"[""True or false: The hidden values will change each time I start a new round."",""How much does it cost to observe each hidden value?"",""How many hidden values am I allowed to observe in each round?"",""How is your bonus determined?"",""What does the feedback teach you?""]","[""True"",""$1.60"",""As many or as few as I wish"",""10% of my total score on all rounds"",""All of the above.""]",22631,,,223305,,,survey-multi-choice,,93
,,,"[True, True, True, True, True]",,,,"[""True or false: The hidden values will change each time I start a new round."",""How much does it cost to observe each hidden value?"",""How many hidden values am I allowed to observe in each round?"",""How is your bonus determined?"",""What does the feedback teach you?""]","[""True"",""$1.60"",""As many or as few as I wish"",""5% of my score on a random round"",""All of the above.""]",11589,,,295340,,,survey-multi-choice,,93
,,,"[True, True, True, True, True]",,,,"[""True or false: The hidden values will change each time I start a new round."",""How much does it cost to observe each hidden value?"",""How many hidden values am I allowed to observe in each round?"",""How is your bonus determined?"",""What does the feedback teach you?""]","[""True"",""$1.60"",""As many or as few as I wish"",""5% of my score on a random round"",""All of the above.""]",60151,,,288089,,,survey-multi-choice,,94
,,,"[True, True, True, False]",,,,"[""True or false: The hidden values will change each time I start a new round."",""How much does it cost to observe each hidden value?"",""How many hidden values am I allowed to observe in each round?"",""How is your bonus determined?""]","[""True"",""$1.60"",""As many or as few as I wish"",""10% of my total score on all rounds""]",21833,,,150529,,,survey-multi-choice,,95
,,,"[True, True, True, True]",,,,"[""True or false: The hidden values will change each time I start a new round."",""How much does it cost to observe each hidden value?"",""How many hidden values am I allowed to observe in each round?"",""How is your bonus determined?""]","[""True"",""$1.60"",""As many or as few as I wish"",""5% of my score on a random round""]",17919,,,211733,,,survey-multi-choice,,95
,,,"[True, True, False, False]",,,,"[""True or false: The hidden values will change each time I start a new round."",""How much does it cost to observe each hidden value?"",""How many hidden values am I allowed to observe in each round?"",""How is your bonus determined?""]","[""True"",""$1.60"",""At most 1"",""10% of my total score on all rounds""]",49847,,,105239,,,survey-multi-choice,,96
,,,"[True, True, True, True]",,,,"[""True or false: The hidden values will change each time I start a new round."",""How much does it cost to observe each hidden value?"",""How many hidden values am I allowed to observe in each round?"",""How is your bonus determined?""]","[""True"",""$1.60"",""As many or as few as I wish"",""5% of my score on a random round""]",20675,,,179523,,,survey-multi-choice,,96
,,,"[True, True, True, True, True]",,,,"[""True or false: The hidden values will change each time I start a new round."",""How much does it cost to observe each hidden value?"",""How many hidden values am I allowed to observe in each round?"",""How is your bonus determined?"",""What does the feedback teach you?""]","[""True"",""$1.60"",""As many or as few as I wish"",""5% of my score on a random round"",""All of the above.""]",23915,,,174631,,,survey-multi-choice,,97
,,,"[True, True, True, True]",,,,"[""True or false: The hidden values will change each time I start a new round."",""How much does it cost to observe each hidden value?"",""How many hidden values am I allowed to observe in each round?"",""How is your bonus determined?""]","[""True"",""$1.60"",""As many or as few as I wish"",""5% of my score on a random round""]",20217,,,157391,,,survey-multi-choice,,98
,,,"[True, False, True, True, False]",,,,"[""True or false: The hidden values will change each time I start a new round."",""How much does it cost to observe each hidden value?"",""How many hidden values am I allowed to observe in each round?"",""How is your bonus determined?"",""What does the feedback teach you?""]","[""True"",""$0.05"",""As many or as few as I wish"",""5% of my score on a random round"",""Whether I chose the move that was best according to the information I had.""]",43189,,,130006,,,survey-multi-choice,,99
,,,"[True, True, True, True, True]",,,,"[""True or false: The hidden values will change each time I start a new round."",""How much does it cost to observe each hidden value?"",""How many hidden values am I allowed to observe in each round?"",""How is your bonus determined?"",""What does the feedback teach you?""]","[""True"",""$1.60"",""As many or as few as I wish"",""5% of my score on a random round"",""All of the above.""]",22782,,,284589,,,survey-multi-choice,,99
,,,"[True, True, True, True]",,,,"[""True or false: The hidden values will change each time I start a new round."",""How much does it cost to observe each hidden value?"",""How many hidden values am I allowed to observe in each round?"",""How is your bonus determined?""]","[""True"",""$1.60"",""As many or as few as I wish"",""5% of my score on a random round""]",29362,,,76326,,,survey-multi-choice,,100
