action_times,actions,button_pressed,correct,delays,path,queries,questions,responses,rt,score,stimulus,time_elapsed,trial_index,trial_i,trial_type,view_history,pid
,,0.0,,,,,,,2699,,"<h1 id=""youvecompletedthehit"">You've completed the HIT</h1>

<p>Thanks again for participating. We hope you had fun!</p>

<p>Based on your performance, you will be
awarded a bonus of <strong>$1.84</strong>.</p>",804702,,,button-response,,0
,,0.0,,,,,,,5762,,"<h1 id=""youvecompletedthehit"">You've completed the HIT</h1>

<p>Thanks again for participating. We hope you had fun!</p>

<p>Based on your performance, you will be
awarded a bonus of <strong>$1.69</strong>.</p>",840952,,,button-response,,1
,,0.0,,,,,,,4342,,"<h1 id=""youvecompletedthehit"">You've completed the HIT</h1>

<p>Thanks again for participating. We hope you had fun!</p>

<p>Based on your performance, you will be
awarded a bonus of <strong>$0.00</strong>.</p>",1795636,,,button-response,,2
,,0.0,,,,,,,5954,,"<h1 id=""youvecompletedthehit"">You've completed the HIT</h1>

<p>Thanks again for participating. We hope you had fun!</p>

<p>Based on your performance, you will be
awarded a bonus of <strong>$0.30</strong>.</p>",965917,,,button-response,,3
,,0.0,,,,,,,5003,,"<h1 id=""youvecompletedthehit"">You've completed the HIT</h1>

<p>Thanks again for participating. We hope you had fun!</p>

<p>Based on your performance, you will be
awarded a bonus of <strong>$0.90</strong>.</p>",1478478,,,button-response,,4
,,0.0,,,,,,,7724,,"<h1 id=""youvecompletedthehit"">You've completed the HIT</h1>

<p>Thanks again for participating. We hope you had fun!</p>

<p>Based on your performance, you will be
awarded a bonus of <strong>$0.90</strong>.</p>",894847,,,button-response,,5
,,0.0,,,,,,,7983,,"<h1 id=""youvecompletedthehit"">You've completed the HIT</h1>

<p>Thanks again for participating. We hope you had fun!</p>

<p>Based on your performance, you will be
awarded a bonus of <strong>$2.09</strong>.</p>",941624,,,button-response,,6
,,0.0,,,,,,,2703,,"<h1 id=""youvecompletedthehit"">You've completed the HIT</h1>

<p>Thanks again for participating. We hope you had fun!</p>

<p>Based on your performance, you will be
awarded a bonus of <strong>$0.05</strong>.</p>",1262206,,,button-response,,7
,,0.0,,,,,,,5239,,"<h1 id=""youvecompletedthehit"">You've completed the HIT</h1>

<p>Thanks again for participating. We hope you had fun!</p>

<p>Based on your performance, you will be
awarded a bonus of <strong>$1.89</strong>.</p>",970199,,,button-response,,8
,,0.0,,,,,,,4096,,"<h1 id=""youvecompletedthehit"">You've completed the HIT</h1>

<p>Thanks again for participating. We hope you had fun!</p>

<p>Based on your performance, you will be
awarded a bonus of <strong>$1.55</strong>.</p>",885002,,,button-response,,10
,,0.0,,,,,,,1859,,"<h1 id=""youvecompletedthehit"">You've completed the HIT</h1>

<p>Thanks again for participating. We hope you had fun!</p>

<p>Based on your performance, you will be
awarded a bonus of <strong>$1.15</strong>.</p>",995985,,,button-response,,13
,,0.0,,,,,,,4360,,"<h1 id=""youvecompletedthehit"">You've completed the HIT</h1>

<p>Thanks again for participating. We hope you had fun!</p>

<p>Based on your performance, you will be
awarded a bonus of <strong>$1.86</strong>.</p>",1330048,,,button-response,,14
,,0.0,,,,,,,7670,,"<h1 id=""youvecompletedthehit"">You've completed the HIT</h1>

<p>Thanks again for participating. We hope you had fun!</p>

<p>Based on your performance, you will be
awarded a bonus of <strong>$1.69</strong>.</p>",1107300,,,button-response,,15
,,0.0,,,,,,,5558,,"<h1 id=""youvecompletedthehit"">You've completed the HIT</h1>

<p>Thanks again for participating. We hope you had fun!</p>

<p>Based on your performance, you will be
awarded a bonus of <strong>$1.08</strong>.</p>",1191512,,,button-response,,16
,,0.0,,,,,,,4056,,"<h1 id=""youvecompletedthehit"">You've completed the HIT</h1>

<p>Thanks again for participating. We hope you had fun!</p>

<p>Based on your performance, you will be
awarded a bonus of <strong>$0.05</strong>.</p>",1003000,,,button-response,,17
,,0.0,,,,,,,5065,,"<h1 id=""youvecompletedthehit"">You've completed the HIT</h1>

<p>Thanks again for participating. We hope you had fun!</p>

<p>Based on your performance, you will be
awarded a bonus of <strong>$1.88</strong>.</p>",1145804,,,button-response,,19
,,0.0,,,,,,,8557,,"<h1 id=""youvecompletedthehit"">You've completed the HIT</h1>

<p>Thanks again for participating. We hope you had fun!</p>

<p>Based on your performance, you will be
awarded a bonus of <strong>$2.16</strong>.</p>",1185864,,,button-response,,20
,,0.0,,,,,,,3396,,"<h1 id=""youvecompletedthehit"">You've completed the HIT</h1>

<p>Thanks again for participating. We hope you had fun!</p>

<p>Based on your performance, you will be
awarded a bonus of <strong>$0.00</strong>.</p>",1059999,,,button-response,,21
,,0.0,,,,,,,3032,,"<h1 id=""youvecompletedthehit"">You've completed the HIT</h1>

<p>Thanks again for participating. We hope you had fun!</p>

<p>Based on your performance, you will be
awarded a bonus of <strong>$1.84</strong>.</p>",1054776,,,button-response,,22
,,0.0,,,,,,,12570,,"<h1 id=""youvecompletedthehit"">You've completed the HIT</h1>

<p>Thanks again for participating. We hope you had fun!</p>

<p>Based on your performance, you will be
awarded a bonus of <strong>$1.89</strong>.</p>",940993,,,button-response,,23
,,0.0,,,,,,,22828,,"<h1 id=""youvecompletedthehit"">You've completed the HIT</h1>

<p>Thanks again for participating. We hope you had fun!</p>

<p>Based on your performance, you will be
awarded a bonus of <strong>$1.70</strong>.</p>",2299125,,,button-response,,24
,,0.0,,,,,,,4568,,"<h1 id=""youvecompletedthehit"">You've completed the HIT</h1>

<p>Thanks again for participating. We hope you had fun!</p>

<p>Based on your performance, you will be
awarded a bonus of <strong>$1.44</strong>.</p>",882051,,,button-response,,25
,,0.0,,,,,,,6653,,"<h1 id=""youvecompletedthehit"">You've completed the HIT</h1>

<p>Thanks again for participating. We hope you had fun!</p>

<p>Based on your performance, you will be
awarded a bonus of <strong>$2.10</strong>.</p>",2714100,,,button-response,,26
,,0.0,,,,,,,6817,,"<h1 id=""youvecompletedthehit"">You've completed the HIT</h1>

<p>Thanks again for participating. We hope you had fun!</p>

<p>Based on your performance, you will be
awarded a bonus of <strong>$1.40</strong>.</p>",2452910,,,button-response,,28
,,0.0,,,,,,,7044,,"<h1 id=""youvecompletedthehit"">You've completed the HIT</h1>

<p>Thanks again for participating. We hope you had fun!</p>

<p>Based on your performance, you will be
awarded a bonus of <strong>$0.05</strong>.</p>",1570554,,,button-response,,29
,,0.0,,,,,,,7049,,"<h1 id=""youvecompletedthehit"">You've completed the HIT</h1>

<p>Thanks again for participating. We hope you had fun!</p>

<p>Based on your performance, you will be
awarded a bonus of <strong>$0.80</strong>.</p>",1450696,,,button-response,,30
,,0.0,,,,,,,7808,,"<h1 id=""youvecompletedthehit"">You've completed the HIT</h1>

<p>Thanks again for participating. We hope you had fun!</p>

<p>Based on your performance, you will be
awarded a bonus of <strong>$1.16</strong>.</p>",1182309,,,button-response,,31
,,0.0,,,,,,,5369,,"<h1 id=""youvecompletedthehit"">You've completed the HIT</h1>

<p>Thanks again for participating. We hope you had fun!</p>

<p>Based on your performance, you will be
awarded a bonus of <strong>$2.05</strong>.</p>",1317561,,,button-response,,32
,,0.0,,,,,,,4524,,"<h1 id=""youvecompletedthehit"">You've completed the HIT</h1>

<p>Thanks again for participating. We hope you had fun!</p>

<p>Based on your performance, you will be
awarded a bonus of <strong>$0.30</strong>.</p>",918367,,,button-response,,34
,,0.0,,,,,,,3184,,"<h1 id=""youvecompletedthehit"">You've completed the HIT</h1>

<p>Thanks again for participating. We hope you had fun!</p>

<p>Based on your performance, you will be
awarded a bonus of <strong>$0.66</strong>.</p>",1007633,,,button-response,,36
,,0.0,,,,,,,13064,,"<h1 id=""youvecompletedthehit"">You've completed the HIT</h1>

<p>Thanks again for participating. We hope you had fun!</p>

<p>Based on your performance, you will be
awarded a bonus of <strong>$1.69</strong>.</p>",1861720,,,button-response,,37
,,0.0,,,,,,,7085,,"<h1 id=""youvecompletedthehit"">You've completed the HIT</h1>

<p>Thanks again for participating. We hope you had fun!</p>

<p>Based on your performance, you will be
awarded a bonus of <strong>$1.70</strong>.</p>",948183,,,button-response,,38
,,0.0,,,,,,,4335,,"<h1 id=""youvecompletedthehit"">You've completed the HIT</h1>

<p>Thanks again for participating. We hope you had fun!</p>

<p>Based on your performance, you will be
awarded a bonus of <strong>$1.86</strong>.</p>",821571,,,button-response,,39
,,0.0,,,,,,,5958,,"<h1 id=""youvecompletedthehit"">You've completed the HIT</h1>

<p>Thanks again for participating. We hope you had fun!</p>

<p>Based on your performance, you will be
awarded a bonus of <strong>$0.00</strong>.</p>",2836195,,,button-response,,40
,,0.0,,,,,,,4696,,"<h1 id=""youvecompletedthehit"">You've completed the HIT</h1>

<p>Thanks again for participating. We hope you had fun!</p>

<p>Based on your performance, you will be
awarded a bonus of <strong>$1.14</strong>.</p>",936878,,,button-response,,41
,,0.0,,,,,,,3371,,"<h1 id=""youvecompletedthehit"">You've completed the HIT</h1>

<p>Thanks again for participating. We hope you had fun!</p>

<p>Based on your performance, you will be
awarded a bonus of <strong>$1.37</strong>.</p>",1182689,,,button-response,,43
,,0.0,,,,,,,2746,,"<h1 id=""youvecompletedthehit"">You've completed the HIT</h1>

<p>Thanks again for participating. We hope you had fun!</p>

<p>Based on your performance, you will be
awarded a bonus of <strong>$0.20</strong>.</p>",1033111,,,button-response,,44
,,0.0,,,,,,,3595,,"<h1 id=""youvecompletedthehit"">You've completed the HIT</h1>

<p>Thanks again for participating. We hope you had fun!</p>

<p>Based on your performance, you will be
awarded a bonus of <strong>$0.00</strong>.</p>",1160267,,,button-response,,45
,,0.0,,,,,,,5102,,"<h1 id=""youvecompletedthehit"">You've completed the HIT</h1>

<p>Thanks again for participating. We hope you had fun!</p>

<p>Based on your performance, you will be
awarded a bonus of <strong>$0.05</strong>.</p>",882362,,,button-response,,46
,,0.0,,,,,,,7369,,"<h1 id=""youvecompletedthehit"">You've completed the HIT</h1>

<p>Thanks again for participating. We hope you had fun!</p>

<p>Based on your performance, you will be
awarded a bonus of <strong>$1.89</strong>.</p>",1191992,,,button-response,,47
,,0.0,,,,,,,6565,,"<h1 id=""youvecompletedthehit"">You've completed the HIT</h1>

<p>Thanks again for participating. We hope you had fun!</p>

<p>Based on your performance, you will be
awarded a bonus of <strong>$1.89</strong>.</p>",864212,,,button-response,,50
,,0.0,,,,,,,7428,,"<h1 id=""youvecompletedthehit"">You've completed the HIT</h1>

<p>Thanks again for participating. We hope you had fun!</p>

<p>Based on your performance, you will be
awarded a bonus of <strong>$0.56</strong>.</p>",886953,,,button-response,,52
,,0.0,,,,,,,8009,,"<h1 id=""youvecompletedthehit"">You've completed the HIT</h1>

<p>Thanks again for participating. We hope you had fun!</p>

<p>Based on your performance, you will be
awarded a bonus of <strong>$0.58</strong>.</p>",1073657,,,button-response,,53
,,0.0,,,,,,,5868,,"<h1 id=""youvecompletedthehit"">You've completed the HIT</h1>

<p>Thanks again for participating. We hope you had fun!</p>

<p>Based on your performance, you will be
awarded a bonus of <strong>$1.10</strong>.</p>",1259236,,,button-response,,54
,,0.0,,,,,,,7255,,"<h1 id=""youvecompletedthehit"">You've completed the HIT</h1>

<p>Thanks again for participating. We hope you had fun!</p>

<p>Based on your performance, you will be
awarded a bonus of <strong>$0.90</strong>.</p>",880481,,,button-response,,55
,,0.0,,,,,,,3239,,"<h1 id=""youvecompletedthehit"">You've completed the HIT</h1>

<p>Thanks again for participating. We hope you had fun!</p>

<p>Based on your performance, you will be
awarded a bonus of <strong>$0.61</strong>.</p>",983212,,,button-response,,56
,,0.0,,,,,,,2878,,"<h1 id=""youvecompletedthehit"">You've completed the HIT</h1>

<p>Thanks again for participating. We hope you had fun!</p>

<p>Based on your performance, you will be
awarded a bonus of <strong>$0.50</strong>.</p>",1255129,,,button-response,,58
,,0.0,,,,,,,6345,,"<h1 id=""youvecompletedthehit"">You've completed the HIT</h1>

<p>Thanks again for participating. We hope you had fun!</p>

<p>Based on your performance, you will be
awarded a bonus of <strong>$1.69</strong>.</p>",1129184,,,button-response,,59
,,0.0,,,,,,,8585,,"<h1 id=""youvecompletedthehit"">You've completed the HIT</h1>

<p>Thanks again for participating. We hope you had fun!</p>

<p>Based on your performance, you will be
awarded a bonus of <strong>$0.00</strong>.</p>",1032013,,,button-response,,60
,,0.0,,,,,,,2559,,"<h1 id=""youvecompletedthehit"">You've completed the HIT</h1>

<p>Thanks again for participating. We hope you had fun!</p>

<p>Based on your performance, you will be
awarded a bonus of <strong>$2.04</strong>.</p>",831438,,,button-response,,61
,,0.0,,,,,,,8689,,"<h1 id=""youvecompletedthehit"">You've completed the HIT</h1>

<p>Thanks again for participating. We hope you had fun!</p>

<p>Based on your performance, you will be
awarded a bonus of <strong>$1.84</strong>.</p>",860496,,,button-response,,62
,,0.0,,,,,,,6854,,"<h1 id=""youvecompletedthehit"">You've completed the HIT</h1>

<p>Thanks again for participating. We hope you had fun!</p>

<p>Based on your performance, you will be
awarded a bonus of <strong>$1.89</strong>.</p>",939669,,,button-response,,63
,,0.0,,,,,,,4158,,"<h1 id=""youvecompletedthehit"">You've completed the HIT</h1>

<p>Thanks again for participating. We hope you had fun!</p>

<p>Based on your performance, you will be
awarded a bonus of <strong>$0.40</strong>.</p>",796743,,,button-response,,64
,,0.0,,,,,,,5532,,"<h1 id=""youvecompletedthehit"">You've completed the HIT</h1>

<p>Thanks again for participating. We hope you had fun!</p>

<p>Based on your performance, you will be
awarded a bonus of <strong>$1.42</strong>.</p>",919901,,,button-response,,65
,,0.0,,,,,,,4761,,"<h1 id=""youvecompletedthehit"">You've completed the HIT</h1>

<p>Thanks again for participating. We hope you had fun!</p>

<p>Based on your performance, you will be
awarded a bonus of <strong>$0.66</strong>.</p>",1806497,,,button-response,,66
,,0.0,,,,,,,11794,,"<h1 id=""youvecompletedthehit"">You've completed the HIT</h1>

<p>Thanks again for participating. We hope you had fun!</p>

<p>Based on your performance, you will be
awarded a bonus of <strong>$1.97</strong>.</p>",2023425,,,button-response,,67
,,0.0,,,,,,,4200,,"<h1 id=""youvecompletedthehit"">You've completed the HIT</h1>

<p>Thanks again for participating. We hope you had fun!</p>

<p>Based on your performance, you will be
awarded a bonus of <strong>$0.15</strong>.</p>",1066765,,,button-response,,68
,,0.0,,,,,,,1404,,"<h1 id=""youvecompletedthehit"">You've completed the HIT</h1>

<p>Thanks again for participating. We hope you had fun!</p>

<p>Based on your performance, you will be
awarded a bonus of <strong>$2.10</strong>.</p>",1029646,,,button-response,,69
,,0.0,,,,,,,5359,,"<h1 id=""youvecompletedthehit"">You've completed the HIT</h1>

<p>Thanks again for participating. We hope you had fun!</p>

<p>Based on your performance, you will be
awarded a bonus of <strong>$0.40</strong>.</p>",962796,,,button-response,,70
,,0.0,,,,,,,4082,,"<h1 id=""youvecompletedthehit"">You've completed the HIT</h1>

<p>Thanks again for participating. We hope you had fun!</p>

<p>Based on your performance, you will be
awarded a bonus of <strong>$1.69</strong>.</p>",891026,,,button-response,,71
,,0.0,,,,,,,5646,,"<h1 id=""youvecompletedthehit"">You've completed the HIT</h1>

<p>Thanks again for participating. We hope you had fun!</p>

<p>Based on your performance, you will be
awarded a bonus of <strong>$1.69</strong>.</p>",794186,,,button-response,,72
,,0.0,,,,,,,2452,,"<h1 id=""youvecompletedthehit"">You've completed the HIT</h1>

<p>Thanks again for participating. We hope you had fun!</p>

<p>Based on your performance, you will be
awarded a bonus of <strong>$0.80</strong>.</p>",1386357,,,button-response,,73
,,0.0,,,,,,,2971,,"<h1 id=""youvecompletedthehit"">You've completed the HIT</h1>

<p>Thanks again for participating. We hope you had fun!</p>

<p>Based on your performance, you will be
awarded a bonus of <strong>$0.38</strong>.</p>",1351276,,,button-response,,74
,,0.0,,,,,,,20013,,"<h1 id=""youvecompletedthehit"">You've completed the HIT</h1>

<p>Thanks again for participating. We hope you had fun!</p>

<p>Based on your performance, you will be
awarded a bonus of <strong>$0.78</strong>.</p>",890796,,,button-response,,75
,,0.0,,,,,,,2656,,"<h1 id=""youvecompletedthehit"">You've completed the HIT</h1>

<p>Thanks again for participating. We hope you had fun!</p>

<p>Based on your performance, you will be
awarded a bonus of <strong>$1.38</strong>.</p>",883444,,,button-response,,76
,,0.0,,,,,,,15999,,"<h1 id=""youvecompletedthehit"">You've completed the HIT</h1>

<p>Thanks again for participating. We hope you had fun!</p>

<p>Based on your performance, you will be
awarded a bonus of <strong>$0.40</strong>.</p>",1149484,,,button-response,,77
,,0.0,,,,,,,3165,,"<h1 id=""youvecompletedthehit"">You've completed the HIT</h1>

<p>Thanks again for participating. We hope you had fun!</p>

<p>Based on your performance, you will be
awarded a bonus of <strong>$0.50</strong>.</p>",1019286,,,button-response,,78
,,0.0,,,,,,,7068,,"<h1 id=""youvecompletedthehit"">You've completed the HIT</h1>

<p>Thanks again for participating. We hope you had fun!</p>

<p>Based on your performance, you will be
awarded a bonus of <strong>$1.88</strong>.</p>",973972,,,button-response,,80
,,0.0,,,,,,,103154,,"<h1 id=""youvecompletedthehit"">You've completed the HIT</h1>

<p>Thanks again for participating. We hope you had fun!</p>

<p>Based on your performance, you will be
awarded a bonus of <strong>$1.05</strong>.</p>",2411923,,,button-response,,83
,,0.0,,,,,,,3223,,"<h1 id=""youvecompletedthehit"">You've completed the HIT</h1>

<p>Thanks again for participating. We hope you had fun!</p>

<p>Based on your performance, you will be
awarded a bonus of <strong>$0.10</strong>.</p>",1256911,,,button-response,,84
,,0.0,,,,,,,5815,,"<h1 id=""youvecompletedthehit"">You've completed the HIT</h1>

<p>Thanks again for participating. We hope you had fun!</p>

<p>Based on your performance, you will be
awarded a bonus of <strong>$0.00</strong>.</p>",1094446,,,button-response,,85
,,0.0,,,,,,,6275,,"<h1 id=""youvecompletedthehit"">You've completed the HIT</h1>

<p>Thanks again for participating. We hope you had fun!</p>

<p>Based on your performance, you will be
awarded a bonus of <strong>$0.90</strong>.</p>",1248616,,,button-response,,86
,,0.0,,,,,,,3656,,"<h1 id=""youvecompletedthehit"">You've completed the HIT</h1>

<p>Thanks again for participating. We hope you had fun!</p>

<p>Based on your performance, you will be
awarded a bonus of <strong>$1.90</strong>.</p>",1099781,,,button-response,,87
,,0.0,,,,,,,3027,,"<h1 id=""youvecompletedthehit"">You've completed the HIT</h1>

<p>Thanks again for participating. We hope you had fun!</p>

<p>Based on your performance, you will be
awarded a bonus of <strong>$2.09</strong>.</p>",876607,,,button-response,,88
,,0.0,,,,,,,4760,,"<h1 id=""youvecompletedthehit"">You've completed the HIT</h1>

<p>Thanks again for participating. We hope you had fun!</p>

<p>Based on your performance, you will be
awarded a bonus of <strong>$1.46</strong>.</p>",796920,,,button-response,,89
,,0.0,,,,,,,2089,,"<h1 id=""youvecompletedthehit"">You've completed the HIT</h1>

<p>Thanks again for participating. We hope you had fun!</p>

<p>Based on your performance, you will be
awarded a bonus of <strong>$1.20</strong>.</p>",994244,,,button-response,,90
,,0.0,,,,,,,5540,,"<h1 id=""youvecompletedthehit"">You've completed the HIT</h1>

<p>Thanks again for participating. We hope you had fun!</p>

<p>Based on your performance, you will be
awarded a bonus of <strong>$0.20</strong>.</p>",1020617,,,button-response,,91
,,0.0,,,,,,,6790,,"<h1 id=""youvecompletedthehit"">You've completed the HIT</h1>

<p>Thanks again for participating. We hope you had fun!</p>

<p>Based on your performance, you will be
awarded a bonus of <strong>$1.69</strong>.</p>",917236,,,button-response,,92
,,0.0,,,,,,,17303,,"<h1 id=""youvecompletedthehit"">You've completed the HIT</h1>

<p>Thanks again for participating. We hope you had fun!</p>

<p>Based on your performance, you will be
awarded a bonus of <strong>$0.32</strong>.</p>",979654,,,button-response,,94
,,0.0,,,,,,,12939,,"<h1 id=""youvecompletedthehit"">You've completed the HIT</h1>

<p>Thanks again for participating. We hope you had fun!</p>

<p>Based on your performance, you will be
awarded a bonus of <strong>$1.70</strong>.</p>",2519914,,,button-response,,95
,,0.0,,,,,,,7597,,"<h1 id=""youvecompletedthehit"">You've completed the HIT</h1>

<p>Thanks again for participating. We hope you had fun!</p>

<p>Based on your performance, you will be
awarded a bonus of <strong>$0.76</strong>.</p>",1206718,,,button-response,,96
,,0.0,,,,,,,3951,,"<h1 id=""youvecompletedthehit"">You've completed the HIT</h1>

<p>Thanks again for participating. We hope you had fun!</p>

<p>Based on your performance, you will be
awarded a bonus of <strong>$0.98</strong>.</p>",926174,,,button-response,,97
,,0.0,,,,,,,6265,,"<h1 id=""youvecompletedthehit"">You've completed the HIT</h1>

<p>Thanks again for participating. We hope you had fun!</p>

<p>Based on your performance, you will be
awarded a bonus of <strong>$0.62</strong>.</p>",1187442,,,button-response,,98
,,0.0,,,,,,,7188,,"<h1 id=""youvecompletedthehit"">You've completed the HIT</h1>

<p>Thanks again for participating. We hope you had fun!</p>

<p>Based on your performance, you will be
awarded a bonus of <strong>$1.89</strong>.</p>",1124461,,,button-response,,99
,,0.0,,,,,,,5596,,"<h1 id=""youvecompletedthehit"">You've completed the HIT</h1>

<p>Thanks again for participating. We hope you had fun!</p>

<p>Based on your performance, you will be
awarded a bonus of <strong>$0.80</strong>.</p>",1717084,,,button-response,,100
,,0.0,,,,,,,5481,,"<h1 id=""youvecompletedthehit"">You've completed the HIT</h1>

<p>Thanks again for participating. We hope you had fun!</p>

<p>Based on your performance, you will be
awarded a bonus of <strong>$0.50</strong>.</p>",829483,,,button-response,,101
,,0.0,,,,,,,12817,,"<h1 id=""youvecompletedthehit"">You've completed the HIT</h1>

<p>Thanks again for participating. We hope you had fun!</p>

<p>Based on your performance, you will be
awarded a bonus of <strong>$0.80</strong>.</p>",1183024,,,button-response,,102
,,0.0,,,,,,,3940,,"<h1 id=""youvecompletedthehit"">You've completed the HIT</h1>

<p>Thanks again for participating. We hope you had fun!</p>

<p>Based on your performance, you will be
awarded a bonus of <strong>$1.55</strong>.</p>",1433305,,,button-response,,103
,,0.0,,,,,,,3471,,"<h1 id=""youvecompletedthehit"">You've completed the HIT</h1>

<p>Thanks again for participating. We hope you had fun!</p>

<p>Based on your performance, you will be
awarded a bonus of <strong>$1.63</strong>.</p>",1003822,,,button-response,,104
,,0.0,,,,,,,13350,,"<h1 id=""youvecompletedthehit"">You've completed the HIT</h1>

<p>Thanks again for participating. We hope you had fun!</p>

<p>Based on your performance, you will be
awarded a bonus of <strong>$0.00</strong>.</p>",1210353,,,button-response,,105
,,0.0,,,,,,,14099,,"<h1 id=""youvecompletedthehit"">You've completed the HIT</h1>

<p>Thanks again for participating. We hope you had fun!</p>

<p>Based on your performance, you will be
awarded a bonus of <strong>$0.00</strong>.</p>",1948658,,,button-response,,106
,,0.0,,,,,,,4674,,"<h1 id=""youvecompletedthehit"">You've completed the HIT</h1>

<p>Thanks again for participating. We hope you had fun!</p>

<p>Based on your performance, you will be
awarded a bonus of <strong>$0.90</strong>.</p>",1393759,,,button-response,,107
,,0.0,,,,,,,5804,,"<h1 id=""youvecompletedthehit"">You've completed the HIT</h1>

<p>Thanks again for participating. We hope you had fun!</p>

<p>Based on your performance, you will be
awarded a bonus of <strong>$0.00</strong>.</p>",838753,,,button-response,,108
,,0.0,,,,,,,77070,,"<h1 id=""youvecompletedthehit"">You've completed the HIT</h1>

<p>Thanks again for participating. We hope you had fun!</p>

<p>Based on your performance, you will be
awarded a bonus of <strong>$0.75</strong>.</p>",1552374,,,button-response,,109
,,0.0,,,,,,,4015,,"<h1 id=""youvecompletedthehit"">You've completed the HIT</h1>

<p>Thanks again for participating. We hope you had fun!</p>

<p>Based on your performance, you will be
awarded a bonus of <strong>$0.58</strong>.</p>",870700,,,button-response,,110
,,0.0,,,,,,,4075,,"<h1 id=""youvecompletedthehit"">You've completed the HIT</h1>

<p>Thanks again for participating. We hope you had fun!</p>

<p>Based on your performance, you will be
awarded a bonus of <strong>$1.85</strong>.</p>",859001,,,button-response,,111
,,0.0,,,,,,,3852,,"<h1 id=""youvecompletedthehit"">You've completed the HIT</h1>

<p>Thanks again for participating. We hope you had fun!</p>

<p>Based on your performance, you will be
awarded a bonus of <strong>$0.51</strong>.</p>",908098,,,button-response,,112
,,0.0,,,,,,,7647,,"<h1 id=""youvecompletedthehit"">You've completed the HIT</h1>

<p>Thanks again for participating. We hope you had fun!</p>

<p>Based on your performance, you will be
awarded a bonus of <strong>$0.50</strong>.</p>",1275314,,,button-response,,113
,,0.0,,,,,,,40321,,"<h1 id=""youvecompletedthehit"">You've completed the HIT</h1>

<p>Thanks again for participating. We hope you had fun!</p>

<p>Based on your performance, you will be
awarded a bonus of <strong>$1.89</strong>.</p>",1073784,,,button-response,,114
,,0.0,,,,,,,8305,,"<h1 id=""youvecompletedthehit"">You've completed the HIT</h1>

<p>Thanks again for participating. We hope you had fun!</p>

<p>Based on your performance, you will be
awarded a bonus of <strong>$1.38</strong>.</p>",1514246,,,button-response,,115
,,0.0,,,,,,,3015,,"<h1 id=""youvecompletedthehit"">You've completed the HIT</h1>

<p>Thanks again for participating. We hope you had fun!</p>

<p>Based on your performance, you will be
awarded a bonus of <strong>$1.62</strong>.</p>",1112609,,,button-response,,116
,,0.0,,,,,,,4043,,"<h1 id=""youvecompletedthehit"">You've completed the HIT</h1>

<p>Thanks again for participating. We hope you had fun!</p>

<p>Based on your performance, you will be
awarded a bonus of <strong>$1.56</strong>.</p>",964179,,,button-response,,117
,,0.0,,,,,,,6033,,"<h1 id=""youvecompletedthehit"">You've completed the HIT</h1>

<p>Thanks again for participating. We hope you had fun!</p>

<p>Based on your performance, you will be
awarded a bonus of <strong>$0.00</strong>.</p>",1671122,,,button-response,,118
,,0.0,,,,,,,5587,,"<h1 id=""youvecompletedthehit"">You've completed the HIT</h1>

<p>Thanks again for participating. We hope you had fun!</p>

<p>Based on your performance, you will be
awarded a bonus of <strong>$1.50</strong>.</p>",980038,,,button-response,,119
,,0.0,,,,,,,1655,,"<h1 id=""youvecompletedthehit"">You've completed the HIT</h1>

<p>Thanks again for participating. We hope you had fun!</p>

<p>Based on your performance, you will be
awarded a bonus of <strong>$1.09</strong>.</p>",1225121,,,button-response,,120
,,0.0,,,,,,,5311,,"<h1 id=""youvecompletedthehit"">You've completed the HIT</h1>

<p>Thanks again for participating. We hope you had fun!</p>

<p>Based on your performance, you will be
awarded a bonus of <strong>$0.28</strong>.</p>",1045718,,,button-response,,121
,,0.0,,,,,,,5049,,"<h1 id=""youvecompletedthehit"">You've completed the HIT</h1>

<p>Thanks again for participating. We hope you had fun!</p>

<p>Based on your performance, you will be
awarded a bonus of <strong>$1.25</strong>.</p>",1532894,,,button-response,,122
,,0.0,,,,,,,6845,,"<h1 id=""youvecompletedthehit"">You've completed the HIT</h1>

<p>Thanks again for participating. We hope you had fun!</p>

<p>Based on your performance, you will be
awarded a bonus of <strong>$0.45</strong>.</p>",1092438,,,button-response,,123
,,0.0,,,,,,,4509,,"<h1 id=""youvecompletedthehit"">You've completed the HIT</h1>

<p>Thanks again for participating. We hope you had fun!</p>

<p>Based on your performance, you will be
awarded a bonus of <strong>$0.34</strong>.</p>",1371462,,,button-response,,125
,,0.0,,,,,,,8087,,"<h1 id=""youvecompletedthehit"">You've completed the HIT</h1>

<p>Thanks again for participating. We hope you had fun!</p>

<p>Based on your performance, you will be
awarded a bonus of <strong>$1.38</strong>.</p>",988496,,,button-response,,126
,,0.0,,,,,,,4264,,"<h1 id=""youvecompletedthehit"">You've completed the HIT</h1>

<p>Thanks again for participating. We hope you had fun!</p>

<p>Based on your performance, you will be
awarded a bonus of <strong>$2.05</strong>.</p>",1119263,,,button-response,,127
,,0.0,,,,,,,3561,,"<h1 id=""youvecompletedthehit"">You've completed the HIT</h1>

<p>Thanks again for participating. We hope you had fun!</p>

<p>Based on your performance, you will be
awarded a bonus of <strong>$1.89</strong>.</p>",980832,,,button-response,,129
,,0.0,,,,,,,4800,,"<h1 id=""youvecompletedthehit"">You've completed the HIT</h1>

<p>Thanks again for participating. We hope you had fun!</p>

<p>Based on your performance, you will be
awarded a bonus of <strong>$0.00</strong>.</p>",1572601,,,button-response,,130
,,0.0,,,,,,,5614,,"<h1 id=""youvecompletedthehit"">You've completed the HIT</h1>

<p>Thanks again for participating. We hope you had fun!</p>

<p>Based on your performance, you will be
awarded a bonus of <strong>$0.08</strong>.</p>",968441,,,button-response,,131
,,0.0,,,,,,,115145,,"<h1 id=""youvecompletedthehit"">You've completed the HIT</h1>

<p>Thanks again for participating. We hope you had fun!</p>

<p>Based on your performance, you will be
awarded a bonus of <strong>$0.06</strong>.</p>",1410542,,,button-response,,132
,,0.0,,,,,,,6964,,"<h1 id=""youvecompletedthehit"">You've completed the HIT</h1>

<p>Thanks again for participating. We hope you had fun!</p>

<p>Based on your performance, you will be
awarded a bonus of <strong>$0.00</strong>.</p>",1431169,,,button-response,,133
,,0.0,,,,,,,3707,,"<h1 id=""youvecompletedthehit"">You've completed the HIT</h1>

<p>Thanks again for participating. We hope you had fun!</p>

<p>Based on your performance, you will be
awarded a bonus of <strong>$1.10</strong>.</p>",1122108,,,button-response,,134
,,0.0,,,,,,,11372,,"<h1 id=""youvecompletedthehit"">You've completed the HIT</h1>

<p>Thanks again for participating. We hope you had fun!</p>

<p>Based on your performance, you will be
awarded a bonus of <strong>$1.05</strong>.</p>",1210452,,,button-response,,135
,,0.0,,,,,,,4043,,"<h1 id=""youvecompletedthehit"">You've completed the HIT</h1>

<p>Thanks again for participating. We hope you had fun!</p>

<p>Based on your performance, you will be
awarded a bonus of <strong>$1.70</strong>.</p>",1121302,,,button-response,,136
,,0.0,,,,,,,7902,,"<h1 id=""youvecompletedthehit"">You've completed the HIT</h1>

<p>Thanks again for participating. We hope you had fun!</p>

<p>Based on your performance, you will be
awarded a bonus of <strong>$0.25</strong>.</p>",1154646,,,button-response,,137
,,0.0,,,,,,,5089,,"<h1 id=""youvecompletedthehit"">You've completed the HIT</h1>

<p>Thanks again for participating. We hope you had fun!</p>

<p>Based on your performance, you will be
awarded a bonus of <strong>$0.42</strong>.</p>",1043881,,,button-response,,138
,,0.0,,,,,,,3166,,"<h1 id=""youvecompletedthehit"">You've completed the HIT</h1>

<p>Thanks again for participating. We hope you had fun!</p>

<p>Based on your performance, you will be
awarded a bonus of <strong>$0.34</strong>.</p>",1395948,,,button-response,,139
,,0.0,,,,,,,2471,,"<h1 id=""youvecompletedthehit"">You've completed the HIT</h1>

<p>Thanks again for participating. We hope you had fun!</p>

<p>Based on your performance, you will be
awarded a bonus of <strong>$1.84</strong>.</p>",975723,,,button-response,,140
,,0.0,,,,,,,6090,,"<h1 id=""youvecompletedthehit"">You've completed the HIT</h1>

<p>Thanks again for participating. We hope you had fun!</p>

<p>Based on your performance, you will be
awarded a bonus of <strong>$0.72</strong>.</p>",1157234,,,button-response,,141
,,0.0,,,,,,,4250,,"<h1 id=""youvecompletedthehit"">You've completed the HIT</h1>

<p>Thanks again for participating. We hope you had fun!</p>

<p>Based on your performance, you will be
awarded a bonus of <strong>$1.42</strong>.</p>",823331,,,button-response,,142
,,0.0,,,,,,,5743,,"<h1 id=""youvecompletedthehit"">You've completed the HIT</h1>

<p>Thanks again for participating. We hope you had fun!</p>

<p>Based on your performance, you will be
awarded a bonus of <strong>$0.94</strong>.</p>",1261520,,,button-response,,143
,,0.0,,,,,,,46911,,"<h1 id=""youvecompletedthehit"">You've completed the HIT</h1>

<p>Thanks again for participating. We hope you had fun!</p>

<p>Based on your performance, you will be
awarded a bonus of <strong>$0.30</strong>.</p>",1678763,,,button-response,,144
,,0.0,,,,,,,3863,,"<h1 id=""youvecompletedthehit"">You've completed the HIT</h1>

<p>Thanks again for participating. We hope you had fun!</p>

<p>Based on your performance, you will be
awarded a bonus of <strong>$0.00</strong>.</p>",1102307,,,button-response,,145
,,0.0,,,,,,,6290,,"<h1 id=""youvecompletedthehit"">You've completed the HIT</h1>

<p>Thanks again for participating. We hope you had fun!</p>

<p>Based on your performance, you will be
awarded a bonus of <strong>$0.00</strong>.</p>",1332531,,,button-response,,146
,,0.0,,,,,,,8470,,"<h1 id=""youvecompletedthehit"">You've completed the HIT</h1>

<p>Thanks again for participating. We hope you had fun!</p>

<p>Based on your performance, you will be
awarded a bonus of <strong>$0.96</strong>.</p>",915964,,,button-response,,147
,,0.0,,,,,,,4270,,"<h1 id=""youvecompletedthehit"">You've completed the HIT</h1>

<p>Thanks again for participating. We hope you had fun!</p>

<p>Based on your performance, you will be
awarded a bonus of <strong>$0.00</strong>.</p>",919472,,,button-response,,148
,,0.0,,,,,,,3625,,"<h1 id=""youvecompletedthehit"">You've completed the HIT</h1>

<p>Thanks again for participating. We hope you had fun!</p>

<p>Based on your performance, you will be
awarded a bonus of <strong>$2.10</strong>.</p>",1711152,,,button-response,,149
,,0.0,,,,,,,9906,,"<h1 id=""youvecompletedthehit"">You've completed the HIT</h1>

<p>Thanks again for participating. We hope you had fun!</p>

<p>Based on your performance, you will be
awarded a bonus of <strong>$1.70</strong>.</p>",2459211,,,button-response,,150
,,0.0,,,,,,,3132,,"<h1 id=""youvecompletedthehit"">You've completed the HIT</h1>

<p>Thanks again for participating. We hope you had fun!</p>

<p>Based on your performance, you will be
awarded a bonus of <strong>$0.15</strong>.</p>",1562871,,,button-response,,151
,,0.0,,,,,,,5407,,"<h1 id=""youvecompletedthehit"">You've completed the HIT</h1>

<p>Thanks again for participating. We hope you had fun!</p>

<p>Based on your performance, you will be
awarded a bonus of <strong>$2.09</strong>.</p>",955898,,,button-response,,152
,,0.0,,,,,,,5258,,"<h1 id=""youvecompletedthehit"">You've completed the HIT</h1>

<p>Thanks again for participating. We hope you had fun!</p>

<p>Based on your performance, you will be
awarded a bonus of <strong>$0.08</strong>.</p>",1386797,,,button-response,,153
,,0.0,,,,,,,5298,,"<h1 id=""youvecompletedthehit"">You've completed the HIT</h1>

<p>Thanks again for participating. We hope you had fun!</p>

<p>Based on your performance, you will be
awarded a bonus of <strong>$0.05</strong>.</p>",1043494,,,button-response,,154
,,0.0,,,,,,,6541,,"<h1 id=""youvecompletedthehit"">You've completed the HIT</h1>

<p>Thanks again for participating. We hope you had fun!</p>

<p>Based on your performance, you will be
awarded a bonus of <strong>$1.54</strong>.</p>",1029347,,,button-response,,155
,,0.0,,,,,,,6348,,"<h1 id=""youvecompletedthehit"">You've completed the HIT</h1>

<p>Thanks again for participating. We hope you had fun!</p>

<p>Based on your performance, you will be
awarded a bonus of <strong>$2.29</strong>.</p>",1233734,,,button-response,,156
,,0.0,,,,,,,3045,,"<h1 id=""youvecompletedthehit"">You've completed the HIT</h1>

<p>Thanks again for participating. We hope you had fun!</p>

<p>Based on your performance, you will be
awarded a bonus of <strong>$0.30</strong>.</p>",1134475,,,button-response,,157
,,0.0,,,,,,,5545,,"<h1 id=""youvecompletedthehit"">You've completed the HIT</h1>

<p>Thanks again for participating. We hope you had fun!</p>

<p>Based on your performance, you will be
awarded a bonus of <strong>$1.69</strong>.</p>",835503,,,button-response,,158
,,0.0,,,,,,,6535,,"<h1 id=""youvecompletedthehit"">You've completed the HIT</h1>

<p>Thanks again for participating. We hope you had fun!</p>

<p>Based on your performance, you will be
awarded a bonus of <strong>$0.40</strong>.</p>",1005142,,,button-response,,159
,,0.0,,,,,,,4058,,"<h1 id=""youvecompletedthehit"">You've completed the HIT</h1>

<p>Thanks again for participating. We hope you had fun!</p>

<p>Based on your performance, you will be
awarded a bonus of <strong>$1.48</strong>.</p>",1068691,,,button-response,,160
,,0.0,,,,,,,4247,,"<h1 id=""youvecompletedthehit"">You've completed the HIT</h1>

<p>Thanks again for participating. We hope you had fun!</p>

<p>Based on your performance, you will be
awarded a bonus of <strong>$1.77</strong>.</p>",2089270,,,button-response,,161
,,0.0,,,,,,,3441,,"<h1 id=""youvecompletedthehit"">You've completed the HIT</h1>

<p>Thanks again for participating. We hope you had fun!</p>

<p>Based on your performance, you will be
awarded a bonus of <strong>$0.47</strong>.</p>",871450,,,button-response,,162
,,0.0,,,,,,,25007,,"<h1 id=""youvecompletedthehit"">You've completed the HIT</h1>

<p>Thanks again for participating. We hope you had fun!</p>

<p>Based on your performance, you will be
awarded a bonus of <strong>$1.86</strong>.</p>",1050317,,,button-response,,163
,,0.0,,,,,,,25921,,"<h1 id=""youvecompletedthehit"">You've completed the HIT</h1>

<p>Thanks again for participating. We hope you had fun!</p>

<p>Based on your performance, you will be
awarded a bonus of <strong>$2.04</strong>.</p>",1295959,,,button-response,,164
,,0.0,,,,,,,4909,,"<h1 id=""youvecompletedthehit"">You've completed the HIT</h1>

<p>Thanks again for participating. We hope you had fun!</p>

<p>Based on your performance, you will be
awarded a bonus of <strong>$0.00</strong>.</p>",1105134,,,button-response,,165
,,0.0,,,,,,,7592,,"<h1 id=""youvecompletedthehit"">You've completed the HIT</h1>

<p>Thanks again for participating. We hope you had fun!</p>

<p>Based on your performance, you will be
awarded a bonus of <strong>$1.69</strong>.</p>",1023240,,,button-response,,166
,,0.0,,,,,,,4500,,"<h1 id=""youvecompletedthehit"">You've completed the HIT</h1>

<p>Thanks again for participating. We hope you had fun!</p>

<p>Based on your performance, you will be
awarded a bonus of <strong>$1.74</strong>.</p>",975048,,,button-response,,167
,,0.0,,,,,,,7334,,"<h1 id=""youvecompletedthehit"">You've completed the HIT</h1>

<p>Thanks again for participating. We hope you had fun!</p>

<p>Based on your performance, you will be
awarded a bonus of <strong>$1.89</strong>.</p>",907642,,,button-response,,169
,,0.0,,,,,,,12203,,"<h1 id=""youvecompletedthehit"">You've completed the HIT</h1>

<p>Thanks again for participating. We hope you had fun!</p>

<p>Based on your performance, you will be
awarded a bonus of <strong>$1.30</strong>.</p>",1040403,,,button-response,,170
,,0.0,,,,,,,4546,,"<h1 id=""youvecompletedthehit"">You've completed the HIT</h1>

<p>Thanks again for participating. We hope you had fun!</p>

<p>Based on your performance, you will be
awarded a bonus of <strong>$1.68</strong>.</p>",1058332,,,button-response,,171
,,0.0,,,,,,,4512,,"<h1 id=""youvecompletedthehit"">You've completed the HIT</h1>

<p>Thanks again for participating. We hope you had fun!</p>

<p>Based on your performance, you will be
awarded a bonus of <strong>$1.69</strong>.</p>",1081788,,,button-response,,172
,,0.0,,,,,,,4577,,"<h1 id=""youvecompletedthehit"">You've completed the HIT</h1>

<p>Thanks again for participating. We hope you had fun!</p>

<p>Based on your performance, you will be
awarded a bonus of <strong>$1.89</strong>.</p>",786097,,,button-response,,173
,,0.0,,,,,,,3312,,"<h1 id=""youvecompletedthehit"">You've completed the HIT</h1>

<p>Thanks again for participating. We hope you had fun!</p>

<p>Based on your performance, you will be
awarded a bonus of <strong>$1.70</strong>.</p>",985576,,,button-response,,174
,,0.0,,,,,,,7275,,"<h1 id=""youvecompletedthehit"">You've completed the HIT</h1>

<p>Thanks again for participating. We hope you had fun!</p>

<p>Based on your performance, you will be
awarded a bonus of <strong>$2.29</strong>.</p>",993800,,,button-response,,175
,,0.0,,,,,,,4998,,"<h1 id=""youvecompletedthehit"">You've completed the HIT</h1>

<p>Thanks again for participating. We hope you had fun!</p>

<p>Based on your performance, you will be
awarded a bonus of <strong>$0.70</strong>.</p>",1087338,,,button-response,,176
,,0.0,,,,,,,109615,,"<h1 id=""youvecompletedthehit"">You've completed the HIT</h1>

<p>Thanks again for participating. We hope you had fun!</p>

<p>Based on your performance, you will be
awarded a bonus of <strong>$0.94</strong>.</p>",2550359,,,button-response,,177
,,0.0,,,,,,,12660,,"<h1 id=""youvecompletedthehit"">You've completed the HIT</h1>

<p>Thanks again for participating. We hope you had fun!</p>

<p>Based on your performance, you will be
awarded a bonus of <strong>$0.00</strong>.</p>",932430,,,button-response,,178
,,0.0,,,,,,,3575,,"<h1 id=""youvecompletedthehit"">You've completed the HIT</h1>

<p>Thanks again for participating. We hope you had fun!</p>

<p>Based on your performance, you will be
awarded a bonus of <strong>$1.69</strong>.</p>",888060,,,button-response,,180
,,0.0,,,,,,,14272,,"<h1 id=""youvecompletedthehit"">You've completed the HIT</h1>

<p>Thanks again for participating. We hope you had fun!</p>

<p>Based on your performance, you will be
awarded a bonus of <strong>$0.40</strong>.</p>",1071265,,,button-response,,181
,,0.0,,,,,,,3267,,"<h1 id=""youvecompletedthehit"">You've completed the HIT</h1>

<p>Thanks again for participating. We hope you had fun!</p>

<p>Based on your performance, you will be
awarded a bonus of <strong>$1.62</strong>.</p>",931947,,,button-response,,182
,,0.0,,,,,,,2190,,"<h1 id=""youvecompletedthehit"">You've completed the HIT</h1>

<p>Thanks again for participating. We hope you had fun!</p>

<p>Based on your performance, you will be
awarded a bonus of <strong>$1.26</strong>.</p>",930766,,,button-response,,183
,,0.0,,,,,,,6189,,"<h1 id=""youvecompletedthehit"">You've completed the HIT</h1>

<p>Thanks again for participating. We hope you had fun!</p>

<p>Based on your performance, you will be
awarded a bonus of <strong>$1.69</strong>.</p>",965115,,,button-response,,185
,,0.0,,,,,,,4445,,"<h1 id=""youvecompletedthehit"">You've completed the HIT</h1>

<p>Thanks again for participating. We hope you had fun!</p>

<p>Based on your performance, you will be
awarded a bonus of <strong>$1.69</strong>.</p>",907345,,,button-response,,187
,,0.0,,,,,,,7207,,"<h1 id=""youvecompletedthehit"">You've completed the HIT</h1>

<p>Thanks again for participating. We hope you had fun!</p>

<p>Based on your performance, you will be
awarded a bonus of <strong>$0.00</strong>.</p>",1194215,,,button-response,,188
,,0.0,,,,,,,2951,,"<h1 id=""youvecompletedthehit"">You've completed the HIT</h1>

<p>Thanks again for participating. We hope you had fun!</p>

<p>Based on your performance, you will be
awarded a bonus of <strong>$0.38</strong>.</p>",1066037,,,button-response,,190
,,0.0,,,,,,,8417,,"<h1 id=""youvecompletedthehit"">You've completed the HIT</h1>

<p>Thanks again for participating. We hope you had fun!</p>

<p>Based on your performance, you will be
awarded a bonus of <strong>$0.00</strong>.</p>",1426855,,,button-response,,191
,,0.0,,,,,,,7321,,"<h1 id=""youvecompletedthehit"">You've completed the HIT</h1>

<p>Thanks again for participating. We hope you had fun!</p>

<p>Based on your performance, you will be
awarded a bonus of <strong>$1.09</strong>.</p>",1084900,,,button-response,,192
,,0.0,,,,,,,5531,,"<h1 id=""youvecompletedthehit"">You've completed the HIT</h1>

<p>Thanks again for participating. We hope you had fun!</p>

<p>Based on your performance, you will be
awarded a bonus of <strong>$1.84</strong>.</p>",1044856,,,button-response,,193
,,0.0,,,,,,,12851,,"<h1 id=""youvecompletedthehit"">You've completed the HIT</h1>

<p>Thanks again for participating. We hope you had fun!</p>

<p>Based on your performance, you will be
awarded a bonus of <strong>$1.10</strong>.</p>",1337480,,,button-response,,194
,,0.0,,,,,,,4459,,"<h1 id=""youvecompletedthehit"">You've completed the HIT</h1>

<p>Thanks again for participating. We hope you had fun!</p>

<p>Based on your performance, you will be
awarded a bonus of <strong>$0.34</strong>.</p>",1046229,,,button-response,,195
,,0.0,,,,,,,6163,,"<h1 id=""youvecompletedthehit"">You've completed the HIT</h1>

<p>Thanks again for participating. We hope you had fun!</p>

<p>Based on your performance, you will be
awarded a bonus of <strong>$2.29</strong>.</p>",786111,,,button-response,,196
,,0.0,,,,,,,1453,,"<h1 id=""youvecompletedthehit"">You've completed the HIT</h1>

<p>Thanks again for participating. We hope you had fun!</p>

<p>Based on your performance, you will be
awarded a bonus of <strong>$0.82</strong>.</p>",819783,,,button-response,,197
,,0.0,,,,,,,5352,,"<h1 id=""youvecompletedthehit"">You've completed the HIT</h1>

<p>Thanks again for participating. We hope you had fun!</p>

<p>Based on your performance, you will be
awarded a bonus of <strong>$0.86</strong>.</p>",916666,,,button-response,,198
,,0.0,,,,,,,9416,,"<h1 id=""youvecompletedthehit"">You've completed the HIT</h1>

<p>Thanks again for participating. We hope you had fun!</p>

<p>Based on your performance, you will be
awarded a bonus of <strong>$0.00</strong>.</p>",844806,,,button-response,,199
,,0.0,,,,,,,5551,,"<h1 id=""youvecompletedthehit"">You've completed the HIT</h1>

<p>Thanks again for participating. We hope you had fun!</p>

<p>Based on your performance, you will be
awarded a bonus of <strong>$1.89</strong>.</p>",901927,,,button-response,,200
,,0.0,,,,,,,4771,,"<h1 id=""youvecompletedthehit"">You've completed the HIT</h1>

<p>Thanks again for participating. We hope you had fun!</p>

<p>Based on your performance, you will be
awarded a bonus of <strong>$0.30</strong>.</p>",1348585,,,button-response,,201
,,0.0,,,,,,,9674,,"<h1 id=""youvecompletedthehit"">You've completed the HIT</h1>

<p>Thanks again for participating. We hope you had fun!</p>

<p>Based on your performance, you will be
awarded a bonus of <strong>$0.40</strong>.</p>",1468716,,,button-response,,202
