action_times,actions,button_pressed,correct,delays,path,queries,questions,responses,rt,score,stimulus,time_elapsed,trial_index,trial_i,trial_type,view_history,pid
,,,,,,,,,81063,,,81063,,,instructions,"[{""page_index"":0,""viewing_time"":46457},{""page_index"":1,""viewing_time"":13842},{""page_index"":2,""viewing_time"":13733},{""page_index"":3,""viewing_time"":7030}]",0
,,,,,,,,,38398,,,158265,,,instructions,"[{""page_index"":0,""viewing_time"":2335},{""page_index"":1,""viewing_time"":2293},{""page_index"":2,""viewing_time"":7224},{""page_index"":3,""viewing_time"":12527},{""page_index"":2,""viewing_time"":1324},{""page_index"":1,""viewing_time"":6366},{""page_index"":2,""viewing_time"":5357},{""page_index"":3,""viewing_time"":972}]",0
,,,,,,,,,119948,,,119949,,,instructions,"[{""page_index"":0,""viewing_time"":27986},{""page_index"":1,""viewing_time"":23711},{""page_index"":2,""viewing_time"":18881},{""page_index"":3,""viewing_time"":49369}]",1
,,,,,,,,,343718,,,343720,,,instructions,"[{""page_index"":0,""viewing_time"":189663},{""page_index"":1,""viewing_time"":57098},{""page_index"":2,""viewing_time"":47260},{""page_index"":3,""viewing_time"":49696}]",2
,,,,,,,,,24458,,,521287,,,instructions,"[{""page_index"":0,""viewing_time"":5550},{""page_index"":1,""viewing_time"":596},{""page_index"":0,""viewing_time"":3480},{""page_index"":1,""viewing_time"":1174},{""page_index"":2,""viewing_time"":652},{""page_index"":3,""viewing_time"":13006}]",2
,,,,,,,,,29510,,,633975,,,instructions,"[{""page_index"":0,""viewing_time"":23352},{""page_index"":1,""viewing_time"":1384},{""page_index"":2,""viewing_time"":812},{""page_index"":3,""viewing_time"":3961}]",2
,,,,,,,,,8504,,,716136,,,instructions,"[{""page_index"":0,""viewing_time"":3731},{""page_index"":1,""viewing_time"":973},{""page_index"":2,""viewing_time"":601},{""page_index"":3,""viewing_time"":3199}]",2
,,,,,,,,,24858,,,792373,,,instructions,"[{""page_index"":0,""viewing_time"":4333},{""page_index"":1,""viewing_time"":6408},{""page_index"":2,""viewing_time"":5534},{""page_index"":3,""viewing_time"":8583}]",2
,,,,,,,,,11236,,,909836,,,instructions,"[{""page_index"":0,""viewing_time"":3494},{""page_index"":1,""viewing_time"":441},{""page_index"":0,""viewing_time"":2908},{""page_index"":1,""viewing_time"":913},{""page_index"":2,""viewing_time"":511},{""page_index"":3,""viewing_time"":2968}]",2
,,,,,,,,,119519,,,119530,,,instructions,"[{""page_index"":0,""viewing_time"":30183},{""page_index"":1,""viewing_time"":44001},{""page_index"":2,""viewing_time"":18024},{""page_index"":3,""viewing_time"":27311}]",3
,,,,,,,,,191394,,,191398,,,instructions,"[{""page_index"":0,""viewing_time"":70032},{""page_index"":1,""viewing_time"":59321},{""page_index"":2,""viewing_time"":26756},{""page_index"":3,""viewing_time"":35284}]",4
,,,,,,,,,151861,,,405434,,,instructions,"[{""page_index"":0,""viewing_time"":69335},{""page_index"":1,""viewing_time"":28167},{""page_index"":2,""viewing_time"":16012},{""page_index"":3,""viewing_time"":38346}]",4
,,,,,,,,,103237,,,103239,,,instructions,"[{""page_index"":0,""viewing_time"":17125},{""page_index"":1,""viewing_time"":1533},{""page_index"":0,""viewing_time"":5443},{""page_index"":1,""viewing_time"":33133},{""page_index"":2,""viewing_time"":33758},{""page_index"":3,""viewing_time"":12244}]",5
,,,,,,,,,275333,,,275336,,,instructions,"[{""page_index"":0,""viewing_time"":137699},{""page_index"":1,""viewing_time"":57473},{""page_index"":2,""viewing_time"":38493},{""page_index"":3,""viewing_time"":41665}]",6
,,,,,,,,,57502,,,57503,,,instructions,"[{""page_index"":0,""viewing_time"":18839},{""page_index"":1,""viewing_time"":12574},{""page_index"":2,""viewing_time"":15029},{""page_index"":3,""viewing_time"":11059}]",7
,,,,,,,,,35248,,,136962,,,instructions,"[{""page_index"":0,""viewing_time"":11498},{""page_index"":1,""viewing_time"":10574},{""page_index"":2,""viewing_time"":7751},{""page_index"":3,""viewing_time"":5424}]",7
,,,,,,,,,110115,,,110117,,,instructions,"[{""page_index"":0,""viewing_time"":45469},{""page_index"":1,""viewing_time"":26530},{""page_index"":2,""viewing_time"":21217},{""page_index"":3,""viewing_time"":16897}]",8
,,,,,,,,,155206,,,155206,,,instructions,"[{""page_index"":0,""viewing_time"":38768},{""page_index"":1,""viewing_time"":46556},{""page_index"":2,""viewing_time"":28367},{""page_index"":3,""viewing_time"":41513}]",9
,,,,,,,,,116422,,,116423,,,instructions,"[{""page_index"":0,""viewing_time"":36295},{""page_index"":1,""viewing_time"":27862},{""page_index"":2,""viewing_time"":37109},{""page_index"":3,""viewing_time"":15146}]",10
,,,,,,,,,17906,,,171287,,,instructions,"[{""page_index"":0,""viewing_time"":6970},{""page_index"":1,""viewing_time"":5716},{""page_index"":2,""viewing_time"":2550},{""page_index"":3,""viewing_time"":2670}]",10
,,,,,,,,,231563,,,231565,,,instructions,"[{""page_index"":0,""viewing_time"":92471},{""page_index"":1,""viewing_time"":59634},{""page_index"":2,""viewing_time"":43078},{""page_index"":3,""viewing_time"":36370}]",11
,,,,,,,,,193179,,,193180,,,instructions,"[{""page_index"":0,""viewing_time"":71968},{""page_index"":1,""viewing_time"":48476},{""page_index"":2,""viewing_time"":35145},{""page_index"":3,""viewing_time"":37589}]",12
,,,,,,,,,3166127,,,3403633,,,instructions,"[{""page_index"":0,""viewing_time"":2984783},{""page_index"":1,""viewing_time"":61806},{""page_index"":2,""viewing_time"":84389},{""page_index"":3,""viewing_time"":35149}]",12
,,,,,,,,,37922,,,37924,,,instructions,"[{""page_index"":0,""viewing_time"":17323},{""page_index"":1,""viewing_time"":4577},{""page_index"":2,""viewing_time"":10849},{""page_index"":3,""viewing_time"":5170}]",13
,,,,,,,,,84104,,,84106,,,instructions,"[{""page_index"":0,""viewing_time"":19741},{""page_index"":1,""viewing_time"":23991},{""page_index"":2,""viewing_time"":22260},{""page_index"":3,""viewing_time"":18112}]",14
,,,,,,,,,92943,,,92944,,,instructions,"[{""page_index"":0,""viewing_time"":24827},{""page_index"":1,""viewing_time"":22428},{""page_index"":0,""viewing_time"":4166},{""page_index"":1,""viewing_time"":4015},{""page_index"":2,""viewing_time"":25940},{""page_index"":3,""viewing_time"":11566}]",15
,,,,,,,,,45799,,,181045,,,instructions,"[{""page_index"":0,""viewing_time"":3616},{""page_index"":1,""viewing_time"":23844},{""page_index"":2,""viewing_time"":13892},{""page_index"":3,""viewing_time"":4446}]",15
,,,,,,,,,209712,,,209713,,,instructions,"[{""page_index"":0,""viewing_time"":48435},{""page_index"":1,""viewing_time"":112660},{""page_index"":2,""viewing_time"":23276},{""page_index"":3,""viewing_time"":25339}]",16
,,,,,,,,,77171,,,340045,,,instructions,"[{""page_index"":0,""viewing_time"":15802},{""page_index"":1,""viewing_time"":23311},{""page_index"":2,""viewing_time"":28366},{""page_index"":3,""viewing_time"":9692}]",16
,,,,,,,,,6920,,,384585,,,instructions,"[{""page_index"":0,""viewing_time"":2874},{""page_index"":1,""viewing_time"":776},{""page_index"":2,""viewing_time"":2312},{""page_index"":3,""viewing_time"":958}]",16
,,,,,,,,,16762,,,430167,,,instructions,"[{""page_index"":0,""viewing_time"":11236},{""page_index"":1,""viewing_time"":1344},{""page_index"":2,""viewing_time"":3126},{""page_index"":3,""viewing_time"":1055}]",16
,,,,,,,,,93708,,,93708,,,instructions,"[{""page_index"":0,""viewing_time"":6028},{""page_index"":1,""viewing_time"":3778},{""page_index"":2,""viewing_time"":7773},{""page_index"":3,""viewing_time"":11971},{""page_index"":2,""viewing_time"":11070},{""page_index"":1,""viewing_time"":29965},{""page_index"":2,""viewing_time"":15354},{""page_index"":3,""viewing_time"":7768}]",17
,,,,,,,,,88752,,,88759,,,instructions,"[{""page_index"":0,""viewing_time"":25432},{""page_index"":1,""viewing_time"":27229},{""page_index"":2,""viewing_time"":18074},{""page_index"":3,""viewing_time"":18012}]",18
,,,,,,,,,149002,,,149004,,,instructions,"[{""page_index"":0,""viewing_time"":42569},{""page_index"":1,""viewing_time"":40192},{""page_index"":2,""viewing_time"":38911},{""page_index"":3,""viewing_time"":27329}]",19
,,,,,,,,,35455,,,236166,,,instructions,"[{""page_index"":0,""viewing_time"":9731},{""page_index"":1,""viewing_time"":15510},{""page_index"":2,""viewing_time"":6051},{""page_index"":3,""viewing_time"":4162}]",19
,,,,,,,,,422824,,,422826,,,instructions,"[{""page_index"":0,""viewing_time"":48893},{""page_index"":1,""viewing_time"":40585},{""page_index"":2,""viewing_time"":37764},{""page_index"":3,""viewing_time"":90835},{""page_index"":2,""viewing_time"":200097},{""page_index"":3,""viewing_time"":4649}]",20
,,,,,,,,,61310,,,536800,,,instructions,"[{""page_index"":0,""viewing_time"":5940},{""page_index"":1,""viewing_time"":5504},{""page_index"":2,""viewing_time"":31260},{""page_index"":3,""viewing_time"":18606}]",20
,,,,,,,,,136160,,,136162,,,instructions,"[{""page_index"":0,""viewing_time"":30842},{""page_index"":1,""viewing_time"":40011},{""page_index"":2,""viewing_time"":43051},{""page_index"":3,""viewing_time"":22255}]",21
,,,,,,,,,103356,,,103359,,,instructions,"[{""page_index"":0,""viewing_time"":29793},{""page_index"":1,""viewing_time"":34980},{""page_index"":2,""viewing_time"":18209},{""page_index"":3,""viewing_time"":20373}]",22
,,,,,,,,,33225,,,171302,,,instructions,"[{""page_index"":0,""viewing_time"":3529},{""page_index"":1,""viewing_time"":16331},{""page_index"":2,""viewing_time"":8843},{""page_index"":3,""viewing_time"":4522}]",22
,,,,,,,,,15391,,,206336,,,instructions,"[{""page_index"":0,""viewing_time"":5349},{""page_index"":1,""viewing_time"":7501},{""page_index"":2,""viewing_time"":1943},{""page_index"":3,""viewing_time"":598}]",22
,,,,,,,,,868,,,229856,,,instructions,"[{""page_index"":0,""viewing_time"":372},{""page_index"":1,""viewing_time"":185},{""page_index"":2,""viewing_time"":151},{""page_index"":3,""viewing_time"":159}]",22
,,,,,,,,,18790,,,266782,,,instructions,"[{""page_index"":0,""viewing_time"":6442},{""page_index"":1,""viewing_time"":6472},{""page_index"":2,""viewing_time"":5453},{""page_index"":3,""viewing_time"":422}]",22
,,,,,,,,,942,,,287373,,,instructions,"[{""page_index"":0,""viewing_time"":422},{""page_index"":1,""viewing_time"":183},{""page_index"":2,""viewing_time"":177},{""page_index"":3,""viewing_time"":159}]",22
,,,,,,,,,198736,,,198736,,,instructions,"[{""page_index"":0,""viewing_time"":70136},{""page_index"":1,""viewing_time"":63561},{""page_index"":2,""viewing_time"":42538},{""page_index"":3,""viewing_time"":22500}]",23
,,,,,,,,,34298,,,281979,,,instructions,"[{""page_index"":0,""viewing_time"":10845},{""page_index"":1,""viewing_time"":9097},{""page_index"":2,""viewing_time"":5890},{""page_index"":3,""viewing_time"":8466}]",23
,,,,,,,,,245301,,,245302,,,instructions,"[{""page_index"":0,""viewing_time"":101972},{""page_index"":1,""viewing_time"":59399},{""page_index"":2,""viewing_time"":57469},{""page_index"":3,""viewing_time"":26461}]",24
,,,,,,,,,126193,,,126195,,,instructions,"[{""page_index"":0,""viewing_time"":29033},{""page_index"":1,""viewing_time"":47080},{""page_index"":2,""viewing_time"":31928},{""page_index"":3,""viewing_time"":18151}]",25
,,,,,,,,,691317,,,691318,,,instructions,"[{""page_index"":0,""viewing_time"":36369},{""page_index"":1,""viewing_time"":74287},{""page_index"":2,""viewing_time"":100374},{""page_index"":3,""viewing_time"":480287}]",26
,,,,,,,,,1060307,,,1915881,,,instructions,"[{""page_index"":0,""viewing_time"":4489},{""page_index"":1,""viewing_time"":1028362},{""page_index"":2,""viewing_time"":21896},{""page_index"":3,""viewing_time"":5560}]",26
,,,,,,,,,69577,,,2017163,,,instructions,"[{""page_index"":0,""viewing_time"":26655},{""page_index"":1,""viewing_time"":18856},{""page_index"":2,""viewing_time"":17329},{""page_index"":3,""viewing_time"":6737}]",26
,,,,,,,,,12115,,,2049118,,,instructions,"[{""page_index"":0,""viewing_time"":8070},{""page_index"":1,""viewing_time"":552},{""page_index"":0,""viewing_time"":705},{""page_index"":1,""viewing_time"":634},{""page_index"":2,""viewing_time"":1110},{""page_index"":3,""viewing_time"":1042}]",26
,,,,,,,,,282357,,,282358,,,instructions,"[{""page_index"":0,""viewing_time"":64789},{""page_index"":1,""viewing_time"":1124},{""page_index"":0,""viewing_time"":3789},{""page_index"":1,""viewing_time"":3202},{""page_index"":0,""viewing_time"":410},{""page_index"":1,""viewing_time"":942},{""page_index"":0,""viewing_time"":9143},{""page_index"":1,""viewing_time"":8414},{""page_index"":0,""viewing_time"":20435},{""page_index"":1,""viewing_time"":21283},{""page_index"":0,""viewing_time"":9707},{""page_index"":1,""viewing_time"":35368},{""page_index"":2,""viewing_time"":57224},{""page_index"":1,""viewing_time"":16920},{""page_index"":2,""viewing_time"":1488},{""page_index"":3,""viewing_time"":26523},{""page_index"":2,""viewing_time"":878},{""page_index"":3,""viewing_time"":718}]",27
,,,,,,,,,53084,,,423230,,,instructions,"[{""page_index"":0,""viewing_time"":13508},{""page_index"":1,""viewing_time"":8960},{""page_index"":2,""viewing_time"":13200},{""page_index"":3,""viewing_time"":17416}]",27
,,,,,,,,,54782,,,510894,,,instructions,"[{""page_index"":0,""viewing_time"":8870},{""page_index"":1,""viewing_time"":17536},{""page_index"":0,""viewing_time"":6152},{""page_index"":1,""viewing_time"":936},{""page_index"":2,""viewing_time"":10336},{""page_index"":3,""viewing_time"":10952}]",27
,,,,,,,,,56940,,,604094,,,instructions,"[{""page_index"":0,""viewing_time"":9204},{""page_index"":1,""viewing_time"":26680},{""page_index"":2,""viewing_time"":11208},{""page_index"":3,""viewing_time"":9848}]",27
,,,,,,,,,323531,,,323533,,,instructions,"[{""page_index"":0,""viewing_time"":214101},{""page_index"":1,""viewing_time"":56923},{""page_index"":2,""viewing_time"":13364},{""page_index"":3,""viewing_time"":39140}]",28
,,,,,,,,,89288,,,559551,,,instructions,"[{""page_index"":0,""viewing_time"":22766},{""page_index"":1,""viewing_time"":10149},{""page_index"":2,""viewing_time"":43709},{""page_index"":3,""viewing_time"":12662}]",28
,,,,,,,,,97106,,,695983,,,instructions,"[{""page_index"":0,""viewing_time"":19857},{""page_index"":1,""viewing_time"":36904},{""page_index"":2,""viewing_time"":20836},{""page_index"":3,""viewing_time"":19508}]",28
,,,,,,,,,33194,,,774516,,,instructions,"[{""page_index"":0,""viewing_time"":28545},{""page_index"":1,""viewing_time"":1981},{""page_index"":2,""viewing_time"":1346},{""page_index"":3,""viewing_time"":1321}]",28
,,,,,,,,,69096,,,879918,,,instructions,"[{""page_index"":0,""viewing_time"":8582},{""page_index"":1,""viewing_time"":39895},{""page_index"":2,""viewing_time"":16066},{""page_index"":3,""viewing_time"":4552}]",28
,,,,,,,,,99754,,,1021186,,,instructions,"[{""page_index"":0,""viewing_time"":13973},{""page_index"":1,""viewing_time"":30071},{""page_index"":2,""viewing_time"":40973},{""page_index"":3,""viewing_time"":14736}]",28
,,,,,,,,,6561,,,1067769,,,instructions,"[{""page_index"":0,""viewing_time"":4300},{""page_index"":1,""viewing_time"":606},{""page_index"":2,""viewing_time"":887},{""page_index"":3,""viewing_time"":767}]",28
,,,,,,,,,13336,,,1106640,,,instructions,"[{""page_index"":0,""viewing_time"":9149},{""page_index"":1,""viewing_time"":1178},{""page_index"":0,""viewing_time"":1157},{""page_index"":1,""viewing_time"":652},{""page_index"":2,""viewing_time"":499},{""page_index"":3,""viewing_time"":700}]",28
,,,,,,,,,200175,,,1335540,,,instructions,"[{""page_index"":0,""viewing_time"":62880},{""page_index"":1,""viewing_time"":42252},{""page_index"":2,""viewing_time"":89959},{""page_index"":3,""viewing_time"":5083}]",28
,,,,,,,,,7871,,,1419933,,,instructions,"[{""page_index"":0,""viewing_time"":4919},{""page_index"":1,""viewing_time"":1396},{""page_index"":2,""viewing_time"":850},{""page_index"":3,""viewing_time"":705}]",28
,,,,,,,,,8378,,,1457357,,,instructions,"[{""page_index"":0,""viewing_time"":4761},{""page_index"":1,""viewing_time"":1466},{""page_index"":2,""viewing_time"":1036},{""page_index"":3,""viewing_time"":1114}]",28
,,,,,,,,,115248,,,1609300,,,instructions,"[{""page_index"":0,""viewing_time"":8102},{""page_index"":1,""viewing_time"":43563},{""page_index"":2,""viewing_time"":44101},{""page_index"":3,""viewing_time"":19481}]",28
,,,,,,,,,43535,,,1697728,,,instructions,"[{""page_index"":0,""viewing_time"":8458},{""page_index"":1,""viewing_time"":8872},{""page_index"":2,""viewing_time"":4738},{""page_index"":3,""viewing_time"":21466}]",28
,,,,,,,,,174357,,,174364,,,instructions,"[{""page_index"":0,""viewing_time"":58291},{""page_index"":1,""viewing_time"":48846},{""page_index"":2,""viewing_time"":35949},{""page_index"":3,""viewing_time"":31269}]",29
,,,,,,,,,85141,,,317853,,,instructions,"[{""page_index"":0,""viewing_time"":38637},{""page_index"":1,""viewing_time"":23011},{""page_index"":2,""viewing_time"":20100},{""page_index"":3,""viewing_time"":3386}]",29
,,,,,,,,,4604,,,361885,,,instructions,"[{""page_index"":0,""viewing_time"":2200},{""page_index"":1,""viewing_time"":1218},{""page_index"":2,""viewing_time"":607},{""page_index"":3,""viewing_time"":577}]",29
,,,,,,,,,306961,,,306965,,,instructions,"[{""page_index"":0,""viewing_time"":58558},{""page_index"":1,""viewing_time"":35049},{""page_index"":2,""viewing_time"":67557},{""page_index"":1,""viewing_time"":24780},{""page_index"":0,""viewing_time"":48342},{""page_index"":1,""viewing_time"":1339},{""page_index"":2,""viewing_time"":28091},{""page_index"":3,""viewing_time"":43242}]",30
,,,,,,,,,14220,,,532766,,,instructions,"[{""page_index"":0,""viewing_time"":7844},{""page_index"":1,""viewing_time"":1410},{""page_index"":2,""viewing_time"":3225},{""page_index"":3,""viewing_time"":1736}]",30
,,,,,,,,,9418,,,594081,,,instructions,"[{""page_index"":0,""viewing_time"":3791},{""page_index"":1,""viewing_time"":1045},{""page_index"":2,""viewing_time"":2944},{""page_index"":3,""viewing_time"":1636}]",30
,,,,,,,,,8289,,,635263,,,instructions,"[{""page_index"":0,""viewing_time"":3111},{""page_index"":1,""viewing_time"":1367},{""page_index"":2,""viewing_time"":2636},{""page_index"":3,""viewing_time"":1173}]",30
,,,,,,,,,134567,,,134568,,,instructions,"[{""page_index"":0,""viewing_time"":64870},{""page_index"":1,""viewing_time"":16623},{""page_index"":2,""viewing_time"":40829},{""page_index"":3,""viewing_time"":12244}]",31
,,,,,,,,,143017,,,326675,,,instructions,"[{""page_index"":0,""viewing_time"":11695},{""page_index"":1,""viewing_time"":10312},{""page_index"":2,""viewing_time"":32308},{""page_index"":3,""viewing_time"":16771},{""page_index"":2,""viewing_time"":3484},{""page_index"":1,""viewing_time"":7840},{""page_index"":0,""viewing_time"":37304},{""page_index"":1,""viewing_time"":11573},{""page_index"":2,""viewing_time"":1868},{""page_index"":3,""viewing_time"":9861}]",31
,,,,,,,,,4429,,,356015,,,instructions,"[{""page_index"":0,""viewing_time"":1401},{""page_index"":1,""viewing_time"":742},{""page_index"":2,""viewing_time"":1631},{""page_index"":3,""viewing_time"":654}]",31
,,,,,,,,,69493,,,69493,,,instructions,"[{""page_index"":0,""viewing_time"":19352},{""page_index"":1,""viewing_time"":19378},{""page_index"":2,""viewing_time"":16477},{""page_index"":3,""viewing_time"":14286}]",32
,,,,,,,,,36074,,,131556,,,instructions,"[{""page_index"":0,""viewing_time"":5568},{""page_index"":1,""viewing_time"":14053},{""page_index"":2,""viewing_time"":7484},{""page_index"":3,""viewing_time"":8969}]",32
,,,,,,,,,36206,,,198118,,,instructions,"[{""page_index"":0,""viewing_time"":4858},{""page_index"":1,""viewing_time"":5177},{""page_index"":2,""viewing_time"":20324},{""page_index"":3,""viewing_time"":5847}]",32
,,,,,,,,,59328,,,278935,,,instructions,"[{""page_index"":0,""viewing_time"":13361},{""page_index"":1,""viewing_time"":14566},{""page_index"":2,""viewing_time"":19286},{""page_index"":3,""viewing_time"":12115}]",32
,,,,,,,,,40028,,,336700,,,instructions,"[{""page_index"":0,""viewing_time"":11399},{""page_index"":1,""viewing_time"":7871},{""page_index"":2,""viewing_time"":12266},{""page_index"":3,""viewing_time"":8492}]",32
,,,,,,,,,23040,,,23042,,,instructions,"[{""page_index"":0,""viewing_time"":2167},{""page_index"":1,""viewing_time"":2247},{""page_index"":2,""viewing_time"":17184},{""page_index"":3,""viewing_time"":1440}]",33
,,,,,,,,,37946,,,104234,,,instructions,"[{""page_index"":0,""viewing_time"":3363},{""page_index"":1,""viewing_time"":8419},{""page_index"":2,""viewing_time"":23995},{""page_index"":3,""viewing_time"":2167}]",33
,,,,,,,,,75535,,,75536,,,instructions,"[{""page_index"":0,""viewing_time"":5217},{""page_index"":1,""viewing_time"":8968},{""page_index"":2,""viewing_time"":6720},{""page_index"":3,""viewing_time"":54629}]",34
,,,,,,,,,47521,,,155834,,,instructions,"[{""page_index"":0,""viewing_time"":7131},{""page_index"":1,""viewing_time"":7487},{""page_index"":2,""viewing_time"":25439},{""page_index"":3,""viewing_time"":7464}]",34
,,,,,,,,,148279,,,148280,,,instructions,"[{""page_index"":0,""viewing_time"":38651},{""page_index"":1,""viewing_time"":29701},{""page_index"":2,""viewing_time"":24255},{""page_index"":3,""viewing_time"":25363},{""page_index"":2,""viewing_time"":1144},{""page_index"":1,""viewing_time"":1320},{""page_index"":0,""viewing_time"":20837},{""page_index"":1,""viewing_time"":1880},{""page_index"":2,""viewing_time"":1720},{""page_index"":3,""viewing_time"":3408}]",35
,,,,,,,,,149408,,,149408,,,instructions,"[{""page_index"":0,""viewing_time"":32585},{""page_index"":1,""viewing_time"":52638},{""page_index"":2,""viewing_time"":47631},{""page_index"":3,""viewing_time"":16552}]",36
,,,,,,,,,353123,,,353124,,,instructions,"[{""page_index"":0,""viewing_time"":95855},{""page_index"":1,""viewing_time"":112119},{""page_index"":2,""viewing_time"":75625},{""page_index"":3,""viewing_time"":69524}]",37
,,,,,,,,,112198,,,906469,,,instructions,"[{""page_index"":0,""viewing_time"":98900},{""page_index"":1,""viewing_time"":5011},{""page_index"":2,""viewing_time"":3301},{""page_index"":3,""viewing_time"":4986}]",37
,,,,,,,,,39276,,,1105197,,,instructions,"[{""page_index"":0,""viewing_time"":3155},{""page_index"":1,""viewing_time"":33106},{""page_index"":2,""viewing_time"":698},{""page_index"":3,""viewing_time"":2317}]",37
,,,,,,,,,19230,,,19231,,,instructions,"[{""page_index"":0,""viewing_time"":8156},{""page_index"":1,""viewing_time"":5366},{""page_index"":2,""viewing_time"":4984},{""page_index"":3,""viewing_time"":722}]",38
,,,,,,,,,3737,,,48258,,,instructions,"[{""page_index"":0,""viewing_time"":1268},{""page_index"":1,""viewing_time"":362},{""page_index"":2,""viewing_time"":1500},{""page_index"":3,""viewing_time"":606}]",38
,,,,,,,,,4487,,,65015,,,instructions,"[{""page_index"":0,""viewing_time"":1860},{""page_index"":1,""viewing_time"":677},{""page_index"":2,""viewing_time"":1421},{""page_index"":3,""viewing_time"":528}]",38
,,,,,,,,,71007,,,71007,,,instructions,"[{""page_index"":0,""viewing_time"":21239},{""page_index"":1,""viewing_time"":13510},{""page_index"":2,""viewing_time"":23162},{""page_index"":3,""viewing_time"":13095}]",39
,,,,,,,,,183913,,,183916,,,instructions,"[{""page_index"":0,""viewing_time"":21459},{""page_index"":1,""viewing_time"":63047},{""page_index"":2,""viewing_time"":16942},{""page_index"":1,""viewing_time"":638},{""page_index"":2,""viewing_time"":68437},{""page_index"":3,""viewing_time"":13383}]",40
,,,,,,,,,179017,,,411226,,,instructions,"[{""page_index"":0,""viewing_time"":104310},{""page_index"":1,""viewing_time"":44940},{""page_index"":2,""viewing_time"":15614},{""page_index"":3,""viewing_time"":14150}]",40
,,,,,,,,,8785,,,821097,,,instructions,"[{""page_index"":0,""viewing_time"":2742},{""page_index"":1,""viewing_time"":874},{""page_index"":2,""viewing_time"":3855},{""page_index"":3,""viewing_time"":1311}]",40
,,,,,,,,,7566,,,997939,,,instructions,"[{""page_index"":0,""viewing_time"":2012},{""page_index"":1,""viewing_time"":833},{""page_index"":2,""viewing_time"":768},{""page_index"":3,""viewing_time"":3951}]",40
,,,,,,,,,13741,,,1030963,,,instructions,"[{""page_index"":0,""viewing_time"":1886},{""page_index"":1,""viewing_time"":547},{""page_index"":0,""viewing_time"":1597},{""page_index"":1,""viewing_time"":712},{""page_index"":2,""viewing_time"":1388},{""page_index"":3,""viewing_time"":7605}]",40
,,,,,,,,,6889,,,1326461,,,instructions,"[{""page_index"":0,""viewing_time"":2223},{""page_index"":1,""viewing_time"":980},{""page_index"":2,""viewing_time"":796},{""page_index"":3,""viewing_time"":2887}]",40
,,,,,,,,,12161,,,1561515,,,instructions,"[{""page_index"":0,""viewing_time"":4616},{""page_index"":1,""viewing_time"":1320},{""page_index"":2,""viewing_time"":1592},{""page_index"":3,""viewing_time"":4629}]",40
,,,,,,,,,145213,,,1764817,,,instructions,"[{""page_index"":0,""viewing_time"":89756},{""page_index"":1,""viewing_time"":27312},{""page_index"":2,""viewing_time"":17263},{""page_index"":3,""viewing_time"":10875}]",40
,,,,,,,,,203526,,,203526,,,instructions,"[{""page_index"":0,""viewing_time"":49911},{""page_index"":1,""viewing_time"":48879},{""page_index"":2,""viewing_time"":32723},{""page_index"":3,""viewing_time"":29340},{""page_index"":2,""viewing_time"":17546},{""page_index"":1,""viewing_time"":17564},{""page_index"":0,""viewing_time"":4320},{""page_index"":1,""viewing_time"":1133},{""page_index"":2,""viewing_time"":916},{""page_index"":3,""viewing_time"":1193}]",41
,,,,,,,,,114670,,,114671,,,instructions,"[{""page_index"":0,""viewing_time"":45615},{""page_index"":1,""viewing_time"":38541},{""page_index"":2,""viewing_time"":19253},{""page_index"":3,""viewing_time"":11260}]",42
,,,,,,,,,27946,,,175456,,,instructions,"[{""page_index"":0,""viewing_time"":3516},{""page_index"":1,""viewing_time"":5847},{""page_index"":2,""viewing_time"":8576},{""page_index"":3,""viewing_time"":10006}]",42
,,,,,,,,,9413,,,203732,,,instructions,"[{""page_index"":0,""viewing_time"":5136},{""page_index"":1,""viewing_time"":1128},{""page_index"":2,""viewing_time"":1517},{""page_index"":3,""viewing_time"":1631}]",42
,,,,,,,,,317065,,,317067,,,instructions,"[{""page_index"":0,""viewing_time"":27932},{""page_index"":1,""viewing_time"":22482},{""page_index"":2,""viewing_time"":247529},{""page_index"":3,""viewing_time"":19118}]",43
,,,,,,,,,26253,,,394490,,,instructions,"[{""page_index"":0,""viewing_time"":6300},{""page_index"":1,""viewing_time"":7783},{""page_index"":2,""viewing_time"":8701},{""page_index"":3,""viewing_time"":3468}]",43
,,,,,,,,,40526,,,40531,,,instructions,"[{""page_index"":0,""viewing_time"":8387},{""page_index"":1,""viewing_time"":25365},{""page_index"":2,""viewing_time"":3451},{""page_index"":3,""viewing_time"":3320}]",44
,,,,,,,,,32159,,,95993,,,instructions,"[{""page_index"":0,""viewing_time"":20902},{""page_index"":1,""viewing_time"":3893},{""page_index"":2,""viewing_time"":2906},{""page_index"":3,""viewing_time"":4453}]",44
,,,,,,,,,23231,,,136364,,,instructions,"[{""page_index"":0,""viewing_time"":16789},{""page_index"":1,""viewing_time"":1473},{""page_index"":2,""viewing_time"":2522},{""page_index"":3,""viewing_time"":2445}]",44
,,,,,,,,,9730,,,163122,,,instructions,"[{""page_index"":0,""viewing_time"":2729},{""page_index"":1,""viewing_time"":4157},{""page_index"":2,""viewing_time"":1748},{""page_index"":3,""viewing_time"":1093}]",44
,,,,,,,,,100753,,,100755,,,instructions,"[{""page_index"":0,""viewing_time"":58066},{""page_index"":1,""viewing_time"":33301},{""page_index"":2,""viewing_time"":5367},{""page_index"":3,""viewing_time"":4017}]",45
,,,,,,,,,74147,,,212088,,,instructions,"[{""page_index"":0,""viewing_time"":5639},{""page_index"":1,""viewing_time"":2616},{""page_index"":2,""viewing_time"":8542},{""page_index"":1,""viewing_time"":15704},{""page_index"":2,""viewing_time"":13830},{""page_index"":1,""viewing_time"":366},{""page_index"":0,""viewing_time"":10191},{""page_index"":1,""viewing_time"":701},{""page_index"":2,""viewing_time"":772},{""page_index"":3,""viewing_time"":15784}]",45
,,,,,,,,,97616,,,97616,,,instructions,"[{""page_index"":0,""viewing_time"":33629},{""page_index"":1,""viewing_time"":19415},{""page_index"":2,""viewing_time"":28100},{""page_index"":3,""viewing_time"":16471}]",46
,,,,,,,,,325462,,,325464,,,instructions,"[{""page_index"":0,""viewing_time"":82294},{""page_index"":1,""viewing_time"":58392},{""page_index"":2,""viewing_time"":82288},{""page_index"":1,""viewing_time"":14535},{""page_index"":2,""viewing_time"":4472},{""page_index"":3,""viewing_time"":83479}]",47
,,,,,,,,,42906,,,419837,,,instructions,"[{""page_index"":0,""viewing_time"":8161},{""page_index"":1,""viewing_time"":4505},{""page_index"":2,""viewing_time"":21975},{""page_index"":3,""viewing_time"":8264}]",47
,,,,,,,,,110671,,,110672,,,instructions,"[{""page_index"":0,""viewing_time"":26260},{""page_index"":1,""viewing_time"":35959},{""page_index"":2,""viewing_time"":28115},{""page_index"":3,""viewing_time"":20336}]",48
,,,,,,,,,7685,,,158583,,,instructions,"[{""page_index"":0,""viewing_time"":2941},{""page_index"":1,""viewing_time"":608},{""page_index"":0,""viewing_time"":664},{""page_index"":1,""viewing_time"":528},{""page_index"":2,""viewing_time"":2400},{""page_index"":3,""viewing_time"":544}]",48
,,,,,,,,,231929,,,231931,,,instructions,"[{""page_index"":0,""viewing_time"":98956},{""page_index"":1,""viewing_time"":69112},{""page_index"":2,""viewing_time"":56253},{""page_index"":3,""viewing_time"":7606}]",49
,,,,,,,,,83241,,,351196,,,instructions,"[{""page_index"":0,""viewing_time"":30344},{""page_index"":1,""viewing_time"":12726},{""page_index"":2,""viewing_time"":18710},{""page_index"":3,""viewing_time"":21460}]",49
,,,,,,,,,53735,,,53737,,,instructions,"[{""page_index"":0,""viewing_time"":12521},{""page_index"":1,""viewing_time"":6290},{""page_index"":2,""viewing_time"":13082},{""page_index"":3,""viewing_time"":21840}]",50
,,,,,,,,,23238,,,108777,,,instructions,"[{""page_index"":0,""viewing_time"":13461},{""page_index"":1,""viewing_time"":2315},{""page_index"":2,""viewing_time"":3022},{""page_index"":3,""viewing_time"":4439}]",50
,,,,,,,,,86289,,,86290,,,instructions,"[{""page_index"":0,""viewing_time"":28499},{""page_index"":1,""viewing_time"":21327},{""page_index"":2,""viewing_time"":17399},{""page_index"":3,""viewing_time"":19064}]",51
,,,,,,,,,99704,,,99705,,,instructions,"[{""page_index"":0,""viewing_time"":28169},{""page_index"":1,""viewing_time"":27735},{""page_index"":2,""viewing_time"":19648},{""page_index"":3,""viewing_time"":24151}]",52
,,,,,,,,,125211,,,125212,,,instructions,"[{""page_index"":0,""viewing_time"":39036},{""page_index"":1,""viewing_time"":35356},{""page_index"":2,""viewing_time"":23397},{""page_index"":3,""viewing_time"":27421}]",53
,,,,,,,,,100862,,,280016,,,instructions,"[{""page_index"":0,""viewing_time"":31635},{""page_index"":1,""viewing_time"":20368},{""page_index"":2,""viewing_time"":32977},{""page_index"":3,""viewing_time"":15882}]",53
,,,,,,,,,184944,,,184948,,,instructions,"[{""page_index"":0,""viewing_time"":67472},{""page_index"":1,""viewing_time"":40648},{""page_index"":2,""viewing_time"":54432},{""page_index"":3,""viewing_time"":22386}]",54
,,,,,,,,,52942,,,301877,,,instructions,"[{""page_index"":0,""viewing_time"":10932},{""page_index"":1,""viewing_time"":7733},{""page_index"":2,""viewing_time"":19574},{""page_index"":3,""viewing_time"":14702}]",54
,,,,,,,,,70504,,,419839,,,instructions,"[{""page_index"":0,""viewing_time"":29505},{""page_index"":1,""viewing_time"":13157},{""page_index"":2,""viewing_time"":22310},{""page_index"":3,""viewing_time"":5529}]",54
,,,,,,,,,175702,,,175705,,,instructions,"[{""page_index"":0,""viewing_time"":45108},{""page_index"":1,""viewing_time"":61719},{""page_index"":2,""viewing_time"":37318},{""page_index"":3,""viewing_time"":31554}]",55
,,,,,,,,,120478,,,120479,,,instructions,"[{""page_index"":0,""viewing_time"":36002},{""page_index"":1,""viewing_time"":31762},{""page_index"":2,""viewing_time"":31557},{""page_index"":3,""viewing_time"":21157}]",56
,,,,,,,,,140631,,,140635,,,instructions,"[{""page_index"":0,""viewing_time"":47130},{""page_index"":1,""viewing_time"":73523},{""page_index"":2,""viewing_time"":10890},{""page_index"":3,""viewing_time"":9084}]",57
,,,,,,,,,175083,,,175084,,,instructions,"[{""page_index"":0,""viewing_time"":63717},{""page_index"":1,""viewing_time"":39566},{""page_index"":2,""viewing_time"":55760},{""page_index"":3,""viewing_time"":16039}]",58
,,,,,,,,,70071,,,282953,,,instructions,"[{""page_index"":0,""viewing_time"":15322},{""page_index"":1,""viewing_time"":12620},{""page_index"":2,""viewing_time"":22982},{""page_index"":3,""viewing_time"":19147}]",58
,,,,,,,,,208446,,,208449,,,instructions,"[{""page_index"":0,""viewing_time"":54309},{""page_index"":1,""viewing_time"":35232},{""page_index"":2,""viewing_time"":62071},{""page_index"":3,""viewing_time"":56832}]",59
,,,,,,,,,156057,,,156060,,,instructions,"[{""page_index"":0,""viewing_time"":65330},{""page_index"":1,""viewing_time"":39982},{""page_index"":2,""viewing_time"":24414},{""page_index"":3,""viewing_time"":26329}]",60
,,,,,,,,,76826,,,76826,,,instructions,"[{""page_index"":0,""viewing_time"":17089},{""page_index"":1,""viewing_time"":20149},{""page_index"":2,""viewing_time"":25086},{""page_index"":3,""viewing_time"":14501}]",61
,,,,,,,,,160151,,,160152,,,instructions,"[{""page_index"":0,""viewing_time"":50972},{""page_index"":1,""viewing_time"":55753},{""page_index"":2,""viewing_time"":35766},{""page_index"":3,""viewing_time"":17659}]",62
,,,,,,,,,68815,,,68817,,,instructions,"[{""page_index"":0,""viewing_time"":21633},{""page_index"":1,""viewing_time"":15594},{""page_index"":2,""viewing_time"":16226},{""page_index"":3,""viewing_time"":15361}]",63
,,,,,,,,,24322,,,118727,,,instructions,"[{""page_index"":0,""viewing_time"":10591},{""page_index"":1,""viewing_time"":3298},{""page_index"":2,""viewing_time"":8267},{""page_index"":3,""viewing_time"":2165}]",63
,,,,,,,,,19639,,,153978,,,instructions,"[{""page_index"":0,""viewing_time"":4869},{""page_index"":1,""viewing_time"":6889},{""page_index"":2,""viewing_time"":7105},{""page_index"":3,""viewing_time"":776}]",63
,,,,,,,,,27266,,,202713,,,instructions,"[{""page_index"":0,""viewing_time"":7701},{""page_index"":1,""viewing_time"":7057},{""page_index"":2,""viewing_time"":10503},{""page_index"":3,""viewing_time"":2004}]",63
,,,,,,,,,4923,,,237184,,,instructions,"[{""page_index"":0,""viewing_time"":1295},{""page_index"":1,""viewing_time"":960},{""page_index"":2,""viewing_time"":1977},{""page_index"":3,""viewing_time"":690}]",63
,,,,,,,,,79728,,,79728,,,instructions,"[{""page_index"":0,""viewing_time"":38294},{""page_index"":1,""viewing_time"":11868},{""page_index"":2,""viewing_time"":19137},{""page_index"":3,""viewing_time"":10428}]",64
,,,,,,,,,25579,,,128834,,,instructions,"[{""page_index"":0,""viewing_time"":3788},{""page_index"":1,""viewing_time"":6693},{""page_index"":2,""viewing_time"":6300},{""page_index"":3,""viewing_time"":8798}]",64
,,,,,,,,,105952,,,105953,,,instructions,"[{""page_index"":0,""viewing_time"":30987},{""page_index"":1,""viewing_time"":31293},{""page_index"":2,""viewing_time"":22665},{""page_index"":3,""viewing_time"":21004}]",65
,,,,,,,,,160373,,,160374,,,instructions,"[{""page_index"":0,""viewing_time"":43453},{""page_index"":1,""viewing_time"":62631},{""page_index"":2,""viewing_time"":42656},{""page_index"":3,""viewing_time"":11632}]",66
,,,,,,,,,1310207,,,1310209,,,instructions,"[{""page_index"":0,""viewing_time"":1275335},{""page_index"":1,""viewing_time"":15423},{""page_index"":2,""viewing_time"":4792},{""page_index"":3,""viewing_time"":7112},{""page_index"":2,""viewing_time"":2360},{""page_index"":1,""viewing_time"":2968},{""page_index"":2,""viewing_time"":1160},{""page_index"":3,""viewing_time"":1056}]",67
,,,,,,,,,60318,,,60320,,,instructions,"[{""page_index"":0,""viewing_time"":20725},{""page_index"":1,""viewing_time"":2456},{""page_index"":0,""viewing_time"":4504},{""page_index"":1,""viewing_time"":14831},{""page_index"":2,""viewing_time"":8800},{""page_index"":3,""viewing_time"":9000}]",68
,,,,,,,,,52752,,,146293,,,instructions,"[{""page_index"":0,""viewing_time"":14944},{""page_index"":1,""viewing_time"":9528},{""page_index"":2,""viewing_time"":17583},{""page_index"":3,""viewing_time"":10696}]",68
,,,,,,,,,29721,,,205701,,,instructions,"[{""page_index"":0,""viewing_time"":12664},{""page_index"":1,""viewing_time"":5113},{""page_index"":2,""viewing_time"":6359},{""page_index"":3,""viewing_time"":5584}]",68
,,,,,,,,,326781,,,326783,,,instructions,"[{""page_index"":0,""viewing_time"":218496},{""page_index"":1,""viewing_time"":54002},{""page_index"":2,""viewing_time"":20351},{""page_index"":3,""viewing_time"":33932}]",69
,,,,,,,,,73239,,,73240,,,instructions,"[{""page_index"":0,""viewing_time"":19777},{""page_index"":1,""viewing_time"":17777},{""page_index"":2,""viewing_time"":22936},{""page_index"":3,""viewing_time"":12747}]",70
,,,,,,,,,129879,,,129879,,,instructions,"[{""page_index"":0,""viewing_time"":63646},{""page_index"":1,""viewing_time"":21266},{""page_index"":2,""viewing_time"":26324},{""page_index"":3,""viewing_time"":18643}]",71
,,,,,,,,,137301,,,137303,,,instructions,"[{""page_index"":0,""viewing_time"":33130},{""page_index"":1,""viewing_time"":32554},{""page_index"":2,""viewing_time"":52915},{""page_index"":3,""viewing_time"":18701}]",72
,,,,,,,,,21469,,,21473,,,instructions,"[{""page_index"":0,""viewing_time"":6289},{""page_index"":1,""viewing_time"":7123},{""page_index"":2,""viewing_time"":4684},{""page_index"":3,""viewing_time"":3368}]",73
,,,,,,,,,15930,,,169950,,,instructions,"[{""page_index"":0,""viewing_time"":13695},{""page_index"":1,""viewing_time"":1032},{""page_index"":2,""viewing_time"":520},{""page_index"":3,""viewing_time"":681}]",73
,,,,,,,,,404430,,,404430,,,instructions,"[{""page_index"":0,""viewing_time"":134672},{""page_index"":1,""viewing_time"":90404},{""page_index"":2,""viewing_time"":143181},{""page_index"":3,""viewing_time"":36173}]",74
,,,,,,,,,89639,,,89676,,,instructions,"[{""page_index"":0,""viewing_time"":32046},{""page_index"":1,""viewing_time"":25401},{""page_index"":2,""viewing_time"":18020},{""page_index"":3,""viewing_time"":14169}]",75
,,,,,,,,,114787,,,114788,,,instructions,"[{""page_index"":0,""viewing_time"":40060},{""page_index"":1,""viewing_time"":30001},{""page_index"":2,""viewing_time"":31119},{""page_index"":3,""viewing_time"":13605}]",76
,,,,,,,,,100290,,,100290,,,instructions,"[{""page_index"":0,""viewing_time"":27146},{""page_index"":1,""viewing_time"":25810},{""page_index"":2,""viewing_time"":26168},{""page_index"":3,""viewing_time"":21166}]",77
,,,,,,,,,29695,,,160857,,,instructions,"[{""page_index"":0,""viewing_time"":11196},{""page_index"":1,""viewing_time"":4258},{""page_index"":2,""viewing_time"":8560},{""page_index"":3,""viewing_time"":5680}]",77
,,,,,,,,,68067,,,68068,,,instructions,"[{""page_index"":0,""viewing_time"":16401},{""page_index"":1,""viewing_time"":29167},{""page_index"":2,""viewing_time"":6812},{""page_index"":3,""viewing_time"":15686}]",78
,,,,,,,,,333941,,,333942,,,instructions,"[{""page_index"":0,""viewing_time"":180165},{""page_index"":1,""viewing_time"":102615},{""page_index"":2,""viewing_time"":33168},{""page_index"":3,""viewing_time"":17992}]",79
,,,,,,,,,51979,,,440148,,,instructions,"[{""page_index"":0,""viewing_time"":22266},{""page_index"":1,""viewing_time"":5360},{""page_index"":2,""viewing_time"":8112},{""page_index"":3,""viewing_time"":2800},{""page_index"":2,""viewing_time"":5968},{""page_index"":3,""viewing_time"":7472}]",79
,,,,,,,,,138406,,,138407,,,instructions,"[{""page_index"":0,""viewing_time"":36930},{""page_index"":1,""viewing_time"":4687},{""page_index"":0,""viewing_time"":3847},{""page_index"":1,""viewing_time"":31248},{""page_index"":2,""viewing_time"":37423},{""page_index"":3,""viewing_time"":24268}]",80
,,,,,,,,,69528,,,69529,,,instructions,"[{""page_index"":0,""viewing_time"":27238},{""page_index"":1,""viewing_time"":14452},{""page_index"":2,""viewing_time"":15668},{""page_index"":3,""viewing_time"":12169}]",81
,,,,,,,,,39892,,,138791,,,instructions,"[{""page_index"":0,""viewing_time"":8414},{""page_index"":1,""viewing_time"":8626},{""page_index"":2,""viewing_time"":17454},{""page_index"":3,""viewing_time"":5398}]",81
,,,,,,,,,45573,,,203237,,,instructions,"[{""page_index"":0,""viewing_time"":8888},{""page_index"":1,""viewing_time"":8087},{""page_index"":2,""viewing_time"":23940},{""page_index"":3,""viewing_time"":4658}]",81
,,,,,,,,,38426,,,271463,,,instructions,"[{""page_index"":0,""viewing_time"":8113},{""page_index"":1,""viewing_time"":2730},{""page_index"":2,""viewing_time"":18776},{""page_index"":3,""viewing_time"":8806}]",81
,,,,,,,,,84182,,,84182,,,instructions,"[{""page_index"":0,""viewing_time"":31128},{""page_index"":1,""viewing_time"":15575},{""page_index"":2,""viewing_time"":20463},{""page_index"":3,""viewing_time"":17016}]",82
,,,,,,,,,375423,,,375424,,,instructions,"[{""page_index"":0,""viewing_time"":197880},{""page_index"":1,""viewing_time"":82030},{""page_index"":2,""viewing_time"":49585},{""page_index"":3,""viewing_time"":45927}]",83
,,,,,,,,,152481,,,574123,,,instructions,"[{""page_index"":0,""viewing_time"":10521},{""page_index"":1,""viewing_time"":6016},{""page_index"":0,""viewing_time"":13296},{""page_index"":1,""viewing_time"":4736},{""page_index"":2,""viewing_time"":19892},{""page_index"":1,""viewing_time"":5444},{""page_index"":0,""viewing_time"":27002},{""page_index"":1,""viewing_time"":14523},{""page_index"":2,""viewing_time"":28615},{""page_index"":3,""viewing_time"":22435}]",83
,,,,,,,,,190102,,,190103,,,instructions,"[{""page_index"":0,""viewing_time"":33778},{""page_index"":1,""viewing_time"":40302},{""page_index"":2,""viewing_time"":33110},{""page_index"":3,""viewing_time"":82911}]",84
,,,,,,,,,37545,,,255532,,,instructions,"[{""page_index"":0,""viewing_time"":10328},{""page_index"":1,""viewing_time"":7736},{""page_index"":2,""viewing_time"":9089},{""page_index"":3,""viewing_time"":10391}]",84
,,,,,,,,,188201,,,188202,,,instructions,"[{""page_index"":0,""viewing_time"":44387},{""page_index"":1,""viewing_time"":63988},{""page_index"":2,""viewing_time"":41985},{""page_index"":3,""viewing_time"":37840}]",85
,,,,,,,,,47331,,,47333,,,instructions,"[{""page_index"":0,""viewing_time"":9956},{""page_index"":1,""viewing_time"":10415},{""page_index"":2,""viewing_time"":10953},{""page_index"":3,""viewing_time"":16006}]",86
,,,,,,,,,39738,,,138927,,,instructions,"[{""page_index"":0,""viewing_time"":6100},{""page_index"":1,""viewing_time"":11952},{""page_index"":2,""viewing_time"":7823},{""page_index"":3,""viewing_time"":13863}]",86
,,,,,,,,,58413,,,242667,,,instructions,"[{""page_index"":0,""viewing_time"":13166},{""page_index"":1,""viewing_time"":42135},{""page_index"":2,""viewing_time"":1392},{""page_index"":3,""viewing_time"":1719}]",86
,,,,,,,,,127650,,,127652,,,instructions,"[{""page_index"":0,""viewing_time"":10881},{""page_index"":1,""viewing_time"":1227},{""page_index"":0,""viewing_time"":6967},{""page_index"":1,""viewing_time"":34048},{""page_index"":2,""viewing_time"":54521},{""page_index"":3,""viewing_time"":20004}]",87
,,,,,,,,,165371,,,372476,,,instructions,"[{""page_index"":0,""viewing_time"":7990},{""page_index"":1,""viewing_time"":18838},{""page_index"":0,""viewing_time"":7682},{""page_index"":1,""viewing_time"":380},{""page_index"":2,""viewing_time"":29941},{""page_index"":3,""viewing_time"":60494},{""page_index"":2,""viewing_time"":385},{""page_index"":1,""viewing_time"":292},{""page_index"":0,""viewing_time"":27627},{""page_index"":1,""viewing_time"":697},{""page_index"":0,""viewing_time"":1081},{""page_index"":1,""viewing_time"":6615},{""page_index"":2,""viewing_time"":2986},{""page_index"":3,""viewing_time"":362}]",87
,,,,,,,,,32451,,,32453,,,instructions,"[{""page_index"":0,""viewing_time"":7821},{""page_index"":1,""viewing_time"":16850},{""page_index"":2,""viewing_time"":4429},{""page_index"":3,""viewing_time"":3347}]",88
,,,,,,,,,110491,,,110492,,,instructions,"[{""page_index"":0,""viewing_time"":34250},{""page_index"":1,""viewing_time"":9441},{""page_index"":0,""viewing_time"":4662},{""page_index"":1,""viewing_time"":912},{""page_index"":0,""viewing_time"":580},{""page_index"":1,""viewing_time"":413},{""page_index"":2,""viewing_time"":467},{""page_index"":1,""viewing_time"":349},{""page_index"":0,""viewing_time"":520},{""page_index"":1,""viewing_time"":8216},{""page_index"":2,""viewing_time"":34985},{""page_index"":3,""viewing_time"":15695}]",89
,,,,,,,,,64221,,,64222,,,instructions,"[{""page_index"":0,""viewing_time"":20325},{""page_index"":1,""viewing_time"":16705},{""page_index"":2,""viewing_time"":13096},{""page_index"":3,""viewing_time"":14095}]",90
,,,,,,,,,68442,,,68443,,,instructions,"[{""page_index"":0,""viewing_time"":36016},{""page_index"":1,""viewing_time"":11226},{""page_index"":2,""viewing_time"":11479},{""page_index"":3,""viewing_time"":9720}]",91
,,,,,,,,,31628,,,117689,,,instructions,"[{""page_index"":0,""viewing_time"":4242},{""page_index"":1,""viewing_time"":11033},{""page_index"":2,""viewing_time"":10056},{""page_index"":3,""viewing_time"":6296}]",91
,,,,,,,,,33078,,,170703,,,instructions,"[{""page_index"":0,""viewing_time"":5142},{""page_index"":1,""viewing_time"":14465},{""page_index"":2,""viewing_time"":9799},{""page_index"":3,""viewing_time"":3672}]",91
,,,,,,,,,20890,,,212761,,,instructions,"[{""page_index"":0,""viewing_time"":11482},{""page_index"":1,""viewing_time"":2703},{""page_index"":2,""viewing_time"":6016},{""page_index"":3,""viewing_time"":688}]",91
,,,,,,,,,192983,,,192985,,,instructions,"[{""page_index"":0,""viewing_time"":93801},{""page_index"":1,""viewing_time"":38692},{""page_index"":2,""viewing_time"":33125},{""page_index"":3,""viewing_time"":27362}]",92
,,,,,,,,,14568,,,14572,,,instructions,"[{""page_index"":0,""viewing_time"":4871},{""page_index"":1,""viewing_time"":2701},{""page_index"":2,""viewing_time"":2008},{""page_index"":3,""viewing_time"":4986}]",93
,,,,,,,,,55096,,,141567,,,instructions,"[{""page_index"":0,""viewing_time"":30753},{""page_index"":1,""viewing_time"":19944},{""page_index"":2,""viewing_time"":2632},{""page_index"":3,""viewing_time"":1766}]",93
,,,,,,,,,102202,,,292810,,,instructions,"[{""page_index"":0,""viewing_time"":23639},{""page_index"":1,""viewing_time"":23954},{""page_index"":2,""viewing_time"":28741},{""page_index"":3,""viewing_time"":25867}]",93
,,,,,,,,,72781,,,403253,,,instructions,"[{""page_index"":0,""viewing_time"":12838},{""page_index"":1,""viewing_time"":12735},{""page_index"":2,""viewing_time"":17609},{""page_index"":3,""viewing_time"":29598}]",93
,,,,,,,,,116116,,,116119,,,instructions,"[{""page_index"":0,""viewing_time"":35531},{""page_index"":1,""viewing_time"":28548},{""page_index"":2,""viewing_time"":31638},{""page_index"":3,""viewing_time"":20396}]",94
,,,,,,,,,212184,,,212185,,,instructions,"[{""page_index"":0,""viewing_time"":91436},{""page_index"":1,""viewing_time"":3072},{""page_index"":0,""viewing_time"":93902},{""page_index"":1,""viewing_time"":13164},{""page_index"":2,""viewing_time"":4226},{""page_index"":3,""viewing_time"":6384}]",95
,,,,,,,,,125895,,,125902,,,instructions,"[{""page_index"":0,""viewing_time"":40929},{""page_index"":1,""viewing_time"":30369},{""page_index"":2,""viewing_time"":27130},{""page_index"":3,""viewing_time"":27455}]",96
,,,,,,,,,43177,,,204639,,,instructions,"[{""page_index"":0,""viewing_time"":8405},{""page_index"":1,""viewing_time"":9394},{""page_index"":2,""viewing_time"":21874},{""page_index"":3,""viewing_time"":3499}]",96
,,,,,,,,,170966,,,170968,,,instructions,"[{""page_index"":0,""viewing_time"":42677},{""page_index"":1,""viewing_time"":2512},{""page_index"":0,""viewing_time"":2359},{""page_index"":1,""viewing_time"":45401},{""page_index"":2,""viewing_time"":2184},{""page_index"":1,""viewing_time"":2640},{""page_index"":2,""viewing_time"":51584},{""page_index"":3,""viewing_time"":21608}]",97
,,,,,,,,,233401,,,233404,,,instructions,"[{""page_index"":0,""viewing_time"":56542},{""page_index"":1,""viewing_time"":102806},{""page_index"":2,""viewing_time"":39968},{""page_index"":3,""viewing_time"":34080}]",98
,,,,,,,,,223304,,,223304,,,instructions,"[{""page_index"":0,""viewing_time"":85136},{""page_index"":1,""viewing_time"":74701},{""page_index"":2,""viewing_time"":38330},{""page_index"":3,""viewing_time"":25136}]",99
,,,,,,,,,278340,,,278340,,,instructions,"[{""page_index"":0,""viewing_time"":111480},{""page_index"":1,""viewing_time"":16358},{""page_index"":2,""viewing_time"":19211},{""page_index"":1,""viewing_time"":7287},{""page_index"":2,""viewing_time"":1450},{""page_index"":1,""viewing_time"":40339},{""page_index"":2,""viewing_time"":41106},{""page_index"":3,""viewing_time"":41109}]",100
,,,,,,,,,147790,,,147791,,,instructions,"[{""page_index"":0,""viewing_time"":98906},{""page_index"":1,""viewing_time"":19777},{""page_index"":2,""viewing_time"":17330},{""page_index"":3,""viewing_time"":11776}]",101
,,,,,,,,,122516,,,122518,,,instructions,"[{""page_index"":0,""viewing_time"":39828},{""page_index"":1,""viewing_time"":31792},{""page_index"":2,""viewing_time"":32056},{""page_index"":3,""viewing_time"":18838}]",102
,,,,,,,,,89797,,,89798,,,instructions,"[{""page_index"":0,""viewing_time"":29031},{""page_index"":1,""viewing_time"":11175},{""page_index"":2,""viewing_time"":35204},{""page_index"":3,""viewing_time"":14386}]",103
,,,,,,,,,47054,,,181179,,,instructions,"[{""page_index"":0,""viewing_time"":16420},{""page_index"":1,""viewing_time"":12007},{""page_index"":2,""viewing_time"":14299},{""page_index"":3,""viewing_time"":4327}]",103
,,,,,,,,,12191,,,213881,,,instructions,"[{""page_index"":0,""viewing_time"":2271},{""page_index"":1,""viewing_time"":1244},{""page_index"":2,""viewing_time"":2556},{""page_index"":3,""viewing_time"":6120}]",103
,,,,,,,,,27640,,,259528,,,instructions,"[{""page_index"":0,""viewing_time"":6225},{""page_index"":1,""viewing_time"":6774},{""page_index"":2,""viewing_time"":8037},{""page_index"":3,""viewing_time"":6604}]",103
,,,,,,,,,124904,,,124904,,,instructions,"[{""page_index"":0,""viewing_time"":36592},{""page_index"":1,""viewing_time"":45543},{""page_index"":2,""viewing_time"":24232},{""page_index"":3,""viewing_time"":18536}]",104
,,,,,,,,,17262,,,169071,,,instructions,"[{""page_index"":0,""viewing_time"":3838},{""page_index"":1,""viewing_time"":2527},{""page_index"":2,""viewing_time"":9800},{""page_index"":3,""viewing_time"":1096}]",104
,,,,,,,,,221540,,,221544,,,instructions,"[{""page_index"":0,""viewing_time"":80268},{""page_index"":1,""viewing_time"":30386},{""page_index"":2,""viewing_time"":103972},{""page_index"":3,""viewing_time"":6912}]",105
,,,,,,,,,70235,,,348778,,,instructions,"[{""page_index"":0,""viewing_time"":15057},{""page_index"":1,""viewing_time"":14048},{""page_index"":2,""viewing_time"":15704},{""page_index"":3,""viewing_time"":25425}]",105
,,,,,,,,,806219,,,806222,,,instructions,"[{""page_index"":0,""viewing_time"":775825},{""page_index"":1,""viewing_time"":16105},{""page_index"":2,""viewing_time"":9056},{""page_index"":3,""viewing_time"":5232}]",106
,,,,,,,,,9054,,,955610,,,instructions,"[{""page_index"":0,""viewing_time"":3364},{""page_index"":1,""viewing_time"":2617},{""page_index"":2,""viewing_time"":1752},{""page_index"":3,""viewing_time"":1320}]",106
,,,,,,,,,33400,,,1121758,,,instructions,"[{""page_index"":0,""viewing_time"":2391},{""page_index"":1,""viewing_time"":27761},{""page_index"":2,""viewing_time"":1624},{""page_index"":3,""viewing_time"":1624}]",106
,,,,,,,,,357848,,,357850,,,instructions,"[{""page_index"":0,""viewing_time"":274159},{""page_index"":1,""viewing_time"":9580},{""page_index"":2,""viewing_time"":52504},{""page_index"":3,""viewing_time"":21604}]",107
,,,,,,,,,53760,,,470519,,,instructions,"[{""page_index"":0,""viewing_time"":19206},{""page_index"":1,""viewing_time"":31092},{""page_index"":2,""viewing_time"":2373},{""page_index"":3,""viewing_time"":1087}]",107
,,,,,,,,,134227,,,134227,,,instructions,"[{""page_index"":0,""viewing_time"":38895},{""page_index"":1,""viewing_time"":39467},{""page_index"":2,""viewing_time"":24418},{""page_index"":3,""viewing_time"":31446}]",108
,,,,,,,,,375866,,,375868,,,instructions,"[{""page_index"":0,""viewing_time"":254585},{""page_index"":1,""viewing_time"":54090},{""page_index"":2,""viewing_time"":20296},{""page_index"":3,""viewing_time"":46894}]",109
,,,,,,,,,109571,,,109572,,,instructions,"[{""page_index"":0,""viewing_time"":35348},{""page_index"":1,""viewing_time"":27642},{""page_index"":2,""viewing_time"":25772},{""page_index"":3,""viewing_time"":20808}]",110
,,,,,,,,,65187,,,65187,,,instructions,"[{""page_index"":0,""viewing_time"":22025},{""page_index"":1,""viewing_time"":12816},{""page_index"":2,""viewing_time"":9200},{""page_index"":3,""viewing_time"":21145}]",111
,,,,,,,,,36327,,,126081,,,instructions,"[{""page_index"":0,""viewing_time"":12510},{""page_index"":1,""viewing_time"":3161},{""page_index"":2,""viewing_time"":14391},{""page_index"":3,""viewing_time"":6264}]",111
,,,,,,,,,28904,,,180081,,,instructions,"[{""page_index"":0,""viewing_time"":5056},{""page_index"":1,""viewing_time"":7551},{""page_index"":2,""viewing_time"":8320},{""page_index"":3,""viewing_time"":7976}]",111
,,,,,,,,,81453,,,81456,,,instructions,"[{""page_index"":0,""viewing_time"":29552},{""page_index"":1,""viewing_time"":13341},{""page_index"":2,""viewing_time"":27623},{""page_index"":3,""viewing_time"":10936}]",112
,,,,,,,,,40596,,,168114,,,instructions,"[{""page_index"":0,""viewing_time"":4134},{""page_index"":1,""viewing_time"":13717},{""page_index"":2,""viewing_time"":15904},{""page_index"":3,""viewing_time"":6840}]",112
,,,,,,,,,207121,,,207123,,,instructions,"[{""page_index"":0,""viewing_time"":63236},{""page_index"":1,""viewing_time"":86782},{""page_index"":2,""viewing_time"":33457},{""page_index"":3,""viewing_time"":23643}]",113
,,,,,,,,,60869,,,328192,,,instructions,"[{""page_index"":0,""viewing_time"":9994},{""page_index"":1,""viewing_time"":7952},{""page_index"":2,""viewing_time"":25899},{""page_index"":3,""viewing_time"":17023}]",113
,,,,,,,,,253182,,,253183,,,instructions,"[{""page_index"":0,""viewing_time"":105484},{""page_index"":1,""viewing_time"":53804},{""page_index"":2,""viewing_time"":65524},{""page_index"":3,""viewing_time"":28369}]",114
,,,,,,,,,307797,,,307800,,,instructions,"[{""page_index"":0,""viewing_time"":83043},{""page_index"":1,""viewing_time"":38374},{""page_index"":0,""viewing_time"":4847},{""page_index"":1,""viewing_time"":11405},{""page_index"":0,""viewing_time"":5423},{""page_index"":1,""viewing_time"":15684},{""page_index"":0,""viewing_time"":14681},{""page_index"":1,""viewing_time"":13204},{""page_index"":0,""viewing_time"":1312},{""page_index"":1,""viewing_time"":24514},{""page_index"":2,""viewing_time"":39440},{""page_index"":3,""viewing_time"":41486},{""page_index"":2,""viewing_time"":1021},{""page_index"":3,""viewing_time"":13360}]",115
,,,,,,,,,117382,,,480790,,,instructions,"[{""page_index"":0,""viewing_time"":31599},{""page_index"":1,""viewing_time"":15841},{""page_index"":2,""viewing_time"":42780},{""page_index"":3,""viewing_time"":27156}]",115
,,,,,,,,,10166,,,528138,,,instructions,"[{""page_index"":0,""viewing_time"":2466},{""page_index"":1,""viewing_time"":178},{""page_index"":0,""viewing_time"":2416},{""page_index"":1,""viewing_time"":971},{""page_index"":2,""viewing_time"":3020},{""page_index"":3,""viewing_time"":1113}]",115
,,,,,,,,,9526,,,569947,,,instructions,"[{""page_index"":0,""viewing_time"":3450},{""page_index"":1,""viewing_time"":693},{""page_index"":0,""viewing_time"":2144},{""page_index"":1,""viewing_time"":544},{""page_index"":2,""viewing_time"":1908},{""page_index"":3,""viewing_time"":784}]",115
,,,,,,,,,68080,,,654246,,,instructions,"[{""page_index"":0,""viewing_time"":55616},{""page_index"":1,""viewing_time"":8149},{""page_index"":2,""viewing_time"":2671},{""page_index"":3,""viewing_time"":1643}]",115
,,,,,,,,,79147,,,79147,,,instructions,"[{""page_index"":0,""viewing_time"":21785},{""page_index"":1,""viewing_time"":27786},{""page_index"":2,""viewing_time"":14856},{""page_index"":3,""viewing_time"":14719}]",116
,,,,,,,,,84984,,,193270,,,instructions,"[{""page_index"":0,""viewing_time"":18934},{""page_index"":1,""viewing_time"":37474},{""page_index"":2,""viewing_time"":19384},{""page_index"":3,""viewing_time"":9192}]",116
,,,,,,,,,2583,,,219623,,,instructions,"[{""page_index"":0,""viewing_time"":1823},{""page_index"":1,""viewing_time"":255},{""page_index"":2,""viewing_time"":345},{""page_index"":3,""viewing_time"":159}]",116
,,,,,,,,,80417,,,80419,,,instructions,"[{""page_index"":0,""viewing_time"":20671},{""page_index"":1,""viewing_time"":18721},{""page_index"":2,""viewing_time"":27004},{""page_index"":3,""viewing_time"":14019}]",117
,,,,,,,,,222469,,,222470,,,instructions,"[{""page_index"":0,""viewing_time"":31949},{""page_index"":1,""viewing_time"":114170},{""page_index"":2,""viewing_time"":61586},{""page_index"":3,""viewing_time"":14763}]",118
,,,,,,,,,236501,,,236502,,,instructions,"[{""page_index"":0,""viewing_time"":70064},{""page_index"":1,""viewing_time"":53010},{""page_index"":2,""viewing_time"":50391},{""page_index"":3,""viewing_time"":63034}]",119
,,,,,,,,,90923,,,90923,,,instructions,"[{""page_index"":0,""viewing_time"":23770},{""page_index"":1,""viewing_time"":23993},{""page_index"":2,""viewing_time"":27348},{""page_index"":3,""viewing_time"":15812}]",120
,,,,,,,,,47902,,,167696,,,instructions,"[{""page_index"":0,""viewing_time"":16463},{""page_index"":1,""viewing_time"":10599},{""page_index"":2,""viewing_time"":11164},{""page_index"":3,""viewing_time"":9676}]",120
,,,,,,,,,20970,,,214917,,,instructions,"[{""page_index"":0,""viewing_time"":4776},{""page_index"":1,""viewing_time"":2990},{""page_index"":2,""viewing_time"":6527},{""page_index"":3,""viewing_time"":6677}]",120
,,,,,,,,,31083,,,265267,,,instructions,"[{""page_index"":0,""viewing_time"":10623},{""page_index"":1,""viewing_time"":3253},{""page_index"":2,""viewing_time"":11036},{""page_index"":3,""viewing_time"":6171}]",120
,,,,,,,,,41885,,,350721,,,instructions,"[{""page_index"":0,""viewing_time"":1921},{""page_index"":1,""viewing_time"":1961},{""page_index"":0,""viewing_time"":2215},{""page_index"":1,""viewing_time"":1640},{""page_index"":0,""viewing_time"":9467},{""page_index"":1,""viewing_time"":4110},{""page_index"":2,""viewing_time"":18727},{""page_index"":3,""viewing_time"":1844}]",120
,,,,,,,,,87671,,,469177,,,instructions,"[{""page_index"":0,""viewing_time"":17494},{""page_index"":1,""viewing_time"":1457},{""page_index"":0,""viewing_time"":763},{""page_index"":1,""viewing_time"":575},{""page_index"":2,""viewing_time"":62182},{""page_index"":3,""viewing_time"":5200}]",120
,,,,,,,,,18097,,,512323,,,instructions,"[{""page_index"":0,""viewing_time"":3924},{""page_index"":1,""viewing_time"":2091},{""page_index"":2,""viewing_time"":3596},{""page_index"":3,""viewing_time"":8486}]",120
,,,,,,,,,4176,,,539414,,,instructions,"[{""page_index"":0,""viewing_time"":1259},{""page_index"":1,""viewing_time"":737},{""page_index"":2,""viewing_time"":1506},{""page_index"":3,""viewing_time"":674}]",120
,,,,,,,,,181830,,,181831,,,instructions,"[{""page_index"":0,""viewing_time"":40395},{""page_index"":1,""viewing_time"":8883},{""page_index"":0,""viewing_time"":1799},{""page_index"":1,""viewing_time"":831},{""page_index"":2,""viewing_time"":34942},{""page_index"":3,""viewing_time"":16252},{""page_index"":2,""viewing_time"":2006},{""page_index"":1,""viewing_time"":3244},{""page_index"":0,""viewing_time"":17613},{""page_index"":1,""viewing_time"":2569},{""page_index"":0,""viewing_time"":3186},{""page_index"":1,""viewing_time"":31377},{""page_index"":2,""viewing_time"":15108},{""page_index"":3,""viewing_time"":3624}]",121
,,,,,,,,,45851,,,45854,,,instructions,"[{""page_index"":0,""viewing_time"":27337},{""page_index"":1,""viewing_time"":7639},{""page_index"":2,""viewing_time"":6048},{""page_index"":3,""viewing_time"":4824}]",122
,,,,,,,,,75310,,,157650,,,instructions,"[{""page_index"":0,""viewing_time"":7402},{""page_index"":1,""viewing_time"":24594},{""page_index"":2,""viewing_time"":18482},{""page_index"":3,""viewing_time"":24831}]",122
,,,,,,,,,77079,,,266347,,,instructions,"[{""page_index"":0,""viewing_time"":25189},{""page_index"":1,""viewing_time"":19456},{""page_index"":2,""viewing_time"":17255},{""page_index"":3,""viewing_time"":15177}]",122
,,,,,,,,,113806,,,113806,,,instructions,"[{""page_index"":0,""viewing_time"":34165},{""page_index"":1,""viewing_time"":24264},{""page_index"":2,""viewing_time"":25911},{""page_index"":3,""viewing_time"":29465}]",123
,,,,,,,,,33943,,,183494,,,instructions,"[{""page_index"":0,""viewing_time"":10015},{""page_index"":1,""viewing_time"":6169},{""page_index"":2,""viewing_time"":14681},{""page_index"":3,""viewing_time"":3077}]",123
,,,,,,,,,135307,,,135308,,,instructions,"[{""page_index"":0,""viewing_time"":49194},{""page_index"":1,""viewing_time"":40409},{""page_index"":2,""viewing_time"":26226},{""page_index"":3,""viewing_time"":19477}]",124
,,,,,,,,,58363,,,241636,,,instructions,"[{""page_index"":0,""viewing_time"":7144},{""page_index"":1,""viewing_time"":32644},{""page_index"":2,""viewing_time"":7500},{""page_index"":3,""viewing_time"":11074}]",124
,,,,,,,,,287917,,,287918,,,instructions,"[{""page_index"":0,""viewing_time"":116832},{""page_index"":1,""viewing_time"":49359},{""page_index"":2,""viewing_time"":102070},{""page_index"":3,""viewing_time"":19654}]",125
,,,,,,,,,154624,,,154626,,,instructions,"[{""page_index"":0,""viewing_time"":36489},{""page_index"":1,""viewing_time"":58518},{""page_index"":2,""viewing_time"":35258},{""page_index"":3,""viewing_time"":24356}]",126
,,,,,,,,,109442,,,109442,,,instructions,"[{""page_index"":0,""viewing_time"":34872},{""page_index"":1,""viewing_time"":28350},{""page_index"":2,""viewing_time"":28131},{""page_index"":3,""viewing_time"":18087}]",127
,,,,,,,,,76380,,,76380,,,instructions,"[{""page_index"":0,""viewing_time"":22589},{""page_index"":1,""viewing_time"":18676},{""page_index"":2,""viewing_time"":20258},{""page_index"":3,""viewing_time"":14856}]",128
,,,,,,,,,50192,,,176000,,,instructions,"[{""page_index"":0,""viewing_time"":16004},{""page_index"":1,""viewing_time"":8521},{""page_index"":2,""viewing_time"":18926},{""page_index"":3,""viewing_time"":6740}]",128
,,,,,,,,,59594,,,259961,,,instructions,"[{""page_index"":0,""viewing_time"":33633},{""page_index"":1,""viewing_time"":7087},{""page_index"":2,""viewing_time"":13712},{""page_index"":3,""viewing_time"":5162}]",128
,,,,,,,,,92727,,,92728,,,instructions,"[{""page_index"":0,""viewing_time"":38684},{""page_index"":1,""viewing_time"":28122},{""page_index"":2,""viewing_time"":15652},{""page_index"":3,""viewing_time"":10268}]",129
,,,,,,,,,30568,,,148226,,,instructions,"[{""page_index"":0,""viewing_time"":7144},{""page_index"":1,""viewing_time"":3266},{""page_index"":2,""viewing_time"":9431},{""page_index"":3,""viewing_time"":10726}]",129
,,,,,,,,,29525,,,217045,,,instructions,"[{""page_index"":0,""viewing_time"":5587},{""page_index"":1,""viewing_time"":9140},{""page_index"":2,""viewing_time"":7562},{""page_index"":3,""viewing_time"":7236}]",129
,,,,,,,,,164051,,,164053,,,instructions,"[{""page_index"":0,""viewing_time"":67721},{""page_index"":1,""viewing_time"":58641},{""page_index"":2,""viewing_time"":16421},{""page_index"":3,""viewing_time"":21267}]",130
,,,,,,,,,109103,,,109104,,,instructions,"[{""page_index"":0,""viewing_time"":13333},{""page_index"":1,""viewing_time"":62394},{""page_index"":2,""viewing_time"":16265},{""page_index"":3,""viewing_time"":17111}]",131
,,,,,,,,,47811,,,201729,,,instructions,"[{""page_index"":0,""viewing_time"":13342},{""page_index"":1,""viewing_time"":14758},{""page_index"":2,""viewing_time"":14061},{""page_index"":3,""viewing_time"":5650}]",131
,,,,,,,,,360766,,,360780,,,instructions,"[{""page_index"":0,""viewing_time"":193486},{""page_index"":1,""viewing_time"":83827},{""page_index"":2,""viewing_time"":21374},{""page_index"":3,""viewing_time"":62055}]",132
,,,,,,,,,190100,,,190101,,,instructions,"[{""page_index"":0,""viewing_time"":69906},{""page_index"":1,""viewing_time"":23143},{""page_index"":2,""viewing_time"":22113},{""page_index"":3,""viewing_time"":74936}]",133
,,,,,,,,,94197,,,321155,,,instructions,"[{""page_index"":0,""viewing_time"":40700},{""page_index"":1,""viewing_time"":23368},{""page_index"":2,""viewing_time"":15776},{""page_index"":3,""viewing_time"":14352}]",133
,,,,,,,,,79919,,,423283,,,instructions,"[{""page_index"":0,""viewing_time"":25846},{""page_index"":1,""viewing_time"":18872},{""page_index"":2,""viewing_time"":17969},{""page_index"":3,""viewing_time"":17231}]",133
,,,,,,,,,55284,,,493529,,,instructions,"[{""page_index"":0,""viewing_time"":17692},{""page_index"":1,""viewing_time"":11904},{""page_index"":2,""viewing_time"":14216},{""page_index"":3,""viewing_time"":11472}]",133
,,,,,,,,,137256,,,137257,,,instructions,"[{""page_index"":0,""viewing_time"":28396},{""page_index"":1,""viewing_time"":47778},{""page_index"":2,""viewing_time"":41905},{""page_index"":3,""viewing_time"":19176}]",134
,,,,,,,,,123778,,,123779,,,instructions,"[{""page_index"":0,""viewing_time"":35173},{""page_index"":1,""viewing_time"":47134},{""page_index"":2,""viewing_time"":19169},{""page_index"":3,""viewing_time"":22301}]",135
,,,,,,,,,69924,,,69924,,,instructions,"[{""page_index"":0,""viewing_time"":30369},{""page_index"":1,""viewing_time"":13112},{""page_index"":2,""viewing_time"":11557},{""page_index"":3,""viewing_time"":14885}]",136
,,,,,,,,,88276,,,180809,,,instructions,"[{""page_index"":0,""viewing_time"":3526},{""page_index"":1,""viewing_time"":32649},{""page_index"":2,""viewing_time"":25726},{""page_index"":3,""viewing_time"":8528},{""page_index"":2,""viewing_time"":1620},{""page_index"":1,""viewing_time"":943},{""page_index"":0,""viewing_time"":12394},{""page_index"":1,""viewing_time"":520},{""page_index"":2,""viewing_time"":1560},{""page_index"":3,""viewing_time"":810}]",136
,,,,,,,,,167271,,,167274,,,instructions,"[{""page_index"":0,""viewing_time"":61623},{""page_index"":1,""viewing_time"":46988},{""page_index"":2,""viewing_time"":31431},{""page_index"":3,""viewing_time"":27228}]",137
,,,,,,,,,45509,,,258116,,,instructions,"[{""page_index"":0,""viewing_time"":12369},{""page_index"":1,""viewing_time"":4863},{""page_index"":2,""viewing_time"":18052},{""page_index"":3,""viewing_time"":10225}]",137
,,,,,,,,,104048,,,104049,,,instructions,"[{""page_index"":0,""viewing_time"":40487},{""page_index"":1,""viewing_time"":11688},{""page_index"":2,""viewing_time"":29240},{""page_index"":3,""viewing_time"":22631}]",138
,,,,,,,,,56629,,,206727,,,instructions,"[{""page_index"":0,""viewing_time"":7332},{""page_index"":1,""viewing_time"":3744},{""page_index"":2,""viewing_time"":13808},{""page_index"":3,""viewing_time"":8201},{""page_index"":2,""viewing_time"":9751},{""page_index"":1,""viewing_time"":11112},{""page_index"":2,""viewing_time"":1352},{""page_index"":3,""viewing_time"":1328}]",138
,,,,,,,,,199607,,,199610,,,instructions,"[{""page_index"":0,""viewing_time"":39062},{""page_index"":1,""viewing_time"":77794},{""page_index"":2,""viewing_time"":19671},{""page_index"":3,""viewing_time"":55104},{""page_index"":2,""viewing_time"":6709},{""page_index"":3,""viewing_time"":1265}]",139
,,,,,,,,,38857,,,458481,,,instructions,"[{""page_index"":0,""viewing_time"":16884},{""page_index"":1,""viewing_time"":18511},{""page_index"":2,""viewing_time"":2083},{""page_index"":3,""viewing_time"":1377}]",139
,,,,,,,,,25638,,,25639,,,instructions,"[{""page_index"":0,""viewing_time"":15130},{""page_index"":1,""viewing_time"":5036},{""page_index"":2,""viewing_time"":3202},{""page_index"":3,""viewing_time"":2270}]",140
,,,,,,,,,83597,,,134218,,,instructions,"[{""page_index"":0,""viewing_time"":5117},{""page_index"":1,""viewing_time"":7676},{""page_index"":2,""viewing_time"":7462},{""page_index"":3,""viewing_time"":63342}]",140
,,,,,,,,,34011,,,186599,,,instructions,"[{""page_index"":0,""viewing_time"":4550},{""page_index"":1,""viewing_time"":7531},{""page_index"":2,""viewing_time"":12275},{""page_index"":3,""viewing_time"":9655}]",140
,,,,,,,,,185146,,,185148,,,instructions,"[{""page_index"":0,""viewing_time"":73807},{""page_index"":1,""viewing_time"":61143},{""page_index"":2,""viewing_time"":24184},{""page_index"":3,""viewing_time"":26010}]",141
,,,,,,,,,88248,,,320952,,,instructions,"[{""page_index"":0,""viewing_time"":31286},{""page_index"":1,""viewing_time"":21904},{""page_index"":2,""viewing_time"":19559},{""page_index"":3,""viewing_time"":15497}]",141
,,,,,,,,,97327,,,461223,,,instructions,"[{""page_index"":0,""viewing_time"":23944},{""page_index"":1,""viewing_time"":24167},{""page_index"":2,""viewing_time"":37871},{""page_index"":3,""viewing_time"":11344}]",141
,,,,,,,,,78407,,,78409,,,instructions,"[{""page_index"":0,""viewing_time"":24348},{""page_index"":1,""viewing_time"":30070},{""page_index"":2,""viewing_time"":10890},{""page_index"":3,""viewing_time"":13098}]",142
,,,,,,,,,161426,,,161427,,,instructions,"[{""page_index"":0,""viewing_time"":48518},{""page_index"":1,""viewing_time"":63652},{""page_index"":2,""viewing_time"":26056},{""page_index"":3,""viewing_time"":23199}]",143
,,,,,,,,,32749,,,252430,,,instructions,"[{""page_index"":0,""viewing_time"":17294},{""page_index"":1,""viewing_time"":6224},{""page_index"":2,""viewing_time"":6959},{""page_index"":3,""viewing_time"":2272}]",143
,,,,,,,,,39499,,,311485,,,instructions,"[{""page_index"":0,""viewing_time"":5444},{""page_index"":1,""viewing_time"":14463},{""page_index"":2,""viewing_time"":14832},{""page_index"":3,""viewing_time"":4759}]",143
,,,,,,,,,80365,,,422041,,,instructions,"[{""page_index"":0,""viewing_time"":14191},{""page_index"":1,""viewing_time"":22639},{""page_index"":2,""viewing_time"":36991},{""page_index"":3,""viewing_time"":6543}]",143
,,,,,,,,,139303,,,139305,,,instructions,"[{""page_index"":0,""viewing_time"":52287},{""page_index"":1,""viewing_time"":31625},{""page_index"":2,""viewing_time"":8553},{""page_index"":3,""viewing_time"":46834}]",144
,,,,,,,,,230798,,,438810,,,instructions,"[{""page_index"":0,""viewing_time"":64550},{""page_index"":1,""viewing_time"":68002},{""page_index"":2,""viewing_time"":41187},{""page_index"":3,""viewing_time"":57056}]",144
,,,,,,,,,111421,,,111421,,,instructions,"[{""page_index"":0,""viewing_time"":16593},{""page_index"":1,""viewing_time"":28292},{""page_index"":2,""viewing_time"":46316},{""page_index"":3,""viewing_time"":20220}]",145
,,,,,,,,,106688,,,241786,,,instructions,"[{""page_index"":0,""viewing_time"":39692},{""page_index"":1,""viewing_time"":3480},{""page_index"":2,""viewing_time"":59600},{""page_index"":3,""viewing_time"":3906}]",145
,,,,,,,,,241170,,,241171,,,instructions,"[{""page_index"":0,""viewing_time"":99754},{""page_index"":1,""viewing_time"":55947},{""page_index"":2,""viewing_time"":55531},{""page_index"":3,""viewing_time"":29937}]",146
,,,,,,,,,25850,,,308176,,,instructions,"[{""page_index"":0,""viewing_time"":2595},{""page_index"":1,""viewing_time"":2297},{""page_index"":2,""viewing_time"":18921},{""page_index"":3,""viewing_time"":2037}]",146
,,,,,,,,,4152,,,335144,,,instructions,"[{""page_index"":0,""viewing_time"":1553},{""page_index"":1,""viewing_time"":730},{""page_index"":2,""viewing_time"":1047},{""page_index"":3,""viewing_time"":822}]",146
,,,,,,,,,3959,,,353751,,,instructions,"[{""page_index"":0,""viewing_time"":1393},{""page_index"":1,""viewing_time"":710},{""page_index"":2,""viewing_time"":1034},{""page_index"":3,""viewing_time"":822}]",146
,,,,,,,,,144936,,,144937,,,instructions,"[{""page_index"":0,""viewing_time"":46076},{""page_index"":1,""viewing_time"":50329},{""page_index"":2,""viewing_time"":25651},{""page_index"":3,""viewing_time"":22880}]",147
,,,,,,,,,9960,,,200486,,,instructions,"[{""page_index"":0,""viewing_time"":1911},{""page_index"":1,""viewing_time"":2678},{""page_index"":2,""viewing_time"":4438},{""page_index"":3,""viewing_time"":933}]",147
,,,,,,,,,215704,,,215704,,,instructions,"[{""page_index"":0,""viewing_time"":47405},{""page_index"":1,""viewing_time"":125186},{""page_index"":2,""viewing_time"":14847},{""page_index"":3,""viewing_time"":28265}]",148
,,,,,,,,,125512,,,125514,,,instructions,"[{""page_index"":0,""viewing_time"":39230},{""page_index"":1,""viewing_time"":38134},{""page_index"":2,""viewing_time"":28735},{""page_index"":3,""viewing_time"":19412}]",149
,,,,,,,,,24793,,,191333,,,instructions,"[{""page_index"":0,""viewing_time"":12534},{""page_index"":1,""viewing_time"":4342},{""page_index"":2,""viewing_time"":6119},{""page_index"":3,""viewing_time"":1797}]",149
,,,,,,,,,1385720,,,1385722,,,instructions,"[{""page_index"":0,""viewing_time"":1247300},{""page_index"":1,""viewing_time"":7109},{""page_index"":2,""viewing_time"":128022},{""page_index"":3,""viewing_time"":3286}]",150
,,,,,,,,,295250,,,295251,,,instructions,"[{""page_index"":0,""viewing_time"":35637},{""page_index"":1,""viewing_time"":39602},{""page_index"":2,""viewing_time"":14482},{""page_index"":3,""viewing_time"":205528}]",151
,,,,,,,,,59571,,,604226,,,instructions,"[{""page_index"":0,""viewing_time"":6854},{""page_index"":1,""viewing_time"":11564},{""page_index"":2,""viewing_time"":14826},{""page_index"":3,""viewing_time"":26326}]",151
,,,,,,,,,10126,,,685916,,,instructions,"[{""page_index"":0,""viewing_time"":2471},{""page_index"":1,""viewing_time"":1857},{""page_index"":2,""viewing_time"":2697},{""page_index"":3,""viewing_time"":3100}]",151
,,,,,,,,,189417,,,189418,,,instructions,"[{""page_index"":0,""viewing_time"":57753},{""page_index"":1,""viewing_time"":57517},{""page_index"":2,""viewing_time"":47560},{""page_index"":3,""viewing_time"":26587}]",152
,,,,,,,,,99749,,,99761,,,instructions,"[{""page_index"":0,""viewing_time"":27885},{""page_index"":1,""viewing_time"":17563},{""page_index"":2,""viewing_time"":38571},{""page_index"":3,""viewing_time"":15730}]",153
,,,,,,,,,19085,,,187185,,,instructions,"[{""page_index"":0,""viewing_time"":5894},{""page_index"":1,""viewing_time"":7620},{""page_index"":2,""viewing_time"":4218},{""page_index"":3,""viewing_time"":1351}]",153
,,,,,,,,,131247,,,131249,,,instructions,"[{""page_index"":0,""viewing_time"":33886},{""page_index"":1,""viewing_time"":47604},{""page_index"":2,""viewing_time"":22450},{""page_index"":3,""viewing_time"":27305}]",154
,,,,,,,,,24582,,,184852,,,instructions,"[{""page_index"":0,""viewing_time"":19364},{""page_index"":1,""viewing_time"":3824},{""page_index"":2,""viewing_time"":952},{""page_index"":3,""viewing_time"":440}]",154
,,,,,,,,,152487,,,152488,,,instructions,"[{""page_index"":0,""viewing_time"":50009},{""page_index"":1,""viewing_time"":58354},{""page_index"":2,""viewing_time"":19647},{""page_index"":3,""viewing_time"":24476}]",155
,,,,,,,,,52466,,,284196,,,instructions,"[{""page_index"":0,""viewing_time"":11730},{""page_index"":1,""viewing_time"":14423},{""page_index"":2,""viewing_time"":17803},{""page_index"":3,""viewing_time"":8510}]",155
,,,,,,,,,209060,,,209062,,,instructions,"[{""page_index"":0,""viewing_time"":91613},{""page_index"":1,""viewing_time"":48163},{""page_index"":2,""viewing_time"":39700},{""page_index"":3,""viewing_time"":29581}]",156
,,,,,,,,,71347,,,71349,,,instructions,"[{""page_index"":0,""viewing_time"":32906},{""page_index"":1,""viewing_time"":19989},{""page_index"":2,""viewing_time"":6737},{""page_index"":3,""viewing_time"":11712}]",157
,,,,,,,,,188417,,,188417,,,instructions,"[{""page_index"":0,""viewing_time"":59355},{""page_index"":1,""viewing_time"":44994},{""page_index"":2,""viewing_time"":44952},{""page_index"":3,""viewing_time"":39115}]",158
,,,,,,,,,217767,,,217769,,,instructions,"[{""page_index"":0,""viewing_time"":55298},{""page_index"":1,""viewing_time"":51630},{""page_index"":2,""viewing_time"":69086},{""page_index"":3,""viewing_time"":41753}]",159
,,,,,,,,,6588,,,6589,,,instructions,"[{""page_index"":0,""viewing_time"":2883},{""page_index"":1,""viewing_time"":1053},{""page_index"":2,""viewing_time"":1517},{""page_index"":3,""viewing_time"":1134}]",160
,,,,,,,,,15763,,,40724,,,instructions,"[{""page_index"":0,""viewing_time"":7759},{""page_index"":1,""viewing_time"":694},{""page_index"":2,""viewing_time"":5493},{""page_index"":3,""viewing_time"":1816}]",160
,,,,,,,,,27542,,,97602,,,instructions,"[{""page_index"":0,""viewing_time"":1646},{""page_index"":1,""viewing_time"":597},{""page_index"":2,""viewing_time"":18381},{""page_index"":3,""viewing_time"":6917}]",160
,,,,,,,,,10132,,,125942,,,instructions,"[{""page_index"":0,""viewing_time"":2315},{""page_index"":1,""viewing_time"":5540},{""page_index"":2,""viewing_time"":1689},{""page_index"":3,""viewing_time"":588}]",160
,,,,,,,,,122275,,,122285,,,instructions,"[{""page_index"":0,""viewing_time"":29883},{""page_index"":1,""viewing_time"":42467},{""page_index"":2,""viewing_time"":40030},{""page_index"":3,""viewing_time"":9895}]",161
,,,,,,,,,89581,,,89582,,,instructions,"[{""page_index"":0,""viewing_time"":24901},{""page_index"":1,""viewing_time"":30845},{""page_index"":2,""viewing_time"":19038},{""page_index"":3,""viewing_time"":14797}]",162
,,,,,,,,,152873,,,152874,,,instructions,"[{""page_index"":0,""viewing_time"":5456},{""page_index"":1,""viewing_time"":1399},{""page_index"":0,""viewing_time"":44792},{""page_index"":1,""viewing_time"":41436},{""page_index"":2,""viewing_time"":34230},{""page_index"":3,""viewing_time"":25559}]",163
,,,,,,,,,420275,,,420276,,,instructions,"[{""page_index"":0,""viewing_time"":47205},{""page_index"":1,""viewing_time"":311819},{""page_index"":2,""viewing_time"":41150},{""page_index"":3,""viewing_time"":20101}]",164
,,,,,,,,,45955,,,503217,,,instructions,"[{""page_index"":0,""viewing_time"":12362},{""page_index"":1,""viewing_time"":16195},{""page_index"":2,""viewing_time"":8962},{""page_index"":3,""viewing_time"":8436}]",164
,,,,,,,,,55428,,,55429,,,instructions,"[{""page_index"":0,""viewing_time"":27618},{""page_index"":1,""viewing_time"":7792},{""page_index"":0,""viewing_time"":5216},{""page_index"":1,""viewing_time"":2965},{""page_index"":2,""viewing_time"":4617},{""page_index"":3,""viewing_time"":7220}]",165
,,,,,,,,,34931,,,123808,,,instructions,"[{""page_index"":0,""viewing_time"":8503},{""page_index"":1,""viewing_time"":7262},{""page_index"":2,""viewing_time"":10252},{""page_index"":3,""viewing_time"":8914}]",165
,,,,,,,,,62070,,,207646,,,instructions,"[{""page_index"":0,""viewing_time"":5617},{""page_index"":1,""viewing_time"":29174},{""page_index"":2,""viewing_time"":17908},{""page_index"":3,""viewing_time"":9370}]",165
,,,,,,,,,113871,,,113872,,,instructions,"[{""page_index"":0,""viewing_time"":47312},{""page_index"":1,""viewing_time"":29288},{""page_index"":2,""viewing_time"":19348},{""page_index"":3,""viewing_time"":17920}]",166
,,,,,,,,,59398,,,200659,,,instructions,"[{""page_index"":0,""viewing_time"":5800},{""page_index"":1,""viewing_time"":20694},{""page_index"":2,""viewing_time"":22896},{""page_index"":3,""viewing_time"":10007}]",166
,,,,,,,,,65510,,,311289,,,instructions,"[{""page_index"":0,""viewing_time"":13566},{""page_index"":1,""viewing_time"":27137},{""page_index"":2,""viewing_time"":21999},{""page_index"":3,""viewing_time"":2806}]",166
,,,,,,,,,48520,,,48522,,,instructions,"[{""page_index"":0,""viewing_time"":8022},{""page_index"":1,""viewing_time"":17700},{""page_index"":2,""viewing_time"":14723},{""page_index"":3,""viewing_time"":8074}]",167
,,,,,,,,,29540,,,113416,,,instructions,"[{""page_index"":0,""viewing_time"":6752},{""page_index"":1,""viewing_time"":10046},{""page_index"":2,""viewing_time"":9023},{""page_index"":3,""viewing_time"":3719}]",167
,,,,,,,,,4875,,,144129,,,instructions,"[{""page_index"":0,""viewing_time"":1642},{""page_index"":1,""viewing_time"":839},{""page_index"":2,""viewing_time"":1490},{""page_index"":3,""viewing_time"":904}]",167
,,,,,,,,,8183,,,175275,,,instructions,"[{""page_index"":0,""viewing_time"":2350},{""page_index"":1,""viewing_time"":762},{""page_index"":2,""viewing_time"":1722},{""page_index"":3,""viewing_time"":3348}]",167
,,,,,,,,,10160,,,10162,,,instructions,"[{""page_index"":0,""viewing_time"":5478},{""page_index"":1,""viewing_time"":1319},{""page_index"":2,""viewing_time"":2231},{""page_index"":3,""viewing_time"":1129}]",168
,,,,,,,,,9082,,,40351,,,instructions,"[{""page_index"":0,""viewing_time"":2321},{""page_index"":1,""viewing_time"":1103},{""page_index"":2,""viewing_time"":1904},{""page_index"":3,""viewing_time"":3753}]",168
,,,,,,,,,6050,,,67376,,,instructions,"[{""page_index"":0,""viewing_time"":2047},{""page_index"":1,""viewing_time"":1146},{""page_index"":2,""viewing_time"":1815},{""page_index"":3,""viewing_time"":1040}]",168
,,,,,,,,,7086,,,87608,,,instructions,"[{""page_index"":0,""viewing_time"":2661},{""page_index"":1,""viewing_time"":1016},{""page_index"":2,""viewing_time"":2040},{""page_index"":3,""viewing_time"":1367}]",168
,,,,,,,,,8128,,,126706,,,instructions,"[{""page_index"":0,""viewing_time"":2726},{""page_index"":1,""viewing_time"":3072},{""page_index"":2,""viewing_time"":1671},{""page_index"":3,""viewing_time"":658}]",168
,,,,,,,,,19168,,,162124,,,instructions,"[{""page_index"":0,""viewing_time"":2156},{""page_index"":1,""viewing_time"":2216},{""page_index"":2,""viewing_time"":6457},{""page_index"":3,""viewing_time"":8337}]",168
,,,,,,,,,6478,,,186708,,,instructions,"[{""page_index"":0,""viewing_time"":2612},{""page_index"":1,""viewing_time"":952},{""page_index"":2,""viewing_time"":2176},{""page_index"":3,""viewing_time"":737}]",168
,,,,,,,,,39609,,,243958,,,instructions,"[{""page_index"":0,""viewing_time"":5870},{""page_index"":1,""viewing_time"":10881},{""page_index"":2,""viewing_time"":15256},{""page_index"":3,""viewing_time"":7601}]",168
,,,,,,,,,183174,,,183176,,,instructions,"[{""page_index"":0,""viewing_time"":65637},{""page_index"":1,""viewing_time"":38540},{""page_index"":2,""viewing_time"":50936},{""page_index"":3,""viewing_time"":28061}]",169
,,,,,,,,,248170,,,248171,,,instructions,"[{""page_index"":0,""viewing_time"":96190},{""page_index"":1,""viewing_time"":64008},{""page_index"":2,""viewing_time"":47849},{""page_index"":3,""viewing_time"":40122}]",170
,,,,,,,,,119460,,,119460,,,instructions,"[{""page_index"":0,""viewing_time"":69468},{""page_index"":1,""viewing_time"":31361},{""page_index"":2,""viewing_time"":4976},{""page_index"":3,""viewing_time"":13654}]",171
,,,,,,,,,77550,,,245288,,,instructions,"[{""page_index"":0,""viewing_time"":26576},{""page_index"":1,""viewing_time"":4198},{""page_index"":2,""viewing_time"":36306},{""page_index"":3,""viewing_time"":10470}]",171
,,,,,,,,,38813,,,315960,,,instructions,"[{""page_index"":0,""viewing_time"":9464},{""page_index"":1,""viewing_time"":3624},{""page_index"":2,""viewing_time"":15270},{""page_index"":3,""viewing_time"":10454}]",171
,,,,,,,,,23694,,,369585,,,instructions,"[{""page_index"":0,""viewing_time"":3392},{""page_index"":1,""viewing_time"":1913},{""page_index"":2,""viewing_time"":14691},{""page_index"":3,""viewing_time"":3698}]",171
,,,,,,,,,132281,,,132282,,,instructions,"[{""page_index"":0,""viewing_time"":47529},{""page_index"":1,""viewing_time"":36953},{""page_index"":2,""viewing_time"":22031},{""page_index"":3,""viewing_time"":25768}]",172
,,,,,,,,,68623,,,68625,,,instructions,"[{""page_index"":0,""viewing_time"":13135},{""page_index"":1,""viewing_time"":1085},{""page_index"":0,""viewing_time"":5145},{""page_index"":1,""viewing_time"":25061},{""page_index"":2,""viewing_time"":8864},{""page_index"":3,""viewing_time"":15331}]",173
,,,,,,,,,64227,,,245194,,,instructions,"[{""page_index"":0,""viewing_time"":27149},{""page_index"":1,""viewing_time"":12524},{""page_index"":2,""viewing_time"":15454},{""page_index"":3,""viewing_time"":9099}]",173
,,,,,,,,,132886,,,132896,,,instructions,"[{""page_index"":0,""viewing_time"":30550},{""page_index"":1,""viewing_time"":45269},{""page_index"":2,""viewing_time"":29781},{""page_index"":3,""viewing_time"":27286}]",174
,,,,,,,,,51927,,,51928,,,instructions,"[{""page_index"":0,""viewing_time"":21518},{""page_index"":1,""viewing_time"":11012},{""page_index"":2,""viewing_time"":10249},{""page_index"":3,""viewing_time"":9147}]",175
,,,,,,,,,21800,,,102935,,,instructions,"[{""page_index"":0,""viewing_time"":3922},{""page_index"":1,""viewing_time"":2689},{""page_index"":2,""viewing_time"":4106},{""page_index"":3,""viewing_time"":11082}]",175
,,,,,,,,,35286,,,155202,,,instructions,"[{""page_index"":0,""viewing_time"":9636},{""page_index"":1,""viewing_time"":7886},{""page_index"":2,""viewing_time"":8763},{""page_index"":3,""viewing_time"":9000}]",175
,,,,,,,,,152944,,,152946,,,instructions,"[{""page_index"":0,""viewing_time"":41373},{""page_index"":1,""viewing_time"":3779},{""page_index"":0,""viewing_time"":1024},{""page_index"":1,""viewing_time"":3809},{""page_index"":0,""viewing_time"":898},{""page_index"":1,""viewing_time"":47300},{""page_index"":2,""viewing_time"":29641},{""page_index"":3,""viewing_time"":25118}]",176
,,,,,,,,,211116,,,211116,,,instructions,"[{""page_index"":0,""viewing_time"":58196},{""page_index"":1,""viewing_time"":85891},{""page_index"":2,""viewing_time"":39044},{""page_index"":3,""viewing_time"":27984}]",177
,,,,,,,,,53089,,,307102,,,instructions,"[{""page_index"":0,""viewing_time"":20253},{""page_index"":1,""viewing_time"":8600},{""page_index"":2,""viewing_time"":12456},{""page_index"":3,""viewing_time"":11780}]",177
,,,,,,,,,6647,,,362218,,,instructions,"[{""page_index"":0,""viewing_time"":2186},{""page_index"":1,""viewing_time"":952},{""page_index"":2,""viewing_time"":416},{""page_index"":3,""viewing_time"":3092}]",177
,,,,,,,,,127921,,,127923,,,instructions,"[{""page_index"":0,""viewing_time"":36503},{""page_index"":1,""viewing_time"":28850},{""page_index"":2,""viewing_time"":41257},{""page_index"":3,""viewing_time"":21310}]",178
,,,,,,,,,8165,,,168424,,,instructions,"[{""page_index"":0,""viewing_time"":2732},{""page_index"":1,""viewing_time"":1649},{""page_index"":2,""viewing_time"":2312},{""page_index"":3,""viewing_time"":1471}]",178
,,,,,,,,,38503,,,38504,,,instructions,"[{""page_index"":0,""viewing_time"":15290},{""page_index"":1,""viewing_time"":17083},{""page_index"":2,""viewing_time"":3096},{""page_index"":3,""viewing_time"":3033}]",179
,,,,,,,,,35167,,,93413,,,instructions,"[{""page_index"":0,""viewing_time"":5612},{""page_index"":1,""viewing_time"":4479},{""page_index"":2,""viewing_time"":21163},{""page_index"":3,""viewing_time"":3912}]",179
,,,,,,,,,141937,,,141937,,,instructions,"[{""page_index"":0,""viewing_time"":51026},{""page_index"":1,""viewing_time"":33896},{""page_index"":2,""viewing_time"":10477},{""page_index"":1,""viewing_time"":2415},{""page_index"":0,""viewing_time"":8480},{""page_index"":1,""viewing_time"":14104},{""page_index"":2,""viewing_time"":5109},{""page_index"":3,""viewing_time"":16429}]",180
,,,,,,,,,40154,,,210309,,,instructions,"[{""page_index"":0,""viewing_time"":12641},{""page_index"":1,""viewing_time"":10828},{""page_index"":2,""viewing_time"":12668},{""page_index"":3,""viewing_time"":4017}]",180
,,,,,,,,,128892,,,128892,,,instructions,"[{""page_index"":0,""viewing_time"":40188},{""page_index"":1,""viewing_time"":25504},{""page_index"":2,""viewing_time"":38376},{""page_index"":3,""viewing_time"":24823}]",181
,,,,,,,,,56201,,,221435,,,instructions,"[{""page_index"":0,""viewing_time"":5992},{""page_index"":1,""viewing_time"":16200},{""page_index"":2,""viewing_time"":26935},{""page_index"":3,""viewing_time"":7073}]",181
,,,,,,,,,117085,,,117088,,,instructions,"[{""page_index"":0,""viewing_time"":48196},{""page_index"":1,""viewing_time"":25365},{""page_index"":2,""viewing_time"":20712},{""page_index"":3,""viewing_time"":22809}]",182
,,,,,,,,,112170,,,112171,,,instructions,"[{""page_index"":0,""viewing_time"":33811},{""page_index"":1,""viewing_time"":25077},{""page_index"":2,""viewing_time"":36617},{""page_index"":3,""viewing_time"":16664}]",183
,,,,,,,,,107759,,,107760,,,instructions,"[{""page_index"":0,""viewing_time"":26467},{""page_index"":1,""viewing_time"":30609},{""page_index"":2,""viewing_time"":20589},{""page_index"":3,""viewing_time"":30093}]",184
,,,,,,,,,76617,,,76618,,,instructions,"[{""page_index"":0,""viewing_time"":32227},{""page_index"":1,""viewing_time"":12581},{""page_index"":2,""viewing_time"":18534},{""page_index"":3,""viewing_time"":13274}]",185
,,,,,,,,,70087,,,180549,,,instructions,"[{""page_index"":0,""viewing_time"":12222},{""page_index"":1,""viewing_time"":19672},{""page_index"":2,""viewing_time"":21409},{""page_index"":3,""viewing_time"":16783}]",185
,,,,,,,,,5923,,,220311,,,instructions,"[{""page_index"":0,""viewing_time"":2123},{""page_index"":1,""viewing_time"":852},{""page_index"":2,""viewing_time"":674},{""page_index"":3,""viewing_time"":2273}]",185
,,,,,,,,,180049,,,180050,,,instructions,"[{""page_index"":0,""viewing_time"":27245},{""page_index"":1,""viewing_time"":55401},{""page_index"":2,""viewing_time"":24339},{""page_index"":1,""viewing_time"":1118},{""page_index"":0,""viewing_time"":6677},{""page_index"":1,""viewing_time"":2708},{""page_index"":2,""viewing_time"":27612},{""page_index"":3,""viewing_time"":34948}]",186
,,,,,,,,,46950,,,261636,,,instructions,"[{""page_index"":0,""viewing_time"":10533},{""page_index"":1,""viewing_time"":9642},{""page_index"":2,""viewing_time"":13000},{""page_index"":3,""viewing_time"":13775}]",186
,,,,,,,,,178906,,,178908,,,instructions,"[{""page_index"":0,""viewing_time"":58274},{""page_index"":1,""viewing_time"":61533},{""page_index"":2,""viewing_time"":35050},{""page_index"":3,""viewing_time"":24046}]",187
,,,,,,,,,165253,,,165255,,,instructions,"[{""page_index"":0,""viewing_time"":68867},{""page_index"":1,""viewing_time"":42862},{""page_index"":2,""viewing_time"":22861},{""page_index"":3,""viewing_time"":30661}]",188
,,,,,,,,,127047,,,127049,,,instructions,"[{""page_index"":0,""viewing_time"":74623},{""page_index"":1,""viewing_time"":23775},{""page_index"":2,""viewing_time"":18121},{""page_index"":3,""viewing_time"":10523}]",189
,,,,,,,,,55921,,,220500,,,instructions,"[{""page_index"":0,""viewing_time"":10315},{""page_index"":1,""viewing_time"":7305},{""page_index"":2,""viewing_time"":27096},{""page_index"":3,""viewing_time"":11203}]",189
,,,,,,,,,201012,,,201013,,,instructions,"[{""page_index"":0,""viewing_time"":45254},{""page_index"":1,""viewing_time"":66136},{""page_index"":2,""viewing_time"":42944},{""page_index"":3,""viewing_time"":46678}]",190
,,,,,,,,,102982,,,102983,,,instructions,"[{""page_index"":0,""viewing_time"":31263},{""page_index"":1,""viewing_time"":28870},{""page_index"":2,""viewing_time"":31072},{""page_index"":3,""viewing_time"":11775}]",191
,,,,,,,,,122594,,,122596,,,instructions,"[{""page_index"":0,""viewing_time"":33346},{""page_index"":1,""viewing_time"":27920},{""page_index"":2,""viewing_time"":43300},{""page_index"":3,""viewing_time"":18026}]",192
,,,,,,,,,264550,,,264554,,,instructions,"[{""page_index"":0,""viewing_time"":97582},{""page_index"":1,""viewing_time"":92094},{""page_index"":2,""viewing_time"":37737},{""page_index"":3,""viewing_time"":37133}]",193
,,,,,,,,,104880,,,104882,,,instructions,"[{""page_index"":0,""viewing_time"":88655},{""page_index"":1,""viewing_time"":3375},{""page_index"":2,""viewing_time"":6510},{""page_index"":3,""viewing_time"":6340}]",194
,,,,,,,,,97134,,,234205,,,instructions,"[{""page_index"":0,""viewing_time"":37833},{""page_index"":1,""viewing_time"":15738},{""page_index"":2,""viewing_time"":27245},{""page_index"":3,""viewing_time"":16318}]",194
,,,,,,,,,5747,,,285405,,,instructions,"[{""page_index"":0,""viewing_time"":1227},{""page_index"":1,""viewing_time"":369},{""page_index"":2,""viewing_time"":3283},{""page_index"":3,""viewing_time"":867}]",194
,,,,,,,,,827,,,311881,,,instructions,"[{""page_index"":0,""viewing_time"":323},{""page_index"":1,""viewing_time"":187},{""page_index"":2,""viewing_time"":137},{""page_index"":3,""viewing_time"":180}]",194
,,,,,,,,,26544,,,355186,,,instructions,"[{""page_index"":0,""viewing_time"":9004},{""page_index"":1,""viewing_time"":2375},{""page_index"":2,""viewing_time"":14800},{""page_index"":3,""viewing_time"":365}]",194
,,,,,,,,,220468,,,220469,,,instructions,"[{""page_index"":0,""viewing_time"":92453},{""page_index"":1,""viewing_time"":58138},{""page_index"":2,""viewing_time"":36027},{""page_index"":3,""viewing_time"":33849}]",195
,,,,,,,,,104090,,,375469,,,instructions,"[{""page_index"":0,""viewing_time"":29198},{""page_index"":1,""viewing_time"":25119},{""page_index"":2,""viewing_time"":30677},{""page_index"":3,""viewing_time"":19094}]",195
,,,,,,,,,284517,,,284518,,,instructions,"[{""page_index"":0,""viewing_time"":225040},{""page_index"":1,""viewing_time"":24130},{""page_index"":2,""viewing_time"":19344},{""page_index"":3,""viewing_time"":16002}]",196
,,,,,,,,,40637,,,350697,,,instructions,"[{""page_index"":0,""viewing_time"":3474},{""page_index"":1,""viewing_time"":6239},{""page_index"":2,""viewing_time"":5021},{""page_index"":3,""viewing_time"":4624},{""page_index"":2,""viewing_time"":5254},{""page_index"":1,""viewing_time"":8231},{""page_index"":2,""viewing_time"":5205},{""page_index"":3,""viewing_time"":2588}]",196
,,,,,,,,,153907,,,153909,,,instructions,"[{""page_index"":0,""viewing_time"":56921},{""page_index"":1,""viewing_time"":43138},{""page_index"":2,""viewing_time"":32838},{""page_index"":3,""viewing_time"":21009}]",197
,,,,,,,,,111495,,,111496,,,instructions,"[{""page_index"":0,""viewing_time"":37582},{""page_index"":1,""viewing_time"":28955},{""page_index"":2,""viewing_time"":27288},{""page_index"":3,""viewing_time"":17668}]",198
,,,,,,,,,46488,,,180566,,,instructions,"[{""page_index"":0,""viewing_time"":20560},{""page_index"":1,""viewing_time"":12178},{""page_index"":2,""viewing_time"":8459},{""page_index"":3,""viewing_time"":5291}]",198
,,,,,,,,,144149,,,144150,,,instructions,"[{""page_index"":0,""viewing_time"":35576},{""page_index"":1,""viewing_time"":30448},{""page_index"":2,""viewing_time"":40915},{""page_index"":3,""viewing_time"":37210}]",199
,,,,,,,,,120128,,,120128,,,instructions,"[{""page_index"":0,""viewing_time"":38190},{""page_index"":1,""viewing_time"":37123},{""page_index"":2,""viewing_time"":28470},{""page_index"":3,""viewing_time"":16344}]",200
,,,,,,,,,128394,,,128396,,,instructions,"[{""page_index"":0,""viewing_time"":36737},{""page_index"":1,""viewing_time"":33876},{""page_index"":2,""viewing_time"":29459},{""page_index"":3,""viewing_time"":28321}]",201
,,,,,,,,,99969,,,99971,,,instructions,"[{""page_index"":0,""viewing_time"":32114},{""page_index"":1,""viewing_time"":16249},{""page_index"":2,""viewing_time"":31762},{""page_index"":3,""viewing_time"":19836}]",202
,,,,,,,,,56692,,,214011,,,instructions,"[{""page_index"":0,""viewing_time"":16421},{""page_index"":1,""viewing_time"":1704},{""page_index"":0,""viewing_time"":3917},{""page_index"":1,""viewing_time"":12016},{""page_index"":2,""viewing_time"":16168},{""page_index"":3,""viewing_time"":6464}]",202
,,,,,,,,,57926,,,311810,,,instructions,"[{""page_index"":0,""viewing_time"":6809},{""page_index"":1,""viewing_time"":11922},{""page_index"":2,""viewing_time"":12164},{""page_index"":3,""viewing_time"":15194},{""page_index"":2,""viewing_time"":9521},{""page_index"":3,""viewing_time"":2315}]",202
,,,,,,,,,97330,,,97332,,,instructions,"[{""page_index"":0,""viewing_time"":23105},{""page_index"":1,""viewing_time"":25703},{""page_index"":2,""viewing_time"":26920},{""page_index"":3,""viewing_time"":21599}]",203
