action_times,actions,button_pressed,correct,delays,path,queries,questions,responses,rt,score,stimulus,time_elapsed,trial_index,trial_i,trial_type,view_history,pid
"[15097, 51901, 54027]","[u'right', u'right', u'up']",,,"[8, 0, 0]","[u'1', 2, 6, 10]","{u'mouseover': {u'state': {u'target': [], u'time': []}, u'edge': {u'target': [], u'time': []}}, u'click': {u'state': {u'target': [u'2', u'6', u'11', u'10', u'9', u'17', u'16', u'5', u'4', u'3', u'8', u'15', u'14', u'12', u'7', u'13'], u'time': [3102, 7056, 7903, 8836, 29902, 31481, 32094, 32569, 33424, 34322, 35588, 35983, 36573, 37004, 37440, 37780]}, u'edge': {u'target': [], u'time': []}}, u'mouseout': {u'state': {u'target': [], u'time': []}, u'edge': {u'target': [], u'time': []}}}",,,"[15097, 25870, 2]",27.84,,234084,1.0,8.0,mouselab-mdp,,0
"[19380, 23839, 24816]","[u'left', u'left', u'up']",,,"[0, 0, 0]","[u'1', 4, 8, 14]","{u'mouseover': {u'state': {u'target': [], u'time': []}, u'edge': {u'target': [], u'time': []}}, u'click': {u'state': {u'target': [u'3', u'4', u'5', u'2', u'7', u'12', u'13', u'10', u'6', u'11', u'17', u'9', u'16', u'15', u'8', u'14'], u'time': [2296, 3705, 4534, 5189, 5782, 6208, 6669, 7086, 7442, 7893, 8324, 8857, 9308, 9804, 10182, 10760]}, u'edge': {u'target': [], u'time': []}}, u'mouseout': {u'state': {u'target': [], u'time': []}, u'edge': {u'target': [], u'time': []}}}",,,"[19380, 1, 434]",33.84,,295369,2.0,5.0,mouselab-mdp,,0
"[18812, 23295, 24169]","[u'down', u'down', u'left']",,,"[0, 0, 0]","[u'1', 5, 9, 16]","{u'mouseover': {u'state': {u'target': [], u'time': []}, u'edge': {u'target': [], u'time': []}}, u'click': {u'state': {u'target': [u'3', u'2', u'5', u'4', u'6', u'10', u'11', u'17', u'9', u'16', u'15', u'8', u'14', u'12', u'7', u'13'], u'time': [2575, 3116, 3660, 4210, 4815, 5340, 5853, 6483, 6938, 7408, 8094, 8515, 8919, 9458, 10469, 10838]}, u'edge': {u'target': [], u'time': []}}, u'mouseout': {u'state': {u'target': [], u'time': []}, u'edge': {u'target': [], u'time': []}}}",,,"[18812, 2, 337]",33.84,,346297,3.0,7.0,mouselab-mdp,,0
"[12369, 18033, 19987]","[u'left', u'left', u'down']",,,"[0, 0, 0]","[u'1', 4, 8, 15]","{u'mouseover': {u'state': {u'target': [], u'time': []}, u'edge': {u'target': [], u'time': []}}, u'click': {u'state': {u'target': [u'3', u'2', u'5', u'4', u'12', u'7', u'13', u'10', u'6', u'11', u'17', u'9', u'16', u'15', u'8', u'14'], u'time': [1149, 1922, 2506, 3038, 3625, 4111, 4696, 5194, 5563, 5937, 6473, 6872, 7392, 7783, 8273, 8617]}, u'edge': {u'target': [], u'time': []}}, u'mouseout': {u'state': {u'target': [], u'time': []}, u'edge': {u'target': [], u'time': []}}}",,,"[12369, 1024, 1438]",39.84,,397744,4.0,0.0,mouselab-mdp,,0
"[18496, 23227, 26626]","[u'down', u'down', u'left']",,,"[0, 0, 0]","[u'1', 5, 9, 16]","{u'mouseover': {u'state': {u'target': [], u'time': []}, u'edge': {u'target': [], u'time': []}}, u'click': {u'state': {u'target': [u'2', u'6', u'10', u'11', u'5', u'9', u'17', u'16', u'4', u'8', u'14', u'15', u'3', u'7', u'12', u'13'], u'time': [2705, 3145, 3667, 4233, 5199, 5693, 6138, 6712, 8487, 9020, 9585, 10210, 10918, 11521, 12036, 12594]}, u'edge': {u'target': [], u'time': []}}, u'mouseout': {u'state': {u'target': [], u'time': []}, u'edge': {u'target': [], u'time': []}}}",,,"[18496, 503, 2875]",45.84,,446742,5.0,1.0,mouselab-mdp,,0
"[13608, 18339, 19029]","[u'right', u'right', u'up']",,,"[0, 0, 0]","[u'1', 2, 6, 10]","{u'mouseover': {u'state': {u'target': [], u'time': []}, u'edge': {u'target': [], u'time': []}}, u'click': {u'state': {u'target': [u'2', u'3', u'4', u'5', u'10', u'6', u'11', u'17', u'9', u'16', u'15', u'8', u'14', u'12', u'7', u'13'], u'time': [3176, 3860, 4590, 5129, 5959, 6431, 6880, 7456, 7881, 8359, 9002, 9311, 9665, 10187, 10531, 10894]}, u'edge': {u'target': [], u'time': []}}, u'mouseout': {u'state': {u'target': [], u'time': []}, u'edge': {u'target': [], u'time': []}}}",,,"[13608, 2, 157]",33.84,,498554,6.0,3.0,mouselab-mdp,,0
"[16967, 21817, 22998]","[u'down', u'down', u'right']",,,"[0, 0, 0]","[u'1', 5, 9, 17]","{u'mouseover': {u'state': {u'target': [], u'time': []}, u'edge': {u'target': [], u'time': []}}, u'click': {u'state': {u'target': [u'2', u'6', u'10', u'11', u'5', u'9', u'17', u'16', u'15', u'8', u'14', u'4', u'12', u'7', u'13', u'3'], u'time': [5633, 6113, 6814, 7461, 7956, 8414, 8834, 9385, 9965, 10245, 11243, 11792, 12281, 12628, 12917, 13353]}, u'edge': {u'target': [], u'time': []}}, u'mouseout': {u'state': {u'target': [], u'time': []}, u'edge': {u'target': [], u'time': []}}}",,,"[16967, 651, 655]",41.84,,548496,7.0,4.0,mouselab-mdp,,0
"[11056, 16005, 20791]","[u'right', u'right', u'down']",,,"[0, 0, 0]","[u'1', 2, 6, 11]","{u'mouseover': {u'state': {u'target': [], u'time': []}, u'edge': {u'target': [], u'time': []}}, u'click': {u'state': {u'target': [u'3', u'7', u'12', u'13', u'2', u'6', u'10', u'11', u'5', u'9', u'17', u'16', u'4', u'8', u'15', u'14'], u'time': [1411, 1778, 2213, 2602, 3123, 3647, 4010, 4648, 5166, 5536, 5874, 6366, 6920, 7308, 7690, 8115]}, u'edge': {u'target': [], u'time': []}}, u'mouseout': {u'state': {u'target': [], u'time': []}, u'edge': {u'target': [], u'time': []}}}",,,"[11056, 703, 4266]",37.84,,600359,8.0,6.0,mouselab-mdp,,0
"[10468, 20593, 22423]","[u'right', u'right', u'up']",,,"[0, 0, 0]","[u'1', 2, 6, 10]","{u'mouseover': {u'state': {u'target': [], u'time': []}, u'edge': {u'target': [], u'time': []}}, u'click': {u'state': {u'target': [u'2', u'6', u'10', u'11', u'5', u'9', u'17', u'16', u'4', u'8', u'15', u'14', u'3', u'7', u'12', u'13'], u'time': [953, 1349, 1757, 2359, 2997, 3348, 3731, 4319, 4933, 5373, 5746, 6240, 6790, 7115, 7529, 8194]}, u'edge': {u'target': [], u'time': []}}, u'mouseout': {u'state': {u'target': [], u'time': []}, u'edge': {u'target': [], u'time': []}}}",,,"[10468, 5851, 1304]",33.84,,650992,9.0,2.0,mouselab-mdp,,0
"[13275, 17902, 19544]","[u'up', u'up', u'left']",,,"[0, 0, 0]","[u'1', 3, 7, 12]","{u'mouseover': {u'state': {u'target': [], u'time': []}, u'edge': {u'target': [], u'time': []}}, u'click': {u'state': {u'target': [u'2', u'6', u'10', u'11', u'5', u'9', u'17', u'16', u'4', u'8', u'15', u'14', u'12', u'7', u'13', u'3'], u'time': [1461, 1917, 2282, 2764, 3264, 3614, 4019, 4607, 5351, 5847, 6218, 6970, 7393, 7795, 8603, 9182]}, u'edge': {u'target': [], u'time': []}}, u'mouseout': {u'state': {u'target': [], u'time': []}, u'edge': {u'target': [], u'time': []}}}",,,"[13275, 534, 1120]",36.84,,700919,10.0,9.0,mouselab-mdp,,0
"[12931, 17185, 18536]","[u'right', u'right', u'down']",,,"[0, 0, 0]","[u'1', 2, 6, 11]","{u'mouseover': {u'state': {u'target': [], u'time': []}, u'edge': {u'target': [], u'time': []}}, u'click': {u'state': {u'target': [u'2', u'6', u'10', u'11', u'5', u'9', u'17', u'16', u'4', u'8', u'15', u'14', u'12', u'7', u'13', u'3'], u'time': [1524, 1904, 2381, 3533, 4624, 5163, 5678, 6327, 6844, 7304, 7670, 8112, 8962, 9548, 9902, 10363]}, u'edge': {u'target': [], u'time': []}}, u'mouseout': {u'state': {u'target': [], u'time': []}, u'edge': {u'target': [], u'time': []}}}",,,"[12931, 2, 819]",37.84,,751420,11.0,11.0,mouselab-mdp,,0
"[16719, 25940, 27794]","[u'right', u'right', u'up']",,,"[0, 0, 0]","[u'1', 2, 6, 10]","{u'mouseover': {u'state': {u'target': [], u'time': []}, u'edge': {u'target': [], u'time': []}}, u'click': {u'state': {u'target': [u'2', u'6', u'10', u'11', u'5', u'9', u'17', u'16', u'4', u'8', u'15', u'14', u'3', u'7', u'12', u'13'], u'time': [1280, 1799, 2366, 2899, 3641, 4125, 4568, 5106, 5777, 6308, 6766, 7442, 8610, 8991, 9413, 9828]}, u'edge': {u'target': [], u'time': []}}, u'mouseout': {u'state': {u'target': [], u'time': []}, u'edge': {u'target': [], u'time': []}}}",,,"[16719, 5016, 1338]",21.84,,800994,12.0,10.0,mouselab-mdp,,0
"[23271, 31579, 33820]","[u'up', u'up', u'left']",,,"[-1, -1, -1]","[u'1', 3, 7, 12]","{u'mouseover': {u'state': {u'target': [], u'time': []}, u'edge': {u'target': [], u'time': []}}, u'click': {u'state': {u'target': [u'2', u'4', u'3', u'5', u'16', u'9', u'17', u'11', u'6', u'10', u'13', u'7', u'12', u'14', u'8', u'15'], u'time': [3645, 5395, 6534, 7296, 8823, 9200, 9650, 10570, 12283, 12844, 13446, 13902, 14366, 14978, 15372, 16197]}, u'edge': {u'target': [], u'time': []}}, u'mouseout': {u'state': {u'target': [], u'time': []}, u'edge': {u'target': [], u'time': []}}}",,,"[23271, 6144, 1708]",36.84,,199587,1.0,9.0,mouselab-mdp,,1
"[18574, 21343, 24338]","[u'right', u'right', u'up']",,,"[-1, -1, -1]","[u'1', 2, 6, 10]","{u'mouseover': {u'state': {u'target': [], u'time': []}, u'edge': {u'target': [], u'time': []}}, u'click': {u'state': {u'target': [u'4', u'3', u'2', u'5', u'9', u'17', u'16', u'15', u'8', u'14', u'12', u'7', u'13', u'10', u'6', u'11'], u'time': [2357, 2913, 3548, 4157, 5511, 5908, 6353, 7065, 7429, 7920, 8391, 8724, 9155, 9641, 10113, 10534]}, u'edge': {u'target': [], u'time': []}}, u'mouseout': {u'state': {u'target': [], u'time': []}, u'edge': {u'target': [], u'time': []}}}",,,"[18574, 663, 2474]",33.84,,251275,2.0,2.0,mouselab-mdp,,1
"[19655, 21710, 23215]","[u'left', u'left', u'up']",,,"[-1, -1, -1]","[u'1', 4, 8, 14]","{u'mouseover': {u'state': {u'target': [], u'time': []}, u'edge': {u'target': [], u'time': []}}, u'click': {u'state': {u'target': [u'4', u'5', u'3', u'2', u'10', u'6', u'11', u'17', u'9', u'16', u'15', u'8', u'14', u'12', u'7', u'13'], u'time': [4699, 5329, 6956, 7404, 8191, 8532, 8895, 9351, 9869, 10205, 10629, 11043, 12151, 12696, 13106, 13700]}, u'edge': {u'target': [], u'time': []}}, u'mouseout': {u'state': {u'target': [], u'time': []}, u'edge': {u'target': [], u'time': []}}}",,,"[19655, 5, 989]",39.84,,304929,3.0,0.0,mouselab-mdp,,1
"[16102, 18094, 18984]","[u'right', u'right', u'down']",,,"[-1, -1, -1]","[u'1', 2, 6, 11]","{u'mouseover': {u'state': {u'target': [], u'time': []}, u'edge': {u'target': [], u'time': []}}, u'click': {u'state': {u'target': [u'2', u'5', u'4', u'3', u'12', u'7', u'13', u'10', u'6', u'11', u'17', u'9', u'16', u'15', u'8', u'14'], u'time': [1743, 2426, 2974, 3465, 3990, 4586, 4933, 5428, 5700, 6056, 6620, 6890, 7175, 7699, 8403, 8739]}, u'edge': {u'target': [], u'time': []}}, u'mouseout': {u'state': {u'target': [], u'time': []}, u'edge': {u'target': [], u'time': []}}}",,,"[16102, 4, 379]",37.84,,355909,4.0,6.0,mouselab-mdp,,1
"[19422, 21731, 22982]","[u'right', u'right', u'up']",,,"[-1, -1, -1]","[u'1', 2, 6, 10]","{u'mouseover': {u'state': {u'target': [], u'time': []}, u'edge': {u'target': [], u'time': []}}, u'click': {u'state': {u'target': [u'4', u'5', u'2', u'3', u'12', u'13', u'7', u'10', u'6', u'11', u'17', u'9', u'16', u'15', u'8', u'14'], u'time': [5277, 5789, 6228, 6737, 7228, 8170, 8579, 9176, 9625, 10018, 10599, 11001, 11518, 12114, 12634, 13180]}, u'edge': {u'target': [], u'time': []}}, u'mouseout': {u'state': {u'target': [], u'time': []}, u'edge': {u'target': [], u'time': []}}}",,,"[19422, 322, 726]",21.84,,407901,5.0,10.0,mouselab-mdp,,1
"[42863, 45329, 46274]","[u'down', u'down', u'right']",,,"[-1, -1, -1]","[u'1', 5, 9, 17]","{u'mouseover': {u'state': {u'target': [], u'time': []}, u'edge': {u'target': [], u'time': []}}, u'click': {u'state': {u'target': [u'3', u'2', u'5', u'4', u'8', u'14', u'15', u'12', u'7', u'13', u'10', u'6', u'11', u'17', u'9', u'16'], u'time': [15464, 16580, 17084, 17575, 18120, 18606, 19235, 19868, 20294, 20618, 21188, 21490, 21880, 23919, 24353, 25137]}, u'edge': {u'target': [], u'time': []}}, u'mouseout': {u'state': {u'target': [], u'time': []}, u'edge': {u'target': [], u'time': []}}}",,,"[42863, 315, 422]",41.84,,458137,6.0,4.0,mouselab-mdp,,1
"[13724, 15800, 18044]","[u'right', u'right', u'down']",,,"[-1, -1, -1]","[u'1', 2, 6, 11]","{u'mouseover': {u'state': {u'target': [], u'time': []}, u'edge': {u'target': [], u'time': []}}, u'click': {u'state': {u'target': [u'4', u'3', u'2', u'5', u'16', u'9', u'17', u'11', u'6', u'10', u'13', u'7', u'12', u'14', u'8', u'15'], u'time': [2635, 3107, 3531, 4086, 4553, 4882, 5278, 5842, 6344, 6700, 7197, 7568, 7876, 8288, 8657, 9054]}, u'edge': {u'target': [], u'time': []}}, u'mouseout': {u'state': {u'target': [], u'time': []}, u'edge': {u'target': [], u'time': []}}}",,,"[13724, 4, 1722]",37.84,,521578,7.0,11.0,mouselab-mdp,,1
"[19269, 21300, 22437]","[u'right', u'right', u'up']",,,"[-1, -1, -1]","[u'1', 2, 6, 10]","{u'mouseover': {u'state': {u'target': [], u'time': []}, u'edge': {u'target': [], u'time': []}}, u'click': {u'state': {u'target': [u'4', u'3', u'2', u'5', u'16', u'9', u'17', u'11', u'6', u'10', u'13', u'12', u'7', u'14', u'8', u'15'], u'time': [3067, 3531, 4041, 4534, 4985, 6091, 6384, 6981, 7453, 7901, 8364, 9257, 9781, 10363, 10819, 11529]}, u'edge': {u'target': [], u'time': []}}, u'mouseout': {u'state': {u'target': [], u'time': []}, u'edge': {u'target': [], u'time': []}}}",,,"[19269, 4, 626]",33.84,,582878,8.0,3.0,mouselab-mdp,,1
"[23529, 25568, 26664]","[u'up', u'up', u'left']",,,"[-1, -1, -1]","[u'1', 3, 7, 12]","{u'mouseover': {u'state': {u'target': [], u'time': []}, u'edge': {u'target': [], u'time': []}}, u'click': {u'state': {u'target': [u'4', u'5', u'2', u'3', u'12', u'7', u'13', u'10', u'6', u'11', u'17', u'9', u'16', u'15', u'8', u'14'], u'time': [1824, 2287, 2749, 3253, 3897, 4218, 4575, 5210, 5608, 5983, 6455, 6778, 7083, 7493, 7926, 8274]}, u'edge': {u'target': [], u'time': []}}, u'mouseout': {u'state': {u'target': [], u'time': []}, u'edge': {u'target': [], u'time': []}}}",,,"[23529, 5, 577]",40.84,,642334,9.0,8.0,mouselab-mdp,,1
"[24781, 26825, 27578]","[u'left', u'left', u'up']",,,"[-1, -1, -1]","[u'1', 4, 8, 14]","{u'mouseover': {u'state': {u'target': [], u'time': []}, u'edge': {u'target': [], u'time': []}}, u'click': {u'state': {u'target': [u'4', u'5', u'2', u'3', u'12', u'7', u'13', u'10', u'6', u'11', u'17', u'9', u'16', u'15', u'8', u'14'], u'time': [2708, 3469, 4111, 4750, 5269, 5787, 6229, 6777, 7149, 7551, 8014, 8457, 8880, 9409, 9810, 10250]}, u'edge': {u'target': [], u'time': []}}, u'mouseout': {u'state': {u'target': [], u'time': []}, u'edge': {u'target': [], u'time': []}}}",,,"[24781, 3, 246]",33.84,,699091,10.0,5.0,mouselab-mdp,,1
"[19734, 21787, 23442]","[u'down', u'down', u'right']",,,"[-1, -1, -1]","[u'1', 5, 9, 17]","{u'mouseover': {u'state': {u'target': [], u'time': []}, u'edge': {u'target': [], u'time': []}}, u'click': {u'state': {u'target': [u'4', u'3', u'2', u'5', u'10', u'6', u'11', u'17', u'9', u'16', u'15', u'8', u'14', u'12', u'7', u'13'], u'time': [2507, 3018, 3750, 4318, 4976, 5286, 5576, 6338, 6645, 6925, 7660, 7991, 8320, 8868, 9145, 9411]}, u'edge': {u'target': [], u'time': []}}, u'mouseout': {u'state': {u'target': [], u'time': []}, u'edge': {u'target': [], u'time': []}}}",,,"[19733, 3, 1141]",33.84,,747814,11.0,7.0,mouselab-mdp,,1
"[16594, 18754, 19612]","[u'down', u'down', u'left']",,,"[-1, -1, -1]","[u'1', 5, 9, 16]","{u'mouseover': {u'state': {u'target': [], u'time': []}, u'edge': {u'target': [], u'time': []}}, u'click': {u'state': {u'target': [u'4', u'5', u'2', u'3', u'12', u'13', u'7', u'10', u'6', u'11', u'17', u'9', u'16', u'15', u'8', u'14'], u'time': [1755, 2314, 2786, 3303, 3823, 4544, 5572, 6204, 6560, 6860, 7410, 8396, 8834, 9546, 10003, 10553]}, u'edge': {u'target': [], u'time': []}}, u'mouseout': {u'state': {u'target': [], u'time': []}, u'edge': {u'target': [], u'time': []}}}",,,"[16594, 4, 324]",45.84,,834166,12.0,1.0,mouselab-mdp,,1
"[5010, 8135, 11339]","[u'up', u'up', u'left']",,,"[-1, -1, -1]","[u'1', 3, 7, 12]","{u'mouseover': {u'state': {u'target': [], u'time': []}, u'edge': {u'target': [], u'time': []}}, u'click': {u'state': {u'target': [], u'time': []}, u'edge': {u'target': [], u'time': []}}, u'mouseout': {u'state': {u'target': [], u'time': []}, u'edge': {u'target': [], u'time': []}}}",,,"[5010, 1707, 2035]",37.0,,1008328,1.0,9.0,mouselab-mdp,,2
"[1183, 4434, 6876]","[u'right', u'right', u'down']",,,"[-1, -1, 4]","[u'1', 2, 6, 11]","{u'mouseover': {u'state': {u'target': [], u'time': []}, u'edge': {u'target': [], u'time': []}}, u'click': {u'state': {u'target': [], u'time': []}, u'edge': {u'target': [], u'time': []}}, u'mouseout': {u'state': {u'target': [], u'time': []}, u'edge': {u'target': [], u'time': []}}}",,,"[1182, 1594, 1333]",10.0,,1061726,2.0,10.0,mouselab-mdp,,2
"[6126, 19807, 24982]","[u'left', u'left', u'down']",,,"[7, -1, -1]","[u'1', 4, 8, 15]","{u'mouseover': {u'state': {u'target': [], u'time': []}, u'edge': {u'target': [], u'time': []}}, u'click': {u'state': {u'target': [], u'time': []}, u'edge': {u'target': [], u'time': []}}, u'mouseout': {u'state': {u'target': [], u'time': []}, u'edge': {u'target': [], u'time': []}}}",,,"[6126, 4943, 3890]",14.0,,1118696,3.0,1.0,mouselab-mdp,,2
"[2259, 42271, 43478]","[u'down', u'down', u'right']",,,"[37, -1, -1]","[u'1', 5, 9, 17]","{u'mouseover': {u'state': {u'target': [], u'time': []}, u'edge': {u'target': [], u'time': []}}, u'click': {u'state': {u'target': [], u'time': []}, u'edge': {u'target': [], u'time': []}}, u'mouseout': {u'state': {u'target': [], u'time': []}, u'edge': {u'target': [], u'time': []}}}",,,"[2259, 1515, 3]",16.0,,1204963,4.0,8.0,mouselab-mdp,,2
"[3727, 6541, 9254]","[u'left', u'left', u'up']",,,"[-1, -1, -1]","[u'1', 4, 8, 14]","{u'mouseover': {u'state': {u'target': [], u'time': []}, u'edge': {u'target': [], u'time': []}}, u'click': {u'state': {u'target': [], u'time': []}, u'edge': {u'target': [], u'time': []}}, u'mouseout': {u'state': {u'target': [], u'time': []}, u'edge': {u'target': [], u'time': []}}}",,,"[3727, 1413, 1733]",34.0,,1254112,5.0,5.0,mouselab-mdp,,2
"[2299, 49554, 51810]","[u'up', u'up', u'right']",,,"[43, -1, -1]","[u'1', 3, 7, 13]","{u'mouseover': {u'state': {u'target': [], u'time': []}, u'edge': {u'target': [], u'time': []}}, u'click': {u'state': {u'target': [], u'time': []}, u'edge': {u'target': [], u'time': []}}, u'mouseout': {u'state': {u'target': [], u'time': []}, u'edge': {u'target': [], u'time': []}}}",,,"[2299, 2564, 989]",9.0,,1347548,6.0,6.0,mouselab-mdp,,2
"[2257, 20209, 23345]","[u'right', u'right', u'up']",,,"[14, -1, -1]","[u'1', 2, 6, 10]","{u'mouseover': {u'state': {u'target': [], u'time': []}, u'edge': {u'target': [], u'time': []}}, u'click': {u'state': {u'target': [], u'time': []}, u'edge': {u'target': [], u'time': []}}, u'mouseout': {u'state': {u'target': [], u'time': []}, u'edge': {u'target': [], u'time': []}}}",,,"[2257, 2391, 2178]",22.0,,1418939,7.0,4.0,mouselab-mdp,,2
"[2338, 35727, 37545]","[u'down', u'down', u'left']",,,"[29, -1, -1]","[u'1', 5, 9, 16]","{u'mouseover': {u'state': {u'target': [], u'time': []}, u'edge': {u'target': [], u'time': []}}, u'click': {u'state': {u'target': [], u'time': []}, u'edge': {u'target': [], u'time': []}}, u'mouseout': {u'state': {u'target': [], u'time': []}, u'edge': {u'target': [], u'time': []}}}",,,"[2337, 2667, 796]",18.0,,1511987,8.0,11.0,mouselab-mdp,,2
"[2160, 5049, 7060]","[u'left', u'left', u'down']",,,"[-1, -1, -1]","[u'1', 4, 8, 15]","{u'mouseover': {u'state': {u'target': [], u'time': []}, u'edge': {u'target': [], u'time': []}}, u'click': {u'state': {u'target': [], u'time': []}, u'edge': {u'target': [], u'time': []}}, u'mouseout': {u'state': {u'target': [], u'time': []}, u'edge': {u'target': [], u'time': []}}}",,,"[2160, 1470, 839]",40.0,,1560075,9.0,0.0,mouselab-mdp,,2
"[2225, 28519, 31183]","[u'down', u'down', u'left']",,,"[22, -1, -1]","[u'1', 5, 9, 16]","{u'mouseover': {u'state': {u'target': [], u'time': []}, u'edge': {u'target': [], u'time': []}}, u'click': {u'state': {u'target': [], u'time': []}, u'edge': {u'target': [], u'time': []}}, u'mouseout': {u'state': {u'target': [], u'time': []}, u'edge': {u'target': [], u'time': []}}}",,,"[2225, 2945, 1702]",4.0,,1633938,10.0,2.0,mouselab-mdp,,2
"[853, 26835, 28697]","[u'up', u'up', u'right']",,,"[22, -1, 20]","[u'1', 3, 7, 13]","{u'mouseover': {u'state': {u'target': [], u'time': []}, u'edge': {u'target': [], u'time': []}}, u'click': {u'state': {u'target': [], u'time': []}, u'edge': {u'target': [], u'time': []}}, u'mouseout': {u'state': {u'target': [], u'time': []}, u'edge': {u'target': [], u'time': []}}}",,,"[853, 2154, 779]",5.0,,1724147,11.0,7.0,mouselab-mdp,,2
"[2637, 5932, 7574]","[u'right', u'right', u'down']",,,"[-1, -1, 16]","[u'1', 2, 6, 11]","{u'mouseover': {u'state': {u'target': [], u'time': []}, u'edge': {u'target': [], u'time': []}}, u'click': {u'state': {u'target': [], u'time': []}, u'edge': {u'target': [], u'time': []}}, u'mouseout': {u'state': {u'target': [], u'time': []}, u'edge': {u'target': [], u'time': []}}}",,,"[2637, 1601, 581]",0.0,,1790280,12.0,3.0,mouselab-mdp,,2
"[4617, 30370, 32336]","[u'left', u'left', u'down']",,,"[19, -1, 5]","[u'1', 4, 8, 15]","{u'mouseover': {u'state': {u'target': [], u'time': []}, u'edge': {u'target': [], u'time': []}}, u'click': {u'state': {u'target': [], u'time': []}, u'edge': {u'target': [], u'time': []}}, u'mouseout': {u'state': {u'target': [], u'time': []}, u'edge': {u'target': [], u'time': []}}}",,,"[4607, 5379, 958]",8.0,,226707,1.0,4.0,mouselab-mdp,,3
"[1715, 7521, 14205]","[u'up', u'up', u'right']",,,"[-1, -1, 8]","[u'1', 3, 7, 13]","{u'mouseover': {u'state': {u'target': [], u'time': []}, u'edge': {u'target': [], u'time': []}}, u'click': {u'state': {u'target': [], u'time': []}, u'edge': {u'target': [], u'time': []}}, u'mouseout': {u'state': {u'target': [], u'time': []}, u'edge': {u'target': [], u'time': []}}}",,,"[1715, 4421, 5698]",35.0,,283568,2.0,8.0,mouselab-mdp,,3
"[1718, 5077, 9399]","[u'down', u'down', u'right']",,,"[-1, -1, -1]","[u'1', 5, 9, 17]","{u'mouseover': {u'state': {u'target': [], u'time': []}, u'edge': {u'target': [], u'time': []}}, u'click': {u'state': {u'target': [], u'time': []}, u'edge': {u'target': [], u'time': []}}, u'mouseout': {u'state': {u'target': [], u'time': []}, u'edge': {u'target': [], u'time': []}}}",,,"[1718, 1990, 3356]",34.0,,331207,3.0,7.0,mouselab-mdp,,3
"[1198, 4655, 7754]","[u'right', u'right', u'up']",,,"[-1, -1, 20]","[u'1', 2, 6, 10]","{u'mouseover': {u'state': {u'target': [], u'time': []}, u'edge': {u'target': [], u'time': []}}, u'click': {u'state': {u'target': [], u'time': []}, u'edge': {u'target': [], u'time': []}}, u'mouseout': {u'state': {u'target': [], u'time': []}, u'edge': {u'target': [], u'time': []}}}",,,"[1198, 2102, 2115]",24.0,,402272,4.0,11.0,mouselab-mdp,,3
"[2035, 11679, 15122]","[u'left', u'left', u'down']",,,"[7, -1, -1]","[u'1', 4, 8, 15]","{u'mouseover': {u'state': {u'target': [], u'time': []}, u'edge': {u'target': [], u'time': []}}, u'click': {u'state': {u'target': [], u'time': []}, u'edge': {u'target': [], u'time': []}}, u'mouseout': {u'state': {u'target': [], u'time': []}, u'edge': {u'target': [], u'time': []}}}",,,"[2035, 1259, 2468]",14.0,,457361,5.0,1.0,mouselab-mdp,,3
"[934, 9367, 12076]","[u'up', u'up', u'right']",,,"[6, -1, -1]","[u'1', 3, 7, 13]","{u'mouseover': {u'state': {u'target': [], u'time': []}, u'edge': {u'target': [], u'time': []}}, u'click': {u'state': {u'target': [], u'time': []}, u'edge': {u'target': [], u'time': []}}, u'mouseout': {u'state': {u'target': [], u'time': []}, u'edge': {u'target': [], u'time': []}}}",,,"[934, 1052, 1739]",3.0,,521332,6.0,10.0,mouselab-mdp,,3
"[580, 46366, 49515]","[u'left', u'left', u'up']",,,"[41, -1, -1]","[u'1', 4, 8, 14]","{u'mouseover': {u'state': {u'target': [], u'time': []}, u'edge': {u'target': [], u'time': []}}, u'click': {u'state': {u'target': [], u'time': []}, u'edge': {u'target': [], u'time': []}}, u'mouseout': {u'state': {u'target': [], u'time': []}, u'edge': {u'target': [], u'time': []}}}",,,"[580, 3411, 2171]",10.0,,615700,7.0,6.0,mouselab-mdp,,3
"[379, 24514, 26476]","[u'right', u'right', u'up']",,,"[20, -1, -1]","[u'1', 2, 6, 10]","{u'mouseover': {u'state': {u'target': [], u'time': []}, u'edge': {u'target': [], u'time': []}}, u'click': {u'state': {u'target': [], u'time': []}, u'edge': {u'target': [], u'time': []}}, u'mouseout': {u'state': {u'target': [], u'time': []}, u'edge': {u'target': [], u'time': []}}}",,,"[379, 2752, 1002]",6.0,,685984,8.0,5.0,mouselab-mdp,,3
"[1621, 28374, 30381]","[u'down', u'down', u'right']",,,"[23, -1, -1]","[u'1', 5, 9, 17]","{u'mouseover': {u'state': {u'target': [], u'time': []}, u'edge': {u'target': [], u'time': []}}, u'click': {u'state': {u'target': [], u'time': []}, u'edge': {u'target': [], u'time': []}}, u'mouseout': {u'state': {u'target': [], u'time': []}, u'edge': {u'target': [], u'time': []}}}",,,"[1621, 2336, 1016]",6.0,,757049,9.0,9.0,mouselab-mdp,,3
"[998, 17748, 19539]","[u'up', u'up', u'left']",,,"[14, -1, -1]","[u'1', 3, 7, 12]","{u'mouseover': {u'state': {u'target': [], u'time': []}, u'edge': {u'target': [], u'time': []}}, u'click': {u'state': {u'target': [], u'time': []}, u'edge': {u'target': [], u'time': []}}, u'mouseout': {u'state': {u'target': [], u'time': []}, u'edge': {u'target': [], u'time': []}}}",,,"[998, 1198, 792]",15.0,,819608,10.0,2.0,mouselab-mdp,,3
"[1398, 17721, 19561]","[u'up', u'up', u'right']",,,"[14, -1, -1]","[u'1', 3, 7, 13]","{u'mouseover': {u'state': {u'target': [], u'time': []}, u'edge': {u'target': [], u'time': []}}, u'click': {u'state': {u'target': [], u'time': []}, u'edge': {u'target': [], u'time': []}}, u'mouseout': {u'state': {u'target': [], u'time': []}, u'edge': {u'target': [], u'time': []}}}",,,"[1398, 902, 850]",5.0,,888202,11.0,3.0,mouselab-mdp,,3
"[480, 26198, 28375]","[u'right', u'right', u'up']",,,"[23, -1, -1]","[u'1', 2, 6, 10]","{u'mouseover': {u'state': {u'target': [], u'time': []}, u'edge': {u'target': [], u'time': []}}, u'click': {u'state': {u'target': [], u'time': []}, u'edge': {u'target': [], u'time': []}}, u'mouseout': {u'state': {u'target': [], u'time': []}, u'edge': {u'target': [], u'time': []}}}",,,"[480, 1282, 1182]",8.0,,958933,12.0,0.0,mouselab-mdp,,3
"[11406, 23147, 28136]","[u'left', u'left', u'up']",,,"[6, -1, 14]","[u'1', 4, 8, 14]","{u'mouseover': {u'state': {u'target': [], u'time': []}, u'edge': {u'target': [], u'time': []}}, u'click': {u'state': {u'target': [u'4'], u'time': [8235]}, u'edge': {u'target': [], u'time': []}}, u'mouseout': {u'state': {u'target': [], u'time': []}, u'edge': {u'target': [], u'time': []}}}",,,"[11404, 2933, 3436]",6.4,,727437,1.0,9.0,mouselab-mdp,,4
"[16805, 28156, 32307]","[u'right', u'right', u'down']",,,"[-1, -1, 1]","[u'1', 2, 6, 11]","{u'mouseover': {u'state': {u'target': [], u'time': []}, u'edge': {u'target': [], u'time': []}}, u'click': {u'state': {u'target': [u'2', u'11'], u'time': [3568, 25411]}, u'edge': {u'target': [], u'time': []}}, u'mouseout': {u'state': {u'target': [], u'time': []}, u'edge': {u'target': [], u'time': []}}}",,,"[16805, 8540, 2221]",28.8,,781189,2.0,2.0,mouselab-mdp,,4
"[6485, 14406, 17800]","[u'down', u'down', u'left']",,,"[-1, -1, -1]","[u'1', 5, 9, 16]","{u'mouseover': {u'state': {u'target': [], u'time': []}, u'edge': {u'target': [], u'time': []}}, u'click': {u'state': {u'target': [u'5', u'17'], u'time': [3513, 11636]}, u'edge': {u'target': [], u'time': []}}, u'mouseout': {u'state': {u'target': [], u'time': []}, u'edge': {u'target': [], u'time': []}}}",,,"[6485, 5129, 1432]",42.8,,835212,3.0,1.0,mouselab-mdp,,4
"[20494, 65087, 67594]","[u'right', u'right', u'down']",,,"[38, -1, 8]","[u'1', 2, 6, 11]","{u'mouseover': {u'state': {u'target': [], u'time': []}, u'edge': {u'target': [], u'time': []}}, u'click': {u'state': {u'target': [u'4', u'3', u'2', u'5', u'10'], u'time': [1811, 10817, 16901, 18644, 63343]}, u'edge': {u'target': [], u'time': []}}, u'mouseout': {u'state': {u'target': [], u'time': []}, u'edge': {u'target': [], u'time': []}}}",,,"[20494, 2838, 502]",-6.0,,935595,4.0,7.0,mouselab-mdp,,4
"[12210, 57451, 58850]","[u'left', u'left', u'up']",,,"[41, -1, -1]","[u'1', 4, 8, 14]","{u'mouseover': {u'state': {u'target': [], u'time': []}, u'edge': {u'target': [], u'time': []}}, u'click': {u'state': {u'target': [u'17', u'10', u'12', u'14'], u'time': [3985, 6673, 9332, 10482]}, u'edge': {u'target': [], u'time': []}}, u'mouseout': {u'state': {u'target': [], u'time': []}, u'edge': {u'target': [], u'time': []}}}",,,"[12210, 810, 2]",3.6,,1027796,5.0,6.0,mouselab-mdp,,4
"[11867, 29479, 30746]","[u'up', u'up', u'left']",,,"[14, -1, -1]","[u'1', 3, 7, 12]","{u'mouseover': {u'state': {u'target': [], u'time': []}, u'edge': {u'target': [], u'time': []}}, u'click': {u'state': {u'target': [u'3', u'7', u'13', u'12'], u'time': [1062, 3477, 4157, 5807]}, u'edge': {u'target': [], u'time': []}}, u'mouseout': {u'state': {u'target': [], u'time': []}, u'edge': {u'target': [], u'time': []}}}",,,"[11867, 558, 2]",16.6,,1092549,6.0,4.0,mouselab-mdp,,4
"[14235, 37506, 38755]","[u'right', u'right', u'up']",,,"[19, -1, -1]","[u'1', 2, 6, 10]","{u'mouseover': {u'state': {u'target': [], u'time': []}, u'edge': {u'target': [], u'time': []}}, u'click': {u'state': {u'target': [u'2', u'10', u'11', u'4', u'14', u'15'], u'time': [984, 1717, 2752, 7895, 9185, 10004]}, u'edge': {u'target': [], u'time': []}}, u'mouseout': {u'state': {u'target': [], u'time': []}, u'edge': {u'target': [], u'time': []}}}",,,"[14235, 740, 3]",18.4,,1163480,7.0,8.0,mouselab-mdp,,4
"[8473, 46313, 49101]","[u'down', u'down', u'right']",,,"[29, -1, -1]","[u'1', 5, 9, 17]","{u'mouseover': {u'state': {u'target': [], u'time': []}, u'edge': {u'target': [], u'time': []}}, u'click': {u'state': {u'target': [u'5', u'3', u'2', u'4', u'17', u'16'], u'time': [1617, 2943, 4359, 5517, 41591, 44890]}, u'edge': {u'target': [], u'time': []}}, u'mouseout': {u'state': {u'target': [], u'time': []}, u'edge': {u'target': [], u'time': []}}}",,,"[8473, 5183, 750]",8.4,,1246170,8.0,11.0,mouselab-mdp,,4
"[16248, 42896, 44793]","[u'up', u'up', u'right']",,,"[18, -1, -1]","[u'1', 3, 7, 13]","{u'mouseover': {u'state': {u'target': [], u'time': []}, u'edge': {u'target': [], u'time': []}}, u'click': {u'state': {u'target': [u'4', u'3', u'2', u'5', u'16', u'17', u'10', u'11', u'13', u'12'], u'time': [1162, 1943, 2586, 3311, 8347, 9425, 11989, 13319, 40282, 42253]}, u'edge': {u'target': [], u'time': []}}, u'mouseout': {u'state': {u'target': [], u'time': []}, u'edge': {u'target': [], u'time': []}}}",,,"[16247, 4160, 2]",-1.0,,1316923,9.0,0.0,mouselab-mdp,,4
"[14149, 20079, 22127]","[u'right', u'right', u'up']",,,"[-1, -1, -1]","[u'1', 2, 6, 10]","{u'mouseover': {u'state': {u'target': [], u'time': []}, u'edge': {u'target': [], u'time': []}}, u'click': {u'state': {u'target': [u'2', u'4', u'3', u'5', u'17', u'16', u'13', u'12', u'10', u'11'], u'time': [1858, 3232, 4186, 5180, 7032, 7892, 10473, 11418, 12442, 13318]}, u'edge': {u'target': [], u'time': []}}, u'mouseout': {u'state': {u'target': [], u'time': []}, u'edge': {u'target': [], u'time': []}}}",,,"[14148, 890, 830]",18.0,,1368932,10.0,3.0,mouselab-mdp,,4
"[13486, 18044, 19463]","[u'left', u'left', u'up']",,,"[-1, -1, -1]","[u'1', 4, 8, 14]","{u'mouseover': {u'state': {u'target': [], u'time': []}, u'edge': {u'target': [], u'time': []}}, u'click': {u'state': {u'target': [u'3', u'5', u'4', u'2', u'13', u'12', u'14', u'15'], u'time': [770, 2584, 3476, 4209, 7149, 8198, 10967, 12114]}, u'edge': {u'target': [], u'time': []}}, u'mouseout': {u'state': {u'target': [], u'time': []}, u'edge': {u'target': [], u'time': []}}}",,,"[13486, 2, 2]",21.2,,1420471,11.0,5.0,mouselab-mdp,,4
"[9280, 13950, 15350]","[u'right', u'right', u'up']",,,"[-1, -1, -1]","[u'1', 2, 6, 10]","{u'mouseover': {u'state': {u'target': [], u'time': []}, u'edge': {u'target': [], u'time': []}}, u'click': {u'state': {u'target': [u'3', u'2', u'5', u'4', u'10', u'11'], u'time': [850, 2077, 2867, 3577, 5893, 8441]}, u'edge': {u'target': [], u'time': []}}, u'mouseout': {u'state': {u'target': [], u'time': []}, u'edge': {u'target': [], u'time': []}}}",,,"[9280, 564, 2]",12.4,,1472449,12.0,10.0,mouselab-mdp,,4
"[11658, 18962, 24438]","[u'down', u'down', u'right']",,,"[0, 0, 0]","[u'1', 5, 9, 17]","{u'mouseover': {u'state': {u'target': [], u'time': []}, u'edge': {u'target': [], u'time': []}}, u'click': {u'state': {u'target': [], u'time': []}, u'edge': {u'target': [], u'time': []}}, u'mouseout': {u'state': {u'target': [], u'time': []}, u'edge': {u'target': [], u'time': []}}}",,,"[11657, 8, 3192]",8.0,,188387,1.0,6.0,mouselab-mdp,,5
"[5519, 14067, 19416]","[u'left', u'left', u'down']",,,"[0, 0, 0]","[u'1', 4, 8, 15]","{u'mouseover': {u'state': {u'target': [], u'time': []}, u'edge': {u'target': [], u'time': []}}, u'click': {u'state': {u'target': [], u'time': []}, u'edge': {u'target': [], u'time': []}}, u'mouseout': {u'state': {u'target': [], u'time': []}, u'edge': {u'target': [], u'time': []}}}",,,"[5519, 1084, 3092]",16.0,,285609,2.0,7.0,mouselab-mdp,,5
"[2579, 12170, 16834]","[u'right', u'right', u'down']",,,"[0, 0, 0]","[u'1', 2, 6, 11]","{u'mouseover': {u'state': {u'target': [], u'time': []}, u'edge': {u'target': [], u'time': []}}, u'click': {u'state': {u'target': [], u'time': []}, u'edge': {u'target': [], u'time': []}}, u'mouseout': {u'state': {u'target': [], u'time': []}, u'edge': {u'target': [], u'time': []}}}",,,"[2579, 2345, 2429]",18.0,,342766,3.0,8.0,mouselab-mdp,,5
"[2095, 12973, 16712]","[u'up', u'up', u'right']",,,"[0, 0, 0]","[u'1', 3, 7, 13]","{u'mouseover': {u'state': {u'target': [], u'time': []}, u'edge': {u'target': [], u'time': []}}, u'click': {u'state': {u'target': [], u'time': []}, u'edge': {u'target': [], u'time': []}}, u'mouseout': {u'state': {u'target': [], u'time': []}, u'edge': {u'target': [], u'time': []}}}",,,"[2095, 3646, 1488]",1.0,,408914,4.0,5.0,mouselab-mdp,,5
"[3521, 11600, 17321]","[u'left', u'left', u'down']",,,"[0, 0, 0]","[u'1', 4, 8, 15]","{u'mouseover': {u'state': {u'target': [], u'time': []}, u'edge': {u'target': [], u'time': []}}, u'click': {u'state': {u'target': [], u'time': []}, u'edge': {u'target': [], u'time': []}}, u'mouseout': {u'state': {u'target': [], u'time': []}, u'edge': {u'target': [], u'time': []}}}",,,"[3521, 750, 3465]",8.0,,470383,5.0,2.0,mouselab-mdp,,5
"[2150, 10518, 14782]","[u'right', u'right', u'up']",,,"[0, 0, 0]","[u'1', 2, 6, 10]","{u'mouseover': {u'state': {u'target': [], u'time': []}, u'edge': {u'target': [], u'time': []}}, u'click': {u'state': {u'target': [], u'time': []}, u'edge': {u'target': [], u'time': []}}, u'mouseout': {u'state': {u'target': [], u'time': []}, u'edge': {u'target': [], u'time': []}}}",,,"[2149, 740, 1935]",22.0,,534078,6.0,10.0,mouselab-mdp,,5
"[3616, 11936, 14988]","[u'down', u'down', u'right']",,,"[0, 0, 0]","[u'1', 5, 9, 17]","{u'mouseover': {u'state': {u'target': [], u'time': []}, u'edge': {u'target': [], u'time': []}}, u'click': {u'state': {u'target': [], u'time': []}, u'edge': {u'target': [], u'time': []}}, u'mouseout': {u'state': {u'target': [], u'time': []}, u'edge': {u'target': [], u'time': []}}}",,,"[3615, 962, 816]",6.0,,593068,7.0,9.0,mouselab-mdp,,5
"[3363, 12113, 20563]","[u'up', u'up', u'left']",,,"[0, 0, 0]","[u'1', 3, 7, 12]","{u'mouseover': {u'state': {u'target': [], u'time': []}, u'edge': {u'target': [], u'time': []}}, u'click': {u'state': {u'target': [], u'time': []}, u'edge': {u'target': [], u'time': []}}, u'mouseout': {u'state': {u'target': [], u'time': []}, u'edge': {u'target': [], u'time': []}}}",,,"[3363, 1397, 6122]",21.0,,651690,8.0,1.0,mouselab-mdp,,5
"[989, 8875, 12311]","[u'right', u'right', u'down']",,,"[0, 0, 0]","[u'1', 2, 6, 11]","{u'mouseover': {u'state': {u'target': [], u'time': []}, u'edge': {u'target': [], u'time': []}}, u'click': {u'state': {u'target': [], u'time': []}, u'edge': {u'target': [], u'time': []}}, u'mouseout': {u'state': {u'target': [], u'time': []}, u'edge': {u'target': [], u'time': []}}}",,,"[989, 639, 1211]",0.0,,710078,9.0,4.0,mouselab-mdp,,5
"[970, 9284, 12927]","[u'up', u'up', u'right']",,,"[0, 0, 0]","[u'1', 3, 7, 13]","{u'mouseover': {u'state': {u'target': [], u'time': []}, u'edge': {u'target': [], u'time': []}}, u'click': {u'state': {u'target': [], u'time': []}, u'edge': {u'target': [], u'time': []}}, u'mouseout': {u'state': {u'target': [], u'time': []}, u'edge': {u'target': [], u'time': []}}}",,,"[969, 847, 1217]",5.0,,767830,10.0,3.0,mouselab-mdp,,5
"[1314, 9794, 14064]","[u'left', u'left', u'up']",,,"[0, 0, 0]","[u'1', 4, 8, 14]","{u'mouseover': {u'state': {u'target': [], u'time': []}, u'edge': {u'target': [], u'time': []}}, u'click': {u'state': {u'target': [], u'time': []}, u'edge': {u'target': [], u'time': []}}, u'mouseout': {u'state': {u'target': [], u'time': []}, u'edge': {u'target': [], u'time': []}}}",,,"[1314, 988, 1988]",16.0,,827558,11.0,11.0,mouselab-mdp,,5
"[2311, 13127, 19652]","[u'up', u'up', u'right']",,,"[0, 0, 0]","[u'1', 3, 7, 13]","{u'mouseover': {u'state': {u'target': [], u'time': []}, u'edge': {u'target': [], u'time': []}}, u'click': {u'state': {u'target': [], u'time': []}, u'edge': {u'target': [], u'time': []}}, u'mouseout': {u'state': {u'target': [], u'time': []}, u'edge': {u'target': [], u'time': []}}}",,,"[2310, 2670, 4226]",15.0,,886082,12.0,0.0,mouselab-mdp,,5
"[12103, 15309, 16883]","[u'right', u'right', u'up']",,,"[-1, -1, -1]","[u'1', 2, 6, 10]","{u'mouseover': {u'state': {u'target': [], u'time': []}, u'edge': {u'target': [], u'time': []}}, u'click': {u'state': {u'target': [u'10', u'2', u'6'], u'time': [4050, 5813, 7382]}, u'edge': {u'target': [], u'time': []}}, u'mouseout': {u'state': {u'target': [], u'time': []}, u'edge': {u'target': [], u'time': []}}}",,,"[12101, 9, 126]",33.97,,364417,1.0,2.0,mouselab-mdp,,6
"[5274, 30467, 32450]","[u'up', u'up', u'right']",,,"[5, -1, -1]","[u'1', 3, 7, 13]","{u'mouseover': {u'state': {u'target': [], u'time': []}, u'edge': {u'target': [], u'time': []}}, u'click': {u'state': {u'target': [u'3'], u'time': [1973]}, u'edge': {u'target': [], u'time': []}}, u'mouseout': {u'state': {u'target': [], u'time': []}, u'edge': {u'target': [], u'time': []}}}",,,"[5274, 17487, 448]",20.99,,422393,2.0,1.0,mouselab-mdp,,6
"[12979, 16999, 19721]","[u'up', u'up', u'right']",,,"[-1, -1, 4]","[u'1', 3, 7, 13]","{u'mouseover': {u'state': {u'target': [], u'time': []}, u'edge': {u'target': [], u'time': []}}, u'click': {u'state': {u'target': [u'2', u'4', u'8', u'14', u'15', u'3', u'7', u'13'], u'time': [1563, 3055, 4444, 6201, 7410, 8875, 9955, 10919]}, u'edge': {u'target': [], u'time': []}}, u'mouseout': {u'state': {u'target': [], u'time': []}, u'edge': {u'target': [], u'time': []}}}",,,"[12979, 11, 1501]",30.92,,479854,3.0,9.0,mouselab-mdp,,6
"[17098, 21806, 24808]","[u'right', u'right', u'down']",,,"[-1, -1, -1]","[u'1', 2, 6, 11]","{u'mouseover': {u'state': {u'target': [], u'time': []}, u'edge': {u'target': [], u'time': []}}, u'click': {u'state': {u'target': [u'3', u'7', u'4', u'8', u'2', u'6', u'10', u'11', u'5', u'9', u'17', u'16'], u'time': [1495, 2551, 4961, 5906, 7466, 8336, 9310, 10226, 12164, 13086, 14204, 15350]}, u'edge': {u'target': [], u'time': []}}, u'mouseout': {u'state': {u'target': [], u'time': []}, u'edge': {u'target': [], u'time': []}}}",,,"[17098, 9, 1920]",37.88,,531188,4.0,6.0,mouselab-mdp,,6
"[21680, 25639, 28370]","[u'right', u'right', u'up']",,,"[-1, -1, -1]","[u'1', 2, 6, 10]","{u'mouseover': {u'state': {u'target': [], u'time': []}, u'edge': {u'target': [], u'time': []}}, u'click': {u'state': {u'target': [u'2', u'6', u'10', u'11', u'5', u'9', u'17', u'16', u'4', u'8', u'15', u'14', u'3', u'7', u'13', u'12'], u'time': [1675, 2723, 3714, 4839, 6048, 7012, 7731, 8611, 10139, 10962, 11919, 12760, 14071, 14970, 15879, 16842]}, u'edge': {u'target': [], u'time': []}}, u'mouseout': {u'state': {u'target': [], u'time': []}, u'edge': {u'target': [], u'time': []}}}",,,"[21680, 566, 2219]",21.84,,581352,5.0,10.0,mouselab-mdp,,6
"[18562, 22419, 24793]","[u'right', u'right', u'up']",,,"[-1, -1, -1]","[u'1', 2, 6, 10]","{u'mouseover': {u'state': {u'target': [], u'time': []}, u'edge': {u'target': [], u'time': []}}, u'click': {u'state': {u'target': [u'2', u'6', u'10', u'11', u'5', u'9', u'17', u'16', u'4', u'8', u'14', u'15', u'3', u'7'], u'time': [1911, 3207, 4173, 5194, 6278, 7131, 7992, 8879, 10013, 10922, 12678, 13540, 15666, 16479]}, u'edge': {u'target': [], u'time': []}}, u'mouseout': {u'state': {u'target': [], u'time': []}, u'edge': {u'target': [], u'time': []}}}",,,"[18562, 10, 1510]",33.86,,631283,6.0,3.0,mouselab-mdp,,6
"[21794, 25963, 31963]","[u'right', u'right', u'down']",,,"[-1, -1, -1]","[u'1', 2, 6, 11]","{u'mouseover': {u'state': {u'target': [], u'time': []}, u'edge': {u'target': [], u'time': []}}, u'click': {u'state': {u'target': [u'2', u'6', u'10', u'11', u'5', u'9', u'17', u'16', u'4', u'8', u'14', u'15', u'3', u'7', u'13', u'12'], u'time': [1271, 2045, 2867, 3974, 5797, 6572, 7556, 8464, 12414, 13139, 13993, 14927, 16258, 17082, 18198, 19055]}, u'edge': {u'target': [], u'time': []}}, u'mouseout': {u'state': {u'target': [], u'time': []}, u'edge': {u'target': [], u'time': []}}}",,,"[21794, 716, 5490]",37.84,,682177,7.0,11.0,mouselab-mdp,,6
"[20521, 24079, 26115]","[u'left', u'left', u'up']",,,"[-1, -1, -1]","[u'1', 4, 8, 14]","{u'mouseover': {u'state': {u'target': [], u'time': []}, u'edge': {u'target': [], u'time': []}}, u'click': {u'state': {u'target': [u'2', u'6', u'10', u'11', u'4', u'8', u'14', u'15', u'5', u'9', u'17', u'16', u'3', u'7', u'13', u'12'], u'time': [1510, 2425, 4502, 5193, 6300, 7230, 8077, 8977, 12149, 12842, 13840, 14864, 15986, 16958, 17869, 18756]}, u'edge': {u'target': [], u'time': []}}, u'mouseout': {u'state': {u'target': [], u'time': []}, u'edge': {u'target': [], u'time': []}}}",,,"[20520, 8, 1519]",39.84,,733651,8.0,0.0,mouselab-mdp,,6
"[20811, 25128, 27892]","[u'left', u'left', u'up']",,,"[-1, -1, -1]","[u'1', 4, 8, 14]","{u'mouseover': {u'state': {u'target': [], u'time': []}, u'edge': {u'target': [], u'time': []}}, u'click': {u'state': {u'target': [u'2', u'6', u'10', u'11', u'4', u'8', u'14', u'15', u'5', u'9', u'3', u'7', u'13', u'12', u'17', u'16'], u'time': [1138, 1883, 2933, 3858, 5312, 6135, 7060, 8035, 9387, 10152, 12317, 13130, 14358, 15275, 16287, 17270]}, u'edge': {u'target': [], u'time': []}}, u'mouseout': {u'state': {u'target': [], u'time': []}, u'edge': {u'target': [], u'time': []}}}",,,"[20811, 612, 2260]",33.84,,783159,9.0,5.0,mouselab-mdp,,6
"[20935, 24932, 27651]","[u'down', u'down', u'right']",,,"[-1, -1, -1]","[u'1', 5, 9, 17]","{u'mouseover': {u'state': {u'target': [], u'time': []}, u'edge': {u'target': [], u'time': []}}, u'click': {u'state': {u'target': [u'2', u'6', u'10', u'11', u'4', u'8', u'14', u'15', u'3', u'7', u'13', u'12', u'5', u'9', u'17', u'16'], u'time': [2596, 3644, 4822, 5884, 7375, 8342, 9465, 10335, 12208, 13030, 13994, 14969, 16763, 17612, 18435, 19410]}, u'edge': {u'target': [], u'time': []}}, u'mouseout': {u'state': {u'target': [], u'time': []}, u'edge': {u'target': [], u'time': []}}}",,,"[20935, 571, 2209]",41.84,,832702,10.0,4.0,mouselab-mdp,,6
"[20384, 24210, 27655]","[u'up', u'up', u'left']",,,"[-1, -1, -1]","[u'1', 3, 7, 12]","{u'mouseover': {u'state': {u'target': [], u'time': []}, u'edge': {u'target': [], u'time': []}}, u'click': {u'state': {u'target': [u'2', u'6', u'10', u'11', u'4', u'8', u'14', u'15', u'5', u'9', u'17', u'16', u'3', u'7', u'13', u'12'], u'time': [1343, 2053, 3052, 3866, 5660, 6721, 7638, 8556, 10016, 10767, 11977, 13302, 14756, 15559, 16436, 17438]}, u'edge': {u'target': [], u'time': []}}, u'mouseout': {u'state': {u'target': [], u'time': []}, u'edge': {u'target': [], u'time': []}}}",,,"[20384, 450, 2942]",40.84,,882135,11.0,8.0,mouselab-mdp,,6
"[19820, 24052, 25779]","[u'down', u'down', u'right']",,,"[-1, -1, -1]","[u'1', 5, 9, 17]","{u'mouseover': {u'state': {u'target': [], u'time': []}, u'edge': {u'target': [], u'time': []}}, u'click': {u'state': {u'target': [u'2', u'6', u'10', u'11', u'4', u'8', u'5', u'9', u'17', u'16', u'3', u'7', u'13', u'12'], u'time': [3300, 4259, 5208, 6085, 7435, 8223, 9515, 10420, 11216, 12341, 14254, 15002, 15972, 16754]}, u'edge': {u'target': [], u'time': []}}, u'mouseout': {u'state': {u'target': [], u'time': []}, u'edge': {u'target': [], u'time': []}}}",,,"[19820, 57, 881]",33.86,,932606,12.0,7.0,mouselab-mdp,,6
"[5231, 8293, 10068]","[u'up', u'up', u'right']",,,"[-1, -1, 4]","[u'1', 3, 7, 13]","{u'mouseover': {u'state': {u'target': [], u'time': []}, u'edge': {u'target': [], u'time': []}}, u'click': {u'state': {u'target': [], u'time': []}, u'edge': {u'target': [], u'time': []}}, u'mouseout': {u'state': {u'target': [], u'time': []}, u'edge': {u'target': [], u'time': []}}}",,,"[5229, 1923, 943]",31.0,,388278,1.0,9.0,mouselab-mdp,,7
"[1410, 3509, 5221]","[u'right', u'right', u'down']",,,"[-1, -1, -1]","[u'1', 2, 6, 11]","{u'mouseover': {u'state': {u'target': [], u'time': []}, u'edge': {u'target': [], u'time': []}}, u'click': {u'state': {u'target': [], u'time': []}, u'edge': {u'target': [], u'time': []}}, u'mouseout': {u'state': {u'target': [], u'time': []}, u'edge': {u'target': [], u'time': []}}}",,,"[1409, 968, 877]",38.0,,436302,2.0,11.0,mouselab-mdp,,7
"[1248, 14685, 17198]","[u'left', u'left', u'down']",,,"[7, -1, -1]","[u'1', 4, 8, 15]","{u'mouseover': {u'state': {u'target': [], u'time': []}, u'edge': {u'target': [], u'time': []}}, u'click': {u'state': {u'target': [], u'time': []}, u'edge': {u'target': [], u'time': []}}, u'mouseout': {u'state': {u'target': [], u'time': []}, u'edge': {u'target': [], u'time': []}}}",,,"[1248, 5314, 1667]",14.0,,507077,3.0,1.0,mouselab-mdp,,7
"[2653, 46365, 60517]","[u'down', u'down', u'left']",,,"[38, -1, -1]","[u'1', 5, 9, 16]","{u'mouseover': {u'state': {u'target': [], u'time': []}, u'edge': {u'target': [], u'time': []}}, u'click': {u'state': {u'target': [u'9', u'16', u'17'], u'time': [44387, 49079, 49918]}, u'edge': {u'target': [], u'time': []}}, u'mouseout': {u'state': {u'target': [], u'time': []}, u'edge': {u'target': [], u'time': []}}}",,,"[2653, 4524, 13213]",7.2,,620165,4.0,6.0,mouselab-mdp,,7
"[6198, 31010, 37397]","[u'left', u'left', u'up']",,,"[19, -1, -1]","[u'1', 4, 8, 14]","{u'mouseover': {u'state': {u'target': [], u'time': []}, u'edge': {u'target': [], u'time': []}}, u'click': {u'state': {u'target': [u'3', u'2', u'4', u'5', u'14', u'15'], u'time': [2150, 3194, 4130, 4792, 35022, 35864]}, u'edge': {u'target': [], u'time': []}}, u'mouseout': {u'state': {u'target': [], u'time': []}, u'edge': {u'target': [], u'time': []}}}",,,"[6198, 4244, 5514]",6.4,,687613,5.0,4.0,mouselab-mdp,,7
"[990, 18353, 19989]","[u'up', u'up', u'right']",,,"[14, -1, 1]","[u'1', 3, 7, 13]","{u'mouseover': {u'state': {u'target': [], u'time': []}, u'edge': {u'target': [], u'time': []}}, u'click': {u'state': {u'target': [], u'time': []}, u'edge': {u'target': [], u'time': []}}, u'mouseout': {u'state': {u'target': [], u'time': []}, u'edge': {u'target': [], u'time': []}}}",,,"[990, 2205, 791]",13.0,,765314,6.0,2.0,mouselab-mdp,,7
"[484, 105022, 105946]","[u'up', u'up', u'right']",,,"[22, -1, 20]","[u'1', 3, 7, 13]","{u'mouseover': {u'state': {u'target': [], u'time': []}, u'edge': {u'target': [], u'time': []}}, u'click': {u'state': {u'target': [], u'time': []}, u'edge': {u'target': [], u'time': []}}, u'mouseout': {u'state': {u'target': [], u'time': []}, u'edge': {u'target': [], u'time': []}}}",,,"[484, 81419, 81]",5.0,,895963,7.0,7.0,mouselab-mdp,,7
"[1356, 21594, 23756]","[u'left', u'left', u'down']",,,"[1, -1, 4]","[u'1', 4, 8, 15]","{u'mouseover': {u'state': {u'target': [], u'time': []}, u'edge': {u'target': [], u'time': []}}, u'click': {u'state': {u'target': [], u'time': []}, u'edge': {u'target': [], u'time': []}}, u'mouseout': {u'state': {u'target': [], u'time': []}, u'edge': {u'target': [], u'time': []}}}",,,"[1356, 18115, 1318]",6.0,,961488,8.0,10.0,mouselab-mdp,,7
"[2313, 31051, 32450]","[u'up', u'up', u'right']",,,"[24, -1, -1]","[u'1', 3, 7, 13]","{u'mouseover': {u'state': {u'target': [], u'time': []}, u'edge': {u'target': [], u'time': []}}, u'click': {u'state': {u'target': [], u'time': []}, u'edge': {u'target': [], u'time': []}}, u'mouseout': {u'state': {u'target': [], u'time': []}, u'edge': {u'target': [], u'time': []}}}",,,"[2312, 3592, 557]",1.0,,1047301,9.0,5.0,mouselab-mdp,,7
"[3813, 32076, 33800]","[u'right', u'right', u'down']",,,"[23, -1, 7]","[u'1', 2, 6, 11]","{u'mouseover': {u'state': {u'target': [], u'time': []}, u'edge': {u'target': [], u'time': []}}, u'click': {u'state': {u'target': [], u'time': []}, u'edge': {u'target': [], u'time': []}}, u'mouseout': {u'state': {u'target': [], u'time': []}, u'edge': {u'target': [], u'time': []}}}",,,"[3813, 4124, 885]",-2.0,,1132551,10.0,0.0,mouselab-mdp,,7
"[1164, 17102, 24164]","[u'down', u'down', u'right']",,,"[13, -1, 2]","[u'1', 5, 9, 17]","{u'mouseover': {u'state': {u'target': [], u'time': []}, u'edge': {u'target': [], u'time': []}}, u'click': {u'state': {u'target': [], u'time': []}, u'edge': {u'target': [], u'time': []}}, u'mouseout': {u'state': {u'target': [], u'time': []}, u'edge': {u'target': [], u'time': []}}}",,,"[1164, 1810, 6213]",0.0,,1201475,11.0,3.0,mouselab-mdp,,7
"[1798, 3611, 5286]","[u'up', u'up', u'right']",,,"[-1, -1, 8]","[u'1', 3, 7, 13]","{u'mouseover': {u'state': {u'target': [], u'time': []}, u'edge': {u'target': [], u'time': []}}, u'click': {u'state': {u'target': [], u'time': []}, u'edge': {u'target': [], u'time': []}}, u'mouseout': {u'state': {u'target': [], u'time': []}, u'edge': {u'target': [], u'time': []}}}",,,"[1798, 666, 846]",35.0,,1258490,12.0,8.0,mouselab-mdp,,7
"[2667, 28917, 32340]","[u'left', u'left', u'up']",,,"[13, -1, 32]","[u'1', 4, 8, 14]","{u'mouseover': {u'state': {u'target': [], u'time': []}, u'edge': {u'target': [], u'time': []}}, u'click': {u'state': {u'target': [u'3'], u'time': [23530]}, u'edge': {u'target': [], u'time': []}}, u'mouseout': {u'state': {u'target': [], u'time': []}, u'edge': {u'target': [], u'time': []}}}",,,"[2665, 10533, 1354]",9.99,,233589,1.0,8.0,mouselab-mdp,,8
"[6251, 30597, 72664]","[u'left', u'left', u'down']",,,"[19, -1, 5]","[u'1', 4, 8, 15]","{u'mouseover': {u'state': {u'target': [], u'time': []}, u'edge': {u'target': [], u'time': []}}, u'click': {u'state': {u'target': [u'3', u'2', u'5', u'4', u'15', u'14'], u'time': [1124, 3082, 4062, 4904, 32874, 33692]}, u'edge': {u'target': [], u'time': []}}, u'mouseout': {u'state': {u'target': [], u'time': []}, u'edge': {u'target': [], u'time': []}}}",,,"[6251, 1291, 40335]",7.94,,317029,2.0,4.0,mouselab-mdp,,8
"[11673, 16713, 18068]","[u'up', u'up', u'left']",,,"[-1, -1, -1]","[u'1', 3, 7, 12]","{u'mouseover': {u'state': {u'target': [], u'time': []}, u'edge': {u'target': [], u'time': []}}, u'click': {u'state': {u'target': [u'3', u'12', u'13', u'5', u'4', u'14', u'15', u'2'], u'time': [2354, 3725, 4393, 6360, 7191, 8721, 9466, 10493]}, u'edge': {u'target': [], u'time': []}}, u'mouseout': {u'state': {u'target': [], u'time': []}, u'edge': {u'target': [], u'time': []}}}",,,"[11673, 6, 14]",36.92,,371068,3.0,9.0,mouselab-mdp,,8
"[13155, 18711, 19945]","[u'right', u'right', u'up']",,,"[-1, -1, -1]","[u'1', 2, 6, 10]","{u'mouseover': {u'state': {u'target': [], u'time': []}, u'edge': {u'target': [], u'time': []}}, u'click': {u'state': {u'target': [u'3', u'4', u'14', u'5', u'16', u'17', u'2', u'10', u'11', u'15'], u'time': [992, 2304, 3332, 4808, 5755, 6696, 7845, 8929, 9833, 10905]}, u'edge': {u'target': [], u'time': []}}, u'mouseout': {u'state': {u'target': [], u'time': []}, u'edge': {u'target': [], u'time': []}}}",,,"[13154, 9, 6]",33.9,,432067,4.0,2.0,mouselab-mdp,,8
"[11956, 19501, 21926]","[u'right', u'right', u'down']",,,"[-1, -1, -1]","[u'1', 2, 6, 11]","{u'mouseover': {u'state': {u'target': [], u'time': []}, u'edge': {u'target': [], u'time': []}}, u'click': {u'state': {u'target': [u'4', u'14', u'3', u'12', u'13', u'5', u'16', u'17', u'2', u'10', u'11'], u'time': [982, 2574, 3486, 5018, 5585, 6324, 7422, 8141, 8930, 9902, 10584]}, u'edge': {u'target': [], u'time': []}}, u'mouseout': {u'state': {u'target': [], u'time': []}, u'edge': {u'target': [], u'time': []}}}",,,"[11955, 1925, 1226]",37.89,,513900,5.0,11.0,mouselab-mdp,,8
"[10096, 21010, 22432]","[u'right', u'right', u'up']",,,"[-1, -1, -1]","[u'1', 2, 6, 10]","{u'mouseover': {u'state': {u'target': [], u'time': []}, u'edge': {u'target': [], u'time': []}}, u'click': {u'state': {u'target': [u'4', u'3', u'2', u'5', u'16', u'17', u'12', u'13', u'10', u'11'], u'time': [2227, 3026, 3585, 4308, 5559, 6202, 7475, 8162, 8667, 9397]}, u'edge': {u'target': [], u'time': []}}, u'mouseout': {u'state': {u'target': [], u'time': []}, u'edge': {u'target': [], u'time': []}}}",,,"[10096, 5139, 8]",33.9,,581043,6.0,3.0,mouselab-mdp,,8
"[8412, 21205, 22643]","[u'down', u'down', u'left']",,,"[-1, -1, -1]","[u'1', 5, 9, 16]","{u'mouseover': {u'state': {u'target': [], u'time': []}, u'edge': {u'target': [], u'time': []}}, u'click': {u'state': {u'target': [u'11', u'2', u'3', u'4', u'5', u'12', u'13', u'16', u'17'], u'time': [None, 2144, 2931, 3756, 4452, 5435, 5924, 6940, 7451]}, u'edge': {u'target': [], u'time': []}}, u'mouseout': {u'state': {u'target': [], u'time': []}, u'edge': {u'target': [], u'time': []}}}",,,"[8411, 6812, 8]",45.91,,635389,7.0,1.0,mouselab-mdp,,8
"[10365, 17120, 22094]","[u'right', u'right', u'up']",,,"[-1, -1, -1]","[u'1', 2, 6, 10]","{u'mouseover': {u'state': {u'target': [], u'time': []}, u'edge': {u'target': [], u'time': []}}, u'click': {u'state': {u'target': [u'4', u'14', u'15', u'3', u'2', u'5', u'10', u'11'], u'time': [3270, 4502, 5221, 6133, 6972, 7549, 8669, 9200]}, u'edge': {u'target': [], u'time': []}}, u'mouseout': {u'state': {u'target': [], u'time': []}, u'edge': {u'target': [], u'time': []}}}",,,"[10365, 1903, 3613]",21.92,,686954,8.0,10.0,mouselab-mdp,,8
"[14274, 34570, 35840]","[u'left', u'left', u'up']",,,"[-1, -1, -1]","[u'1', 4, 8, 14]","{u'mouseover': {u'state': {u'target': [], u'time': []}, u'edge': {u'target': [], u'time': []}}, u'click': {u'state': {u'target': [u'12', u'13', u'10', u'11', u'17', u'16', u'5', u'14', u'15', u'4'], u'time': [6925, 7595, 8226, 8964, 9500, 10241, 11147, 12011, 12602, 13233]}, u'edge': {u'target': [], u'time': []}}, u'mouseout': {u'state': {u'target': [], u'time': []}, u'edge': {u'target': [], u'time': []}}}",,,"[14274, 14836, 9]",33.9,,760665,9.0,5.0,mouselab-mdp,,8
"[12473, 29012, 30383]","[u'right', u'right', u'down']",,,"[-1, -1, -1]","[u'1', 2, 6, 11]","{u'mouseover': {u'state': {u'target': [], u'time': []}, u'edge': {u'target': [], u'time': []}}, u'click': {u'state': {u'target': [u'3', u'4', u'5', u'2', u'17', u'16', u'14', u'15', u'12', u'13', u'10', u'11'], u'time': [1877, 2489, 3006, 3617, 4619, 5288, 6475, 7107, 8296, 8785, 9589, 10352]}, u'edge': {u'target': [], u'time': []}}, u'mouseout': {u'state': {u'target': [], u'time': []}, u'edge': {u'target': [], u'time': []}}}",,,"[12473, 8744, 8]",37.88,,821730,10.0,6.0,mouselab-mdp,,8
"[19715, 41507, 43691]","[u'left', u'left', u'up']",,,"[-1, -1, -1]","[u'1', 4, 8, 14]","{u'mouseover': {u'state': {u'target': [], u'time': []}, u'edge': {u'target': [], u'time': []}}, u'click': {u'state': {u'target': [u'12', u'13', u'14', u'15', u'4', u'3', u'2', u'5', u'16', u'17', u'11', u'10'], u'time': [11235, 11921, 12963, 13596, 14249, 15251, 15705, 16241, 16901, 17378, 17994, 18894]}, u'edge': {u'target': [], u'time': []}}, u'mouseout': {u'state': {u'target': [], u'time': []}, u'edge': {u'target': [], u'time': []}}}",,,"[19715, 14395, 760]",39.88,,887419,11.0,0.0,mouselab-mdp,,8
"[12260, 25828, 27159]","[u'down', u'down', u'left']",,,"[-1, -1, -1]","[u'1', 5, 9, 16]","{u'mouseover': {u'state': {u'target': [], u'time': []}, u'edge': {u'target': [], u'time': []}}, u'click': {u'state': {u'target': [u'12', u'13', u'3', u'2', u'5', u'4', u'11', u'10', u'17', u'16', u'15', u'14'], u'time': [2375, 2950, 3770, 4264, 5498, 5904, 7007, 7966, 8991, 9727, 10644, 11322]}, u'edge': {u'target': [], u'time': []}}, u'mouseout': {u'state': {u'target': [], u'time': []}, u'edge': {u'target': [], u'time': []}}}",,,"[12260, 4797, 9]",33.88,,963930,12.0,7.0,mouselab-mdp,,8
"[2436, 6046, 7648]","[u'right', u'right', u'down']",,,"[0, 0, 0]","[u'1', 2, 6, 11]","{u'mouseover': {u'state': {u'target': [], u'time': []}, u'edge': {u'target': [], u'time': []}}, u'click': {u'state': {u'target': [], u'time': []}, u'edge': {u'target': [], u'time': []}}, u'mouseout': {u'state': {u'target': [], u'time': []}, u'edge': {u'target': [], u'time': []}}}",,,"[2436, 10, 8]",38.0,,238982,1.0,6.0,mouselab-mdp,,10
"[2447, 7651, 9623]","[u'down', u'down', u'right']",,,"[0, 0, 0]","[u'1', 5, 9, 17]","{u'mouseover': {u'state': {u'target': [], u'time': []}, u'edge': {u'target': [], u'time': []}}, u'click': {u'state': {u'target': [], u'time': []}, u'edge': {u'target': [], u'time': []}}, u'mouseout': {u'state': {u'target': [], u'time': []}, u'edge': {u'target': [], u'time': []}}}",,,"[2447, 9, 415]",4.0,,292482,2.0,2.0,mouselab-mdp,,10
"[2587, 9377, 12437]","[u'left', u'left', u'up']",,,"[0, 0, 0]","[u'1', 4, 8, 14]","{u'mouseover': {u'state': {u'target': [], u'time': []}, u'edge': {u'target': [], u'time': []}}, u'click': {u'state': {u'target': [], u'time': []}, u'edge': {u'target': [], u'time': []}}, u'mouseout': {u'state': {u'target': [], u'time': []}, u'edge': {u'target': [], u'time': []}}}",,,"[2587, 1471, 1664]",10.0,,352697,3.0,8.0,mouselab-mdp,,10
"[2270, 7831, 10904]","[u'up', u'up', u'right']",,,"[0, 0, 0]","[u'1', 3, 7, 13]","{u'mouseover': {u'state': {u'target': [], u'time': []}, u'edge': {u'target': [], u'time': []}}, u'click': {u'state': {u'target': [], u'time': []}, u'edge': {u'target': [], u'time': []}}, u'mouseout': {u'state': {u'target': [], u'time': []}, u'edge': {u'target': [], u'time': []}}}",,,"[2270, 1483, 1333]",31.0,,405905,4.0,9.0,mouselab-mdp,,10
"[4797, 9600, 12260]","[u'right', u'right', u'up']",,,"[0, 0, 0]","[u'1', 2, 6, 10]","{u'mouseover': {u'state': {u'target': [], u'time': []}, u'edge': {u'target': [], u'time': []}}, u'click': {u'state': {u'target': [], u'time': []}, u'edge': {u'target': [], u'time': []}}, u'mouseout': {u'state': {u'target': [], u'time': []}, u'edge': {u'target': [], u'time': []}}}",,,"[4797, 928, 907]",8.0,,457439,5.0,1.0,mouselab-mdp,,10
"[2019, 7465, 11065]","[u'up', u'up', u'left']",,,"[0, 0, 0]","[u'1', 3, 7, 12]","{u'mouseover': {u'state': {u'target': [], u'time': []}, u'edge': {u'target': [], u'time': []}}, u'click': {u'state': {u'target': [], u'time': []}, u'edge': {u'target': [], u'time': []}}, u'mouseout': {u'state': {u'target': [], u'time': []}, u'edge': {u'target': [], u'time': []}}}",,,"[2019, 1274, 1702]",3.0,,522147,6.0,10.0,mouselab-mdp,,10
"[4187, 10743, 14853]","[u'left', u'left', u'down']",,,"[0, 0, 0]","[u'1', 4, 8, 15]","{u'mouseover': {u'state': {u'target': [], u'time': []}, u'edge': {u'target': [], u'time': []}}, u'click': {u'state': {u'target': [], u'time': []}, u'edge': {u'target': [], u'time': []}}, u'mouseout': {u'state': {u'target': [], u'time': []}, u'edge': {u'target': [], u'time': []}}}",,,"[4187, 856, 2411]",26.0,,575824,7.0,3.0,mouselab-mdp,,10
"[1693, 7216, 11029]","[u'down', u'down', u'left']",,,"[0, 0, 0]","[u'1', 5, 9, 16]","{u'mouseover': {u'state': {u'target': [], u'time': []}, u'edge': {u'target': [], u'time': []}}, u'click': {u'state': {u'target': [], u'time': []}, u'edge': {u'target': [], u'time': []}}, u'mouseout': {u'state': {u'target': [], u'time': []}, u'edge': {u'target': [], u'time': []}}}",,,"[1693, 1564, 2108]",14.0,,626799,8.0,4.0,mouselab-mdp,,10
"[2975, 8518, 11837]","[u'right', u'right', u'up']",,,"[0, 0, 0]","[u'1', 2, 6, 10]","{u'mouseover': {u'state': {u'target': [], u'time': []}, u'edge': {u'target': [], u'time': []}}, u'click': {u'state': {u'target': [], u'time': []}, u'edge': {u'target': [], u'time': []}}, u'mouseout': {u'state': {u'target': [], u'time': []}, u'edge': {u'target': [], u'time': []}}}",,,"[2975, 687, 1937]",24.0,,696101,9.0,11.0,mouselab-mdp,,10
"[1095, 5455, 8385]","[u'left', u'left', u'down']",,,"[0, 0, 0]","[u'1', 4, 8, 15]","{u'mouseover': {u'state': {u'target': [], u'time': []}, u'edge': {u'target': [], u'time': []}}, u'click': {u'state': {u'target': [], u'time': []}, u'edge': {u'target': [], u'time': []}}, u'mouseout': {u'state': {u'target': [], u'time': []}, u'edge': {u'target': [], u'time': []}}}",,,"[1095, 471, 900]",4.0,,758484,10.0,5.0,mouselab-mdp,,10
"[4966, 10336, 13386]","[u'down', u'down', u'left']",,,"[0, 0, 0]","[u'1', 5, 9, 16]","{u'mouseover': {u'state': {u'target': [], u'time': []}, u'edge': {u'target': [], u'time': []}}, u'click': {u'state': {u'target': [], u'time': []}, u'edge': {u'target': [], u'time': []}}, u'mouseout': {u'state': {u'target': [], u'time': []}, u'edge': {u'target': [], u'time': []}}}",,,"[4966, 1281, 1011]",4.0,,825461,11.0,0.0,mouselab-mdp,,10
"[1293, 6139, 9972]","[u'up', u'up', u'left']",,,"[0, 0, 0]","[u'1', 3, 7, 12]","{u'mouseover': {u'state': {u'target': [], u'time': []}, u'edge': {u'target': [], u'time': []}}, u'click': {u'state': {u'target': [], u'time': []}, u'edge': {u'target': [], u'time': []}}, u'mouseout': {u'state': {u'target': [], u'time': []}, u'edge': {u'target': [], u'time': []}}}",,,"[1293, 533, 2086]",19.0,,879873,12.0,7.0,mouselab-mdp,,10
"[3133, 4713, 5744]","[u'right', u'right', u'up']",,,"[-1, -1, -1]","[u'1', 2, 6, 10]","{u'mouseover': {u'state': {u'target': [], u'time': []}, u'edge': {u'target': [], u'time': []}}, u'click': {u'state': {u'target': [], u'time': []}, u'edge': {u'target': [], u'time': []}}, u'mouseout': {u'state': {u'target': [], u'time': []}, u'edge': {u'target': [], u'time': []}}}",,,"[3132, 65, 3]",34.0,,102856,1.0,3.0,mouselab-mdp,,13
"[1707, 3234, 4286]","[u'up', u'up', u'left']",,,"[-1, -1, -1]","[u'1', 3, 7, 12]","{u'mouseover': {u'state': {u'target': [], u'time': []}, u'edge': {u'target': [], u'time': []}}, u'click': {u'state': {u'target': [], u'time': []}, u'edge': {u'target': [], u'time': []}}, u'mouseout': {u'state': {u'target': [], u'time': []}, u'edge': {u'target': [], u'time': []}}}",,,"[1707, 8, 4]",41.0,,181341,2.0,8.0,mouselab-mdp,,13
"[1433, 20266, 21426]","[u'right', u'right', u'up']",,,"[15, -1, -1]","[u'1', 2, 6, 10]","{u'mouseover': {u'state': {u'target': [], u'time': []}, u'edge': {u'target': [], u'time': []}}, u'click': {u'state': {u'target': [], u'time': []}, u'edge': {u'target': [], u'time': []}}, u'mouseout': {u'state': {u'target': [], u'time': []}, u'edge': {u'target': [], u'time': []}}}",,,"[1432, 2248, 8]",16.0,,284153,3.0,9.0,mouselab-mdp,,13
"[1249, 46830, 48018]","[u'up', u'up', u'right']",,,"[24, -1, -1]","[u'1', 3, 7, 13]","{u'mouseover': {u'state': {u'target': [], u'time': []}, u'edge': {u'target': [], u'time': []}}, u'click': {u'state': {u'target': [], u'time': []}, u'edge': {u'target': [], u'time': []}}, u'mouseout': {u'state': {u'target': [], u'time': []}, u'edge': {u'target': [], u'time': []}}}",,,"[1249, 19924, 24]",1.0,,375740,4.0,5.0,mouselab-mdp,,13
"[1768, 3594, 4753]","[u'left', u'left', u'up']",,,"[-1, -1, -1]","[u'1', 4, 8, 14]","{u'mouseover': {u'state': {u'target': [], u'time': []}, u'edge': {u'target': [], u'time': []}}, u'click': {u'state': {u'target': [], u'time': []}, u'edge': {u'target': [], u'time': []}}, u'mouseout': {u'state': {u'target': [], u'time': []}, u'edge': {u'target': [], u'time': []}}}",,,"[1768, 284, 109]",40.0,,429040,5.0,0.0,mouselab-mdp,,13
"[3053, 13538, 14731]","[u'left', u'left', u'up']",,,"[7, -1, 2]","[u'1', 4, 8, 14]","{u'mouseover': {u'state': {u'target': [], u'time': []}, u'edge': {u'target': [], u'time': []}}, u'click': {u'state': {u'target': [], u'time': []}, u'edge': {u'target': [], u'time': []}}, u'mouseout': {u'state': {u'target': [], u'time': []}, u'edge': {u'target': [], u'time': []}}}",,,"[3053, 1954, 144]",4.0,,498445,6.0,1.0,mouselab-mdp,,13
"[856, 9384, 10447]","[u'up', u'up', u'right']",,,"[6, -1, -1]","[u'1', 3, 7, 13]","{u'mouseover': {u'state': {u'target': [], u'time': []}, u'edge': {u'target': [], u'time': []}}, u'click': {u'state': {u'target': [], u'time': []}, u'edge': {u'target': [], u'time': []}}, u'mouseout': {u'state': {u'target': [], u'time': []}, u'edge': {u'target': [], u'time': []}}}",,,"[856, 945, 6]",3.0,,582659,7.0,10.0,mouselab-mdp,,13
"[485, 42985, 44037]","[u'down', u'down', u'left']",,,"[29, -1, -1]","[u'1', 5, 9, 16]","{u'mouseover': {u'state': {u'target': [], u'time': []}, u'edge': {u'target': [], u'time': []}}, u'click': {u'state': {u'target': [], u'time': []}, u'edge': {u'target': [], u'time': []}}, u'mouseout': {u'state': {u'target': [], u'time': []}, u'edge': {u'target': [], u'time': []}}}",,,"[485, 11932, 5]",18.0,,687304,8.0,11.0,mouselab-mdp,,13
"[1181, 2679, 3742]","[u'right', u'right', u'down']",,,"[-1, -1, -1]","[u'1', 2, 6, 11]","{u'mouseover': {u'state': {u'target': [], u'time': []}, u'edge': {u'target': [], u'time': []}}, u'click': {u'state': {u'target': [], u'time': []}, u'edge': {u'target': [], u'time': []}}, u'mouseout': {u'state': {u'target': [], u'time': []}, u'edge': {u'target': [], u'time': []}}}",,,"[1181, 4, 3]",38.0,,734399,9.0,6.0,mouselab-mdp,,13
"[20381, 63035, 64112]","[u'right', u'right', u'down']",,,"[38, -1, 8]","[u'1', 2, 6, 11]","{u'mouseover': {u'state': {u'target': [], u'time': []}, u'edge': {u'target': [], u'time': []}}, u'click': {u'state': {u'target': [], u'time': []}, u'edge': {u'target': [], u'time': []}}, u'mouseout': {u'state': {u'target': [], u'time': []}, u'edge': {u'target': [], u'time': []}}}",,,"[20380, 3055, 5]",2.0,,842940,10.0,7.0,mouselab-mdp,,13
"[1038, 17516, 18609]","[u'up', u'up', u'left']",,,"[14, -1, -1]","[u'1', 3, 7, 12]","{u'mouseover': {u'state': {u'target': [], u'time': []}, u'edge': {u'target': [], u'time': []}}, u'click': {u'state': {u'target': [], u'time': []}, u'edge': {u'target': [], u'time': []}}, u'mouseout': {u'state': {u'target': [], u'time': []}, u'edge': {u'target': [], u'time': []}}}",,,"[1038, 920, 3]",23.0,,920144,11.0,4.0,mouselab-mdp,,13
"[637, 24744, 25834]","[u'down', u'down', u'right']",,,"[22, -1, -1]","[u'1', 5, 9, 17]","{u'mouseover': {u'state': {u'target': [], u'time': []}, u'edge': {u'target': [], u'time': []}}, u'click': {u'state': {u'target': [], u'time': []}, u'edge': {u'target': [], u'time': []}}, u'mouseout': {u'state': {u'target': [], u'time': []}, u'edge': {u'target': [], u'time': []}}}",,,"[637, 575, 11]",4.0,,993101,12.0,2.0,mouselab-mdp,,13
"[32054, 69127, 71791]","[u'right', u'right', u'up']",,,"[30, 0, 0]","[u'1', 2, 6, 10]","{u'mouseover': {u'state': {u'target': [], u'time': []}, u'edge': {u'target': [], u'time': []}}, u'click': {u'state': {u'target': [u'4', u'5', u'2', u'11', u'10', u'6'], u'time': [7334, 9972, 11067, 16364, 18091, 28162]}, u'edge': {u'target': [], u'time': []}}, u'mouseout': {u'state': {u'target': [], u'time': []}, u'edge': {u'target': [], u'time': []}}}",,,"[32054, 3919, 1853]",5.2,,188325,1.0,10.0,mouselab-mdp,,14
"[24749, 72327, 92156]","[u'down', u'down', u'right']",,,"[39, 0, 4]","[u'1', 5, 9, 17]","{u'mouseover': {u'state': {u'target': [], u'time': []}, u'edge': {u'target': [], u'time': []}}, u'click': {u'state': {u'target': [u'3', u'4', u'5', u'2', u'16', u'9', u'17'], u'time': [5395, 9971, 10666, 13004, 18028, 18588, 19204]}, u'edge': {u'target': [], u'time': []}}, u'mouseout': {u'state': {u'target': [], u'time': []}, u'edge': {u'target': [], u'time': []}}}",,,"[24749, 4477, 19009]",-19.6,,290607,2.0,3.0,mouselab-mdp,,14
"[7046, 17629, 26598]","[u'down', u'down', u'right']",,,"[4, 3, 0]","[u'1', 5, 9, 17]","{u'mouseover': {u'state': {u'target': [], u'time': []}, u'edge': {u'target': [], u'time': []}}, u'click': {u'state': {u'target': [u'5', u'9', u'17', u'16'], u'time': [4494, 16212, 23403, 25067]}, u'edge': {u'target': [], u'time': []}}, u'mouseout': {u'state': {u'target': [], u'time': []}, u'edge': {u'target': [], u'time': []}}}",,,"[7046, 4366, 4766]",-7.2,,354550,3.0,2.0,mouselab-mdp,,14
"[6323, 15675, 20835]","[u'left', u'left', u'up']",,,"[6, 0, 0]","[u'1', 4, 8, 14]","{u'mouseover': {u'state': {u'target': [], u'time': []}, u'edge': {u'target': [], u'time': []}}, u'click': {u'state': {u'target': [u'14'], u'time': [1802]}, u'edge': {u'target': [], u'time': []}}, u'mouseout': {u'state': {u'target': [], u'time': []}, u'edge': {u'target': [], u'time': []}}}",,,"[6323, 1063, 4274]",37.2,,439771,4.0,0.0,mouselab-mdp,,14
"[8315, 23534, 26130]","[u'left', u'left', u'up']",,,"[12, 0, 0]","[u'1', 4, 8, 14]","{u'mouseover': {u'state': {u'target': [], u'time': []}, u'edge': {u'target': [], u'time': []}}, u'click': {u'state': {u'target': [u'11', u'14'], u'time': [2753, 6472]}, u'edge': {u'target': [], u'time': []}}, u'mouseout': {u'state': {u'target': [], u'time': []}, u'edge': {u'target': [], u'time': []}}}",,,"[8315, 625, 1716]",16.4,,524856,5.0,7.0,mouselab-mdp,,14
"[3313, 12138, 13886]","[u'up', u'up', u'left']",,,"[6, 0, 0]","[u'1', 3, 7, 12]","{u'mouseover': {u'state': {u'target': [], u'time': []}, u'edge': {u'target': [], u'time': []}}, u'click': {u'state': {u'target': [u'12'], u'time': [1500]}, u'edge': {u'target': [], u'time': []}}, u'mouseout': {u'state': {u'target': [], u'time': []}, u'edge': {u'target': [], u'time': []}}}",,,"[3313, 500, 843]",20.2,,603713,6.0,4.0,mouselab-mdp,,14
"[3749, 12661, 14476]","[u'right', u'right', u'down']",,,"[6, 0, 0]","[u'1', 2, 6, 11]","{u'mouseover': {u'state': {u'target': [], u'time': []}, u'edge': {u'target': [], u'time': []}}, u'click': {u'state': {u'target': [u'11'], u'time': [1298]}, u'edge': {u'target': [], u'time': []}}, u'mouseout': {u'state': {u'target': [], u'time': []}, u'edge': {u'target': [], u'time': []}}}",,,"[3749, 634, 929]",35.2,,790186,7.0,6.0,mouselab-mdp,,14
"[5053, 20077, 24082]","[u'left', u'left', u'down']",,,"[12, 0, 0]","[u'1', 4, 8, 15]","{u'mouseover': {u'state': {u'target': [], u'time': []}, u'edge': {u'target': [], u'time': []}}, u'click': {u'state': {u'target': [u'15', u'13', u'14'], u'time': [1008, 4000, 22800]}, u'edge': {u'target': [], u'time': []}}, u'mouseout': {u'state': {u'target': [], u'time': []}, u'edge': {u'target': [], u'time': []}}}",,,"[5053, 417, 3106]",5.6,,852687,8.0,1.0,mouselab-mdp,,14
"[1907, 12775, 16353]","[u'down', u'down', u'left']",,,"[6, 0, 0]","[u'1', 5, 9, 16]","{u'mouseover': {u'state': {u'target': [], u'time': []}, u'edge': {u'target': [], u'time': []}}, u'click': {u'state': {u'target': [u'16'], u'time': [493]}, u'edge': {u'target': [], u'time': []}}, u'mouseout': {u'state': {u'target': [], u'time': []}, u'edge': {u'target': [], u'time': []}}}",,,"[1907, 2472, 2674]",13.2,,908004,9.0,5.0,mouselab-mdp,,14
"[6100, 37593, 39408]","[u'up', u'up', u'left']",,,"[18, 0, 0]","[u'1', 3, 7, 12]","{u'mouseover': {u'state': {u'target': [], u'time': []}, u'edge': {u'target': [], u'time': []}}, u'click': {u'state': {u'target': [u'10', u'15', u'12'], u'time': [446, 2894, 4710]}, u'edge': {u'target': [], u'time': []}}, u'mouseout': {u'state': {u'target': [], u'time': []}, u'edge': {u'target': [], u'time': []}}}",,,"[6100, 10623, 925]",28.6,,1088679,10.0,9.0,mouselab-mdp,,14
"[7540, 28833, 30387]","[u'up', u'up', u'right']",,,"[18, 0, 0]","[u'1', 3, 7, 13]","{u'mouseover': {u'state': {u'target': [], u'time': []}, u'edge': {u'target': [], u'time': []}}, u'click': {u'state': {u'target': [u'17', u'14', u'13'], u'time': [691, 4490, 6178]}, u'edge': {u'target': [], u'time': []}}, u'mouseout': {u'state': {u'target': [], u'time': []}, u'edge': {u'target': [], u'time': []}}}",,,"[7540, 359, 650]",26.6,,1268506,11.0,8.0,mouselab-mdp,,14
"[1319, 10007, 11711]","[u'down', u'down', u'right']",,,"[6, 0, 0]","[u'1', 5, 9, 17]","{u'mouseover': {u'state': {u'target': [], u'time': []}, u'edge': {u'target': [], u'time': []}}, u'click': {u'state': {u'target': [u'17'], u'time': [621]}, u'edge': {u'target': [], u'time': []}}, u'mouseout': {u'state': {u'target': [], u'time': []}, u'edge': {u'target': [], u'time': []}}}",,,"[1319, 363, 827]",15.2,,1324672,12.0,11.0,mouselab-mdp,,14
"[3211, 40354, 46330]","[u'right', u'right', u'up']",,,"[29, 0, 2]","[u'1', 2, 6, 10]","{u'mouseover': {u'state': {u'target': [], u'time': []}, u'edge': {u'target': [], u'time': []}}, u'click': {u'state': {u'target': [u'6', u'10'], u'time': [38333, 44830]}, u'edge': {u'target': [], u'time': []}}, u'mouseout': {u'state': {u'target': [], u'time': []}, u'edge': {u'target': [], u'time': []}}}",,,"[3211, 4931, 4227]",33.98,,327473,1.0,3.0,mouselab-mdp,,15
"[5452, 17059, 21267]","[u'up', u'up', u'left']",,,"[6, 0, 7]","[u'1', 3, 7, 12]","{u'mouseover': {u'state': {u'target': [], u'time': []}, u'edge': {u'target': [], u'time': []}}, u'click': {u'state': {u'target': [u'3', u'7', u'12', u'13'], u'time': [3775, 16102, 18860, 20166]}, u'edge': {u'target': [], u'time': []}}, u'mouseout': {u'state': {u'target': [], u'time': []}, u'edge': {u'target': [], u'time': []}}}",,,"[5450, 1825, 2434]",36.96,,403040,2.0,9.0,mouselab-mdp,,15
"[23994, 36745, 38441]","[u'left', u'left', u'up']",,,"[5, 0, 0]","[u'1', 4, 8, 14]","{u'mouseover': {u'state': {u'target': [], u'time': []}, u'edge': {u'target': [], u'time': []}}, u'click': {u'state': {u'target': [u'3', u'4', u'5', u'2', u'6', u'10', u'8', u'14', u'15', u'7', u'13', u'12'], u'time': [4673, 6168, 7104, 8270, 13373, 14004, 16132, 17523, 18640, 19990, 20764, 21506]}, u'edge': {u'target': [], u'time': []}}, u'mouseout': {u'state': {u'target': [], u'time': []}, u'edge': {u'target': [], u'time': []}}}",,,"[23993, 522, 817]",33.88,,495272,3.0,5.0,mouselab-mdp,,15
"[18517, 46701, 54467]","[u'down', u'down', u'right']",,,"[19, 0, 0]","[u'1', 5, 9, 17]","{u'mouseover': {u'state': {u'target': [], u'time': []}, u'edge': {u'target': [], u'time': []}}, u'click': {u'state': {u'target': [u'3', u'7', u'13', u'12', u'2', u'4', u'8', u'14', u'15', u'5', u'9', u'16', u'17', u'11', u'6', u'10'], u'time': [1906, 2623, 3310, 3981, 4849, 5575, 6137, 6699, 7311, 7855, 8457, 9019, 9906, 10613, 11270, 11848]}, u'edge': {u'target': [], u'time': []}}, u'mouseout': {u'state': {u'target': [], u'time': []}, u'edge': {u'target': [], u'time': []}}}",,,"[18514, 1230, 7258]",15.84,,593013,4.0,8.0,mouselab-mdp,,15
"[15472, 21898, 23871]","[u'left', u'left', u'up']",,,"[0, 0, 0]","[u'1', 4, 8, 14]","{u'mouseover': {u'state': {u'target': [], u'time': []}, u'edge': {u'target': [], u'time': []}}, u'click': {u'state': {u'target': [u'3', u'7', u'13', u'12', u'4', u'8', u'14', u'15', u'2', u'10', u'6', u'11', u'5', u'9', u'16', u'17'], u'time': [1058, 1657, 2220, 3100, 3913, 4453, 5046, 5929, 6812, 7437, 8086, 8857, 9827, 10405, 11011, 11733]}, u'edge': {u'target': [], u'time': []}}, u'mouseout': {u'state': {u'target': [], u'time': []}, u'edge': {u'target': [], u'time': []}}}",,,"[15470, 3, 1450]",39.84,,644996,5.0,0.0,mouselab-mdp,,15
"[17164, 23952, 26171]","[u'right', u'right', u'down']",,,"[0, 0, 0]","[u'1', 2, 6, 11]","{u'mouseover': {u'state': {u'target': [], u'time': []}, u'edge': {u'target': [], u'time': []}}, u'click': {u'state': {u'target': [u'3', u'2', u'5', u'4', u'9', u'16', u'17', u'7', u'13', u'12', u'8', u'14', u'15', u'6', u'10', u'11'], u'time': [976, 1660, 2285, 2924, 4558, 5142, 5791, 8383, 9211, 10101, 10885, 11429, 12328, 13734, 14289, 15087]}, u'edge': {u'target': [], u'time': []}}, u'mouseout': {u'state': {u'target': [], u'time': []}, u'edge': {u'target': [], u'time': []}}}",,,"[17164, 3, 1706]",37.84,,721300,6.0,6.0,mouselab-mdp,,15
"[21072, 28465, 29726]","[u'right', u'right', u'up']",,,"[0, 0, 0]","[u'1', 2, 6, 10]","{u'mouseover': {u'state': {u'target': [], u'time': []}, u'edge': {u'target': [], u'time': []}}, u'click': {u'state': {u'target': [u'2', u'3', u'4', u'5', u'9', u'6', u'8', u'14', u'15', u'10', u'11'], u'time': [2190, 2731, 3341, 3966, 5129, 7295, 8890, 10287, 11137, 12441, 13347]}, u'edge': {u'target': [], u'time': []}}, u'mouseout': {u'state': {u'target': [], u'time': []}, u'edge': {u'target': [], u'time': []}}}",,,"[21071, 4, 365]",33.89,,803845,7.0,2.0,mouselab-mdp,,15
"[19380, 30940, 33450]","[u'right', u'right', u'up']",,,"[4, 0, 0]","[u'1', 2, 6, 10]","{u'mouseover': {u'state': {u'target': [], u'time': []}, u'edge': {u'target': [], u'time': []}}, u'click': {u'state': {u'target': [u'3', u'4', u'5', u'2', u'6', u'10', u'11', u'8', u'14', u'7', u'13', u'12', u'15'], u'time': [3211, 4101, 4741, 5539, 6857, 7741, 8576, 10749, 11414, 12390, 13051, 14145, 15043]}, u'edge': {u'target': [], u'time': []}}, u'mouseout': {u'state': {u'target': [], u'time': []}, u'edge': {u'target': [], u'time': []}}}",,,"[19379, 626, 1803]",21.87,,862714,8.0,10.0,mouselab-mdp,,15
"[20943, 27941, 30018]","[u'down', u'down', u'right']",,,"[0, 0, 0]","[u'1', 5, 9, 17]","{u'mouseover': {u'state': {u'target': [], u'time': []}, u'edge': {u'target': [], u'time': []}}, u'click': {u'state': {u'target': [u'3', u'2', u'5', u'4', u'6', u'10', u'11', u'7', u'13', u'12', u'9', u'16', u'17', u'8', u'15', u'14'], u'time': [1866, 2607, 3522, 4333, 5301, 6175, 7043, 9052, 9861, 10497, 12605, 13177, 13919, 16714, 17388, 18127]}, u'edge': {u'target': [], u'time': []}}, u'mouseout': {u'state': {u'target': [], u'time': []}, u'edge': {u'target': [], u'time': []}}}",,,"[20943, 4, 1556]",33.84,,928081,9.0,7.0,mouselab-mdp,,15
"[18114, 25241, 26266]","[u'down', u'down', u'right']",,,"[0, 0, 0]","[u'1', 5, 9, 17]","{u'mouseover': {u'state': {u'target': [], u'time': []}, u'edge': {u'target': [], u'time': []}}, u'click': {u'state': {u'target': [u'3', u'2', u'5', u'4', u'8', u'14', u'15', u'16', u'9', u'17', u'7', u'13', u'12', u'6', u'10', u'11'], u'time': [1221, 1794, 2420, 3068, 4475, 5294, 6006, 6953, 7472, 8092, 10723, 11460, 12201, 14192, 14685, 15286]}, u'edge': {u'target': [], u'time': []}}, u'mouseout': {u'state': {u'target': [], u'time': []}, u'edge': {u'target': [], u'time': []}}}",,,"[18114, 6, 503]",41.84,,983714,10.0,4.0,mouselab-mdp,,15
"[22298, 29318, 30377]","[u'right', u'right', u'down']",,,"[0, 0, 0]","[u'1', 2, 6, 11]","{u'mouseover': {u'state': {u'target': [], u'time': []}, u'edge': {u'target': [], u'time': []}}, u'click': {u'state': {u'target': [u'3', u'2', u'5', u'4', u'6', u'10', u'11', u'9', u'16', u'17', u'7', u'13', u'12', u'8', u'14', u'15'], u'time': [2241, 2817, 3411, 3973, 4622, 5176, 5919, 8149, 8889, 9489, 12675, 13330, 14207, 17053, 17621, 18631]}, u'edge': {u'target': [], u'time': []}}, u'mouseout': {u'state': {u'target': [], u'time': []}, u'edge': {u'target': [], u'time': []}}}",,,"[22298, 6, 536]",37.84,,1043593,11.0,11.0,mouselab-mdp,,15
"[21369, 29235, 30088]","[u'down', u'down', u'left']",,,"[0, 0, 0]","[u'1', 5, 9, 16]","{u'mouseover': {u'state': {u'target': [], u'time': []}, u'edge': {u'target': [], u'time': []}}, u'click': {u'state': {u'target': [u'3', u'2', u'5', u'4', u'7', u'13', u'12', u'9', u'17', u'16', u'8', u'14', u'15', u'6', u'10', u'11'], u'time': [2260, 2884, 3843, 4759, 5624, 6504, 7376, 9282, 9991, 10780, 13253, 13857, 15152, 17223, 17889, 18707]}, u'edge': {u'target': [], u'time': []}}, u'mouseout': {u'state': {u'target': [], u'time': []}, u'edge': {u'target': [], u'time': []}}}",,,"[21369, 3, 333]",45.84,,1098607,12.0,1.0,mouselab-mdp,,15
"[60869, 116319, 126720]","[u'right', u'right', u'up']",,,"[36, 3, 0]","[u'1', 2, 6, 10]","{u'mouseover': {u'state': {u'target': [], u'time': []}, u'edge': {u'target': [], u'time': []}}, u'click': {u'state': {u'target': [u'4', u'8', u'14', u'6', u'7', u'13', u'12', u'9', u'17', u'16', u'5'], u'time': [7589, 10542, 13292, 25929, 28619, 29223, 30180, 36517, 38406, 40199, 41351]}, u'edge': {u'target': [], u'time': []}}, u'mouseout': {u'state': {u'target': [], u'time': []}, u'edge': {u'target': [], u'time': []}}}",,,"[60869, 12116, 5925]",-9.6,,577351,1.0,0.0,mouselab-mdp,,16
"[24909, 30089, 39720]","[u'right', u'right', u'down']",,,"[0, 6, 0]","[u'1', 2, 6, 11]","{u'mouseover': {u'state': {u'target': [], u'time': []}, u'edge': {u'target': [], u'time': []}}, u'click': {u'state': {u'target': [u'2', u'3', u'5', u'11', u'6'], u'time': [7686, 13598, 16324, 21559, 30101]}, u'edge': {u'target': [], u'time': []}}, u'mouseout': {u'state': {u'target': [], u'time': []}, u'edge': {u'target': [], u'time': []}}}",,,"[24908, 4, 1398]",24.0,,638870,2.0,2.0,mouselab-mdp,,16
"[9949, 17041, 22064]","[u'up', u'up', u'left']",,,"[1, 3, 0]","[u'1', 3, 7, 12]","{u'mouseover': {u'state': {u'target': [], u'time': []}, u'edge': {u'target': [], u'time': []}}, u'click': {u'state': {u'target': [u'3', u'13', u'12', u'7'], u'time': [2702, 5210, 7172, 15872]}, u'edge': {u'target': [], u'time': []}}, u'mouseout': {u'state': {u'target': [], u'time': []}, u'edge': {u'target': [], u'time': []}}}",,,"[9949, 1908, 672]",12.6,,700295,3.0,7.0,mouselab-mdp,,16
"[16728, 21841, 23658]","[u'left', u'left', u'up']",,,"[0, 0, 0]","[u'1', 4, 8, 14]","{u'mouseover': {u'state': {u'target': [], u'time': []}, u'edge': {u'target': [], u'time': []}}, u'click': {u'state': {u'target': [u'17', u'16', u'14', u'4', u'8'], u'time': [1901, 5219, 7885, 11254, 14586]}, u'edge': {u'target': [], u'time': []}}, u'mouseout': {u'state': {u'target': [], u'time': []}, u'edge': {u'target': [], u'time': []}}}",,,"[16727, 4, 705]",10.0,,751799,4.0,10.0,mouselab-mdp,,16
"[11597, 15941, 17319]","[u'right', u'right', u'up']",,,"[0, 0, 0]","[u'1', 2, 6, 10]","{u'mouseover': {u'state': {u'target': [], u'time': []}, u'edge': {u'target': [], u'time': []}}, u'click': {u'state': {u'target': [u'10', u'11', u'2', u'6'], u'time': [3011, 5335, 7903, 10049]}, u'edge': {u'target': [], u'time': []}}, u'mouseout': {u'state': {u'target': [], u'time': []}, u'edge': {u'target': [], u'time': []}}}",,,"[11596, 3, 334]",21.6,,801967,5.0,8.0,mouselab-mdp,,16
"[21224, 29142, 33904]","[u'down', u'down', u'left']",,,"[0, 3, 0]","[u'1', 5, 9, 16]","{u'mouseover': {u'state': {u'target': [], u'time': []}, u'edge': {u'target': [], u'time': []}}, u'click': {u'state': {u'target': [u'12', u'13', u'10', u'11', u'17', u'16', u'5', u'9'], u'time': [2118, 5764, 9242, 12660, 15446, 17167, 19120, 27404]}, u'edge': {u'target': [], u'time': []}}, u'mouseout': {u'state': {u'target': [], u'time': []}, u'edge': {u'target': [], u'time': []}}}",,,"[21224, 1751, 445]",3.2,,860322,6.0,5.0,mouselab-mdp,,16
"[10275, 14649, 16225]","[u'left', u'left', u'down']",,,"[0, 0, 0]","[u'1', 4, 8, 15]","{u'mouseover': {u'state': {u'target': [], u'time': []}, u'edge': {u'target': [], u'time': []}}, u'click': {u'state': {u'target': [u'14', u'15', u'4', u'8'], u'time': [1774, 5735, 7444, 8778]}, u'edge': {u'target': [], u'time': []}}, u'mouseout': {u'state': {u'target': [], u'time': []}, u'edge': {u'target': [], u'time': []}}}",,,"[10275, 5, 545]",19.6,,911582,7.0,3.0,mouselab-mdp,,16
"[12076, 21219, 22301]","[u'down', u'down', u'left']",,,"[4, 0, 0]","[u'1', 5, 9, 16]","{u'mouseover': {u'state': {u'target': [], u'time': []}, u'edge': {u'target': [], u'time': []}}, u'click': {u'state': {u'target': [u'17', u'16', u'9', u'5'], u'time': [984, 4340, 8594, 10726]}, u'edge': {u'target': [], u'time': []}}, u'mouseout': {u'state': {u'target': [], u'time': []}, u'edge': {u'target': [], u'time': []}}}",,,"[12075, 562, 4]",39.6,,967858,8.0,1.0,mouselab-mdp,,16
"[15920, 21664, 23060]","[u'right', u'right', u'down']",,,"[0, 0, 0]","[u'1', 2, 6, 11]","{u'mouseover': {u'state': {u'target': [], u'time': []}, u'edge': {u'target': [], u'time': []}}, u'click': {u'state': {u'target': [u'13', u'12', u'10', u'11', u'6', u'2'], u'time': [5027, 7315, 10019, 11642, 13629, 14732]}, u'edge': {u'target': [], u'time': []}}, u'mouseout': {u'state': {u'target': [], u'time': []}, u'edge': {u'target': [], u'time': []}}}",,,"[15920, 5, 410]",28.4,,1022094,9.0,6.0,mouselab-mdp,,16
"[12506, 18426, 19771]","[u'down', u'down', u'right']",,,"[0, 0, 0]","[u'1', 5, 9, 17]","{u'mouseover': {u'state': {u'target': [], u'time': []}, u'edge': {u'target': [], u'time': []}}, u'click': {u'state': {u'target': [u'14', u'15', u'16', u'17', u'5', u'9'], u'time': [2827, 4571, 6304, 8036, 9720, 11066]}, u'edge': {u'target': [], u'time': []}}, u'mouseout': {u'state': {u'target': [], u'time': []}, u'edge': {u'target': [], u'time': []}}}",,,"[12506, 4, 315]",32.4,,1074526,10.0,4.0,mouselab-mdp,,16
"[8272, 13035, 14772]","[u'right', u'right', u'down']",,,"[0, 0, 0]","[u'1', 2, 6, 11]","{u'mouseover': {u'state': {u'target': [], u'time': []}, u'edge': {u'target': [], u'time': []}}, u'click': {u'state': {u'target': [u'10', u'11', u'6', u'2'], u'time': [1903, 3043, 5319, 6409]}, u'edge': {u'target': [], u'time': []}}, u'mouseout': {u'state': {u'target': [], u'time': []}, u'edge': {u'target': [], u'time': []}}}",,,"[8271, 4, 683]",31.6,,1126215,11.0,11.0,mouselab-mdp,,16
"[15859, 22460, 24664]","[u'up', u'up', u'left']",,,"[0, 0, 0]","[u'1', 3, 7, 12]","{u'mouseover': {u'state': {u'target': [], u'time': []}, u'edge': {u'target': [], u'time': []}}, u'click': {u'state': {u'target': [u'14', u'15', u'10', u'11', u'13', u'12', u'3', u'7'], u'time': [1332, 2411, 5197, 6214, 8314, 9403, 11475, 12274]}, u'edge': {u'target': [], u'time': []}}, u'mouseout': {u'state': {u'target': [], u'time': []}, u'edge': {u'target': [], u'time': []}}}",,,"[15859, 4, 1312]",24.2,,1184938,12.0,9.0,mouselab-mdp,,16
"[15350, 45142, 48084]","[u'up', u'up', u'right']",,,"[24, 0, 0]","[u'1', 3, 7, 13]","{u'mouseover': {u'state': {u'target': [], u'time': []}, u'edge': {u'target': [], u'time': []}}, u'click': {u'state': {u'target': [u'2', u'6', u'10', u'11', u'3', u'7'], u'time': [2058, 4018, 4863, 5897, 9531, 12192]}, u'edge': {u'target': [], u'time': []}}, u'mouseout': {u'state': {u'target': [], u'time': []}, u'edge': {u'target': [], u'time': []}}}",,,"[15349, 4259, 2277]",-13.8,,186926,1.0,10.0,mouselab-mdp,,17
"[19698, 70367, 73233]","[u'up', u'up', u'left']",,,"[47, 0, 0]","[u'1', 3, 7, 12]","{u'mouseover': {u'state': {u'target': [], u'time': []}, u'edge': {u'target': [], u'time': []}}, u'click': {u'state': {u'target': [u'3', u'7', u'13', u'12', u'4', u'8', u'2', u'6', u'11', u'5', u'9', u'17', u'16', u'15', u'14', u'10'], u'time': [1667, 2609, 3418, 4732, 5838, 6628, 7757, 8415, 9215, 10041, 10742, 11407, 12266, 13178, 14068, 15105]}, u'edge': {u'target': [], u'time': []}}, u'mouseout': {u'state': {u'target': [], u'time': []}, u'edge': {u'target': [], u'time': []}}}",,,"[19698, 1821, 2330]",-3.8,,282568,2.0,8.0,mouselab-mdp,,17
"[18796, 70348, 71372]","[u'right', u'right', u'down']",,,"[46, 0, 0]","[u'1', 2, 6, 11]","{u'mouseover': {u'state': {u'target': [], u'time': []}, u'edge': {u'target': [], u'time': []}}, u'click': {u'state': {u'target': [u'4', u'8', u'3', u'7', u'2', u'6', u'10', u'5', u'9', u'17', u'16', u'11'], u'time': [1942, 3039, 4162, 5175, 6731, 7645, 9524, 10911, 11650, 12346, 14306, 15644]}, u'edge': {u'target': [], u'time': []}}, u'mouseout': {u'state': {u'target': [], u'time': []}, u'edge': {u'target': [], u'time': []}}}",,,"[18796, 3663, 396]",4.4,,378826,3.0,6.0,mouselab-mdp,,17
"[1360, 2463, 3515]","[u'down', u'down', u'right']",,,"[0, 0, 0]","[u'1', 5, 9, 17]","{u'mouseover': {u'state': {u'target': [], u'time': []}, u'edge': {u'target': [], u'time': []}}, u'click': {u'state': {u'target': [], u'time': []}, u'edge': {u'target': [], u'time': []}}, u'mouseout': {u'state': {u'target': [], u'time': []}, u'edge': {u'target': [], u'time': []}}}",,,"[1360, 3, 386]",10.0,,435790,4.0,0.0,mouselab-mdp,,17
"[855, 2633, 4517]","[u'left', u'left', u'up']",,,"[0, 0, 0]","[u'1', 4, 8, 14]","{u'mouseover': {u'state': {u'target': [], u'time': []}, u'edge': {u'target': [], u'time': []}}, u'click': {u'state': {u'target': [], u'time': []}, u'edge': {u'target': [], u'time': []}}, u'mouseout': {u'state': {u'target': [], u'time': []}, u'edge': {u'target': [], u'time': []}}}",,,"[855, 650, 1173]",22.0,,485366,5.0,7.0,mouselab-mdp,,17
"[530, 2259, 3543]","[u'right', u'right', u'up']",,,"[0, 0, 0]","[u'1', 2, 6, 10]","{u'mouseover': {u'state': {u'target': [], u'time': []}, u'edge': {u'target': [], u'time': []}}, u'click': {u'state': {u'target': [], u'time': []}, u'edge': {u'target': [], u'time': []}}, u'mouseout': {u'state': {u'target': [], u'time': []}, u'edge': {u'target': [], u'time': []}}}",,,"[530, 539, 606]",22.0,,564784,6.0,4.0,mouselab-mdp,,17
"[816, 2355, 3904]","[u'up', u'up', u'left']",,,"[0, 0, 0]","[u'1', 3, 7, 12]","{u'mouseover': {u'state': {u'target': [], u'time': []}, u'edge': {u'target': [], u'time': []}}, u'click': {u'state': {u'target': [], u'time': []}, u'edge': {u'target': [], u'time': []}}, u'mouseout': {u'state': {u'target': [], u'time': []}, u'edge': {u'target': [], u'time': []}}}",,,"[816, 428, 868]",21.0,,636941,7.0,1.0,mouselab-mdp,,17
"[3041, 4513, 5713]","[u'right', u'right', u'down']",,,"[0, 0, 0]","[u'1', 2, 6, 11]","{u'mouseover': {u'state': {u'target': [], u'time': []}, u'edge': {u'target': [], u'time': []}}, u'click': {u'state': {u'target': [], u'time': []}, u'edge': {u'target': [], u'time': []}}, u'mouseout': {u'state': {u'target': [], u'time': []}, u'edge': {u'target': [], u'time': []}}}",,,"[3041, 364, 505]",0.0,,706803,8.0,3.0,mouselab-mdp,,17
"[3370, 4915, 6368]","[u'left', u'left', u'up']",,,"[0, 0, 0]","[u'1', 4, 8, 14]","{u'mouseover': {u'state': {u'target': [], u'time': []}, u'edge': {u'target': [], u'time': []}}, u'click': {u'state': {u'target': [], u'time': []}, u'edge': {u'target': [], u'time': []}}, u'mouseout': {u'state': {u'target': [], u'time': []}, u'edge': {u'target': [], u'time': []}}}",,,"[3370, 420, 765]",10.0,,787934,9.0,2.0,mouselab-mdp,,17
"[1880, 3003, 4017]","[u'down', u'down', u'left']",,,"[0, 0, 0]","[u'1', 5, 9, 16]","{u'mouseover': {u'state': {u'target': [], u'time': []}, u'edge': {u'target': [], u'time': []}}, u'click': {u'state': {u'target': [], u'time': []}, u'edge': {u'target': [], u'time': []}}, u'mouseout': {u'state': {u'target': [], u'time': []}, u'edge': {u'target': [], u'time': []}}}",,,"[1880, 3, 343]",2.0,,849110,10.0,9.0,mouselab-mdp,,17
"[1270, 2386, 4185]","[u'up', u'up', u'left']",,,"[0, 0, 0]","[u'1', 3, 7, 12]","{u'mouseover': {u'state': {u'target': [], u'time': []}, u'edge': {u'target': [], u'time': []}}, u'click': {u'state': {u'target': [], u'time': []}, u'edge': {u'target': [], u'time': []}}, u'mouseout': {u'state': {u'target': [], u'time': []}, u'edge': {u'target': [], u'time': []}}}",,,"[1270, 4, 1147]",1.0,,917569,11.0,5.0,mouselab-mdp,,17
"[439, 1661, 3484]","[u'down', u'down', u'right']",,,"[0, 0, 0]","[u'1', 5, 9, 17]","{u'mouseover': {u'state': {u'target': [], u'time': []}, u'edge': {u'target': [], u'time': []}}, u'click': {u'state': {u'target': [], u'time': []}, u'edge': {u'target': [], u'time': []}}, u'mouseout': {u'state': {u'target': [], u'time': []}, u'edge': {u'target': [], u'time': []}}}",,,"[439, 105, 1142]",18.0,,997933,12.0,11.0,mouselab-mdp,,17
"[18892, 43401, 48112]","[u'right', u'right', u'up']",,,"[18, 0, 0]","[u'1', 2, 6, 10]","{u'mouseover': {u'state': {u'target': [], u'time': []}, u'edge': {u'target': [], u'time': []}}, u'click': {u'state': {u'target': [u'6', u'10', u'8', u'14'], u'time': [8545, 10127, 13916, 15584]}, u'edge': {u'target': [], u'time': []}}, u'mouseout': {u'state': {u'target': [], u'time': []}, u'edge': {u'target': [], u'time': []}}}",,,"[18891, 2765, 3760]",16.8,,322179,1.0,8.0,mouselab-mdp,,19
"[12443, 25723, 28242]","[u'up', u'up', u'right']",,,"[9, 0, 0]","[u'1', 3, 7, 13]","{u'mouseover': {u'state': {u'target': [], u'time': []}, u'edge': {u'target': [], u'time': []}}, u'click': {u'state': {u'target': [u'9', u'7'], u'time': [5326, 6946]}, u'edge': {u'target': [], u'time': []}}, u'mouseout': {u'state': {u'target': [], u'time': []}, u'edge': {u'target': [], u'time': []}}}",,,"[12443, 1212, 1511]",-2.6,,383674,2.0,10.0,mouselab-mdp,,19
"[6281, 13803, 21706]","[u'left', u'left', u'down']",,,"[4, 0, 0]","[u'1', 4, 8, 15]","{u'mouseover': {u'state': {u'target': [], u'time': []}, u'edge': {u'target': [], u'time': []}}, u'click': {u'state': {u'target': [u'8', u'14', u'15'], u'time': [2907, 17104, 19648]}, u'edge': {u'target': [], u'time': []}}, u'mouseout': {u'state': {u'target': [], u'time': []}, u'edge': {u'target': [], u'time': []}}}",,,"[6280, 674, 6876]",19.6,,441276,3.0,9.0,mouselab-mdp,,19
"[11011, 24995, 27570]","[u'down', u'down', u'left']",,,"[10, 0, 0]","[u'1', 5, 9, 16]","{u'mouseover': {u'state': {u'target': [], u'time': []}, u'edge': {u'target': [], u'time': []}}, u'click': {u'state': {u'target': [u'5', u'17', u'16'], u'time': [1683, 4474, 6938]}, u'edge': {u'target': [], u'time': []}}, u'mouseout': {u'state': {u'target': [], u'time': []}, u'edge': {u'target': [], u'time': []}}}",,,"[11011, 528, 1599]",37.6,,559473,4.0,1.0,mouselab-mdp,,19
"[10282, 23914, 26569]","[u'right', u'right', u'up']",,,"[9, 0, 0]","[u'1', 2, 6, 10]","{u'mouseover': {u'state': {u'target': [], u'time': []}, u'edge': {u'target': [], u'time': []}}, u'click': {u'state': {u'target': [u'2', u'10'], u'time': [2690, 4085]}, u'edge': {u'target': [], u'time': []}}, u'mouseout': {u'state': {u'target': [], u'time': []}, u'edge': {u'target': [], u'time': []}}}",,,"[10282, 1331, 1603]",28.4,,661631,5.0,3.0,mouselab-mdp,,19
"[14263, 37815, 40879]","[u'down', u'down', u'left']",,,"[19, 0, 0]","[u'1', 5, 9, 16]","{u'mouseover': {u'state': {u'target': [], u'time': []}, u'edge': {u'target': [], u'time': []}}, u'click': {u'state': {u'target': [u'3', u'13', u'5', u'16'], u'time': [6621, 7769, 11109, 12042]}, u'edge': {u'target': [], u'time': []}}, u'mouseout': {u'state': {u'target': [], u'time': []}, u'edge': {u'target': [], u'time': []}}}",,,"[14263, 715, 2077]",6.8,,732485,6.0,11.0,mouselab-mdp,,19
"[6272, 23872, 25768]","[u'right', u'right', u'down']",,,"[13, 0, 0]","[u'1', 2, 6, 11]","{u'mouseover': {u'state': {u'target': [], u'time': []}, u'edge': {u'target': [], u'time': []}}, u'click': {u'state': {u'target': [u'4', u'2', u'10'], u'time': [1313, 2730, 3991]}, u'edge': {u'target': [], u'time': []}}, u'mouseout': {u'state': {u'target': [], u'time': []}, u'edge': {u'target': [], u'time': []}}}",,,"[6271, 992, 879]",-6.4,,799259,7.0,7.0,mouselab-mdp,,19
"[4647, 16615, 21743]","[u'down', u'down', u'right']",,,"[4, 3, 0]","[u'1', 5, 9, 17]","{u'mouseover': {u'state': {u'target': [], u'time': []}, u'edge': {u'target': [], u'time': []}}, u'click': {u'state': {u'target': [u'5', u'17'], u'time': [1935, 14781]}, u'edge': {u'target': [], u'time': []}}, u'mouseout': {u'state': {u'target': [], u'time': []}, u'edge': {u'target': [], u'time': []}}}",,,"[4646, 4953, 530]",8.4,,861353,8.0,5.0,mouselab-mdp,,19
"[4599, 15959, 21302]","[u'up', u'up', u'left']",,,"[4, 3, 0]","[u'1', 3, 7, 12]","{u'mouseover': {u'state': {u'target': [], u'time': []}, u'edge': {u'target': [], u'time': []}}, u'click': {u'state': {u'target': [u'3', u'13'], u'time': [2541, 12532]}, u'edge': {u'target': [], u'time': []}}, u'mouseout': {u'state': {u'target': [], u'time': []}, u'edge': {u'target': [], u'time': []}}}",,,"[4599, 4329, 784]",-8.6,,934250,9.0,0.0,mouselab-mdp,,19
"[7059, 20532, 22091]","[u'right', u'right', u'down']",,,"[9, 0, 0]","[u'1', 2, 6, 11]","{u'mouseover': {u'state': {u'target': [], u'time': []}, u'edge': {u'target': [], u'time': []}}, u'click': {u'state': {u'target': [u'2', u'11'], u'time': [2752, 5417]}, u'edge': {u'target': [], u'time': []}}, u'mouseout': {u'state': {u'target': [], u'time': []}, u'edge': {u'target': [], u'time': []}}}",,,"[7059, 1114, 517]",26.4,,994112,10.0,2.0,mouselab-mdp,,19
"[4375, 14519, 19735]","[u'left', u'left', u'down']",,,"[4, 3, 0]","[u'1', 4, 8, 15]","{u'mouseover': {u'state': {u'target': [], u'time': []}, u'edge': {u'target': [], u'time': []}}, u'click': {u'state': {u'target': [u'4', u'14'], u'time': [2167, 12440]}, u'edge': {u'target': [], u'time': []}}, u'mouseout': {u'state': {u'target': [], u'time': []}, u'edge': {u'target': [], u'time': []}}}",,,"[4375, 3074, 575]",2.4,,1054945,11.0,4.0,mouselab-mdp,,19
"[8217, 31872, 80956]","[u'down', u'down', u'left']",,,"[13, 6, 0]","[u'1', 5, 9, 16]","{u'mouseover': {u'state': {u'target': [], u'time': []}, u'edge': {u'target': [], u'time': []}}, u'click': {u'state': {u'target': [u'2', u'3', u'5', u'17', u'16'], u'time': [2697, 4889, 6070, 26592, 28300]}, u'edge': {u'target': [], u'time': []}}, u'mouseout': {u'state': {u'target': [], u'time': []}, u'edge': {u'target': [], u'time': []}}}",,,"[8217, 7062, 41245]",-2.0,,1139716,12.0,6.0,mouselab-mdp,,19
"[3768, 7396, 9172]","[u'right', u'right', u'up']",,,"[0, 0, 0]","[u'1', 2, 6, 10]","{u'mouseover': {u'state': {u'target': [], u'time': []}, u'edge': {u'target': [], u'time': []}}, u'click': {u'state': {u'target': [], u'time': []}, u'edge': {u'target': [], u'time': []}}, u'mouseout': {u'state': {u'target': [], u'time': []}, u'edge': {u'target': [], u'time': []}}}",,,"[3768, 1896, 923]",8.0,,602369,1.0,7.0,mouselab-mdp,,20
"[5176, 13045, 16468]","[u'up', u'up', u'right']",,,"[4, 0, 0]","[u'1', 3, 7, 13]","{u'mouseover': {u'state': {u'target': [], u'time': []}, u'edge': {u'target': [], u'time': []}}, u'click': {u'state': {u'target': [u'3'], u'time': [3587]}, u'edge': {u'target': [], u'time': []}}, u'mouseout': {u'state': {u'target': [], u'time': []}, u'edge': {u'target': [], u'time': []}}}",,,"[5176, 1874, 2576]",-1.8,,660676,2.0,5.0,mouselab-mdp,,20
"[1800, 4156, 5745]","[u'left', u'left', u'up']",,,"[0, 0, 0]","[u'1', 4, 8, 14]","{u'mouseover': {u'state': {u'target': [], u'time': []}, u'edge': {u'target': [], u'time': []}}, u'click': {u'state': {u'target': [], u'time': []}, u'edge': {u'target': [], u'time': []}}, u'mouseout': {u'state': {u'target': [], u'time': []}, u'edge': {u'target': [], u'time': []}}}",,,"[1800, 658, 748]",18.0,,710285,3.0,10.0,mouselab-mdp,,20
"[2772, 5299, 11253]","[u'down', u'down', u'left']",,,"[0, 0, 4]","[u'1', 5, 9, 16]","{u'mouseover': {u'state': {u'target': [], u'time': []}, u'edge': {u'target': [], u'time': []}}, u'click': {u'state': {u'target': [u'17'], u'time': [9460]}, u'edge': {u'target': [], u'time': []}}, u'mouseout': {u'state': {u'target': [], u'time': []}, u'edge': {u'target': [], u'time': []}}}",,,"[2772, 825, 5098]",43.2,,767817,4.0,1.0,mouselab-mdp,,20
"[896, 3743, 9278]","[u'up', u'up', u'right']",,,"[0, 0, 0]","[u'1', 3, 7, 13]","{u'mouseover': {u'state': {u'target': [], u'time': []}, u'edge': {u'target': [], u'time': []}}, u'click': {u'state': {u'target': [u'13', u'12'], u'time': [5954, 7955]}, u'edge': {u'target': [], u'time': []}}, u'mouseout': {u'state': {u'target': [], u'time': []}, u'edge': {u'target': [], u'time': []}}}",,,"[896, 1087, 4696]",19.4,,815897,5.0,11.0,mouselab-mdp,,20
"[969, 3047, 7068]","[u'right', u'right', u'up']",,,"[0, 0, 0]","[u'1', 2, 6, 10]","{u'mouseover': {u'state': {u'target': [], u'time': []}, u'edge': {u'target': [], u'time': []}}, u'click': {u'state': {u'target': [u'10', u'11'], u'time': [4959, 5949]}, u'edge': {u'target': [], u'time': []}}, u'mouseout': {u'state': {u'target': [], u'time': []}, u'edge': {u'target': [], u'time': []}}}",,,"[969, 355, 3173]",2.4,,868981,6.0,0.0,mouselab-mdp,,20
"[656, 2805, 7912]","[u'left', u'left', u'up']",,,"[0, 0, 0]","[u'1', 4, 8, 14]","{u'mouseover': {u'state': {u'target': [], u'time': []}, u'edge': {u'target': [], u'time': []}}, u'click': {u'state': {u'target': [u'14', u'15'], u'time': [4875, 6228]}, u'edge': {u'target': [], u'time': []}}, u'mouseout': {u'state': {u'target': [], u'time': []}, u'edge': {u'target': [], u'time': []}}}",,,"[656, 388, 4237]",10.4,,917326,7.0,4.0,mouselab-mdp,,20
"[425, 2439, 6882]","[u'up', u'up', u'right']",,,"[0, 0, 0]","[u'1', 3, 7, 13]","{u'mouseover': {u'state': {u'target': [], u'time': []}, u'edge': {u'target': [], u'time': []}}, u'click': {u'state': {u'target': [u'13', u'12'], u'time': [4543, 5722]}, u'edge': {u'target': [], u'time': []}}, u'mouseout': {u'state': {u'target': [], u'time': []}, u'edge': {u'target': [], u'time': []}}}",,,"[425, 290, 3584]",-0.6,,966612,8.0,3.0,mouselab-mdp,,20
"[484, 2729, 8380]","[u'down', u'down', u'right']",,,"[0, 0, 0]","[u'1', 5, 9, 17]","{u'mouseover': {u'state': {u'target': [], u'time': []}, u'edge': {u'target': [], u'time': []}}, u'click': {u'state': {u'target': [u'17', u'16'], u'time': [6533, 7523]}, u'edge': {u'target': [], u'time': []}}, u'mouseout': {u'state': {u'target': [], u'time': []}, u'edge': {u'target': [], u'time': []}}}",,,"[483, 457, 4733]",0.4,,1016161,9.0,9.0,mouselab-mdp,,20
"[828, 2946, 5882]","[u'right', u'right', u'down']",,,"[0, 0, 3]","[u'1', 2, 6, 11]","{u'mouseover': {u'state': {u'target': [], u'time': []}, u'edge': {u'target': [], u'time': []}}, u'click': {u'state': {u'target': [u'11'], u'time': [4882]}, u'edge': {u'target': [], u'time': []}}, u'mouseout': {u'state': {u'target': [], u'time': []}, u'edge': {u'target': [], u'time': []}}}",,,"[826, 330, 2069]",35.2,,1068208,10.0,6.0,mouselab-mdp,,20
