action_times,actions,button_pressed,correct,delays,information_used_correctly,key_press,path,planned_too_little,planned_too_much,queries,questions,responses,rt,score,stimulus,time_elapsed,trial_index,trial_i,trial_type,view_history,pid
,,,,,,,,,,,,,146239,,,146240,,,instructions,"[{""page_index"":0,""viewing_time"":41455},{""page_index"":1,""viewing_time"":30576},{""page_index"":2,""viewing_time"":46327},{""page_index"":3,""viewing_time"":27880}]",0
,,,,,,,,,,,,,131995,,,131999,,,instructions,"[{""page_index"":0,""viewing_time"":37378},{""page_index"":1,""viewing_time"":23873},{""page_index"":2,""viewing_time"":54703},{""page_index"":3,""viewing_time"":16040}]",1
,,,,,,,,,,,,,79943,,,286046,,,instructions,"[{""page_index"":0,""viewing_time"":8526},{""page_index"":1,""viewing_time"":25025},{""page_index"":2,""viewing_time"":38071},{""page_index"":3,""viewing_time"":8320}]",1
,,,,,,,,,,,,,171734,,,171737,,,instructions,"[{""page_index"":0,""viewing_time"":42115},{""page_index"":1,""viewing_time"":35821},{""page_index"":2,""viewing_time"":46833},{""page_index"":3,""viewing_time"":46964}]",2
,,,,,,,,,,,,,35827,,,35827,,,instructions,"[{""page_index"":0,""viewing_time"":8892},{""page_index"":1,""viewing_time"":7721},{""page_index"":2,""viewing_time"":5232},{""page_index"":3,""viewing_time"":13981}]",3
,,,,,,,,,,,,,4235,,,156919,,,instructions,"[{""page_index"":0,""viewing_time"":1515},{""page_index"":1,""viewing_time"":1004},{""page_index"":2,""viewing_time"":1307},{""page_index"":3,""viewing_time"":409}]",3
,,,,,,,,,,,,,246165,,,246165,,,instructions,"[{""page_index"":0,""viewing_time"":74762},{""page_index"":1,""viewing_time"":71046},{""page_index"":2,""viewing_time"":65622},{""page_index"":3,""viewing_time"":34734}]",4
,,,,,,,,,,,,,159324,,,159324,,,instructions,"[{""page_index"":0,""viewing_time"":29634},{""page_index"":1,""viewing_time"":21295},{""page_index"":2,""viewing_time"":89874},{""page_index"":3,""viewing_time"":18518}]",5
,,,,,,,,,,,,,59434,,,59435,,,instructions,"[{""page_index"":0,""viewing_time"":16701},{""page_index"":1,""viewing_time"":11909},{""page_index"":2,""viewing_time"":14623},{""page_index"":3,""viewing_time"":16201}]",6
,,,,,,,,,,,,,25708,,,25708,,,instructions,"[{""page_index"":0,""viewing_time"":11140},{""page_index"":1,""viewing_time"":4734},{""page_index"":2,""viewing_time"":6034},{""page_index"":3,""viewing_time"":3799}]",7
,,,,,,,,,,,,,81202,,,138977,,,instructions,"[{""page_index"":0,""viewing_time"":17179},{""page_index"":1,""viewing_time"":26471},{""page_index"":2,""viewing_time"":18782},{""page_index"":3,""viewing_time"":18769}]",7
,,,,,,,,,,,,,160797,,,160799,,,instructions,"[{""page_index"":0,""viewing_time"":85135},{""page_index"":1,""viewing_time"":19582},{""page_index"":2,""viewing_time"":38933},{""page_index"":3,""viewing_time"":17145}]",8
,,,,,,,,,,,,,117465,,,117466,,,instructions,"[{""page_index"":0,""viewing_time"":31154},{""page_index"":1,""viewing_time"":23671},{""page_index"":2,""viewing_time"":37647},{""page_index"":3,""viewing_time"":24992}]",9
,,,,,,,,,,,,,177184,,,177185,,,instructions,"[{""page_index"":0,""viewing_time"":78710},{""page_index"":1,""viewing_time"":34221},{""page_index"":2,""viewing_time"":44564},{""page_index"":3,""viewing_time"":19689}]",10
,,,,,,,,,,,,,54949,,,266697,,,instructions,"[{""page_index"":0,""viewing_time"":15261},{""page_index"":1,""viewing_time"":13551},{""page_index"":2,""viewing_time"":20015},{""page_index"":3,""viewing_time"":6118}]",10
,,,,,,,,,,,,,290845,,,290846,,,instructions,"[{""page_index"":0,""viewing_time"":91755},{""page_index"":1,""viewing_time"":37836},{""page_index"":0,""viewing_time"":43784},{""page_index"":1,""viewing_time"":6573},{""page_index"":0,""viewing_time"":11959},{""page_index"":1,""viewing_time"":26692},{""page_index"":0,""viewing_time"":14515},{""page_index"":1,""viewing_time"":2393},{""page_index"":2,""viewing_time"":34884},{""page_index"":3,""viewing_time"":16849},{""page_index"":2,""viewing_time"":1248},{""page_index"":3,""viewing_time"":2356}]",11
,,,,,,,,,,,,,304265,,,304268,,,instructions,"[{""page_index"":0,""viewing_time"":117396},{""page_index"":1,""viewing_time"":100180},{""page_index"":2,""viewing_time"":58901},{""page_index"":3,""viewing_time"":27785}]",12
,,,,,,,,,,,,,140520,,,140521,,,instructions,"[{""page_index"":0,""viewing_time"":43400},{""page_index"":1,""viewing_time"":41504},{""page_index"":2,""viewing_time"":34161},{""page_index"":3,""viewing_time"":21454}]",13
,,,,,,,,,,,,,162735,,,162736,,,instructions,"[{""page_index"":0,""viewing_time"":59966},{""page_index"":1,""viewing_time"":42135},{""page_index"":2,""viewing_time"":43164},{""page_index"":3,""viewing_time"":17469}]",14
,,,,,,,,,,,,,120035,,,120036,,,instructions,"[{""page_index"":0,""viewing_time"":29300},{""page_index"":1,""viewing_time"":29236},{""page_index"":2,""viewing_time"":39417},{""page_index"":3,""viewing_time"":22080}]",15
,,,,,,,,,,,,,262060,,,262062,,,instructions,"[{""page_index"":0,""viewing_time"":48175},{""page_index"":1,""viewing_time"":162055},{""page_index"":2,""viewing_time"":35016},{""page_index"":3,""viewing_time"":16813}]",16
,,,,,,,,,,,,,12944,,,302965,,,instructions,"[{""page_index"":0,""viewing_time"":8416},{""page_index"":1,""viewing_time"":1533},{""page_index"":2,""viewing_time"":2418},{""page_index"":3,""viewing_time"":576}]",16
,,,,,,,,,,,,,17994,,,343993,,,instructions,"[{""page_index"":0,""viewing_time"":4655},{""page_index"":1,""viewing_time"":6007},{""page_index"":2,""viewing_time"":6328},{""page_index"":3,""viewing_time"":1004}]",16
,,,,,,,,,,,,,6353,,,373529,,,instructions,"[{""page_index"":0,""viewing_time"":2785},{""page_index"":1,""viewing_time"":730},{""page_index"":2,""viewing_time"":2049},{""page_index"":3,""viewing_time"":788}]",16
,,,,,,,,,,,,,30081,,,416944,,,instructions,"[{""page_index"":0,""viewing_time"":4226},{""page_index"":1,""viewing_time"":5127},{""page_index"":2,""viewing_time"":13708},{""page_index"":3,""viewing_time"":7019}]",16
,,,,,,,,,,,,,176230,,,176232,,,instructions,"[{""page_index"":0,""viewing_time"":64239},{""page_index"":1,""viewing_time"":40833},{""page_index"":2,""viewing_time"":47073},{""page_index"":3,""viewing_time"":24084}]",17
,,,,,,,,,,,,,81072,,,81074,,,instructions,"[{""page_index"":0,""viewing_time"":24236},{""page_index"":1,""viewing_time"":5256},{""page_index"":2,""viewing_time"":12913},{""page_index"":3,""viewing_time"":18273},{""page_index"":2,""viewing_time"":19703},{""page_index"":3,""viewing_time"":688}]",18
,,,,,,,,,,,,,48819,,,162807,,,instructions,"[{""page_index"":0,""viewing_time"":6081},{""page_index"":1,""viewing_time"":7880},{""page_index"":2,""viewing_time"":27864},{""page_index"":3,""viewing_time"":6992}]",18
,,,,,,,,,,,,,233056,,,233057,,,instructions,"[{""page_index"":0,""viewing_time"":73710},{""page_index"":1,""viewing_time"":103584},{""page_index"":2,""viewing_time"":37186},{""page_index"":3,""viewing_time"":18576}]",19
,,,,,,,,,,,,,944528,,,944529,,,instructions,"[{""page_index"":0,""viewing_time"":46101},{""page_index"":1,""viewing_time"":797958},{""page_index"":2,""viewing_time"":35693},{""page_index"":3,""viewing_time"":64775}]",20
,,,,,,,,,,,,,106404,,,106406,,,instructions,"[{""page_index"":0,""viewing_time"":55642},{""page_index"":1,""viewing_time"":18722},{""page_index"":2,""viewing_time"":9050},{""page_index"":3,""viewing_time"":22989}]",21
,,,,,,,,,,,,,84831,,,244450,,,instructions,"[{""page_index"":0,""viewing_time"":8872},{""page_index"":1,""viewing_time"":8343},{""page_index"":2,""viewing_time"":4552},{""page_index"":1,""viewing_time"":17270},{""page_index"":2,""viewing_time"":36931},{""page_index"":3,""viewing_time"":8863}]",21
,,,,,,,,,,,,,30096,,,307573,,,instructions,"[{""page_index"":0,""viewing_time"":23480},{""page_index"":1,""viewing_time"":2182},{""page_index"":2,""viewing_time"":3286},{""page_index"":3,""viewing_time"":1148}]",21
,,,,,,,,,,,,,71921,,,415512,,,instructions,"[{""page_index"":0,""viewing_time"":11810},{""page_index"":1,""viewing_time"":9849},{""page_index"":2,""viewing_time"":41687},{""page_index"":3,""viewing_time"":8575}]",21
,,,,,,,,,,,,,4936,,,462384,,,instructions,"[{""page_index"":0,""viewing_time"":1822},{""page_index"":1,""viewing_time"":849},{""page_index"":2,""viewing_time"":1595},{""page_index"":3,""viewing_time"":670}]",21
,,,,,,,,,,,,,115661,,,115663,,,instructions,"[{""page_index"":0,""viewing_time"":43777},{""page_index"":1,""viewing_time"":16569},{""page_index"":2,""viewing_time"":29739},{""page_index"":3,""viewing_time"":25575}]",22
,,,,,,,,,,,,,231650,,,231650,,,instructions,"[{""page_index"":0,""viewing_time"":74702},{""page_index"":1,""viewing_time"":130461},{""page_index"":2,""viewing_time"":203},{""page_index"":3,""viewing_time"":26274}]",23
,,,,,,,,,,,,,134020,,,433787,,,instructions,"[{""page_index"":0,""viewing_time"":22926},{""page_index"":1,""viewing_time"":22620},{""page_index"":2,""viewing_time"":55402},{""page_index"":3,""viewing_time"":33072}]",23
,,,,,,,,,,,,,72774,,,72778,,,instructions,"[{""page_index"":0,""viewing_time"":24332},{""page_index"":1,""viewing_time"":22498},{""page_index"":2,""viewing_time"":11094},{""page_index"":3,""viewing_time"":14848}]",24
,,,,,,,,,,,,,126863,,,126866,,,instructions,"[{""page_index"":0,""viewing_time"":65157},{""page_index"":1,""viewing_time"":17623},{""page_index"":2,""viewing_time"":37130},{""page_index"":3,""viewing_time"":6950}]",25
,,,,,,,,,,,,,108676,,,300714,,,instructions,"[{""page_index"":0,""viewing_time"":8132},{""page_index"":1,""viewing_time"":35338},{""page_index"":2,""viewing_time"":25761},{""page_index"":3,""viewing_time"":39442}]",25
,,,,,,,,,,,,,55894,,,384234,,,instructions,"[{""page_index"":0,""viewing_time"":8456},{""page_index"":1,""viewing_time"":11196},{""page_index"":2,""viewing_time"":34490},{""page_index"":3,""viewing_time"":1751}]",25
,,,,,,,,,,,,,31619,,,31621,,,instructions,"[{""page_index"":0,""viewing_time"":5211},{""page_index"":1,""viewing_time"":6104},{""page_index"":2,""viewing_time"":5888},{""page_index"":3,""viewing_time"":14414}]",26
,,,,,,,,,,,,,110233,,,168086,,,instructions,"[{""page_index"":0,""viewing_time"":20943},{""page_index"":1,""viewing_time"":17681},{""page_index"":2,""viewing_time"":56384},{""page_index"":3,""viewing_time"":15224}]",26
,,,,,,,,,,,,,6866,,,214901,,,instructions,"[{""page_index"":0,""viewing_time"":1762},{""page_index"":1,""viewing_time"":511},{""page_index"":0,""viewing_time"":1792},{""page_index"":1,""viewing_time"":472},{""page_index"":2,""viewing_time"":1672},{""page_index"":3,""viewing_time"":656}]",26
,,,,,,,,,,,,,157667,,,157669,,,instructions,"[{""page_index"":0,""viewing_time"":36176},{""page_index"":1,""viewing_time"":27187},{""page_index"":2,""viewing_time"":74356},{""page_index"":3,""viewing_time"":19946}]",27
,,,,,,,,,,,,,171317,,,171318,,,instructions,"[{""page_index"":0,""viewing_time"":50323},{""page_index"":1,""viewing_time"":14088},{""page_index"":2,""viewing_time"":73223},{""page_index"":3,""viewing_time"":33683}]",28
,,,,,,,,,,,,,301491,,,301491,,,instructions,"[{""page_index"":0,""viewing_time"":38370},{""page_index"":1,""viewing_time"":38022},{""page_index"":2,""viewing_time"":146330},{""page_index"":3,""viewing_time"":32293},{""page_index"":2,""viewing_time"":4627},{""page_index"":1,""viewing_time"":4024},{""page_index"":0,""viewing_time"":17293},{""page_index"":1,""viewing_time"":7599},{""page_index"":2,""viewing_time"":8974},{""page_index"":3,""viewing_time"":3957}]",29
,,,,,,,,,,,,,323101,,,323102,,,instructions,"[{""page_index"":0,""viewing_time"":174480},{""page_index"":1,""viewing_time"":83389},{""page_index"":2,""viewing_time"":37047},{""page_index"":3,""viewing_time"":28184}]",30
,,,,,,,,,,,,,127288,,,127289,,,instructions,"[{""page_index"":0,""viewing_time"":31436},{""page_index"":1,""viewing_time"":30122},{""page_index"":2,""viewing_time"":41206},{""page_index"":3,""viewing_time"":24524}]",31
,,,,,,,,,,,,,269850,,,269852,,,instructions,"[{""page_index"":0,""viewing_time"":81465},{""page_index"":1,""viewing_time"":69628},{""page_index"":2,""viewing_time"":80278},{""page_index"":3,""viewing_time"":38478}]",32
,,,,,,,,,,,,,180679,,,180680,,,instructions,"[{""page_index"":0,""viewing_time"":73470},{""page_index"":1,""viewing_time"":41800},{""page_index"":2,""viewing_time"":32903},{""page_index"":3,""viewing_time"":32505}]",33
,,,,,,,,,,,,,121206,,,121208,,,instructions,"[{""page_index"":0,""viewing_time"":32711},{""page_index"":1,""viewing_time"":9810},{""page_index"":2,""viewing_time"":55509},{""page_index"":3,""viewing_time"":23175}]",34
,,,,,,,,,,,,,88294,,,259336,,,instructions,"[{""page_index"":0,""viewing_time"":18722},{""page_index"":1,""viewing_time"":21510},{""page_index"":2,""viewing_time"":41345},{""page_index"":3,""viewing_time"":6716}]",34
,,,,,,,,,,,,,115505,,,115507,,,instructions,"[{""page_index"":0,""viewing_time"":27530},{""page_index"":1,""viewing_time"":4315},{""page_index"":2,""viewing_time"":53074},{""page_index"":3,""viewing_time"":30585}]",35
,,,,,,,,,,,,,64060,,,64061,,,instructions,"[{""page_index"":0,""viewing_time"":11908},{""page_index"":1,""viewing_time"":10336},{""page_index"":2,""viewing_time"":21239},{""page_index"":3,""viewing_time"":20576}]",36
