action_times,actions,button_pressed,correct,delays,information_used_correctly,key_press,path,planned_too_little,planned_too_much,queries,questions,responses,rt,score,stimulus,time_elapsed,trial_index,trial_i,trial_type,view_history,pid
"[8351, 35167, 47831]","[u'right', u'right', u'up']",,,"[3, 0, 0]","[True, True, True]",,"[u'1', 2, 6, 10]","[False, False, False]","[True, False, True]","{u'mouseover': {u'state': {u'target': [], u'time': []}, u'edge': {u'target': [], u'time': []}}, u'click': {u'state': {u'target': [u'3', u'2', u'5', u'4', u'10', u'11'], u'time': [2366, 3536, 4440, 5256, 45217, 46127]}, u'edge': {u'target': [], u'time': []}}, u'mouseout': {u'state': {u'target': [], u'time': []}, u'edge': {u'target': [], u'time': []}}}",,,"[8349, 4402, 11640]",8.0,,251131,1.0,12.0,mouselab-mdp,,0
"[8432, 34032, 40723]","[u'down', u'down', u'right']",,,"[1, 1, 0]","[True, True, True]",,"[u'1', 5, 9, 17]","[False, False, False]","[True, True, True]","{u'mouseover': {u'state': {u'target': [], u'time': []}, u'edge': {u'target': [], u'time': []}}, u'click': {u'state': {u'target': [u'2', u'3', u'4', u'5', u'9', u'17', u'16'], u'time': [1939, 3146, 3914, 4667, 32644, 38521, 39289]}, u'edge': {u'target': [], u'time': []}}, u'mouseout': {u'state': {u'target': [], u'time': []}, u'edge': {u'target': [], u'time': []}}}",,,"[8432, 5512, 4165]",8.0,,327593,2.0,3.0,mouselab-mdp,,0
"[8167, 32563, 37436]","[u'right', u'right', u'up']",,,"[4, 0, 0]","[False, True, True]",,"[u'1', 2, 6, 10]","[False, False, False]","[True, False, True]","{u'mouseover': {u'state': {u'target': [], u'time': []}, u'edge': {u'target': [], u'time': []}}, u'click': {u'state': {u'target': [u'3', u'4', u'5', u'2', u'6', u'10', u'11'], u'time': [1557, 2813, 4837, 5629, 6733, 35526, 36253]}, u'edge': {u'target': [], u'time': []}}, u'mouseout': {u'state': {u'target': [], u'time': []}, u'edge': {u'target': [], u'time': []}}}",,,"[8167, 1370, 3864]",3.0,,463284,3.0,9.0,mouselab-mdp,,0
"[11617, 35760, 41099]","[u'right', u'right', u'up']",,,"[2, 1, 0]","[False, True, True]",,"[u'1', 2, 6, 10]","[False, False, False]","[True, True, True]","{u'mouseover': {u'state': {u'target': [], u'time': []}, u'edge': {u'target': [], u'time': []}}, u'click': {u'state': {u'target': [u'2', u'4', u'3', u'5', u'6', u'10', u'11'], u'time': [3363, 5497, 6209, 8038, 34673, 39176, 39880]}, u'edge': {u'target': [], u'time': []}}, u'mouseout': {u'state': {u'target': [], u'time': []}, u'edge': {u'target': [], u'time': []}}}",,,"[11617, 2968, 2814]",8.0,,537654,4.0,11.0,mouselab-mdp,,0
"[4806, 29383, 34362]","[u'down', u'down', u'left']",,,"[3, 0, 0]","[False, True, True]",,"[u'1', 5, 9, 16]","[False, False, False]","[True, False, True]","{u'mouseover': {u'state': {u'target': [], u'time': []}, u'edge': {u'target': [], u'time': []}}, u'click': {u'state': {u'target': [u'2', u'3', u'4', u'5', u'17', u'16'], u'time': [1170, 2089, 2880, 3529, 32537, 33312]}, u'edge': {u'target': [], u'time': []}}, u'mouseout': {u'state': {u'target': [], u'time': []}, u'edge': {u'target': [], u'time': []}}}",,,"[4806, 1678, 3882]",10.0,,629844,5.0,4.0,mouselab-mdp,,0
"[5444, 26572, 32002]","[u'left', u'left', u'up']",,,"[2, 0, 0]","[False, True, True]",,"[u'1', 4, 8, 14]","[False, False, False]","[True, False, True]","{u'mouseover': {u'state': {u'target': [], u'time': []}, u'edge': {u'target': [], u'time': []}}, u'click': {u'state': {u'target': [u'3', u'5', u'2', u'4', u'14', u'15'], u'time': [1206, 2157, 2966, 3637, 30095, 30813]}, u'edge': {u'target': [], u'time': []}}, u'mouseout': {u'state': {u'target': [], u'time': []}, u'edge': {u'target': [], u'time': []}}}",,,"[5443, 188, 4381]",6.0,,711541,6.0,0.0,mouselab-mdp,,0
"[16460, 41276, 45387]","[u'down', u'down', u'right']",,,"[4, 0, 0]","[True, True, True]",,"[u'1', 5, 9, 17]","[False, False, False]","[True, False, True]","{u'mouseover': {u'state': {u'target': [], u'time': []}, u'edge': {u'target': [], u'time': []}}, u'click': {u'state': {u'target': [u'3', u'4', u'5', u'2', u'6', u'7', u'8', u'9', u'17', u'16'], u'time': [2134, 3421, 4278, 5037, 8766, 9566, 10460, 14349, 43301, 43956]}, u'edge': {u'target': [], u'time': []}}, u'mouseout': {u'state': {u'target': [], u'time': []}, u'edge': {u'target': [], u'time': []}}}",,,"[16459, 1215, 3018]",2.0,,788294,7.0,5.0,mouselab-mdp,,0
"[21138, 50994, 55087]","[u'left', u'left', u'up']",,,"[5, 2, 0]","[False, True, True]",,"[u'1', 4, 8, 14]","[False, False, False]","[True, True, False]","{u'mouseover': {u'state': {u'target': [], u'time': []}, u'edge': {u'target': [], u'time': []}}, u'click': {u'state': {u'target': [u'3', u'4', u'5', u'2', u'7', u'8', u'9', u'6', u'12', u'14', u'15'], u'time': [2248, 3423, 4287, 4959, 5831, 6831, 8135, 9286, 12391, 17239, 49321]}, u'edge': {u'target': [], u'time': []}}, u'mouseout': {u'state': {u'target': [], u'time': []}, u'edge': {u'target': [], u'time': []}}}",,,"[21138, 3922, 690]",-5.0,,868070,8.0,10.0,mouselab-mdp,,0
"[5822, 23903, 29209]","[u'right', u'right', u'up']",,,"[0, 0, 0]","[True, True, True]",,"[u'1', 2, 6, 10]","[False, False, False]","[True, False, True]","{u'mouseover': {u'state': {u'target': [], u'time': []}, u'edge': {u'target': [], u'time': []}}, u'click': {u'state': {u'target': [u'2', u'10', u'11'], u'time': [3505, 27521, 28177]}, u'edge': {u'target': [], u'time': []}}, u'mouseout': {u'state': {u'target': [], u'time': []}, u'edge': {u'target': [], u'time': []}}}",,,"[5822, 5, 4264]",12.0,,954156,9.0,2.0,mouselab-mdp,,0
"[5971, 29239, 32358]","[u'right', u'right', u'up']",,,"[2, 0, 0]","[True, True, True]",,"[u'1', 2, 6, 10]","[False, False, False]","[True, False, False]","{u'mouseover': {u'state': {u'target': [], u'time': []}, u'edge': {u'target': [], u'time': []}}, u'click': {u'state': {u'target': [u'3', u'4', u'5', u'2'], u'time': [2505, 3352, 4056, 4600]}, u'edge': {u'target': [], u'time': []}}, u'mouseout': {u'state': {u'target': [], u'time': []}, u'edge': {u'target': [], u'time': []}}}",,,"[5970, 1041, 2032]",10.0,,1026342,10.0,13.0,mouselab-mdp,,0
"[5207, 8670, 13635]","[u'up', u'up', u'right']",,,[],[],,"[u'1', 3, 7, 13]",[],[],"{u'mouseover': {u'state': {u'target': [], u'time': []}, u'edge': {u'target': [], u'time': []}}, u'click': {u'state': {u'target': [u'2', u'3', u'4', u'5', u'13', u'12'], u'time': [1316, 2628, 3315, 3978, 11788, 12516]}, u'edge': {u'target': [], u'time': []}}, u'mouseout': {u'state': {u'target': [], u'time': []}, u'edge': {u'target': [], u'time': []}}}",,,"[5207, 2968, 4464]",10.0,,1082841,11.0,15.0,mouselab-mdp,,0
"[6810, 8207, 11713]","[u'left', u'left', u'down']",,,[],[],,"[u'1', 4, 8, 15]",[],[],"{u'mouseover': {u'state': {u'target': [], u'time': []}, u'edge': {u'target': [], u'time': []}}, u'click': {u'state': {u'target': [u'3', u'2', u'5', u'4'], u'time': [1974, 2810, 3353, 3888]}, u'edge': {u'target': [], u'time': []}}, u'mouseout': {u'state': {u'target': [], u'time': []}, u'edge': {u'target': [], u'time': []}}}",,,"[6810, 904, 3009]",12.0,,1133768,12.0,7.0,mouselab-mdp,,0
"[6801, 7864, 11286]","[u'left', u'left', u'up']",,,[],[],,"[u'1', 4, 8, 14]",[],[],"{u'mouseover': {u'state': {u'target': [], u'time': []}, u'edge': {u'target': [], u'time': []}}, u'click': {u'state': {u'target': [u'3', u'2', u'4', u'5'], u'time': [1873, 2839, 3790, 4320]}, u'edge': {u'target': [], u'time': []}}, u'mouseout': {u'state': {u'target': [], u'time': []}, u'edge': {u'target': [], u'time': []}}}",,,"[6801, 566, 2921]",12.0,,1183510,13.0,1.0,mouselab-mdp,,0
"[6061, 7256, 10491]","[u'right', u'right', u'up']",,,[],[],,"[u'1', 2, 6, 10]",[],[],"{u'mouseover': {u'state': {u'target': [], u'time': []}, u'edge': {u'target': [], u'time': []}}, u'click': {u'state': {u'target': [u'2', u'5', u'4', u'3'], u'time': [1170, 1870, 2523, 3059]}, u'edge': {u'target': [], u'time': []}}, u'mouseout': {u'state': {u'target': [], u'time': []}, u'edge': {u'target': [], u'time': []}}}",,,"[6061, 691, 2744]",11.0,,1240638,14.0,8.0,mouselab-mdp,,0
"[4259, 5526, 9727]","[u'left', u'left', u'up']",,,[],[],,"[u'1', 4, 8, 14]",[],[],"{u'mouseover': {u'state': {u'target': [], u'time': []}, u'edge': {u'target': [], u'time': []}}, u'click': {u'state': {u'target': [u'2', u'3', u'4', u'5'], u'time': [1626, 2304, 2800, 3290]}, u'edge': {u'target': [], u'time': []}}, u'mouseout': {u'state': {u'target': [], u'time': []}, u'edge': {u'target': [], u'time': []}}}",,,"[4258, 765, 3698]",3.0,,1294072,15.0,14.0,mouselab-mdp,,0
"[3335, 4610, 8008]","[u'up', u'up', u'left']",,,[],[],,"[u'1', 3, 7, 12]",[],[],"{u'mouseover': {u'state': {u'target': [], u'time': []}, u'edge': {u'target': [], u'time': []}}, u'click': {u'state': {u'target': [u'3', u'13'], u'time': [1239, 6439]}, u'edge': {u'target': [], u'time': []}}, u'mouseout': {u'state': {u'target': [], u'time': []}, u'edge': {u'target': [], u'time': []}}}",,,"[3335, 770, 2902]",9.0,,1351247,16.0,6.0,mouselab-mdp,,0
"[15289, 46267, 51218]","[u'up', u'up', u'right']",,,"[1, 0, 0]","[True, True, True]",,"[u'1', 3, 7, 13]","[False, False, False]","[True, False, True]","{u'mouseover': {u'state': {u'target': [], u'time': []}, u'edge': {u'target': [], u'time': []}}, u'click': {u'state': {u'target': [u'3', u'5', u'2', u'4', u'13', u'12'], u'time': [10057, 11940, 12707, 13747, 48549, 49785]}, u'edge': {u'target': [], u'time': []}}, u'mouseout': {u'state': {u'target': [], u'time': []}, u'edge': {u'target': [], u'time': []}}}",,,"[15287, 4872, 3734]",9.0,,396071,1.0,11.0,mouselab-mdp,,1
"[9529, 27819, 30477]","[u'up', u'up', u'right']",,,"[0, 0, 0]","[True, True, True]",,"[u'1', 3, 7, 13]","[False, False, False]","[True, False, False]","{u'mouseover': {u'state': {u'target': [], u'time': []}, u'edge': {u'target': [], u'time': []}}, u'click': {u'state': {u'target': [u'13', u'12', u'14', u'15', u'10', u'11', u'17', u'16'], u'time': [2031, 3008, 3865, 4879, 6046, 7048, 7836, 8455]}, u'edge': {u'target': [], u'time': []}}, u'mouseout': {u'state': {u'target': [], u'time': []}, u'edge': {u'target': [], u'time': []}}}",,,"[9529, 4, 1752]",8.0,,462189,2.0,7.0,mouselab-mdp,,1
"[24011, 57184, 64331]","[u'left', u'left', u'up']",,,"[4, 0, 0]","[True, True, True]",,"[u'1', 4, 8, 14]","[False, False, False]","[True, False, True]","{u'mouseover': {u'state': {u'target': [], u'time': []}, u'edge': {u'target': [], u'time': []}}, u'click': {u'state': {u'target': [u'3', u'7', u'2', u'6', u'5', u'9', u'4', u'8', u'14', u'15'], u'time': [13431, 13986, 14731, 15353, 16228, 16738, 17402, 18009, 61714, 62937]}, u'edge': {u'target': [], u'time': []}}, u'mouseout': {u'state': {u'target': [], u'time': []}, u'edge': {u'target': [], u'time': []}}}",,,"[24011, 1955, 5391]",4.0,,571663,3.0,13.0,mouselab-mdp,,1
"[6187, 35614, 41546]","[u'up', u'up', u'right']",,,"[2, 0, 3]","[True, True, True]",,"[u'1', 3, 7, 13]","[False, False, False]","[True, False, True]","{u'mouseover': {u'state': {u'target': [], u'time': []}, u'edge': {u'target': [], u'time': []}}, u'click': {u'state': {u'target': [u'3', u'4', u'2', u'5', u'12', u'13'], u'time': [2502, 3390, 4060, 4991, 38653, 39613]}, u'edge': {u'target': [], u'time': []}}, u'mouseout': {u'state': {u'target': [], u'time': []}, u'edge': {u'target': [], u'time': []}}}",,,"[6186, 2981, 4749]",-1.0,,655092,4.0,10.0,mouselab-mdp,,1
"[11197, 49581, 80101]","[u'up', u'up', u'right']",,,"[0, 0, 0]","[True, True, True]",,"[u'1', 3, 7, 13]","[False, False, False]","[True, False, True]","{u'mouseover': {u'state': {u'target': [], u'time': []}, u'edge': {u'target': [], u'time': []}}, u'click': {u'state': {u'target': [u'3', u'13', u'12'], u'time': [9127, 52323, 53274]}, u'edge': {u'target': [], u'time': []}}, u'mouseout': {u'state': {u'target': [], u'time': []}, u'edge': {u'target': [], u'time': []}}}",,,"[11196, 11222, 29329]",11.0,,743451,5.0,3.0,mouselab-mdp,,1
"[4377, 28078, 36617]","[u'up', u'up', u'right']",,,"[1, 0, 0]","[True, True, True]",,"[u'1', 3, 7, 13]","[True, False, False]","[True, False, True]","{u'mouseover': {u'state': {u'target': [], u'time': []}, u'edge': {u'target': [], u'time': []}}, u'click': {u'state': {u'target': [u'3', u'13', u'12'], u'time': [1028, 30961, 35562]}, u'edge': {u'target': [], u'time': []}}, u'mouseout': {u'state': {u'target': [], u'time': []}, u'edge': {u'target': [], u'time': []}}}",,,"[4376, 1971, 7425]",9.0,,818187,6.0,5.0,mouselab-mdp,,1
"[12139, 33939, 40642]","[u'right', u'right', u'up']",,,"[0, 0, 0]","[True, True, True]",,"[u'1', 2, 6, 10]","[False, False, False]","[True, False, True]","{u'mouseover': {u'state': {u'target': [], u'time': []}, u'edge': {u'target': [], u'time': []}}, u'click': {u'state': {u'target': [u'2', u'10', u'11'], u'time': [10816, 38249, 39102]}, u'edge': {u'target': [], u'time': []}}, u'mouseout': {u'state': {u'target': [], u'time': []}, u'edge': {u'target': [], u'time': []}}}",,,"[12138, 9, 5564]",12.0,,891704,7.0,2.0,mouselab-mdp,,1
"[4990, 32046, 36847]","[u'left', u'left', u'up']",,,"[2, 0, 1]","[True, True, True]",,"[u'1', 4, 8, 14]","[False, False, False]","[True, False, True]","{u'mouseover': {u'state': {u'target': [], u'time': []}, u'edge': {u'target': [], u'time': []}}, u'click': {u'state': {u'target': [u'3', u'2', u'5', u'4', u'14'], u'time': [1263, 2151, 3079, 3951, 33856]}, u'edge': {u'target': [], u'time': []}}, u'mouseout': {u'state': {u'target': [], u'time': []}, u'edge': {u'target': [], u'time': []}}}",,,"[4990, 1841, 3622]",10.0,,971546,8.0,8.0,mouselab-mdp,,1
"[4804, 26217, 28921]","[u'up', u'up', u'right']",,,"[0, 0, 0]","[True, True, True]",,"[u'1', 3, 7, 13]","[False, False, False]","[True, False, False]","{u'mouseover': {u'state': {u'target': [], u'time': []}, u'edge': {u'target': [], u'time': []}}, u'click': {u'state': {u'target': [u'3'], u'time': [2569]}, u'edge': {u'target': [], u'time': []}}, u'mouseout': {u'state': {u'target': [], u'time': []}, u'edge': {u'target': [], u'time': []}}}",,,"[4804, 4, 1580]",14.0,,1044233,9.0,4.0,mouselab-mdp,,1
"[4845, 28872, 31107]","[u'down', u'down', u'right']",,,"[1, 0, 0]","[True, True, True]",,"[u'1', 5, 9, 17]","[False, False, False]","[True, False, False]","{u'mouseover': {u'state': {u'target': [], u'time': []}, u'edge': {u'target': [], u'time': []}}, u'click': {u'state': {u'target': [u'3', u'2', u'5'], u'time': [1676, 2627, 3466]}, u'edge': {u'target': [], u'time': []}}, u'mouseout': {u'state': {u'target': [], u'time': []}, u'edge': {u'target': [], u'time': []}}}",,,"[4844, 671, 1131]",9.0,,1117604,10.0,0.0,mouselab-mdp,,1
"[3844, 4763, 5758]","[u'right', u'right', u'up']",,,[],[],,"[u'1', 2, 6, 10]",[],[],"{u'mouseover': {u'state': {u'target': [], u'time': []}, u'edge': {u'target': [], u'time': []}}, u'click': {u'state': {u'target': [u'3', u'2'], u'time': [2048, 2844]}, u'edge': {u'target': [], u'time': []}}, u'mouseout': {u'state': {u'target': [], u'time': []}, u'edge': {u'target': [], u'time': []}}}",,,"[3844, 403, 484]",8.0,,1174761,11.0,9.0,mouselab-mdp,,1
"[5774, 7363, 8365]","[u'left', u'left', u'up']",,,[],[],,"[u'1', 4, 8, 14]",[],[],"{u'mouseover': {u'state': {u'target': [], u'time': []}, u'edge': {u'target': [], u'time': []}}, u'click': {u'state': {u'target': [u'3', u'2', u'5', u'4'], u'time': [1994, 2856, 4161, 4833]}, u'edge': {u'target': [], u'time': []}}, u'mouseout': {u'state': {u'target': [], u'time': []}, u'edge': {u'target': [], u'time': []}}}",,,"[5774, 1078, 496]",3.0,,1222597,12.0,14.0,mouselab-mdp,,1
"[3172, 3900, 4655]","[u'right', u'right', u'up']",,,[],[],,"[u'1', 2, 6, 10]",[],[],"{u'mouseover': {u'state': {u'target': [], u'time': []}, u'edge': {u'target': [], u'time': []}}, u'click': {u'state': {u'target': [u'3', u'2'], u'time': [1089, 2166]}, u'edge': {u'target': [], u'time': []}}, u'mouseout': {u'state': {u'target': [], u'time': []}, u'edge': {u'target': [], u'time': []}}}",,,"[3172, 220, 243]",12.0,,1270896,13.0,12.0,mouselab-mdp,,1
"[5886, 6751, 11719]","[u'left', u'left', u'up']",,,[],[],,"[u'1', 4, 8, 14]",[],[],"{u'mouseover': {u'state': {u'target': [], u'time': []}, u'edge': {u'target': [], u'time': []}}, u'click': {u'state': {u'target': [u'3', u'2', u'5', u'4', u'14', u'15'], u'time': [1764, 2797, 3556, 4238, 9356, 10365]}, u'edge': {u'target': [], u'time': []}}, u'mouseout': {u'state': {u'target': [], u'time': []}, u'edge': {u'target': [], u'time': []}}}",,,"[5886, 351, 4454]",10.0,,1336287,14.0,1.0,mouselab-mdp,,1
"[8970, 9924, 13421]","[u'up', u'up', u'left']",,,[],[],,"[u'1', 3, 7, 12]",[],[],"{u'mouseover': {u'state': {u'target': [], u'time': []}, u'edge': {u'target': [], u'time': []}}, u'click': {u'state': {u'target': [u'3', u'13', u'12'], u'time': [2586, 11442, 12272]}, u'edge': {u'target': [], u'time': []}}, u'mouseout': {u'state': {u'target': [], u'time': []}, u'edge': {u'target': [], u'time': []}}}",,,"[8970, 437, 2984]",8.0,,1398090,15.0,6.0,mouselab-mdp,,1
"[2185, 2777, 3365]","[u'up', u'up', u'right']",,,[],[],,"[u'1', 3, 7, 13]",[],[],"{u'mouseover': {u'state': {u'target': [], u'time': []}, u'edge': {u'target': [], u'time': []}}, u'click': {u'state': {u'target': [u'3'], u'time': [800]}, u'edge': {u'target': [], u'time': []}}, u'mouseout': {u'state': {u'target': [], u'time': []}, u'edge': {u'target': [], u'time': []}}}",,,"[2185, 81, 68]",15.0,,1447623,16.0,15.0,mouselab-mdp,,1
"[42995, 81333, 83540]","[u'right', u'right', u'up']",,,"[13, 0, 0]","[True, True, True]",,"[u'1', 2, 6, 10]","[False, False, False]","[True, False, False]","{u'mouseover': {u'state': {u'target': [], u'time': []}, u'edge': {u'target': [], u'time': []}}, u'click': {u'state': {u'target': [u'12', u'13', u'14', u'15', u'4', u'8', u'10', u'2', u'6', u'17', u'9', u'5', u'16', u'11', u'7', u'3'], u'time': [3623, 4890, 6059, 7288, 8739, 10675, 15535, 18107, 19380, 22130, 24048, 25788, 27318, 29109, 32286, 33170]}, u'edge': {u'target': [], u'time': []}}, u'mouseout': {u'state': {u'target': [], u'time': []}, u'edge': {u'target': [], u'time': []}}}",,,"[42994, 1939, 1647]",-4.0,,292540,1.0,6.0,mouselab-mdp,,2
"[33064, 52766, 54527]","[u'left', u'left', u'up']",,,"[0, 0, 0]","[True, True, True]",,"[u'1', 4, 8, 14]","[False, False, False]","[True, False, False]","{u'mouseover': {u'state': {u'target': [], u'time': []}, u'edge': {u'target': [], u'time': []}}, u'click': {u'state': {u'target': [u'10', u'12', u'15', u'4', u'8', u'14', u'17', u'11', u'16', u'13'], u'time': [3555, 5419, 7164, 10012, 11357, 15344, 24137, 25991, 27357, 28710]}, u'edge': {u'target': [], u'time': []}}, u'mouseout': {u'state': {u'target': [], u'time': []}, u'edge': {u'target': [], u'time': []}}}",,,"[33063, 10, 882]",5.0,,369623,2.0,8.0,mouselab-mdp,,2
"[60184, 83275, 84388]","[u'down', u'down', u'right']",,,"[0, 0, 0]","[True, True, True]",,"[u'1', 5, 9, 17]","[False, False, False]","[True, False, False]","{u'mouseover': {u'state': {u'target': [], u'time': []}, u'edge': {u'target': [], u'time': []}}, u'click': {u'state': {u'target': [u'3', u'2', u'5', u'4', u'7', u'13', u'12', u'9', u'17', u'16', u'15', u'8', u'14', u'6', u'10', u'11'], u'time': [6313, 7505, 8393, 13371, 14800, 15908, 17005, 22542, 23579, 24845, 37620, 39420, 41245, 44558, 45646, 50087]}, u'edge': {u'target': [], u'time': []}}, u'mouseout': {u'state': {u'target': [], u'time': []}, u'edge': {u'target': [], u'time': []}}}",,,"[60184, 8, 592]",1.0,,466372,3.0,15.0,mouselab-mdp,,2
"[62217, 82697, 85049]","[u'right', u'right', u'down']",,,"[0, 0, 0]","[True, True, True]",,"[u'1', 2, 6, 11]","[False, False, False]","[True, False, False]","{u'mouseover': {u'state': {u'target': [], u'time': []}, u'edge': {u'target': [], u'time': []}}, u'click': {u'state': {u'target': [u'2', u'3', u'4', u'8', u'14', u'15', u'5', u'9', u'17', u'16', u'6', u'7', u'13', u'10', u'11'], u'time': [7954, 10153, 11302, 12584, 13730, 14820, 16132, 17366, 18340, 19299, 49941, 51297, 53120, 54702, 60110]}, u'edge': {u'target': [], u'time': []}}, u'mouseout': {u'state': {u'target': [], u'time': []}, u'edge': {u'target': [], u'time': []}}}",,,"[62215, 15, 1573]",2.0,,563001,4.0,7.0,mouselab-mdp,,2
"[54917, 87769, 89719]","[u'down', u'down', u'left']",,,"[13, 0, 0]","[True, True, True]",,"[u'1', 5, 9, 16]","[False, False, False]","[True, False, False]","{u'mouseover': {u'state': {u'target': [], u'time': []}, u'edge': {u'target': [], u'time': []}}, u'click': {u'state': {u'target': [u'11', u'10', u'13', u'12', u'14', u'15', u'16', u'17', u'6', u'2', u'5', u'9', u'4', u'3', u'7', u'8'], u'time': [7332, 8409, 9340, 10602, 11308, 12087, 12867, 13524, 15585, 17613, 25583, 27628, 34062, 35416, 36967, 47946]}, u'edge': {u'target': [], u'time': []}}, u'mouseout': {u'state': {u'target': [], u'time': []}, u'edge': {u'target': [], u'time': []}}}",,,"[54916, 1203, 1422]",0.0,,657577,5.0,4.0,mouselab-mdp,,2
"[16184, 36755, 39832]","[u'down', u'down', u'right']",,,"[0, 0, 0]","[True, True, True]",,"[u'1', 5, 9, 17]","[False, False, False]","[True, False, False]","{u'mouseover': {u'state': {u'target': [], u'time': []}, u'edge': {u'target': [], u'time': []}}, u'click': {u'state': {u'target': [u'16', u'17', u'11', u'10', u'13', u'12', u'14', u'15'], u'time': [3043, 4275, 7448, 8470, 9559, 10533, 11397, 12268]}, u'edge': {u'target': [], u'time': []}}, u'mouseout': {u'state': {u'target': [], u'time': []}, u'edge': {u'target': [], u'time': []}}}",,,"[16184, 15, 2170]",6.0,,727480,6.0,12.0,mouselab-mdp,,2
"[16375, 44565, 48704]","[u'down', u'down', u'left']",,,"[2, 0, 0]","[True, True, True]",,"[u'1', 5, 9, 16]","[False, False, False]","[True, False, False]","{u'mouseover': {u'state': {u'target': [], u'time': []}, u'edge': {u'target': [], u'time': []}}, u'click': {u'state': {u'target': [u'13', u'11', u'16', u'14', u'17'], u'time': [2615, 4482, 5661, 7180, 10284]}, u'edge': {u'target': [], u'time': []}}, u'mouseout': {u'state': {u'target': [], u'time': []}, u'edge': {u'target': [], u'time': []}}}",,,"[16374, 2725, 2942]",10.0,,802357,7.0,2.0,mouselab-mdp,,2
"[2796, 27610, 39460]","[u'down', u'down', u'left']",,,"[0, 0, 0]","[True, True, True]",,"[u'1', 5, 9, 16]","[False, False, False]","[False, False, True]","{u'mouseover': {u'state': {u'target': [], u'time': []}, u'edge': {u'target': [], u'time': []}}, u'click': {u'state': {u'target': [u'17', u'16'], u'time': [35715, 37107]}, u'edge': {u'target': [], u'time': []}}, u'mouseout': {u'state': {u'target': [], u'time': []}, u'edge': {u'target': [], u'time': []}}}",,,"[2796, 1088, 10497]",14.0,,881384,8.0,1.0,mouselab-mdp,,2
"[21356, 43442, 47896]","[u'down', u'down', u'left']",,,"[0, 0, 0]","[False, True, True]",,"[u'1', 5, 9, 16]","[False, False, False]","[True, False, False]","{u'mouseover': {u'state': {u'target': [], u'time': []}, u'edge': {u'target': [], u'time': []}}, u'click': {u'state': {u'target': [u'5', u'16', u'17', u'9'], u'time': [5149, 9208, 11540, 14166]}, u'edge': {u'target': [], u'time': []}}, u'mouseout': {u'state': {u'target': [], u'time': []}, u'edge': {u'target': [], u'time': []}}}",,,"[21355, 1393, 3400]",8.0,,952618,9.0,5.0,mouselab-mdp,,2
"[1489, 26944, 69167]","[u'down', u'down', u'left']",,,"[0, 0, 0]","[True, True, True]",,"[u'1', 5, 9, 16]","[False, False, False]","[False, False, True]","{u'mouseover': {u'state': {u'target': [], u'time': []}, u'edge': {u'target': [], u'time': []}}, u'click': {u'state': {u'target': [u'17', u'16'], u'time': [32525, 33420]}, u'edge': {u'target': [], u'time': []}}, u'mouseout': {u'state': {u'target': [], u'time': []}, u'edge': {u'target': [], u'time': []}}}",,,"[1487, 1855, 40896]",8.0,,1030243,10.0,9.0,mouselab-mdp,,2
"[1887, 3039, 4607]","[u'down', u'down', u'left']",,,[],[],,"[u'1', 5, 9, 16]",[],[],"{u'mouseover': {u'state': {u'target': [], u'time': []}, u'edge': {u'target': [], u'time': []}}, u'click': {u'state': {u'target': [], u'time': []}, u'edge': {u'target': [], u'time': []}}, u'mouseout': {u'state': {u'target': [], u'time': []}, u'edge': {u'target': [], u'time': []}}}",,,"[1887, 644, 1058]",7.0,,1090018,11.0,14.0,mouselab-mdp,,2
"[1832, 2657, 3830]","[u'down', u'down', u'left']",,,[],[],,"[u'1', 5, 9, 16]",[],[],"{u'mouseover': {u'state': {u'target': [], u'time': []}, u'edge': {u'target': [], u'time': []}}, u'click': {u'state': {u'target': [], u'time': []}, u'edge': {u'target': [], u'time': []}}, u'mouseout': {u'state': {u'target': [], u'time': []}, u'edge': {u'target': [], u'time': []}}}",,,"[1832, 300, 653]",15.0,,1137806,12.0,3.0,mouselab-mdp,,2
"[1207, 2371, 3783]","[u'down', u'down', u'left']",,,[],[],,"[u'1', 5, 9, 16]",[],[],"{u'mouseover': {u'state': {u'target': [], u'time': []}, u'edge': {u'target': [], u'time': []}}, u'click': {u'state': {u'target': [], u'time': []}, u'edge': {u'target': [], u'time': []}}, u'mouseout': {u'state': {u'target': [], u'time': []}, u'edge': {u'target': [], u'time': []}}}",,,"[1207, 643, 899]",13.0,,1187533,13.0,13.0,mouselab-mdp,,2
"[1780, 2953, 4092]","[u'down', u'down', u'left']",,,[],[],,"[u'1', 5, 9, 16]",[],[],"{u'mouseover': {u'state': {u'target': [], u'time': []}, u'edge': {u'target': [], u'time': []}}, u'click': {u'state': {u'target': [], u'time': []}, u'edge': {u'target': [], u'time': []}}, u'mouseout': {u'state': {u'target': [], u'time': []}, u'edge': {u'target': [], u'time': []}}}",,,"[1780, 657, 627]",6.0,,1235241,14.0,10.0,mouselab-mdp,,2
"[1215, 2438, 3794]","[u'down', u'down', u'left']",,,[],[],,"[u'1', 5, 9, 16]",[],[],"{u'mouseover': {u'state': {u'target': [], u'time': []}, u'edge': {u'target': [], u'time': []}}, u'click': {u'state': {u'target': [], u'time': []}, u'edge': {u'target': [], u'time': []}}, u'mouseout': {u'state': {u'target': [], u'time': []}, u'edge': {u'target': [], u'time': []}}}",,,"[1215, 708, 842]",13.0,,1283056,15.0,0.0,mouselab-mdp,,2
"[1469, 2646, 6435]","[u'down', u'down', u'left']",,,[],[],,"[u'1', 5, 9, 16]",[],[],"{u'mouseover': {u'state': {u'target': [], u'time': []}, u'edge': {u'target': [], u'time': []}}, u'click': {u'state': {u'target': [], u'time': []}, u'edge': {u'target': [], u'time': []}}, u'mouseout': {u'state': {u'target': [], u'time': []}, u'edge': {u'target': [], u'time': []}}}",,,"[1469, 667, 3266]",15.0,,1334679,16.0,11.0,mouselab-mdp,,2
"[4096, 10937, 16917]","[u'left', u'left', u'down']",,,"[0, 0, 0]","[True, True, True]",,"[u'1', 4, 8, 15]","[False, False, False]","[False, False, False]","{u'mouseover': {u'state': {u'target': [], u'time': []}, u'edge': {u'target': [], u'time': []}}, u'click': {u'state': {u'target': [], u'time': []}, u'edge': {u'target': [], u'time': []}}, u'mouseout': {u'state': {u'target': [], u'time': []}, u'edge': {u'target': [], u'time': []}}}",,,"[4095, 2, 5274]",16.0,,220966,1.0,1.0,mouselab-mdp,,3
"[3880, 18054, 32629]","[u'left', u'left', u'down']",,,"[0, 0, 1]","[True, True, False]",,"[u'1', 4, 8, 15]","[False, False, False]","[False, False, True]","{u'mouseover': {u'state': {u'target': [], u'time': []}, u'edge': {u'target': [], u'time': []}}, u'click': {u'state': {u'target': [u'15'], u'time': [29774]}, u'edge': {u'target': [], u'time': []}}, u'mouseout': {u'state': {u'target': [], u'time': []}, u'edge': {u'target': [], u'time': []}}}",,,"[3880, 7398, 13895]",4.0,,278857,2.0,10.0,mouselab-mdp,,3
"[8293, 14962, 20358]","[u'right', u'right', u'down']",,,"[0, 0, 0]","[True, True, True]",,"[u'1', 2, 6, 11]","[False, False, False]","[True, False, True]","{u'mouseover': {u'state': {u'target': [], u'time': []}, u'edge': {u'target': [], u'time': []}}, u'click': {u'state': {u'target': [u'12', u'11'], u'time': [6158, 19379]}, u'edge': {u'target': [], u'time': []}}, u'mouseout': {u'state': {u'target': [], u'time': []}, u'edge': {u'target': [], u'time': []}}}",,,"[8293, 1, 4715]",13.0,,335643,3.0,8.0,mouselab-mdp,,3
"[3314, 10125, 16757]","[u'down', u'down', u'left']",,,"[0, 0, 0]","[True, True, True]",,"[u'1', 5, 9, 16]","[False, False, False]","[False, False, False]","{u'mouseover': {u'state': {u'target': [], u'time': []}, u'edge': {u'target': [], u'time': []}}, u'click': {u'state': {u'target': [], u'time': []}, u'edge': {u'target': [], u'time': []}}, u'mouseout': {u'state': {u'target': [], u'time': []}, u'edge': {u'target': [], u'time': []}}}",,,"[3314, 2, 5946]",10.0,,391171,4.0,9.0,mouselab-mdp,,3
"[29602, 36368, 39800]","[u'left', u'left', u'up']",,,"[0, 0, 0]","[True, True, True]",,"[u'1', 4, 8, 14]","[False, False, False]","[False, False, True]","{u'mouseover': {u'state': {u'target': [], u'time': []}, u'edge': {u'target': [], u'time': []}}, u'click': {u'state': {u'target': [u'15'], u'time': [38681]}, u'edge': {u'target': [], u'time': []}}, u'mouseout': {u'state': {u'target': [], u'time': []}, u'edge': {u'target': [], u'time': []}}}",,,"[29601, 2, 2753]",6.0,,445353,5.0,14.0,mouselab-mdp,,3
"[2458, 9400, 13208]","[u'left', u'left', u'up']",,,"[0, 0, 1]","[True, True, True]",,"[u'1', 4, 8, 14]","[False, False, False]","[False, False, True]","{u'mouseover': {u'state': {u'target': [], u'time': []}, u'edge': {u'target': [], u'time': []}}, u'click': {u'state': {u'target': [u'14'], u'time': [11840]}, u'edge': {u'target': [], u'time': []}}, u'mouseout': {u'state': {u'target': [], u'time': []}, u'edge': {u'target': [], u'time': []}}}",,,"[2458, 2, 3127]",13.0,,500617,6.0,13.0,mouselab-mdp,,3
"[2767, 9719, 16261]","[u'up', u'up', u'left']",,,"[0, 0, 0]","[True, True, True]",,"[u'1', 3, 7, 12]","[False, False, False]","[False, False, True]","{u'mouseover': {u'state': {u'target': [], u'time': []}, u'edge': {u'target': [], u'time': []}}, u'click': {u'state': {u'target': [u'12'], u'time': [12342]}, u'edge': {u'target': [], u'time': []}}, u'mouseout': {u'state': {u'target': [], u'time': []}, u'edge': {u'target': [], u'time': []}}}",,,"[2767, 1, 5857]",13.0,,573578,7.0,2.0,mouselab-mdp,,3
"[441, 7103, 11739]","[u'right', u'right', u'up']",,,"[0, 0, 1]","[True, True, True]",,"[u'1', 2, 6, 10]","[False, False, False]","[False, False, True]","{u'mouseover': {u'state': {u'target': [], u'time': []}, u'edge': {u'target': [], u'time': []}}, u'click': {u'state': {u'target': [u'10'], u'time': [10114]}, u'edge': {u'target': [], u'time': []}}, u'mouseout': {u'state': {u'target': [], u'time': []}, u'edge': {u'target': [], u'time': []}}}",,,"[441, 2, 3951]",14.0,,631398,8.0,4.0,mouselab-mdp,,3
"[9278, 16870, 37768]","[u'down', u'down', u'left']",,,"[0, 0, 1]","[True, True, False]",,"[u'1', 5, 9, 16]","[False, False, False]","[False, False, True]","{u'mouseover': {u'state': {u'target': [], u'time': []}, u'edge': {u'target': [], u'time': []}}, u'click': {u'state': {u'target': [u'16'], u'time': [22398]}, u'edge': {u'target': [], u'time': []}}, u'mouseout': {u'state': {u'target': [], u'time': []}, u'edge': {u'target': [], u'time': []}}}",,,"[9278, 944, 20224]",12.0,,685643,9.0,0.0,mouselab-mdp,,3
"[12625, 20425, 31985]","[u'left', u'left', u'up']",,,"[0, 0, 1]","[True, True, True]",,"[u'1', 4, 8, 14]","[False, False, False]","[False, False, True]","{u'mouseover': {u'state': {u'target': [], u'time': []}, u'edge': {u'target': [], u'time': []}}, u'click': {u'state': {u'target': [u'14'], u'time': [26013]}, u'edge': {u'target': [], u'time': []}}, u'mouseout': {u'state': {u'target': [], u'time': []}, u'edge': {u'target': [], u'time': []}}}",,,"[12625, 967, 10882]",14.0,,741776,10.0,11.0,mouselab-mdp,,3
"[4457, 7345, 10920]","[u'up', u'up', u'left']",,,[],[],,"[u'1', 3, 7, 12]",[],[],"{u'mouseover': {u'state': {u'target': [], u'time': []}, u'edge': {u'target': [], u'time': []}}, u'click': {u'state': {u'target': [u'12'], u'time': [9706]}, u'edge': {u'target': [], u'time': []}}, u'mouseout': {u'state': {u'target': [], u'time': []}, u'edge': {u'target': [], u'time': []}}}",,,"[4457, 2377, 3084]",14.0,,794789,11.0,7.0,mouselab-mdp,,3
"[9263, 25385, 33632]","[u'right', u'right', u'up']",,,[],[],,"[u'1', 2, 6, 10]",[],[],"{u'mouseover': {u'state': {u'target': [], u'time': []}, u'edge': {u'target': [], u'time': []}}, u'click': {u'state': {u'target': [u'10', u'11'], u'time': [28197, 31685]}, u'edge': {u'target': [], u'time': []}}, u'mouseout': {u'state': {u'target': [], u'time': []}, u'edge': {u'target': [], u'time': []}}}",,,"[9263, 15624, 7754]",10.0,,842435,12.0,6.0,mouselab-mdp,,3
"[4751, 7391, 12475]","[u'down', u'down', u'right']",,,[],[],,"[u'1', 5, 9, 17]",[],[],"{u'mouseover': {u'state': {u'target': [], u'time': []}, u'edge': {u'target': [], u'time': []}}, u'click': {u'state': {u'target': [u'16', u'17'], u'time': [9286, 9855]}, u'edge': {u'target': [], u'time': []}}, u'mouseout': {u'state': {u'target': [], u'time': []}, u'edge': {u'target': [], u'time': []}}}",,,"[4751, 2149, 4583]",15.0,,892138,13.0,15.0,mouselab-mdp,,3
"[733, 1720, 6926]","[u'left', u'left', u'up']",,,[],[],,"[u'1', 4, 8, 14]",[],[],"{u'mouseover': {u'state': {u'target': [], u'time': []}, u'edge': {u'target': [], u'time': []}}, u'click': {u'state': {u'target': [u'14', u'15'], u'time': [3092, 4372]}, u'edge': {u'target': [], u'time': []}}, u'mouseout': {u'state': {u'target': [], u'time': []}, u'edge': {u'target': [], u'time': []}}}",,,"[733, 486, 4709]",13.0,,940505,14.0,3.0,mouselab-mdp,,3
"[421, 1346, 5752]","[u'up', u'up', u'right']",,,[],[],,"[u'1', 3, 7, 13]",[],[],"{u'mouseover': {u'state': {u'target': [], u'time': []}, u'edge': {u'target': [], u'time': []}}, u'click': {u'state': {u'target': [u'12', u'13'], u'time': [2731, 4041]}, u'edge': {u'target': [], u'time': []}}, u'mouseout': {u'state': {u'target': [], u'time': []}, u'edge': {u'target': [], u'time': []}}}",,,"[421, 414, 3920]",10.0,,987920,15.0,5.0,mouselab-mdp,,3
"[2575, 3781, 7572]","[u'right', u'right', u'up']",,,[],[],,"[u'1', 2, 6, 10]",[],[],"{u'mouseover': {u'state': {u'target': [], u'time': []}, u'edge': {u'target': [], u'time': []}}, u'click': {u'state': {u'target': [u'2', u'10', u'11'], u'time': [782, 5060, 5666]}, u'edge': {u'target': [], u'time': []}}, u'mouseout': {u'state': {u'target': [], u'time': []}, u'edge': {u'target': [], u'time': []}}}",,,"[2575, 714, 3305]",11.0,,1036097,16.0,12.0,mouselab-mdp,,3
"[5329, 25766, 35551]","[u'right', u'right', u'up']",,,"[0, 5, 1]","[True, True, True]",,"[u'1', 2, 6, 10]","[False, False, False]","[False, True, True]","{u'mouseover': {u'state': {u'target': [], u'time': []}, u'edge': {u'target': [], u'time': []}}, u'click': {u'state': {u'target': [u'6', u'10', u'2'], u'time': [25751, 25794, 33751]}, u'edge': {u'target': [], u'time': []}}, u'mouseout': {u'state': {u'target': [], u'time': []}, u'edge': {u'target': [], u'time': []}}}",,,"[5327, 37, 1942]",3.0,,365644,1.0,10.0,mouselab-mdp,,4
"[11622, 38408, 46621]","[u'left', u'left', u'down']",,,"[2, 1, 0]","[False, True, True]",,"[u'1', 4, 8, 15]","[True, False, False]","[True, True, True]","{u'mouseover': {u'state': {u'target': [], u'time': []}, u'edge': {u'target': [], u'time': []}}, u'click': {u'state': {u'target': [u'2', u'4', u'6', u'8', u'14', u'15'], u'time': [2971, 5341, 7337, 9528, 43489, 44843]}, u'edge': {u'target': [], u'time': []}}, u'mouseout': {u'state': {u'target': [], u'time': []}, u'edge': {u'target': [], u'time': []}}}",,,"[11622, 2286, 5732]",9.0,,444875,2.0,4.0,mouselab-mdp,,4
"[9690, 42748, 49311]","[u'right', u'right', u'up']",,,"[2, 3, 0]","[True, True, True]",,"[u'1', 2, 6, 10]","[False, False, False]","[True, True, False]","{u'mouseover': {u'state': {u'target': [], u'time': []}, u'edge': {u'target': [], u'time': []}}, u'click': {u'state': {u'target': [u'3', u'4', u'5', u'2', u'6', u'10', u'11'], u'time': [2983, 4065, 5375, 6757, 38062, 39332, 40684]}, u'edge': {u'target': [], u'time': []}}, u'mouseout': {u'state': {u'target': [], u'time': []}, u'edge': {u'target': [], u'time': []}}}",,,"[9690, 8200, 1487]",7.0,,530862,3.0,13.0,mouselab-mdp,,4
"[21045, 49306, 56793]","[u'down', u'down', u'right']",,,"[3, 0, 1]","[True, True, True]",,"[u'1', 5, 9, 17]","[False, False, False]","[True, False, True]","{u'mouseover': {u'state': {u'target': [], u'time': []}, u'edge': {u'target': [], u'time': []}}, u'click': {u'state': {u'target': [u'4', u'2', u'5', u'3', u'8', u'6', u'9', u'16', u'17'], u'time': [2828, 4241, 5520, 6672, 13431, 14707, 18098, 51550, 52864]}, u'edge': {u'target': [], u'time': []}}, u'mouseout': {u'state': {u'target': [], u'time': []}, u'edge': {u'target': [], u'time': []}}}",,,"[21045, 1553, 6332]",6.0,,611736,4.0,3.0,mouselab-mdp,,4
"[38231, 74186, 75546]","[u'right', u'right', u'down']",,,"[12, 0, 0]","[True, True, True]",,"[u'1', 2, 6, 11]","[False, False, False]","[True, False, False]","{u'mouseover': {u'state': {u'target': [], u'time': []}, u'edge': {u'target': [], u'time': []}}, u'click': {u'state': {u'target': [u'3', u'2', u'5', u'4', u'8', u'6', u'14', u'15', u'10', u'11', u'7', u'9', u'16', u'17', u'13', u'12'], u'time': [3425, 4592, 5805, 7208, 10076, 11248, 12447, 13335, 14310, 15210, 17819, 18900, 19692, 20541, 21543, 22505]}, u'edge': {u'target': [], u'time': []}}, u'mouseout': {u'state': {u'target': [], u'time': []}, u'edge': {u'target': [], u'time': []}}}",,,"[38231, 3076, 853]",-6.0,,695936,5.0,9.0,mouselab-mdp,,4
"[8513, 42758, 49622]","[u'right', u'right', u'down']",,,"[4, 3, 0]","[False, True, True]",,"[u'1', 2, 6, 11]","[False, False, False]","[True, True, False]","{u'mouseover': {u'state': {u'target': [], u'time': []}, u'edge': {u'target': [], u'time': []}}, u'click': {u'state': {u'target': [u'2', u'4', u'5', u'3', u'10', u'11', u'6'], u'time': [1767, 3507, 4784, 5690, 36841, 37775, 41170]}, u'edge': {u'target': [], u'time': []}}, u'mouseout': {u'state': {u'target': [], u'time': []}, u'edge': {u'target': [], u'time': []}}}",,,"[8513, 8184, 1917]",9.0,,778778,6.0,1.0,mouselab-mdp,,4
"[8764, 39710, 46105]","[u'right', u'right', u'down']",,,"[2, 3, 0]","[False, True, True]",,"[u'1', 2, 6, 11]","[False, False, False]","[True, True, False]","{u'mouseover': {u'state': {u'target': [], u'time': []}, u'edge': {u'target': [], u'time': []}}, u'click': {u'state': {u'target': [u'2', u'4', u'5', u'3', u'10', u'11', u'6'], u'time': [2203, 3422, 4495, 5513, 35694, 36737, 38204]}, u'edge': {u'target': [], u'time': []}}, u'mouseout': {u'state': {u'target': [], u'time': []}, u'edge': {u'target': [], u'time': []}}}",,,"[8764, 7133, 1373]",8.0,,860290,7.0,8.0,mouselab-mdp,,4
"[6545, 32563, 37234]","[u'up', u'up', u'left']",,,"[1, 0, 0]","[True, True, True]",,"[u'1', 3, 7, 12]","[True, False, False]","[True, False, True]","{u'mouseover': {u'state': {u'target': [], u'time': []}, u'edge': {u'target': [], u'time': []}}, u'click': {u'state': {u'target': [u'5', u'3', u'13', u'12'], u'time': [2968, 5030, 34897, 35926]}, u'edge': {u'target': [], u'time': []}}, u'mouseout': {u'state': {u'target': [], u'time': []}, u'edge': {u'target': [], u'time': []}}}",,,"[6545, 4023, 3591]",7.0,,935471,8.0,6.0,mouselab-mdp,,4
"[9234, 34368, 40166]","[u'right', u'right', u'up']",,,"[2, 0, 0]","[False, True, True]",,"[u'1', 2, 6, 10]","[False, False, False]","[True, False, True]","{u'mouseover': {u'state': {u'target': [], u'time': []}, u'edge': {u'target': [], u'time': []}}, u'click': {u'state': {u'target': [u'2', u'6', u'4', u'8', u'10', u'11'], u'time': [2947, 3885, 5677, 6464, 37121, 38346]}, u'edge': {u'target': [], u'time': []}}, u'mouseout': {u'state': {u'target': [], u'time': []}, u'edge': {u'target': [], u'time': []}}}",,,"[9234, 1644, 4695]",6.0,,1011409,9.0,0.0,mouselab-mdp,,4
"[5404, 31015, 39074]","[u'left', u'left', u'up']",,,"[0, 4, 0]","[True, True, True]",,"[u'1', 4, 8, 14]","[False, False, False]","[False, True, False]","{u'mouseover': {u'state': {u'target': [], u'time': []}, u'edge': {u'target': [], u'time': []}}, u'click': {u'state': {u'target': [u'8', u'2', u'14', u'15'], u'time': [25749, 25768, 28393, 29426]}, u'edge': {u'target': [], u'time': []}}, u'mouseout': {u'state': {u'target': [], u'time': []}, u'edge': {u'target': [], u'time': []}}}",,,"[5404, 5283, 1758]",11.0,,1086781,10.0,2.0,mouselab-mdp,,4
"[17487, 20470, 26231]","[u'left', u'left', u'up']",,,[],[],,"[u'1', 4, 8, 14]",[],[],"{u'mouseover': {u'state': {u'target': [], u'time': []}, u'edge': {u'target': [], u'time': []}}, u'click': {u'state': {u'target': [u'3', u'2', u'5', u'4', u'8', u'6', u'14', u'15'], u'time': [3616, 4711, 5680, 6680, 11857, 12774, 23263, 24321]}, u'edge': {u'target': [], u'time': []}}, u'mouseout': {u'state': {u'target': [], u'time': []}, u'edge': {u'target': [], u'time': []}}}",,,"[17487, 2485, 5257]",8.0,,1149236,11.0,15.0,mouselab-mdp,,4
"[6010, 9299, 15202]","[u'left', u'left', u'up']",,,[],[],,"[u'1', 4, 8, 14]",[],[],"{u'mouseover': {u'state': {u'target': [], u'time': []}, u'edge': {u'target': [], u'time': []}}, u'click': {u'state': {u'target': [u'4', u'3', u'14', u'15'], u'time': [2140, 4341, 12651, 13591]}, u'edge': {u'target': [], u'time': []}}, u'mouseout': {u'state': {u'target': [], u'time': []}, u'edge': {u'target': [], u'time': []}}}",,,"[6010, 2791, 5402]",3.0,,1198119,12.0,14.0,mouselab-mdp,,4
"[7457, 9144, 14231]","[u'right', u'right', u'down']",,,[],[],,"[u'1', 2, 6, 11]",[],[],"{u'mouseover': {u'state': {u'target': [], u'time': []}, u'edge': {u'target': [], u'time': []}}, u'click': {u'state': {u'target': [u'2', u'4', u'3', u'5', u'10', u'11'], u'time': [1012, 2128, 3011, 4037, 11654, 12627]}, u'edge': {u'target': [], u'time': []}}, u'mouseout': {u'state': {u'target': [], u'time': []}, u'edge': {u'target': [], u'time': []}}}",,,"[7456, 1186, 4589]",11.0,,1247021,13.0,7.0,mouselab-mdp,,4
"[8242, 9402, 16001]","[u'left', u'left', u'up']",,,[],[],,"[u'1', 4, 8, 14]",[],[],"{u'mouseover': {u'state': {u'target': [], u'time': []}, u'edge': {u'target': [], u'time': []}}, u'click': {u'state': {u'target': [u'2', u'4', u'3', u'5', u'14', u'15'], u'time': [1997, 3043, 4037, 5153, 13626, 14553]}, u'edge': {u'target': [], u'time': []}}, u'mouseout': {u'state': {u'target': [], u'time': []}, u'edge': {u'target': [], u'time': []}}}",,,"[8242, 661, 6103]",8.0,,1295735,14.0,12.0,mouselab-mdp,,4
"[8502, 10125, 11430]","[u'up', u'up', u'right']",,,[],[],,"[u'1', 3, 7, 13]",[],[],"{u'mouseover': {u'state': {u'target': [], u'time': []}, u'edge': {u'target': [], u'time': []}}, u'click': {u'state': {u'target': [u'3', u'2', u'5', u'4'], u'time': [1515, 2378, 3228, 4232]}, u'edge': {u'target': [], u'time': []}}, u'mouseout': {u'state': {u'target': [], u'time': []}, u'edge': {u'target': [], u'time': []}}}",,,"[8502, 1117, 802]",11.0,,1344425,15.0,11.0,mouselab-mdp,,4
"[11079, 12558, 14053]","[u'left', u'left', u'up']",,,[],[],,"[u'1', 4, 8, 14]",[],[],"{u'mouseover': {u'state': {u'target': [], u'time': []}, u'edge': {u'target': [], u'time': []}}, u'click': {u'state': {u'target': [u'3', u'5', u'2', u'4'], u'time': [2052, 3702, 4620, 5600]}, u'edge': {u'target': [], u'time': []}}, u'mouseout': {u'state': {u'target': [], u'time': []}, u'edge': {u'target': [], u'time': []}}}",,,"[11077, 980, 988]",7.0,,1393542,16.0,5.0,mouselab-mdp,,4
"[16165, 25442, 28731]","[u'down', u'down', u'left']",,,"[1, 0, 0]","[True, True, True]",,"[u'1', 5, 9, 16]","[True, False, False]","[True, False, False]","{u'mouseover': {u'state': {u'target': [], u'time': []}, u'edge': {u'target': [], u'time': []}}, u'click': {u'state': {u'target': [u'2'], u'time': [10506]}, u'edge': {u'target': [], u'time': []}}, u'mouseout': {u'state': {u'target': [], u'time': []}, u'edge': {u'target': [], u'time': []}}}",,,"[16163, 1440, 2543]",15.0,,251333,1.0,4.0,mouselab-mdp,,5
"[3310, 14518, 68038]","[u'left', u'left', u'up']",,,"[0, 4, 0]","[True, True, True]",,"[u'1', 4, 8, 14]","[False, False, False]","[False, True, False]","{u'mouseover': {u'state': {u'target': [], u'time': []}, u'edge': {u'target': [], u'time': []}}, u'click': {u'state': {u'target': [u'14', u'8', u'2'], u'time': [10039, 10046, 10213]}, u'edge': {u'target': [], u'time': []}}, u'mouseout': {u'state': {u'target': [], u'time': []}, u'edge': {u'target': [], u'time': []}}}",,,"[3310, 4485, 48299]",8.0,,325347,2.0,6.0,mouselab-mdp,,5
"[2922, 9609, 16308]","[u'up', u'up', u'right']",,,"[0, 0, 2]","[True, True, False]",,"[u'1', 3, 7, 13]","[False, False, False]","[False, False, True]","{u'mouseover': {u'state': {u'target': [], u'time': []}, u'edge': {u'target': [], u'time': []}}, u'click': {u'state': {u'target': [u'13'], u'time': [14403]}, u'edge': {u'target': [], u'time': []}}, u'mouseout': {u'state': {u'target': [], u'time': []}, u'edge': {u'target': [], u'time': []}}}",,,"[2922, 2, 5927]",9.0,,387539,3.0,9.0,mouselab-mdp,,5
"[12319, 44821, 127855]","[u'down', u'down', u'left']",,,"[0, 3, 1]","[True, True, False]",,"[u'1', 5, 9, 16]","[False, False, False]","[False, True, True]","{u'mouseover': {u'state': {u'target': [], u'time': []}, u'edge': {u'target': [], u'time': []}}, u'click': {u'state': {u'target': [u'17', u'16', u'3', u'5'], u'time': [20003, 27116, 31249, 115222]}, u'edge': {u'target': [], u'time': []}}, u'mouseout': {u'state': {u'target': [], u'time': []}, u'edge': {u'target': [], u'time': []}}}",,,"[12319, 25815, 78968]",11.0,,529599,4.0,11.0,mouselab-mdp,,5
"[4382, 14646, 21815]","[u'down', u'down', u'right']",,,"[0, 3, 0]","[True, True, True]",,"[u'1', 5, 9, 17]","[False, False, False]","[False, True, False]","{u'mouseover': {u'state': {u'target': [], u'time': []}, u'edge': {u'target': [], u'time': []}}, u'click': {u'state': {u'target': [u'3', u'9'], u'time': [10914, 13200]}, u'edge': {u'target': [], u'time': []}}, u'mouseout': {u'state': {u'target': [], u'time': []}, u'edge': {u'target': [], u'time': []}}}",,,"[4382, 3738, 3082]",13.0,,589257,5.0,8.0,mouselab-mdp,,5
"[2770, 9214, 13465]","[u'right', u'right', u'down']",,,"[0, 0, 0]","[True, True, True]",,"[u'1', 2, 6, 11]","[False, False, False]","[False, False, False]","{u'mouseover': {u'state': {u'target': [], u'time': []}, u'edge': {u'target': [], u'time': []}}, u'click': {u'state': {u'target': [], u'time': []}, u'edge': {u'target': [], u'time': []}}, u'mouseout': {u'state': {u'target': [], u'time': []}, u'edge': {u'target': [], u'time': []}}}",,,"[2770, 1, 3455]",14.0,,643409,6.0,3.0,mouselab-mdp,,5
"[6272, 28105, 33567]","[u'left', u'left', u'up']",,,"[0, 0, 0]","[True, True, True]",,"[u'1', 4, 8, 14]","[False, False, False]","[False, False, False]","{u'mouseover': {u'state': {u'target': [], u'time': []}, u'edge': {u'target': [], u'time': []}}, u'click': {u'state': {u'target': [], u'time': []}, u'edge': {u'target': [], u'time': []}}, u'mouseout': {u'state': {u'target': [], u'time': []}, u'edge': {u'target': [], u'time': []}}}",,,"[6272, 15050, 4744]",14.0,,722207,7.0,13.0,mouselab-mdp,,5
"[18877, 25490, 32407]","[u'left', u'left', u'up']",,,"[0, 0, 0]","[True, True, True]",,"[u'1', 4, 8, 14]","[False, False, False]","[False, False, False]","{u'mouseover': {u'state': {u'target': [], u'time': []}, u'edge': {u'target': [], u'time': []}}, u'click': {u'state': {u'target': [], u'time': []}, u'edge': {u'target': [], u'time': []}}, u'mouseout': {u'state': {u'target': [], u'time': []}, u'edge': {u'target': [], u'time': []}}}",,,"[18877, 2, 6120]",11.0,,778328,8.0,5.0,mouselab-mdp,,5
"[1819, 8383, 58884]","[u'left', u'left', u'down']",,,"[0, 0, 0]","[True, True, True]",,"[u'1', 4, 8, 15]","[False, False, False]","[False, False, False]","{u'mouseover': {u'state': {u'target': [], u'time': []}, u'edge': {u'target': [], u'time': []}}, u'click': {u'state': {u'target': [], u'time': []}, u'edge': {u'target': [], u'time': []}}, u'mouseout': {u'state': {u'target': [], u'time': []}, u'edge': {u'target': [], u'time': []}}}",,,"[1819, 2, 49686]",14.0,,843610,9.0,12.0,mouselab-mdp,,5
"[12160, 18711, 30312]","[u'down', u'down', u'left']",,,"[0, 0, 0]","[True, True, True]",,"[u'1', 5, 9, 16]","[False, False, False]","[False, False, False]","{u'mouseover': {u'state': {u'target': [], u'time': []}, u'edge': {u'target': [], u'time': []}}, u'click': {u'state': {u'target': [], u'time': []}, u'edge': {u'target': [], u'time': []}}, u'mouseout': {u'state': {u'target': [], u'time': []}, u'edge': {u'target': [], u'time': []}}}",,,"[12160, 34, 10902]",7.0,,902245,10.0,14.0,mouselab-mdp,,5
"[1774, 3085, 11469]","[u'left', u'left', u'up']",,,[],[],,"[u'1', 4, 8, 14]",[],[],"{u'mouseover': {u'state': {u'target': [], u'time': []}, u'edge': {u'target': [], u'time': []}}, u'click': {u'state': {u'target': [], u'time': []}, u'edge': {u'target': [], u'time': []}}, u'mouseout': {u'state': {u'target': [], u'time': []}, u'edge': {u'target': [], u'time': []}}}",,,"[1774, 815, 7883]",16.0,,960119,11.0,7.0,mouselab-mdp,,5
"[1517, 2814, 5582]","[u'left', u'left', u'down']",,,[],[],,"[u'1', 4, 8, 15]",[],[],"{u'mouseover': {u'state': {u'target': [], u'time': []}, u'edge': {u'target': [], u'time': []}}, u'click': {u'state': {u'target': [], u'time': []}, u'edge': {u'target': [], u'time': []}}, u'mouseout': {u'state': {u'target': [], u'time': []}, u'edge': {u'target': [], u'time': []}}}",,,"[1517, 805, 2255]",11.0,,1010319,12.0,0.0,mouselab-mdp,,5
"[1915, 3299, 23057]","[u'left', u'left', u'down']",,,[],[],,"[u'1', 4, 8, 15]",[],[],"{u'mouseover': {u'state': {u'target': [], u'time': []}, u'edge': {u'target': [], u'time': []}}, u'click': {u'state': {u'target': [], u'time': []}, u'edge': {u'target': [], u'time': []}}, u'mouseout': {u'state': {u'target': [], u'time': []}, u'edge': {u'target': [], u'time': []}}}",,,"[1915, 876, 19269]",15.0,,1058675,13.0,2.0,mouselab-mdp,,5
"[791, 1952, 55175]","[u'left', u'left', u'down']",,,[],[],,"[u'1', 4, 8, 15]",[],[],"{u'mouseover': {u'state': {u'target': [], u'time': []}, u'edge': {u'target': [], u'time': []}}, u'click': {u'state': {u'target': [], u'time': []}, u'edge': {u'target': [], u'time': []}}, u'mouseout': {u'state': {u'target': [], u'time': []}, u'edge': {u'target': [], u'time': []}}}",,,"[791, 654, 52726]",16.0,,1118129,14.0,15.0,mouselab-mdp,,5
"[4854, 7321, 17161]","[u'left', u'left', u'down']",,,[],[],,"[u'1', 4, 8, 15]",[],[],"{u'mouseover': {u'state': {u'target': [], u'time': []}, u'edge': {u'target': [], u'time': []}}, u'click': {u'state': {u'target': [], u'time': []}, u'edge': {u'target': [], u'time': []}}, u'mouseout': {u'state': {u'target': [], u'time': []}, u'edge': {u'target': [], u'time': []}}}",,,"[4854, 1962, 9346]",5.0,,1174972,15.0,10.0,mouselab-mdp,,5
"[1700, 3173, 11292]","[u'left', u'left', u'down']",,,[],[],,"[u'1', 4, 8, 15]",[],[],"{u'mouseover': {u'state': {u'target': [], u'time': []}, u'edge': {u'target': [], u'time': []}}, u'click': {u'state': {u'target': [], u'time': []}, u'edge': {u'target': [], u'time': []}}, u'mouseout': {u'state': {u'target': [], u'time': []}, u'edge': {u'target': [], u'time': []}}}",,,"[1700, 971, 7622]",16.0,,1224396,16.0,1.0,mouselab-mdp,,5
"[9729, 18718, 23510]","[u'right', u'right', u'down']",,,"[0, 0, 0]","[True, True, True]",,"[u'1', 2, 6, 11]","[False, False, False]","[True, False, False]","{u'mouseover': {u'state': {u'target': [], u'time': []}, u'edge': {u'target': [], u'time': []}}, u'click': {u'state': {u'target': [u'2'], u'time': [7456]}, u'edge': {u'target': [], u'time': []}}, u'mouseout': {u'state': {u'target': [], u'time': []}, u'edge': {u'target': [], u'time': []}}}",,,"[9728, 15, 4022]",9.0,,146280,1.0,9.0,mouselab-mdp,,6
"[4905, 13781, 37309]","[u'left', u'left', u'down']",,,"[0, 0, 0]","[True, True, True]",,"[u'1', 4, 8, 15]","[False, False, False]","[False, False, False]","{u'mouseover': {u'state': {u'target': [], u'time': []}, u'edge': {u'target': [], u'time': []}}, u'click': {u'state': {u'target': [], u'time': []}, u'edge': {u'target': [], u'time': []}}, u'mouseout': {u'state': {u'target': [], u'time': []}, u'edge': {u'target': [], u'time': []}}}",,,"[4905, 15, 22745]",12.0,,204846,2.0,5.0,mouselab-mdp,,6
"[2427, 17656, 32058]","[u'up', u'up', u'right']",,,"[0, 0, 0]","[True, True, True]",,"[u'1', 3, 7, 13]","[False, False, False]","[False, False, False]","{u'mouseover': {u'state': {u'target': [], u'time': []}, u'edge': {u'target': [], u'time': []}}, u'click': {u'state': {u'target': [], u'time': []}, u'edge': {u'target': [], u'time': []}}, u'mouseout': {u'state': {u'target': [], u'time': []}, u'edge': {u'target': [], u'time': []}}}",,,"[2427, 6369, 13638]",16.0,,264295,3.0,1.0,mouselab-mdp,,6
"[602, 10865, 14458]","[u'down', u'down', u'left']",,,"[0, 0, 0]","[True, True, True]",,"[u'1', 5, 9, 16]","[False, False, False]","[False, False, False]","{u'mouseover': {u'state': {u'target': [], u'time': []}, u'edge': {u'target': [], u'time': []}}, u'click': {u'state': {u'target': [], u'time': []}, u'edge': {u'target': [], u'time': []}}, u'mouseout': {u'state': {u'target': [], u'time': []}, u'edge': {u'target': [], u'time': []}}}",,,"[602, 1451, 2787]",15.0,,322310,4.0,8.0,mouselab-mdp,,6
"[2197, 13632, 27389]","[u'down', u'down', u'right']",,,"[0, 0, 0]","[True, True, True]",,"[u'1', 5, 9, 17]","[False, False, False]","[False, False, False]","{u'mouseover': {u'state': {u'target': [], u'time': []}, u'edge': {u'target': [], u'time': []}}, u'click': {u'state': {u'target': [], u'time': []}, u'edge': {u'target': [], u'time': []}}, u'mouseout': {u'state': {u'target': [], u'time': []}, u'edge': {u'target': [], u'time': []}}}",,,"[2197, 2649, 12987]",15.0,,378957,5.0,4.0,mouselab-mdp,,6
"[680, 14109, 17880]","[u'right', u'right', u'up']",,,"[0, 0, 0]","[True, True, True]",,"[u'1', 2, 6, 10]","[False, False, False]","[False, False, False]","{u'mouseover': {u'state': {u'target': [], u'time': []}, u'edge': {u'target': [], u'time': []}}, u'click': {u'state': {u'target': [], u'time': []}, u'edge': {u'target': [], u'time': []}}, u'mouseout': {u'state': {u'target': [], u'time': []}, u'edge': {u'target': [], u'time': []}}}",,,"[680, 4639, 2994]",14.0,,479363,6.0,13.0,mouselab-mdp,,6
"[14822, 23467, 26087]","[u'up', u'up', u'right']",,,"[0, 0, 0]","[True, True, True]",,"[u'1', 3, 7, 13]","[False, False, False]","[False, False, False]","{u'mouseover': {u'state': {u'target': [], u'time': []}, u'edge': {u'target': [], u'time': []}}, u'click': {u'state': {u'target': [], u'time': []}, u'edge': {u'target': [], u'time': []}}, u'mouseout': {u'state': {u'target': [], u'time': []}, u'edge': {u'target': [], u'time': []}}}",,,"[14822, 1, 1823]",13.0,,548616,7.0,0.0,mouselab-mdp,,6
"[1981, 10537, 14212]","[u'left', u'left', u'up']",,,"[0, 0, 0]","[True, True, True]",,"[u'1', 4, 8, 14]","[False, False, False]","[False, False, False]","{u'mouseover': {u'state': {u'target': [], u'time': []}, u'edge': {u'target': [], u'time': []}}, u'click': {u'state': {u'target': [], u'time': []}, u'edge': {u'target': [], u'time': []}}, u'mouseout': {u'state': {u'target': [], u'time': []}, u'edge': {u'target': [], u'time': []}}}",,,"[1980, 1, 2880]",16.0,,609027,8.0,15.0,mouselab-mdp,,6
"[4351, 12987, 18487]","[u'right', u'right', u'down']",,,"[0, 0, 0]","[True, True, True]",,"[u'1', 2, 6, 11]","[False, False, False]","[False, False, False]","{u'mouseover': {u'state': {u'target': [], u'time': []}, u'edge': {u'target': [], u'time': []}}, u'click': {u'state': {u'target': [], u'time': []}, u'edge': {u'target': [], u'time': []}}, u'mouseout': {u'state': {u'target': [], u'time': []}, u'edge': {u'target': [], u'time': []}}}",,,"[4351, 2, 4690]",11.0,,670679,9.0,6.0,mouselab-mdp,,6
"[9810, 18597, 24936]","[u'down', u'down', u'right']",,,"[0, 0, 0]","[True, True, True]",,"[u'1', 5, 9, 17]","[False, False, False]","[False, False, False]","{u'mouseover': {u'state': {u'target': [], u'time': []}, u'edge': {u'target': [], u'time': []}}, u'click': {u'state': {u'target': [], u'time': []}, u'edge': {u'target': [], u'time': []}}, u'mouseout': {u'state': {u'target': [], u'time': []}, u'edge': {u'target': [], u'time': []}}}",,,"[9810, 109, 5545]",15.0,,726699,10.0,3.0,mouselab-mdp,,6
"[3143, 6600, 8174]","[u'down', u'down', u'left']",,,[],[],,"[u'1', 5, 9, 16]",[],[],"{u'mouseover': {u'state': {u'target': [], u'time': []}, u'edge': {u'target': [], u'time': []}}, u'click': {u'state': {u'target': [], u'time': []}, u'edge': {u'target': [], u'time': []}}, u'mouseout': {u'state': {u'target': [], u'time': []}, u'edge': {u'target': [], u'time': []}}}",,,"[3143, 2940, 1065]",15.0,,780678,11.0,7.0,mouselab-mdp,,6
"[7662, 10090, 13506]","[u'left', u'left', u'down']",,,[],[],,"[u'1', 4, 8, 15]",[],[],"{u'mouseover': {u'state': {u'target': [], u'time': []}, u'edge': {u'target': [], u'time': []}}, u'click': {u'state': {u'target': [], u'time': []}, u'edge': {u'target': [], u'time': []}}, u'mouseout': {u'state': {u'target': [], u'time': []}, u'edge': {u'target': [], u'time': []}}}",,,"[7662, 1907, 2904]",15.0,,835211,12.0,2.0,mouselab-mdp,,6
"[1744, 7414, 9495]","[u'up', u'up', u'left']",,,[],[],,"[u'1', 3, 7, 12]",[],[],"{u'mouseover': {u'state': {u'target': [], u'time': []}, u'edge': {u'target': [], u'time': []}}, u'click': {u'state': {u'target': [], u'time': []}, u'edge': {u'target': [], u'time': []}}, u'mouseout': {u'state': {u'target': [], u'time': []}, u'edge': {u'target': [], u'time': []}}}",,,"[1744, 5153, 1568]",8.0,,882771,13.0,14.0,mouselab-mdp,,6
"[501, 2914, 4306]","[u'down', u'down', u'right']",,,[],[],,"[u'1', 5, 9, 17]",[],[],"{u'mouseover': {u'state': {u'target': [], u'time': []}, u'edge': {u'target': [], u'time': []}}, u'click': {u'state': {u'target': [], u'time': []}, u'edge': {u'target': [], u'time': []}}, u'mouseout': {u'state': {u'target': [], u'time': []}, u'edge': {u'target': [], u'time': []}}}",,,"[501, 1899, 874]",16.0,,933229,14.0,11.0,mouselab-mdp,,6
"[1249, 3677, 5347]","[u'down', u'down', u'left']",,,[],[],,"[u'1', 5, 9, 16]",[],[],"{u'mouseover': {u'state': {u'target': [], u'time': []}, u'edge': {u'target': [], u'time': []}}, u'click': {u'state': {u'target': [], u'time': []}, u'edge': {u'target': [], u'time': []}}, u'mouseout': {u'state': {u'target': [], u'time': []}, u'edge': {u'target': [], u'time': []}}}",,,"[1249, 1921, 1157]",6.0,,988169,15.0,10.0,mouselab-mdp,,6
"[745, 2227, 8486]","[u'left', u'left', u'down']",,,[],[],,"[u'1', 4, 8, 15]",[],[],"{u'mouseover': {u'state': {u'target': [], u'time': []}, u'edge': {u'target': [], u'time': []}}, u'click': {u'state': {u'target': [], u'time': []}, u'edge': {u'target': [], u'time': []}}, u'mouseout': {u'state': {u'target': [], u'time': []}, u'edge': {u'target': [], u'time': []}}}",,,"[744, 968, 5742]",14.0,,1036962,16.0,12.0,mouselab-mdp,,6
"[3690, 10687, 14036]","[u'right', u'right', u'down']",,,"[0, 1, 0]","[True, True, True]",,"[u'1', 2, 6, 11]","[False, False, False]","[False, True, False]","{u'mouseover': {u'state': {u'target': [], u'time': []}, u'edge': {u'target': [], u'time': []}}, u'click': {u'state': {u'target': [u'6'], u'time': [10701]}, u'edge': {u'target': [], u'time': []}}, u'mouseout': {u'state': {u'target': [], u'time': []}, u'edge': {u'target': [], u'time': []}}}",,,"[3690, 5, 1501]",13.0,,308103,1.0,3.0,mouselab-mdp,,7
"[13574, 23343, 26783]","[u'down', u'down', u'right']",,,"[1, 0, 0]","[True, True, True]",,"[u'1', 5, 9, 17]","[True, False, False]","[True, False, False]","{u'mouseover': {u'state': {u'target': [], u'time': []}, u'edge': {u'target': [], u'time': []}}, u'click': {u'state': {u'target': [u'4', u'5'], u'time': [8592, 10702]}, u'edge': {u'target': [], u'time': []}}, u'mouseout': {u'state': {u'target': [], u'time': []}, u'edge': {u'target': [], u'time': []}}}",,,"[13574, 1168, 2697]",14.0,,364067,2.0,11.0,mouselab-mdp,,7
"[10167, 21693, 26825]","[u'left', u'left', u'up']",,,"[2, 0, 0]","[True, True, True]",,"[u'1', 4, 8, 14]","[False, False, False]","[True, False, True]","{u'mouseover': {u'state': {u'target': [], u'time': []}, u'edge': {u'target': [], u'time': []}}, u'click': {u'state': {u'target': [u'3', u'2', u'5', u'4', u'15', u'14'], u'time': [1718, 3158, 4496, 5682, 24935, 25703]}, u'edge': {u'target': [], u'time': []}}, u'mouseout': {u'state': {u'target': [], u'time': []}, u'edge': {u'target': [], u'time': []}}}",,,"[10167, 1630, 4405]",10.0,,421528,3.0,1.0,mouselab-mdp,,7
"[11534, 25521, 30896]","[u'left', u'left', u'down']",,,"[5, 0, 0]","[True, True, True]",,"[u'1', 4, 8, 15]","[False, False, False]","[True, False, True]","{u'mouseover': {u'state': {u'target': [], u'time': []}, u'edge': {u'target': [], u'time': []}}, u'click': {u'state': {u'target': [u'3', u'2', u'5', u'4', u'6', u'8', u'9', u'15', u'14'], u'time': [1223, 2092, 2854, 3554, 5226, 6444, 7364, 29071, 29787]}, u'edge': {u'target': [], u'time': []}}, u'mouseout': {u'state': {u'target': [], u'time': []}, u'edge': {u'target': [], u'time': []}}}",,,"[11534, 709, 4645]",5.0,,483027,4.0,13.0,mouselab-mdp,,7
"[28905, 36468, 59763]","[u'down', u'down', u'right']",,,"[0, 0, 0]","[True, True, True]",,"[u'1', 5, 9, 17]","[False, False, False]","[True, False, False]","{u'mouseover': {u'state': {u'target': [], u'time': []}, u'edge': {u'target': [], u'time': []}}, u'click': {u'state': {u'target': [u'3', u'2', u'5', u'4', u'6', u'8', u'7', u'9', u'17', u'16', u'10', u'11', u'15', u'14', u'12', u'13'], u'time': [1361, 2015, 2640, 3269, 4563, 5433, 6187, 7103, 9629, 10583, 13585, 14331, 15355, 16101, 16903, 17756]}, u'edge': {u'target': [], u'time': []}}, u'mouseout': {u'state': {u'target': [], u'time': []}, u'edge': {u'target': [], u'time': []}}}",,,"[28905, 3, 22787]",-4.0,,546564,5.0,5.0,mouselab-mdp,,7
"[14349, 21039, 23411]","[u'down', u'down', u'left']",,,"[0, 0, 0]","[False, True, True]",,"[u'1', 5, 9, 16]","[False, False, False]","[True, False, False]","{u'mouseover': {u'state': {u'target': [], u'time': []}, u'edge': {u'target': [], u'time': []}}, u'click': {u'state': {u'target': [u'2', u'3', u'6', u'11', u'10', u'4', u'8', u'14', u'15', u'16', u'17', u'5', u'9'], u'time': [1213, 2129, 2845, 3599, 4314, 6248, 7671, 8634, 9419, 10778, 11528, 12268, 12760]}, u'edge': {u'target': [], u'time': []}}, u'mouseout': {u'state': {u'target': [], u'time': []}, u'edge': {u'target': [], u'time': []}}}",,,"[14349, 3, 1798]",2.0,,613244,6.0,2.0,mouselab-mdp,,7
"[742, 7869, 10671]","[u'down', u'down', u'left']",,,"[0, 0, 0]","[True, True, True]",,"[u'1', 5, 9, 16]","[False, False, False]","[False, False, False]","{u'mouseover': {u'state': {u'target': [], u'time': []}, u'edge': {u'target': [], u'time': []}}, u'click': {u'state': {u'target': [], u'time': []}, u'edge': {u'target': [], u'time': []}}, u'mouseout': {u'state': {u'target': [], u'time': []}, u'edge': {u'target': [], u'time': []}}}",,,"[742, 3, 2100]",16.0,,667647,7.0,15.0,mouselab-mdp,,7
"[1949, 9886, 11829]","[u'down', u'down', u'right']",,,"[0, 0, 0]","[True, True, True]",,"[u'1', 5, 9, 17]","[False, False, False]","[False, False, False]","{u'mouseover': {u'state': {u'target': [], u'time': []}, u'edge': {u'target': [], u'time': []}}, u'click': {u'state': {u'target': [], u'time': []}, u'edge': {u'target': [], u'time': []}}, u'mouseout': {u'state': {u'target': [], u'time': []}, u'edge': {u'target': [], u'time': []}}}",,,"[1949, 790, 1234]",10.0,,721515,8.0,6.0,mouselab-mdp,,7
"[503, 7718, 9274]","[u'up', u'up', u'right']",,,"[0, 0, 0]","[True, True, True]",,"[u'1', 3, 7, 13]","[False, False, False]","[False, False, False]","{u'mouseover': {u'state': {u'target': [], u'time': []}, u'edge': {u'target': [], u'time': []}}, u'click': {u'state': {u'target': [], u'time': []}, u'edge': {u'target': [], u'time': []}}, u'mouseout': {u'state': {u'target': [], u'time': []}, u'edge': {u'target': [], u'time': []}}}",,,"[503, 3, 857]",14.0,,801874,9.0,12.0,mouselab-mdp,,7
"[899, 8113, 9810]","[u'left', u'left', u'down']",,,"[0, 0, 0]","[True, True, True]",,"[u'1', 4, 8, 15]","[False, False, False]","[False, False, False]","{u'mouseover': {u'state': {u'target': [], u'time': []}, u'edge': {u'target': [], u'time': []}}, u'click': {u'state': {u'target': [], u'time': []}, u'edge': {u'target': [], u'time': []}}, u'mouseout': {u'state': {u'target': [], u'time': []}, u'edge': {u'target': [], u'time': []}}}",,,"[898, 2, 994]",14.0,,878270,10.0,8.0,mouselab-mdp,,7
"[1205, 2140, 3068]","[u'right', u'right', u'down']",,,[],[],,"[u'1', 2, 6, 11]",[],[],"{u'mouseover': {u'state': {u'target': [], u'time': []}, u'edge': {u'target': [], u'time': []}}, u'click': {u'state': {u'target': [], u'time': []}, u'edge': {u'target': [], u'time': []}}, u'mouseout': {u'state': {u'target': [], u'time': []}, u'edge': {u'target': [], u'time': []}}}",,,"[1204, 408, 401]",5.0,,933733,11.0,10.0,mouselab-mdp,,7
"[477, 1293, 2484]","[u'up', u'up', u'right']",,,[],[],,"[u'1', 3, 7, 13]",[],[],"{u'mouseover': {u'state': {u'target': [], u'time': []}, u'edge': {u'target': [], u'time': []}}, u'click': {u'state': {u'target': [], u'time': []}, u'edge': {u'target': [], u'time': []}}, u'mouseout': {u'state': {u'target': [], u'time': []}, u'edge': {u'target': [], u'time': []}}}",,,"[477, 291, 664]",15.0,,985067,12.0,4.0,mouselab-mdp,,7
"[1875, 2571, 3691]","[u'down', u'down', u'right']",,,[],[],,"[u'1', 5, 9, 17]",[],[],"{u'mouseover': {u'state': {u'target': [], u'time': []}, u'edge': {u'target': [], u'time': []}}, u'click': {u'state': {u'target': [], u'time': []}, u'edge': {u'target': [], u'time': []}}, u'mouseout': {u'state': {u'target': [], u'time': []}, u'edge': {u'target': [], u'time': []}}}",,,"[1875, 158, 610]",15.0,,1038781,13.0,7.0,mouselab-mdp,,7
"[854, 1638, 2502]","[u'right', u'right', u'down']",,,[],[],,"[u'1', 2, 6, 11]",[],[],"{u'mouseover': {u'state': {u'target': [], u'time': []}, u'edge': {u'target': [], u'time': []}}, u'click': {u'state': {u'target': [], u'time': []}, u'edge': {u'target': [], u'time': []}}, u'mouseout': {u'state': {u'target': [], u'time': []}, u'edge': {u'target': [], u'time': []}}}",,,"[854, 258, 337]",10.0,,1086440,14.0,9.0,mouselab-mdp,,7
"[1407, 2279, 3127]","[u'down', u'down', u'left']",,,[],[],,"[u'1', 5, 9, 16]",[],[],"{u'mouseover': {u'state': {u'target': [], u'time': []}, u'edge': {u'target': [], u'time': []}}, u'click': {u'state': {u'target': [], u'time': []}, u'edge': {u'target': [], u'time': []}}, u'mouseout': {u'state': {u'target': [], u'time': []}, u'edge': {u'target': [], u'time': []}}}",,,"[1406, 354, 334]",7.0,,1144687,15.0,14.0,mouselab-mdp,,7
"[647, 1303, 2055]","[u'up', u'up', u'right']",,,[],[],,"[u'1', 3, 7, 13]",[],[],"{u'mouseover': {u'state': {u'target': [], u'time': []}, u'edge': {u'target': [], u'time': []}}, u'click': {u'state': {u'target': [], u'time': []}, u'edge': {u'target': [], u'time': []}}, u'mouseout': {u'state': {u'target': [], u'time': []}, u'edge': {u'target': [], u'time': []}}}",,,"[647, 128, 246]",13.0,,1214241,16.0,0.0,mouselab-mdp,,7
"[8841, 58411, 60050]","[u'left', u'left', u'up']",,,"[1, 0, 0]","[True, True, True]",,"[u'1', 4, 8, 14]","[False, False, False]","[True, False, False]","{u'mouseover': {u'state': {u'target': [], u'time': []}, u'edge': {u'target': [], u'time': []}}, u'click': {u'state': {u'target': [u'2', u'4'], u'time': [4774, 6523]}, u'edge': {u'target': [], u'time': []}}, u'mouseout': {u'state': {u'target': [], u'time': []}, u'edge': {u'target': [], u'time': []}}}",,,"[8840, 3232, 5]",14.0,,297460,1.0,7.0,mouselab-mdp,,8
"[9322, 58452, 60333]","[u'down', u'down', u'right']",,,"[2, 0, 0]","[True, True, True]",,"[u'1', 5, 9, 17]","[False, False, False]","[True, False, False]","{u'mouseover': {u'state': {u'target': [], u'time': []}, u'edge': {u'target': [], u'time': []}}, u'click': {u'state': {u'target': [u'3', u'5', u'4', u'2'], u'time': [2579, 4058, 5544, 6943]}, u'edge': {u'target': [], u'time': []}}, u'mouseout': {u'state': {u'target': [], u'time': []}, u'edge': {u'target': [], u'time': []}}}",,,"[9322, 2313, 123]",8.0,,403305,2.0,0.0,mouselab-mdp,,8
"[5028, 47249, 56104]","[u'right', u'right', u'down']",,,"[0, 0, 0]","[True, True, True]",,"[u'1', 2, 6, 11]","[False, False, False]","[True, False, True]","{u'mouseover': {u'state': {u'target': [], u'time': []}, u'edge': {u'target': [], u'time': []}}, u'click': {u'state': {u'target': [u'2', u'10', u'11'], u'time': [3684, 52462, 54846]}, u'edge': {u'target': [], u'time': []}}, u'mouseout': {u'state': {u'target': [], u'time': []}, u'edge': {u'target': [], u'time': []}}}",,,"[5028, 21, 7152]",11.0,,501974,3.0,13.0,mouselab-mdp,,8
"[15446, 63908, 66628]","[u'right', u'right', u'down']",,,"[2, 0, 0]","[True, True, True]",,"[u'1', 2, 6, 11]","[False, False, False]","[True, False, False]","{u'mouseover': {u'state': {u'target': [], u'time': []}, u'edge': {u'target': [], u'time': []}}, u'click': {u'state': {u'target': [u'3', u'4', u'2'], u'time': [7392, 10480, 12479]}, u'edge': {u'target': [], u'time': []}}, u'mouseout': {u'state': {u'target': [], u'time': []}, u'edge': {u'target': [], u'time': []}}}",,,"[15446, 2061, 952]",7.0,,608264,4.0,9.0,mouselab-mdp,,8
"[8163, 52992, 54642]","[u'up', u'up', u'right']",,,"[1, 0, 0]","[True, True, True]",,"[u'1', 3, 7, 13]","[True, False, False]","[True, False, False]","{u'mouseover': {u'state': {u'target': [], u'time': []}, u'edge': {u'target': [], u'time': []}}, u'click': {u'state': {u'target': [u'5', u'3'], u'time': [3620, 5746]}, u'edge': {u'target': [], u'time': []}}, u'mouseout': {u'state': {u'target': [], u'time': []}, u'edge': {u'target': [], u'time': []}}}",,,"[8163, 1153, 4]",8.0,,754331,5.0,6.0,mouselab-mdp,,8
"[6390, 54549, 56237]","[u'left', u'left', u'up']",,,"[1, 0, 0]","[True, True, True]",,"[u'1', 4, 8, 14]","[False, False, False]","[True, False, False]","{u'mouseover': {u'state': {u'target': [], u'time': []}, u'edge': {u'target': [], u'time': []}}, u'click': {u'state': {u'target': [u'5', u'4'], u'time': [3962, 5320]}, u'edge': {u'target': [], u'time': []}}, u'mouseout': {u'state': {u'target': [], u'time': []}, u'edge': {u'target': [], u'time': []}}}",,,"[6389, 1986, 4]",5.0,,868235,6.0,14.0,mouselab-mdp,,8
"[4477, 58706, 60613]","[u'up', u'up', u'right']",,,"[0, 0, 0]","[True, True, True]",,"[u'1', 3, 7, 13]","[False, False, False]","[False, False, False]","{u'mouseover': {u'state': {u'target': [], u'time': []}, u'edge': {u'target': [], u'time': []}}, u'click': {u'state': {u'target': [], u'time': []}, u'edge': {u'target': [], u'time': []}}, u'mouseout': {u'state': {u'target': [], u'time': []}, u'edge': {u'target': [], u'time': []}}}",,,"[4477, 12554, 73]",15.0,,964328,7.0,11.0,mouselab-mdp,,8
"[3063, 49007, 52868]","[u'right', u'right', u'up']",,,"[0, 0, 0]","[True, True, True]",,"[u'1', 2, 6, 10]","[False, False, False]","[False, False, False]","{u'mouseover': {u'state': {u'target': [], u'time': []}, u'edge': {u'target': [], u'time': []}}, u'click': {u'state': {u'target': [], u'time': []}, u'edge': {u'target': [], u'time': []}}, u'mouseout': {u'state': {u'target': [], u'time': []}, u'edge': {u'target': [], u'time': []}}}",,,"[3063, 4469, 2210]",15.0,,1062544,8.0,15.0,mouselab-mdp,,8
"[3118, 51190, 54187]","[u'down', u'down', u'left']",,,"[0, 0, 0]","[True, True, True]",,"[u'1', 5, 9, 16]","[False, False, False]","[False, False, False]","{u'mouseover': {u'state': {u'target': [], u'time': []}, u'edge': {u'target': [], u'time': []}}, u'click': {u'state': {u'target': [], u'time': []}, u'edge': {u'target': [], u'time': []}}, u'mouseout': {u'state': {u'target': [], u'time': []}, u'edge': {u'target': [], u'time': []}}}",,,"[3118, 6671, 1334]",15.0,,1157575,9.0,2.0,mouselab-mdp,,8
"[4896, 48045, 52217]","[u'left', u'left', u'down']",,,"[0, 0, 0]","[True, True, True]",,"[u'1', 4, 8, 15]","[False, False, False]","[False, False, False]","{u'mouseover': {u'state': {u'target': [], u'time': []}, u'edge': {u'target': [], u'time': []}}, u'click': {u'state': {u'target': [], u'time': []}, u'edge': {u'target': [], u'time': []}}, u'mouseout': {u'state': {u'target': [], u'time': []}, u'edge': {u'target': [], u'time': []}}}",,,"[4896, 2016, 2496]",16.0,,1253838,10.0,1.0,mouselab-mdp,,8
"[2667, 4356, 6056]","[u'right', u'right', u'up']",,,[],[],,"[u'1', 2, 6, 10]",[],[],"{u'mouseover': {u'state': {u'target': [], u'time': []}, u'edge': {u'target': [], u'time': []}}, u'click': {u'state': {u'target': [], u'time': []}, u'edge': {u'target': [], u'time': []}}, u'mouseout': {u'state': {u'target': [], u'time': []}, u'edge': {u'target': [], u'time': []}}}",,,"[2667, 1195, 1211]",15.0,,1308468,11.0,8.0,mouselab-mdp,,8
"[2935, 5162, 7119]","[u'up', u'up', u'right']",,,[],[],,"[u'1', 3, 7, 13]",[],[],"{u'mouseover': {u'state': {u'target': [], u'time': []}, u'edge': {u'target': [], u'time': []}}, u'click': {u'state': {u'target': [], u'time': []}, u'edge': {u'target': [], u'time': []}}, u'mouseout': {u'state': {u'target': [], u'time': []}, u'edge': {u'target': [], u'time': []}}}",,,"[2934, 1724, 1466]",5.0,,1357892,12.0,10.0,mouselab-mdp,,8
"[2518, 3935, 5137]","[u'up', u'up', u'right']",,,[],[],,"[u'1', 3, 7, 13]",[],[],"{u'mouseover': {u'state': {u'target': [], u'time': []}, u'edge': {u'target': [], u'time': []}}, u'click': {u'state': {u'target': [], u'time': []}, u'edge': {u'target': [], u'time': []}}, u'mouseout': {u'state': {u'target': [], u'time': []}, u'edge': {u'target': [], u'time': []}}}",,,"[2517, 903, 700]",14.0,,1408996,13.0,12.0,mouselab-mdp,,8
"[2074, 3458, 4676]","[u'left', u'left', u'down']",,,[],[],,"[u'1', 4, 8, 15]",[],[],"{u'mouseover': {u'state': {u'target': [], u'time': []}, u'edge': {u'target': [], u'time': []}}, u'click': {u'state': {u'target': [], u'time': []}, u'edge': {u'target': [], u'time': []}}, u'mouseout': {u'state': {u'target': [], u'time': []}, u'edge': {u'target': [], u'time': []}}}",,,"[2074, 885, 720]",15.0,,1458855,14.0,4.0,mouselab-mdp,,8
"[2959, 4631, 6599]","[u'down', u'down', u'left']",,,[],[],,"[u'1', 5, 9, 16]",[],[],"{u'mouseover': {u'state': {u'target': [], u'time': []}, u'edge': {u'target': [], u'time': []}}, u'click': {u'state': {u'target': [], u'time': []}, u'edge': {u'target': [], u'time': []}}, u'mouseout': {u'state': {u'target': [], u'time': []}, u'edge': {u'target': [], u'time': []}}}",,,"[2959, 1180, 1464]",12.0,,1507464,15.0,5.0,mouselab-mdp,,8
"[4875, 6564, 17955]","[u'up', u'up', u'right']",,,[],[],,"[u'1', 3, 7, 13]",[],[],"{u'mouseover': {u'state': {u'target': [], u'time': []}, u'edge': {u'target': [], u'time': []}}, u'click': {u'state': {u'target': [u'12', u'13'], u'time': [11145, 12270]}, u'edge': {u'target': [], u'time': []}}, u'mouseout': {u'state': {u'target': [], u'time': []}, u'edge': {u'target': [], u'time': []}}}",,,"[4875, 1195, 10903]",12.0,,1557756,16.0,3.0,mouselab-mdp,,8
"[9368, 31316, 37111]","[u'right', u'right', u'up']",,,"[0, 1, 1]","[True, True, True]",,"[u'1', 2, 6, 10]","[True, False, False]","[True, True, True]","{u'mouseover': {u'state': {u'target': [], u'time': []}, u'edge': {u'target': [], u'time': []}}, u'click': {u'state': {u'target': [u'2', u'6', u'10'], u'time': [7139, 31332, 35824]}, u'edge': {u'target': [], u'time': []}}, u'mouseout': {u'state': {u'target': [], u'time': []}, u'edge': {u'target': [], u'time': []}}}",,,"[9368, 6, 3201]",11.0,,223435,1.0,3.0,mouselab-mdp,,9
"[6231, 33496, 46327]","[u'up', u'up', u'right']",,,"[1, 0, 1]","[True, True, True]",,"[u'1', 3, 7, 13]","[True, False, False]","[True, False, True]","{u'mouseover': {u'state': {u'target': [], u'time': []}, u'edge': {u'target': [], u'time': []}}, u'click': {u'state': {u'target': [u'3', u'5', u'13'], u'time': [2832, 4408, 44369]}, u'edge': {u'target': [], u'time': []}}, u'mouseout': {u'state': {u'target': [], u'time': []}, u'edge': {u'target': [], u'time': []}}}",,,"[6231, 4059, 11724]",11.0,,299787,2.0,2.0,mouselab-mdp,,9
"[8076, 32589, 46412]","[u'left', u'left', u'up']",,,"[0, 0, 0]","[True, True, True]",,"[u'1', 4, 8, 14]","[True, False, False]","[True, False, True]","{u'mouseover': {u'state': {u'target': [], u'time': []}, u'edge': {u'target': [], u'time': []}}, u'click': {u'state': {u'target': [u'4', u'14', u'15'], u'time': [3693, 43702, 44804]}, u'edge': {u'target': [], u'time': []}}, u'mouseout': {u'state': {u'target': [], u'time': []}, u'edge': {u'target': [], u'time': []}}}",,,"[8076, 2889, 12717]",13.0,,373851,3.0,1.0,mouselab-mdp,,9
"[6520, 30632, 36855]","[u'up', u'up', u'right']",,,"[0, 0, 0]","[True, True, True]",,"[u'1', 3, 7, 13]","[False, False, False]","[True, False, True]","{u'mouseover': {u'state': {u'target': [], u'time': []}, u'edge': {u'target': [], u'time': []}}, u'click': {u'state': {u'target': [u'3', u'13', u'12'], u'time': [2649, 34360, 35439]}, u'edge': {u'target': [], u'time': []}}, u'mouseout': {u'state': {u'target': [], u'time': []}, u'edge': {u'target': [], u'time': []}}}",,,"[6520, 2105, 5087]",12.0,,444346,4.0,11.0,mouselab-mdp,,9
"[13875, 42613, 50660]","[u'right', u'right', u'down']",,,"[3, 0, 0]","[True, True, True]",,"[u'1', 2, 6, 11]","[False, False, False]","[True, False, False]","{u'mouseover': {u'state': {u'target': [], u'time': []}, u'edge': {u'target': [], u'time': []}}, u'click': {u'state': {u'target': [u'10', u'17', u'5', u'14', u'4', u'3', u'2'], u'time': [2757, 4436, 6900, 9388, 10059, 10619, 11931]}, u'edge': {u'target': [], u'time': []}}, u'mouseout': {u'state': {u'target': [], u'time': []}, u'edge': {u'target': [], u'time': []}}}",,,"[13875, 2186, 6969]",6.0,,518267,5.0,12.0,mouselab-mdp,,9
"[4054, 27815, 33254]","[u'down', u'down', u'right']",,,"[1, 0, 0]","[True, True, True]",,"[u'1', 5, 9, 17]","[False, False, False]","[True, False, False]","{u'mouseover': {u'state': {u'target': [], u'time': []}, u'edge': {u'target': [], u'time': []}}, u'click': {u'state': {u'target': [u'17', u'5'], u'time': [1375, 2567]}, u'edge': {u'target': [], u'time': []}}, u'mouseout': {u'state': {u'target': [], u'time': []}, u'edge': {u'target': [], u'time': []}}}",,,"[4054, 1202, 4337]",13.0,,589547,6.0,4.0,mouselab-mdp,,9
"[4720, 34336, 39936]","[u'left', u'left', u'up']",,,"[2, 2, 0]","[True, True, True]",,"[u'1', 4, 8, 14]","[False, False, False]","[True, True, False]","{u'mouseover': {u'state': {u'target': [], u'time': []}, u'edge': {u'target': [], u'time': []}}, u'click': {u'state': {u'target': [u'4', u'3', u'2', u'5', u'14', u'15'], u'time': [1416, 2216, 2784, 3392, 31930, 32712]}, u'edge': {u'target': [], u'time': []}}, u'mouseout': {u'state': {u'target': [], u'time': []}, u'edge': {u'target': [], u'time': []}}}",,,"[4720, 3585, 1529]",1.0,,666331,7.0,14.0,mouselab-mdp,,9
"[5976, 29065, 32744]","[u'right', u'right', u'up']",,,"[1, 0, 0]","[True, True, True]",,"[u'1', 2, 6, 10]","[False, False, False]","[True, False, False]","{u'mouseover': {u'state': {u'target': [], u'time': []}, u'edge': {u'target': [], u'time': []}}, u'click': {u'state': {u'target': [u'12', u'13', u'11', u'10'], u'time': [1025, 1848, 2592, 31185]}, u'edge': {u'target': [], u'time': []}}, u'mouseout': {u'state': {u'target': [], u'time': []}, u'edge': {u'target': [], u'time': []}}}",,,"[5976, 1904, 2626]",2.0,,736668,8.0,10.0,mouselab-mdp,,9
"[5876, 29573, 32516]","[u'up', u'up', u'right']",,,"[1, 0, 0]","[True, True, True]",,"[u'1', 3, 7, 13]","[False, False, False]","[True, False, False]","{u'mouseover': {u'state': {u'target': [], u'time': []}, u'edge': {u'target': [], u'time': []}}, u'click': {u'state': {u'target': [u'16', u'10', u'13', u'12'], u'time': [844, 2013, 3364, 30860]}, u'edge': {u'target': [], u'time': []}}, u'mouseout': {u'state': {u'target': [], u'time': []}, u'edge': {u'target': [], u'time': []}}}",,,"[5876, 1441, 1884]",8.0,,807853,9.0,5.0,mouselab-mdp,,9
"[6329, 31625, 34232]","[u'right', u'right', u'up']",,,"[2, 0, 0]","[True, True, True]",,"[u'1', 2, 6, 10]","[False, False, False]","[True, False, False]","{u'mouseover': {u'state': {u'target': [], u'time': []}, u'edge': {u'target': [], u'time': []}}, u'click': {u'state': {u'target': [u'10', u'14', u'17'], u'time': [1761, 3561, 4617]}, u'edge': {u'target': [], u'time': []}}, u'mouseout': {u'state': {u'target': [], u'time': []}, u'edge': {u'target': [], u'time': []}}}",,,"[6329, 1183, 1528]",13.0,,882794,10.0,7.0,mouselab-mdp,,9
"[5986, 9986, 11410]","[u'left', u'left', u'up']",,,[],[],,"[u'1', 4, 8, 14]",[],[],"{u'mouseover': {u'state': {u'target': [], u'time': []}, u'edge': {u'target': [], u'time': []}}, u'click': {u'state': {u'target': [u'10', u'17', u'14'], u'time': [1275, 2899, 4242]}, u'edge': {u'target': [], u'time': []}}, u'mouseout': {u'state': {u'target': [], u'time': []}, u'edge': {u'target': [], u'time': []}}}",,,"[5986, 3493, 916]",9.0,,936842,11.0,0.0,mouselab-mdp,,9
"[7429, 8581, 9845]","[u'right', u'right', u'up']",,,[],[],,"[u'1', 2, 6, 10]",[],[],"{u'mouseover': {u'state': {u'target': [], u'time': []}, u'edge': {u'target': [], u'time': []}}, u'click': {u'state': {u'target': [u'13', u'17', u'16', u'15', u'14', u'10', u'11'], u'time': [1285, 2861, 3621, 4253, 4933, 5583, 6173]}, u'edge': {u'target': [], u'time': []}}, u'mouseout': {u'state': {u'target': [], u'time': []}, u'edge': {u'target': [], u'time': []}}}",,,"[7429, 646, 760]",5.0,,985547,12.0,6.0,mouselab-mdp,,9
"[5488, 6640, 7840]","[u'left', u'left', u'up']",,,[],[],,"[u'1', 4, 8, 14]",[],[],"{u'mouseover': {u'state': {u'target': [], u'time': []}, u'edge': {u'target': [], u'time': []}}, u'click': {u'state': {u'target': [u'3', u'5', u'2', u'4', u'14'], u'time': [1153, 1976, 2555, 3057, 4009]}, u'edge': {u'target': [], u'time': []}}, u'mouseout': {u'state': {u'target': [], u'time': []}, u'edge': {u'target': [], u'time': []}}}",,,"[5488, 655, 705]",10.0,,1033499,13.0,8.0,mouselab-mdp,,9
"[2919, 3847, 7047]","[u'right', u'right', u'up']",,,[],[],,"[u'1', 2, 6, 10]",[],[],"{u'mouseover': {u'state': {u'target': [], u'time': []}, u'edge': {u'target': [], u'time': []}}, u'click': {u'state': {u'target': [u'10', u'2', u'11'], u'time': [976, 1727, 5887]}, u'edge': {u'target': [], u'time': []}}, u'mouseout': {u'state': {u'target': [], u'time': []}, u'edge': {u'target': [], u'time': []}}}",,,"[2919, 426, 2690]",11.0,,1081707,14.0,13.0,mouselab-mdp,,9
"[6576, 7968, 8960]","[u'right', u'right', u'up']",,,[],[],,"[u'1', 2, 6, 10]",[],[],"{u'mouseover': {u'state': {u'target': [], u'time': []}, u'edge': {u'target': [], u'time': []}}, u'click': {u'state': {u'target': [u'4', u'3', u'13', u'12', u'10'], u'time': [560, 1320, 2057, 2720, 5008]}, u'edge': {u'target': [], u'time': []}}, u'mouseout': {u'state': {u'target': [], u'time': []}, u'edge': {u'target': [], u'time': []}}}",,,"[6576, 894, 485]",10.0,,1128891,15.0,15.0,mouselab-mdp,,9
"[4242, 5025, 8146]","[u'right', u'right', u'up']",,,[],[],,"[u'1', 2, 6, 10]",[],[],"{u'mouseover': {u'state': {u'target': [], u'time': []}, u'edge': {u'target': [], u'time': []}}, u'click': {u'state': {u'target': [u'13', u'2', u'10', u'11'], u'time': [1163, 2234, 3090, 7067]}, u'edge': {u'target': [], u'time': []}}, u'mouseout': {u'state': {u'target': [], u'time': []}, u'edge': {u'target': [], u'time': []}}}",,,"[4242, 272, 2627]",6.0,,1177338,16.0,9.0,mouselab-mdp,,9
"[13858, 29995, 33841]","[u'right', u'right', u'down']",,,"[0, 0, 0]","[False, True, True]",,"[u'1', 2, 6, 11]","[False, False, False]","[True, False, False]","{u'mouseover': {u'state': {u'target': [], u'time': []}, u'edge': {u'target': [], u'time': []}}, u'click': {u'state': {u'target': [u'2', u'10', u'11'], u'time': [3167, 8884, 10300]}, u'edge': {u'target': [], u'time': []}}, u'mouseout': {u'state': {u'target': [], u'time': []}, u'edge': {u'target': [], u'time': []}}}",,,"[13858, 5, 2716]",9.0,,349222,1.0,5.0,mouselab-mdp,,10
"[21197, 40118, 43078]","[u'right', u'right', u'down']",,,"[0, 0, 0]","[True, True, True]",,"[u'1', 2, 6, 11]","[False, False, False]","[True, False, False]","{u'mouseover': {u'state': {u'target': [], u'time': []}, u'edge': {u'target': [], u'time': []}}, u'click': {u'state': {u'target': [u'4', u'3', u'13', u'12', u'2', u'10', u'11'], u'time': [4802, 7619, 9979, 11123, 16170, 17610, 19219]}, u'edge': {u'target': [], u'time': []}}, u'mouseout': {u'state': {u'target': [], u'time': []}, u'edge': {u'target': [], u'time': []}}}",,,"[21197, 3, 1859]",7.0,,417702,2.0,3.0,mouselab-mdp,,10
"[18822, 39971, 42355]","[u'right', u'right', u'up']",,,"[0, 0, 0]","[True, True, True]",,"[u'1', 2, 6, 10]","[False, False, False]","[True, False, False]","{u'mouseover': {u'state': {u'target': [], u'time': []}, u'edge': {u'target': [], u'time': []}}, u'click': {u'state': {u'target': [u'2', u'5', u'4', u'3', u'13', u'12', u'7', u'10', u'11'], u'time': [3828, 5808, 7988, 9136, 10449, 11337, 12149, 14461, 17385]}, u'edge': {u'target': [], u'time': []}}, u'mouseout': {u'state': {u'target': [], u'time': []}, u'edge': {u'target': [], u'time': []}}}",,,"[18822, 3, 1456]",3.0,,488373,3.0,6.0,mouselab-mdp,,10
"[19465, 34260, 36296]","[u'up', u'up', u'right']",,,"[0, 0, 0]","[False, True, True]",,"[u'1', 3, 7, 13]","[False, False, False]","[True, False, False]","{u'mouseover': {u'state': {u'target': [], u'time': []}, u'edge': {u'target': [], u'time': []}}, u'click': {u'state': {u'target': [u'4', u'15', u'14', u'3', u'13', u'7', u'12'], u'time': [3284, 4827, 5915, 10726, 11834, 13422, 14669]}, u'edge': {u'target': [], u'time': []}}, u'mouseout': {u'state': {u'target': [], u'time': []}, u'edge': {u'target': [], u'time': []}}}",,,"[19465, 5, 999]",7.0,,551069,4.0,2.0,mouselab-mdp,,10
"[25162, 41678, 43584]","[u'up', u'up', u'right']",,,"[0, 0, 0]","[False, True, True]",,"[u'1', 3, 7, 13]","[False, False, False]","[True, False, False]","{u'mouseover': {u'state': {u'target': [], u'time': []}, u'edge': {u'target': [], u'time': []}}, u'click': {u'state': {u'target': [u'2', u'11', u'10', u'3', u'13', u'7', u'12'], u'time': [7151, 8739, 9859, 11779, 13164, 16996, 19934]}, u'edge': {u'target': [], u'time': []}}, u'mouseout': {u'state': {u'target': [], u'time': []}, u'edge': {u'target': [], u'time': []}}}",,,"[25162, 3, 878]",8.0,,618388,5.0,11.0,mouselab-mdp,,10
"[39128, 53085, 53977]","[u'left', u'left', u'up']",,,"[0, 0, 0]","[True, True, True]",,"[u'1', 4, 8, 14]","[False, False, False]","[True, False, False]","{u'mouseover': {u'state': {u'target': [], u'time': []}, u'edge': {u'target': [], u'time': []}}, u'click': {u'state': {u'target': [u'5', u'17', u'16', u'9', u'4', u'14', u'8', u'15', u'3', u'2'], u'time': [2983, 4447, 5487, 6167, 11464, 13767, 14487, 21502, 35967, 37088]}, u'edge': {u'target': [], u'time': []}}, u'mouseout': {u'state': {u'target': [], u'time': []}, u'edge': {u'target': [], u'time': []}}}",,,"[39128, 2, 3]",6.0,,682339,6.0,7.0,mouselab-mdp,,10
"[14962, 34802, 36658]","[u'right', u'right', u'up']",,,"[0, 0, 0]","[True, True, True]",,"[u'1', 2, 6, 10]","[False, False, False]","[True, False, False]","{u'mouseover': {u'state': {u'target': [], u'time': []}, u'edge': {u'target': [], u'time': []}}, u'click': {u'state': {u'target': [u'5', u'4', u'8', u'14', u'15', u'3', u'2', u'6', u'11', u'10'], u'time': [2873, 3925, 5086, 6358, 7166, 8670, 9783, 10996, 12140, 13056]}, u'edge': {u'target': [], u'time': []}}, u'mouseout': {u'state': {u'target': [], u'time': []}, u'edge': {u'target': [], u'time': []}}}",,,"[14962, 451, 958]",4.0,,751260,7.0,12.0,mouselab-mdp,,10
"[46189, 72501, 74518]","[u'right', u'right', u'down']",,,"[3, 0, 0]","[False, True, True]",,"[u'1', 2, 6, 11]","[True, False, False]","[True, False, False]","{u'mouseover': {u'state': {u'target': [], u'time': []}, u'edge': {u'target': [], u'time': []}}, u'click': {u'state': {u'target': [u'2', u'11', u'6', u'5', u'17', u'9'], u'time': [2643, 6068, 7906, 13938, 15328, 16666]}, u'edge': {u'target': [], u'time': []}}, u'mouseout': {u'state': {u'target': [], u'time': []}, u'edge': {u'target': [], u'time': []}}}",,,"[46189, 768, 764]",4.0,,835757,8.0,9.0,mouselab-mdp,,10
"[6403, 31501, 35563]","[u'up', u'up', u'left']",,,"[1, 0, 0]","[True, True, True]",,"[u'1', 3, 7, 12]","[True, False, False]","[True, False, False]","{u'mouseover': {u'state': {u'target': [], u'time': []}, u'edge': {u'target': [], u'time': []}}, u'click': {u'state': {u'target': [u'3', u'13', u'7'], u'time': [2019, 3376, 4482]}, u'edge': {u'target': [], u'time': []}}, u'mouseout': {u'state': {u'target': [], u'time': []}, u'edge': {u'target': [], u'time': []}}}",,,"[6403, 5201, 2838]",13.0,,909074,9.0,4.0,mouselab-mdp,,10
"[17092, 42445, 45588]","[u'down', u'down', u'right']",,,"[2, 0, 0]","[False, True, True]",,"[u'1', 5, 9, 17]","[False, False, False]","[True, False, False]","{u'mouseover': {u'state': {u'target': [], u'time': []}, u'edge': {u'target': [], u'time': []}}, u'click': {u'state': {u'target': [u'3', u'2', u'6', u'11', u'5', u'4', u'8', u'15', u'14'], u'time': [1290, 2711, 5038, 5751, 7240, 8439, 9439, 10440, 11094]}, u'edge': {u'target': [], u'time': []}}, u'mouseout': {u'state': {u'target': [], u'time': []}, u'edge': {u'target': [], u'time': []}}}",,,"[17092, 1568, 1993]",-2.0,,983162,10.0,14.0,mouselab-mdp,,10
"[6198, 7498, 9196]","[u'right', u'right', u'down']",,,[],[],,"[u'1', 2, 6, 11]",[],[],"{u'mouseover': {u'state': {u'target': [], u'time': []}, u'edge': {u'target': [], u'time': []}}, u'click': {u'state': {u'target': [u'3', u'2', u'6', u'11'], u'time': [1563, 2663, 3864, 4625]}, u'edge': {u'target': [], u'time': []}}, u'mouseout': {u'state': {u'target': [], u'time': []}, u'edge': {u'target': [], u'time': []}}}",,,"[6198, 804, 1202]",8.0,,1037493,11.0,0.0,mouselab-mdp,,10
"[16172, 18829, 20405]","[u'left', u'left', u'up']",,,[],[],,"[u'1', 4, 8, 14]",[],[],"{u'mouseover': {u'state': {u'target': [], u'time': []}, u'edge': {u'target': [], u'time': []}}, u'click': {u'state': {u'target': [u'2', u'5', u'4', u'3', u'13', u'7', u'8', u'15'], u'time': [2009, 3121, 4274, 5310, 6719, 7703, 12023, 12826]}, u'edge': {u'target': [], u'time': []}}, u'mouseout': {u'state': {u'target': [], u'time': []}, u'edge': {u'target': [], u'time': []}}}",,,"[16172, 2161, 1084]",-2.0,,1092625,12.0,10.0,mouselab-mdp,,10
"[4223, 5756, 8933]","[u'down', u'down', u'left']",,,[],[],,"[u'1', 5, 9, 16]",[],[],"{u'mouseover': {u'state': {u'target': [], u'time': []}, u'edge': {u'target': [], u'time': []}}, u'click': {u'state': {u'target': [u'5', u'9', u'17'], u'time': [1141, 2115, 2718]}, u'edge': {u'target': [], u'time': []}}, u'mouseout': {u'state': {u'target': [], u'time': []}, u'edge': {u'target': [], u'time': []}}}",,,"[4223, 1040, 2685]",13.0,,1141762,13.0,15.0,mouselab-mdp,,10
"[5074, 6287, 7558]","[u'up', u'up', u'left']",,,[],[],,"[u'1', 3, 7, 12]",[],[],"{u'mouseover': {u'state': {u'target': [], u'time': []}, u'edge': {u'target': [], u'time': []}}, u'click': {u'state': {u'target': [u'3', u'13', u'7'], u'time': [1149, 2333, 3211]}, u'edge': {u'target': [], u'time': []}}, u'mouseout': {u'state': {u'target': [], u'time': []}, u'edge': {u'target': [], u'time': []}}}",,,"[5070, 713, 771]",12.0,,1192944,14.0,1.0,mouselab-mdp,,10
"[6241, 7617, 9234]","[u'down', u'down', u'right']",,,[],[],,"[u'1', 5, 9, 17]",[],[],"{u'mouseover': {u'state': {u'target': [], u'time': []}, u'edge': {u'target': [], u'time': []}}, u'click': {u'state': {u'target': [u'5', u'9', u'17'], u'time': [2485, 3510, 4598]}, u'edge': {u'target': [], u'time': []}}, u'mouseout': {u'state': {u'target': [], u'time': []}, u'edge': {u'target': [], u'time': []}}}",,,"[6241, 860, 1128]",11.0,,1245715,15.0,13.0,mouselab-mdp,,10
"[11697, 12777, 14152]","[u'up', u'up', u'left']",,,[],[],,"[u'1', 3, 7, 12]",[],[],"{u'mouseover': {u'state': {u'target': [], u'time': []}, u'edge': {u'target': [], u'time': []}}, u'click': {u'state': {u'target': [u'3', u'7', u'13'], u'time': [4757, 6139, 7389]}, u'edge': {u'target': [], u'time': []}}, u'mouseout': {u'state': {u'target': [], u'time': []}, u'edge': {u'target': [], u'time': []}}}",,,"[11697, 588, 879]",12.0,,1296120,16.0,8.0,mouselab-mdp,,10
"[6733, 20164, 25384]","[u'left', u'left', u'up']",,,"[0, 0, 0]","[True, True, True]",,"[u'1', 4, 8, 14]","[False, False, False]","[False, False, False]","{u'mouseover': {u'state': {u'target': [], u'time': []}, u'edge': {u'target': [], u'time': []}}, u'click': {u'state': {u'target': [], u'time': []}, u'edge': {u'target': [], u'time': []}}, u'mouseout': {u'state': {u'target': [], u'time': []}, u'edge': {u'target': [], u'time': []}}}",,,"[6733, 3, 4305]",16.0,,410566,1.0,15.0,mouselab-mdp,,11
"[7941, 19252, 21739]","[u'up', u'up', u'right']",,,"[0, 0, 0]","[True, True, True]",,"[u'1', 3, 7, 13]","[False, False, False]","[False, False, False]","{u'mouseover': {u'state': {u'target': [], u'time': []}, u'edge': {u'target': [], u'time': []}}, u'click': {u'state': {u'target': [], u'time': []}, u'edge': {u'target': [], u'time': []}}, u'mouseout': {u'state': {u'target': [], u'time': []}, u'edge': {u'target': [], u'time': []}}}",,,"[7941, 4, 1621]",8.0,,478529,2.0,14.0,mouselab-mdp,,11
"[11793, 25502, 28494]","[u'down', u'down', u'left']",,,"[0, 0, 0]","[True, True, True]",,"[u'1', 5, 9, 16]","[False, False, False]","[True, False, False]","{u'mouseover': {u'state': {u'target': [], u'time': []}, u'edge': {u'target': [], u'time': []}}, u'click': {u'state': {u'target': [u'16'], u'time': [6611]}, u'edge': {u'target': [], u'time': []}}, u'mouseout': {u'state': {u'target': [], u'time': []}, u'edge': {u'target': [], u'time': []}}}",,,"[11793, 4, 2157]",13.0,,542153,3.0,12.0,mouselab-mdp,,11
"[26364, 39964, 41718]","[u'left', u'left', u'down']",,,"[1, 0, 0]","[True, True, True]",,"[u'1', 4, 8, 15]","[False, False, False]","[True, False, False]","{u'mouseover': {u'state': {u'target': [], u'time': []}, u'edge': {u'target': [], u'time': []}}, u'click': {u'state': {u'target': [u'11', u'15'], u'time': [7683, 23190]}, u'edge': {u'target': [], u'time': []}}, u'mouseout': {u'state': {u'target': [], u'time': []}, u'edge': {u'target': [], u'time': []}}}",,,"[26364, 1593, 960]",13.0,,608244,4.0,3.0,mouselab-mdp,,11
"[24880, 35816, 40381]","[u'right', u'right', u'down']",,,"[0, 0, 0]","[True, True, True]",,"[u'1', 2, 6, 11]","[False, False, False]","[True, False, False]","{u'mouseover': {u'state': {u'target': [], u'time': []}, u'edge': {u'target': [], u'time': []}}, u'click': {u'state': {u'target': [u'12'], u'time': [10809]}, u'edge': {u'target': [], u'time': []}}, u'mouseout': {u'state': {u'target': [], u'time': []}, u'edge': {u'target': [], u'time': []}}}",,,"[24880, 3, 3712]",14.0,,672318,5.0,8.0,mouselab-mdp,,11
"[10153, 21994, 22856]","[u'down', u'down', u'right']",,,"[0, 0, 0]","[True, True, True]",,"[u'1', 5, 9, 17]","[False, False, False]","[False, False, False]","{u'mouseover': {u'state': {u'target': [], u'time': []}, u'edge': {u'target': [], u'time': []}}, u'click': {u'state': {u'target': [], u'time': []}, u'edge': {u'target': [], u'time': []}}, u'mouseout': {u'state': {u'target': [], u'time': []}, u'edge': {u'target': [], u'time': []}}}",,,"[10153, 270, 44]",12.0,,736063,6.0,0.0,mouselab-mdp,,11
"[15522, 27015, 27895]","[u'right', u'right', u'down']",,,"[0, 0, 0]","[True, True, True]",,"[u'1', 2, 6, 11]","[False, False, False]","[False, False, False]","{u'mouseover': {u'state': {u'target': [], u'time': []}, u'edge': {u'target': [], u'time': []}}, u'click': {u'state': {u'target': [], u'time': []}, u'edge': {u'target': [], u'time': []}}, u'mouseout': {u'state': {u'target': [], u'time': []}, u'edge': {u'target': [], u'time': []}}}",,,"[15521, 2, 19]",11.0,,800286,7.0,6.0,mouselab-mdp,,11
"[21093, 32144, 33070]","[u'up', u'up', u'left']",,,"[0, 0, 0]","[True, True, True]",,"[u'1', 3, 7, 12]","[False, False, False]","[True, False, False]","{u'mouseover': {u'state': {u'target': [], u'time': []}, u'edge': {u'target': [], u'time': []}}, u'click': {u'state': {u'target': [u'12'], u'time': [19021]}, u'edge': {u'target': [], u'time': []}}, u'mouseout': {u'state': {u'target': [], u'time': []}, u'edge': {u'target': [], u'time': []}}}",,,"[21093, 3, 108]",10.0,,859118,8.0,5.0,mouselab-mdp,,11
"[26826, 37867, 38919]","[u'right', u'right', u'down']",,,"[0, 0, 0]","[True, True, True]",,"[u'1', 2, 6, 11]","[False, False, False]","[True, False, False]","{u'mouseover': {u'state': {u'target': [], u'time': []}, u'edge': {u'target': [], u'time': []}}, u'click': {u'state': {u'target': [u'11'], u'time': [16370]}, u'edge': {u'target': [], u'time': []}}, u'mouseout': {u'state': {u'target': [], u'time': []}, u'edge': {u'target': [], u'time': []}}}",,,"[26826, 4, 130]",4.0,,921286,9.0,10.0,mouselab-mdp,,11
"[7766, 18756, 19979]","[u'down', u'down', u'right']",,,"[0, 0, 0]","[True, True, True]",,"[u'1', 5, 9, 17]","[False, False, False]","[True, False, False]","{u'mouseover': {u'state': {u'target': [], u'time': []}, u'edge': {u'target': [], u'time': []}}, u'click': {u'state': {u'target': [u'17'], u'time': [5456]}, u'edge': {u'target': [], u'time': []}}, u'mouseout': {u'state': {u'target': [], u'time': []}, u'edge': {u'target': [], u'time': []}}}",,,"[7766, 3, 407]",9.0,,986963,10.0,9.0,mouselab-mdp,,11
"[3609, 5300, 6394]","[u'down', u'down', u'right']",,,[],[],,"[u'1', 5, 9, 17]",[],[],"{u'mouseover': {u'state': {u'target': [], u'time': []}, u'edge': {u'target': [], u'time': []}}, u'click': {u'state': {u'target': [], u'time': []}, u'edge': {u'target': [], u'time': []}}, u'mouseout': {u'state': {u'target': [], u'time': []}, u'edge': {u'target': [], u'time': []}}}",,,"[3609, 1176, 603]",14.0,,1054555,11.0,13.0,mouselab-mdp,,11
"[3628, 4507, 5458]","[u'left', u'left', u'down']",,,[],[],,"[u'1', 4, 8, 15]",[],[],"{u'mouseover': {u'state': {u'target': [], u'time': []}, u'edge': {u'target': [], u'time': []}}, u'click': {u'state': {u'target': [], u'time': []}, u'edge': {u'target': [], u'time': []}}, u'mouseout': {u'state': {u'target': [], u'time': []}, u'edge': {u'target': [], u'time': []}}}",,,"[3628, 363, 448]",15.0,,1104495,12.0,2.0,mouselab-mdp,,11
"[1871, 2675, 3708]","[u'up', u'up', u'left']",,,[],[],,"[u'1', 3, 7, 12]",[],[],"{u'mouseover': {u'state': {u'target': [], u'time': []}, u'edge': {u'target': [], u'time': []}}, u'click': {u'state': {u'target': [], u'time': []}, u'edge': {u'target': [], u'time': []}}, u'mouseout': {u'state': {u'target': [], u'time': []}, u'edge': {u'target': [], u'time': []}}}",,,"[1871, 299, 516]",15.0,,1157802,13.0,1.0,mouselab-mdp,,11
"[22179, 23016, 24688]","[u'right', u'right', u'up']",,,[],[],,"[u'1', 2, 6, 10]",[],[],"{u'mouseover': {u'state': {u'target': [], u'time': []}, u'edge': {u'target': [], u'time': []}}, u'click': {u'state': {u'target': [], u'time': []}, u'edge': {u'target': [], u'time': []}}, u'mouseout': {u'state': {u'target': [], u'time': []}, u'edge': {u'target': [], u'time': []}}}",,,"[22179, 351, 1173]",15.0,,1213014,14.0,11.0,mouselab-mdp,,11
"[3589, 4933, 6296]","[u'right', u'right', u'down']",,,[],[],,"[u'1', 2, 6, 11]",[],[],"{u'mouseover': {u'state': {u'target': [], u'time': []}, u'edge': {u'target': [], u'time': []}}, u'click': {u'state': {u'target': [], u'time': []}, u'edge': {u'target': [], u'time': []}}, u'mouseout': {u'state': {u'target': [], u'time': []}, u'edge': {u'target': [], u'time': []}}}",,,"[3589, 834, 847]",17.0,,1269073,15.0,7.0,mouselab-mdp,,11
"[9235, 10995, 12534]","[u'down', u'down', u'left']",,,[],[],,"[u'1', 5, 9, 16]",[],[],"{u'mouseover': {u'state': {u'target': [], u'time': []}, u'edge': {u'target': [], u'time': []}}, u'click': {u'state': {u'target': [], u'time': []}, u'edge': {u'target': [], u'time': []}}, u'mouseout': {u'state': {u'target': [], u'time': []}, u'edge': {u'target': [], u'time': []}}}",,,"[9235, 1246, 1019]",16.0,,1329315,16.0,4.0,mouselab-mdp,,11
"[16938, 34694, 37564]","[u'right', u'right', u'up']",,,"[3, 0, 0]","[False, True, True]",,"[u'1', 2, 6, 10]","[False, False, False]","[True, False, False]","{u'mouseover': {u'state': {u'target': [], u'time': []}, u'edge': {u'target': [], u'time': []}}, u'click': {u'state': {u'target': [u'3', u'5', u'4', u'2', u'11', u'10'], u'time': [2894, 4265, 5535, 7388, 13108, 14060]}, u'edge': {u'target': [], u'time': []}}, u'mouseout': {u'state': {u'target': [], u'time': []}, u'edge': {u'target': [], u'time': []}}}",,,"[16938, 1778, 2030]",9.0,,447917,1.0,2.0,mouselab-mdp,,12
"[8440, 24840, 26512]","[u'up', u'up', u'right']",,,"[1, 0, 0]","[True, True, True]",,"[u'1', 3, 7, 13]","[False, False, False]","[True, False, False]","{u'mouseover': {u'state': {u'target': [], u'time': []}, u'edge': {u'target': [], u'time': []}}, u'click': {u'state': {u'target': [u'3', u'12', u'13'], u'time': [2584, 5267, 6507]}, u'edge': {u'target': [], u'time': []}}, u'mouseout': {u'state': {u'target': [], u'time': []}, u'edge': {u'target': [], u'time': []}}}",,,"[8440, 3434, 832]",12.0,,510430,2.0,11.0,mouselab-mdp,,12
"[10791, 29468, 30421]","[u'right', u'right', u'down']",,,"[2, 0, 0]","[True, True, True]",,"[u'1', 2, 6, 11]","[False, False, False]","[True, False, False]","{u'mouseover': {u'state': {u'target': [], u'time': []}, u'edge': {u'target': [], u'time': []}}, u'click': {u'state': {u'target': [u'4', u'5', u'2', u'11'], u'time': [2337, 3664, 5449, 8944]}, u'edge': {u'target': [], u'time': []}}, u'mouseout': {u'state': {u'target': [], u'time': []}, u'edge': {u'target': [], u'time': []}}}",,,"[10791, 3375, 46]",6.0,,574516,3.0,9.0,mouselab-mdp,,12
