action_times,actions,button_pressed,correct,delays,information_used_correctly,key_press,path,planned_too_little,planned_too_much,queries,questions,responses,rt,score,stimulus,time_elapsed,trial_index,trial_i,trial_type,view_history,pid
,,,"[True, True, True, True, True]",,,,,,,,"[""True or false: The hidden values will change each time I start a new round."",""How much does it cost to observe each hidden value?"",""How many hidden values am I allowed to observe in each round?"",""How is your bonus determined?"",""What does the feedback teach you?""]","[""True"",""$1.00"",""As many or as few as I wish"",""5 cents for every $10 I earn in each round"",""All of the above.""]",28481,,,175771,,,survey-multi-choice,,0
,,,"[True, False, True, True, True]",,,,,,,,"[""True or false: The hidden values will change each time I start a new round."",""How much does it cost to observe each hidden value?"",""How many hidden values am I allowed to observe in each round?"",""How is your bonus determined?"",""What does the feedback teach you?""]","[""True"",""$2.50"",""As many or as few as I wish"",""5 cents for every $10 I earn in each round"",""All of the above.""]",69314,,,205102,,,survey-multi-choice,,1
,,,"[True, True, True, True, True]",,,,,,,,"[""True or false: The hidden values will change each time I start a new round."",""How much does it cost to observe each hidden value?"",""How many hidden values am I allowed to observe in each round?"",""How is your bonus determined?"",""What does the feedback teach you?""]","[""True"",""$1.00"",""As many or as few as I wish"",""5 cents for every $10 I earn in each round"",""All of the above.""]",22055,,,309128,,,survey-multi-choice,,1
,,,"[True, True, True, True, True]",,,,,,,,"[""True or false: The hidden values will change each time I start a new round."",""How much does it cost to observe each hidden value?"",""How many hidden values am I allowed to observe in each round?"",""How is your bonus determined?"",""What does the feedback teach you?""]","[""True"",""$1.00"",""As many or as few as I wish"",""5 cents for every $10 I earn in each round"",""All of the above.""]",25259,,,198095,,,survey-multi-choice,,2
,,,"[True, True, True, True, False]",,,,,,,,"[""True or false: The hidden values will change each time I start a new round."",""How much does it cost to observe each hidden value?"",""How many hidden values am I allowed to observe in each round?"",""How is your bonus determined?"",""What does the feedback teach you?""]","[""True"",""$1.00"",""As many or as few as I wish"",""5 cents for every $10 I earn in each round"",""Whether I chose the move that was best according to the information I had.""]",110874,,,151682,,,survey-multi-choice,,3
,,,"[True, True, True, True, True]",,,,,,,,"[""True or false: The hidden values will change each time I start a new round."",""How much does it cost to observe each hidden value?"",""How many hidden values am I allowed to observe in each round?"",""How is your bonus determined?"",""What does the feedback teach you?""]","[""True"",""$1.00"",""As many or as few as I wish"",""5 cents for every $10 I earn in each round"",""All of the above.""]",7494,,,165420,,,survey-multi-choice,,3
,,,"[True, True, True, True, True]",,,,,,,,"[""True or false: The hidden values will change each time I start a new round."",""How much does it cost to observe each hidden value?"",""How many hidden values am I allowed to observe in each round?"",""How is your bonus determined?"",""What does the feedback teach you?""]","[""True"",""$1.00"",""As many or as few as I wish"",""5 cents for every $10 I earn in each round"",""All of the above.""]",33905,,,281110,,,survey-multi-choice,,4
,,,"[True, True, True, True, True]",,,,,,,,"[""True or false: The hidden values will change each time I start a new round."",""How much does it cost to observe each hidden value?"",""How many hidden values am I allowed to observe in each round?"",""How is your bonus determined?"",""What does the feedback teach you?""]","[""True"",""$1.00"",""As many or as few as I wish"",""5 cents for every $10 I earn in each round"",""All of the above.""]",29561,,,189939,,,survey-multi-choice,,5
,,,"[True, True, True, True, True]",,,,,,,,"[""True or false: The hidden values will change each time I start a new round."",""How much does it cost to observe each hidden value?"",""How many hidden values am I allowed to observe in each round?"",""How is your bonus determined?"",""What does the feedback teach you?""]","[""True"",""$1.00"",""As many or as few as I wish"",""5 cents for every $10 I earn in each round"",""All of the above.""]",24966,,,85434,,,survey-multi-choice,,6
,,,"[True, False, False, True, False]",,,,,,,,"[""True or false: The hidden values will change each time I start a new round."",""How much does it cost to observe each hidden value?"",""How many hidden values am I allowed to observe in each round?"",""How is your bonus determined?"",""What does the feedback teach you?""]","[""True"",""$0.05"",""At most 10"",""5 cents for every $10 I earn in each round"",""The length of the delay is based on how much more money I could have earned by planning and deciding better.""]",28282,,,56773,,,survey-multi-choice,,7
,,,"[True, True, True, True, True]",,,,,,,,"[""True or false: The hidden values will change each time I start a new round."",""How much does it cost to observe each hidden value?"",""How many hidden values am I allowed to observe in each round?"",""How is your bonus determined?"",""What does the feedback teach you?""]","[""True"",""$1.00"",""As many or as few as I wish"",""5 cents for every $10 I earn in each round"",""All of the above.""]",88559,,,228550,,,survey-multi-choice,,7
,,,"[True, True, True, True, True]",,,,,,,,"[""True or false: The hidden values will change each time I start a new round."",""How much does it cost to observe each hidden value?"",""How many hidden values am I allowed to observe in each round?"",""How is your bonus determined?"",""What does the feedback teach you?""]","[""True"",""$1.00"",""As many or as few as I wish"",""5 cents for every $10 I earn in each round"",""All of the above.""]",28055,,,189910,,,survey-multi-choice,,8
,,,"[True, True, True, True, True]",,,,,,,,"[""True or false: The hidden values will change each time I start a new round."",""How much does it cost to observe each hidden value?"",""How many hidden values am I allowed to observe in each round?"",""How is your bonus determined?"",""What does the feedback teach you?""]","[""True"",""$1.00"",""As many or as few as I wish"",""5 cents for every $10 I earn in each round"",""All of the above.""]",24114,,,142605,,,survey-multi-choice,,9
,,,"[True, True, True, True, False]",,,,,,,,"[""True or false: The hidden values will change each time I start a new round."",""How much does it cost to observe each hidden value?"",""How many hidden values am I allowed to observe in each round?"",""How is your bonus determined?"",""What does the feedback teach you?""]","[""True"",""$1.00"",""As many or as few as I wish"",""5 cents for every $10 I earn in each round"",""Whether I chose the move that was best according to the information I had.""]",26891,,,210744,,,survey-multi-choice,,10
,,,"[True, True, True, True, True]",,,,,,,,"[""True or false: The hidden values will change each time I start a new round."",""How much does it cost to observe each hidden value?"",""How many hidden values am I allowed to observe in each round?"",""How is your bonus determined?"",""What does the feedback teach you?""]","[""True"",""$1.00"",""As many or as few as I wish"",""5 cents for every $10 I earn in each round"",""All of the above.""]",15955,,,283680,,,survey-multi-choice,,10
,,,"[True, True, True, True, True]",,,,,,,,"[""True or false: The hidden values will change each time I start a new round."",""How much does it cost to observe each hidden value?"",""How many hidden values am I allowed to observe in each round?"",""How is your bonus determined?"",""What does the feedback teach you?""]","[""True"",""$1.00"",""As many or as few as I wish"",""5 cents for every $10 I earn in each round"",""All of the above.""]",41249,,,333130,,,survey-multi-choice,,11
,,,"[True, True, True, True, True]",,,,,,,,"[""True or false: The hidden values will change each time I start a new round."",""How much does it cost to observe each hidden value?"",""How many hidden values am I allowed to observe in each round?"",""How is your bonus determined?"",""What does the feedback teach you?""]","[""True"",""$1.00"",""As many or as few as I wish"",""5 cents for every $10 I earn in each round"",""All of the above.""]",63968,,,369307,,,survey-multi-choice,,12
,,,"[True, True, True, True, True]",,,,,,,,"[""True or false: The hidden values will change each time I start a new round."",""How much does it cost to observe each hidden value?"",""How many hidden values am I allowed to observe in each round?"",""How is your bonus determined?"",""What does the feedback teach you?""]","[""True"",""$1.00"",""As many or as few as I wish"",""5 cents for every $10 I earn in each round"",""All of the above.""]",42289,,,183839,,,survey-multi-choice,,13
,,,"[True, True, True, True, True]",,,,,,,,"[""True or false: The hidden values will change each time I start a new round."",""How much does it cost to observe each hidden value?"",""How many hidden values am I allowed to observe in each round?"",""How is your bonus determined?"",""What does the feedback teach you?""]","[""True"",""$1.00"",""As many or as few as I wish"",""5 cents for every $10 I earn in each round"",""All of the above.""]",22025,,,185818,,,survey-multi-choice,,14
,,,"[True, True, True, True, True]",,,,,,,,"[""True or false: The hidden values will change each time I start a new round."",""How much does it cost to observe each hidden value?"",""How many hidden values am I allowed to observe in each round?"",""How is your bonus determined?"",""What does the feedback teach you?""]","[""True"",""$1.00"",""As many or as few as I wish"",""5 cents for every $10 I earn in each round"",""All of the above.""]",27809,,,148927,,,survey-multi-choice,,15
,,,"[True, True, False, True, True]",,,,,,,,"[""True or false: The hidden values will change each time I start a new round."",""How much does it cost to observe each hidden value?"",""How many hidden values am I allowed to observe in each round?"",""How is your bonus determined?"",""What does the feedback teach you?""]","[""True"",""$1.00"",""At most 15"",""5 cents for every $10 I earn in each round"",""All of the above.""]",23985,,,289019,,,survey-multi-choice,,16
,,,"[True, False, True, True, True]",,,,,,,,"[""True or false: The hidden values will change each time I start a new round."",""How much does it cost to observe each hidden value?"",""How many hidden values am I allowed to observe in each round?"",""How is your bonus determined?"",""What does the feedback teach you?""]","[""True"",""$0.05"",""As many or as few as I wish"",""5 cents for every $10 I earn in each round"",""All of the above.""]",10514,,,324998,,,survey-multi-choice,,16
,,,"[True, False, True, True, False]",,,,,,,,"[""True or false: The hidden values will change each time I start a new round."",""How much does it cost to observe each hidden value?"",""How many hidden values am I allowed to observe in each round?"",""How is your bonus determined?"",""What does the feedback teach you?""]","[""True"",""$0.05"",""As many or as few as I wish"",""5 cents for every $10 I earn in each round"",""Whether I chose the move that was best according to the information I had.""]",13731,,,366176,,,survey-multi-choice,,16
,,,"[True, True, True, True, False]",,,,,,,,"[""True or false: The hidden values will change each time I start a new round."",""How much does it cost to observe each hidden value?"",""How many hidden values am I allowed to observe in each round?"",""How is your bonus determined?"",""What does the feedback teach you?""]","[""True"",""$1.00"",""As many or as few as I wish"",""5 cents for every $10 I earn in each round"",""Whether I observed the rewards of relevant locations.""]",9893,,,385862,,,survey-multi-choice,,16
,,,"[True, True, True, True, True]",,,,,,,,"[""True or false: The hidden values will change each time I start a new round."",""How much does it cost to observe each hidden value?"",""How many hidden values am I allowed to observe in each round?"",""How is your bonus determined?"",""What does the feedback teach you?""]","[""True"",""$1.00"",""As many or as few as I wish"",""5 cents for every $10 I earn in each round"",""All of the above.""]",16556,,,434523,,,survey-multi-choice,,16
,,,"[True, True, True, True, True]",,,,,,,,"[""True or false: The hidden values will change each time I start a new round."",""How much does it cost to observe each hidden value?"",""How many hidden values am I allowed to observe in each round?"",""How is your bonus determined?"",""What does the feedback teach you?""]","[""True"",""$1.00"",""As many or as few as I wish"",""5 cents for every $10 I earn in each round"",""All of the above.""]",35802,,,213091,,,survey-multi-choice,,17
,,,"[True, False, True, True, True]",,,,,,,,"[""True or false: The hidden values will change each time I start a new round."",""How much does it cost to observe each hidden value?"",""How many hidden values am I allowed to observe in each round?"",""How is your bonus determined?"",""What does the feedback teach you?""]","[""True"",""$0.01"",""As many or as few as I wish"",""5 cents for every $10 I earn in each round"",""All of the above.""]",27566,,,112986,,,survey-multi-choice,,18
,,,"[True, True, True, True, True]",,,,,,,,"[""True or false: The hidden values will change each time I start a new round."",""How much does it cost to observe each hidden value?"",""How many hidden values am I allowed to observe in each round?"",""How is your bonus determined?"",""What does the feedback teach you?""]","[""True"",""$1.00"",""As many or as few as I wish"",""5 cents for every $10 I earn in each round"",""All of the above.""]",22600,,,186461,,,survey-multi-choice,,18
,,,"[True, True, True, True, True]",,,,,,,,"[""True or false: The hidden values will change each time I start a new round."",""How much does it cost to observe each hidden value?"",""How many hidden values am I allowed to observe in each round?"",""How is your bonus determined?"",""What does the feedback teach you?""]","[""True"",""$1.00"",""As many or as few as I wish"",""5 cents for every $10 I earn in each round"",""All of the above.""]",30308,,,264384,,,survey-multi-choice,,19
,,,"[True, True, True, True, True]",,,,,,,,"[""True or false: The hidden values will change each time I start a new round."",""How much does it cost to observe each hidden value?"",""How many hidden values am I allowed to observe in each round?"",""How is your bonus determined?"",""What does the feedback teach you?""]","[""True"",""$1.00"",""As many or as few as I wish"",""5 cents for every $10 I earn in each round"",""All of the above.""]",32138,,,977719,,,survey-multi-choice,,20
,,,"[True, False, True, True, True]",,,,,,,,"[""True or false: The hidden values will change each time I start a new round."",""How much does it cost to observe each hidden value?"",""How many hidden values am I allowed to observe in each round?"",""How is your bonus determined?"",""What does the feedback teach you?""]","[""True"",""$0.05"",""As many or as few as I wish"",""5 cents for every $10 I earn in each round"",""All of the above.""]",47802,,,158617,,,survey-multi-choice,,21
,,,"[True, True, True, True, False]",,,,,,,,"[""True or false: The hidden values will change each time I start a new round."",""How much does it cost to observe each hidden value?"",""How many hidden values am I allowed to observe in each round?"",""How is your bonus determined?"",""What does the feedback teach you?""]","[""True"",""$1.00"",""As many or as few as I wish"",""5 cents for every $10 I earn in each round"",""Whether I chose the move that was best according to the information I had.""]",28681,,,276475,,,survey-multi-choice,,21
,,,"[True, True, True, True, False]",,,,,,,,"[""True or false: The hidden values will change each time I start a new round."",""How much does it cost to observe each hidden value?"",""How many hidden values am I allowed to observe in each round?"",""How is your bonus determined?"",""What does the feedback teach you?""]","[""True"",""$1.00"",""As many or as few as I wish"",""5 cents for every $10 I earn in each round"",""Whether I observed the rewards of relevant locations.""]",29570,,,342590,,,survey-multi-choice,,21
,,,"[True, True, True, True, False]",,,,,,,,"[""True or false: The hidden values will change each time I start a new round."",""How much does it cost to observe each hidden value?"",""How many hidden values am I allowed to observe in each round?"",""How is your bonus determined?"",""What does the feedback teach you?""]","[""True"",""$1.00"",""As many or as few as I wish"",""5 cents for every $10 I earn in each round"",""The length of the delay is based on how much more money I could have earned by planning and deciding better.""]",28742,,,456447,,,survey-multi-choice,,21
,,,"[True, True, True, True, True]",,,,,,,,"[""True or false: The hidden values will change each time I start a new round."",""How much does it cost to observe each hidden value?"",""How many hidden values am I allowed to observe in each round?"",""How is your bonus determined?"",""What does the feedback teach you?""]","[""True"",""$1.00"",""As many or as few as I wish"",""5 cents for every $10 I earn in each round"",""All of the above.""]",14268,,,477662,,,survey-multi-choice,,21
,,,"[True, True, True, True, True]",,,,,,,,"[""True or false: The hidden values will change each time I start a new round."",""How much does it cost to observe each hidden value?"",""How many hidden values am I allowed to observe in each round?"",""How is your bonus determined?"",""What does the feedback teach you?""]","[""True"",""$1.00"",""As many or as few as I wish"",""5 cents for every $10 I earn in each round"",""All of the above.""]",17435,,,134138,,,survey-multi-choice,,22
,,,"[True, True, True, True, False]",,,,,,,,"[""True or false: The hidden values will change each time I start a new round."",""How much does it cost to observe each hidden value?"",""How many hidden values am I allowed to observe in each round?"",""How is your bonus determined?"",""What does the feedback teach you?""]","[""True"",""$1.00"",""As many or as few as I wish"",""5 cents for every $10 I earn in each round"",""Whether I chose the move that was best according to the information I had.""]",59304,,,298766,,,survey-multi-choice,,23
,,,"[True, True, True, True, True]",,,,,,,,"[""True or false: The hidden values will change each time I start a new round."",""How much does it cost to observe each hidden value?"",""How many hidden values am I allowed to observe in each round?"",""How is your bonus determined?"",""What does the feedback teach you?""]","[""True"",""$1.00"",""As many or as few as I wish"",""5 cents for every $10 I earn in each round"",""All of the above.""]",24166,,,458980,,,survey-multi-choice,,23
,,,"[True, True, True, True, True]",,,,,,,,"[""True or false: The hidden values will change each time I start a new round."",""How much does it cost to observe each hidden value?"",""How many hidden values am I allowed to observe in each round?"",""How is your bonus determined?"",""What does the feedback teach you?""]","[""True"",""$1.00"",""As many or as few as I wish"",""5 cents for every $10 I earn in each round"",""All of the above.""]",21308,,,95162,,,survey-multi-choice,,24
,,,"[True, False, True, True, False]",,,,,,,,"[""True or false: The hidden values will change each time I start a new round."",""How much does it cost to observe each hidden value?"",""How many hidden values am I allowed to observe in each round?"",""How is your bonus determined?"",""What does the feedback teach you?""]","[""True"",""$0.05"",""As many or as few as I wish"",""5 cents for every $10 I earn in each round"",""The length of the delay is based on how much more money I could have earned by planning and deciding better.""]",60224,,,191028,,,survey-multi-choice,,25
,,,"[True, True, True, True, False]",,,,,,,,"[""True or false: The hidden values will change each time I start a new round."",""How much does it cost to observe each hidden value?"",""How many hidden values am I allowed to observe in each round?"",""How is your bonus determined?"",""What does the feedback teach you?""]","[""True"",""$1.00"",""As many or as few as I wish"",""5 cents for every $10 I earn in each round"",""The length of the delay is based on how much more money I could have earned by planning and deciding better.""]",23177,,,327335,,,survey-multi-choice,,25
,,,"[True, True, True, True, True]",,,,,,,,"[""True or false: The hidden values will change each time I start a new round."",""How much does it cost to observe each hidden value?"",""How many hidden values am I allowed to observe in each round?"",""How is your bonus determined?"",""What does the feedback teach you?""]","[""True"",""$1.00"",""As many or as few as I wish"",""5 cents for every $10 I earn in each round"",""All of the above.""]",16645,,,401940,,,survey-multi-choice,,25
,,,"[True, False, False, True, True]",,,,,,,,"[""True or false: The hidden values will change each time I start a new round."",""How much does it cost to observe each hidden value?"",""How many hidden values am I allowed to observe in each round?"",""How is your bonus determined?"",""What does the feedback teach you?""]","[""True"",""$0.05"",""At most 5"",""5 cents for every $10 I earn in each round"",""All of the above.""]",20832,,,56846,,,survey-multi-choice,,26
,,,"[True, True, True, True, False]",,,,,,,,"[""True or false: The hidden values will change each time I start a new round."",""How much does it cost to observe each hidden value?"",""How many hidden values am I allowed to observe in each round?"",""How is your bonus determined?"",""What does the feedback teach you?""]","[""True"",""$1.00"",""As many or as few as I wish"",""5 cents for every $10 I earn in each round"",""The length of the delay is based on how much more money I could have earned by planning and deciding better.""]",35729,,,207030,,,survey-multi-choice,,26
,,,"[True, True, True, True, True]",,,,,,,,"[""True or false: The hidden values will change each time I start a new round."",""How much does it cost to observe each hidden value?"",""How many hidden values am I allowed to observe in each round?"",""How is your bonus determined?"",""What does the feedback teach you?""]","[""True"",""$1.00"",""As many or as few as I wish"",""5 cents for every $10 I earn in each round"",""All of the above.""]",13375,,,229321,,,survey-multi-choice,,26
,,,"[True, True, True, True, True]",,,,,,,,"[""True or false: The hidden values will change each time I start a new round."",""How much does it cost to observe each hidden value?"",""How many hidden values am I allowed to observe in each round?"",""How is your bonus determined?"",""What does the feedback teach you?""]","[""True"",""$1.00"",""As many or as few as I wish"",""5 cents for every $10 I earn in each round"",""All of the above.""]",25793,,,184610,,,survey-multi-choice,,27
,,,"[True, True, True, True, True]",,,,,,,,"[""True or false: The hidden values will change each time I start a new round."",""How much does it cost to observe each hidden value?"",""How many hidden values am I allowed to observe in each round?"",""How is your bonus determined?"",""What does the feedback teach you?""]","[""True"",""$1.00"",""As many or as few as I wish"",""5 cents for every $10 I earn in each round"",""All of the above.""]",36243,,,208605,,,survey-multi-choice,,28
,,,"[True, True, True, True, True]",,,,,,,,"[""True or false: The hidden values will change each time I start a new round."",""How much does it cost to observe each hidden value?"",""How many hidden values am I allowed to observe in each round?"",""How is your bonus determined?"",""What does the feedback teach you?""]","[""True"",""$1.00"",""As many or as few as I wish"",""5 cents for every $10 I earn in each round"",""All of the above.""]",22368,,,324893,,,survey-multi-choice,,29
,,,"[True, True, True, True, True]",,,,,,,,"[""True or false: The hidden values will change each time I start a new round."",""How much does it cost to observe each hidden value?"",""How many hidden values am I allowed to observe in each round?"",""How is your bonus determined?"",""What does the feedback teach you?""]","[""True"",""$1.00"",""As many or as few as I wish"",""5 cents for every $10 I earn in each round"",""All of the above.""]",24117,,,348249,,,survey-multi-choice,,30
,,,"[True, True, True, True, True]",,,,,,,,"[""True or false: The hidden values will change each time I start a new round."",""How much does it cost to observe each hidden value?"",""How many hidden values am I allowed to observe in each round?"",""How is your bonus determined?"",""What does the feedback teach you?""]","[""True"",""$1.00"",""As many or as few as I wish"",""5 cents for every $10 I earn in each round"",""All of the above.""]",23304,,,151624,,,survey-multi-choice,,31
,,,"[True, True, True, True, True]",,,,,,,,"[""True or false: The hidden values will change each time I start a new round."",""How much does it cost to observe each hidden value?"",""How many hidden values am I allowed to observe in each round?"",""How is your bonus determined?"",""What does the feedback teach you?""]","[""True"",""$1.00"",""As many or as few as I wish"",""5 cents for every $10 I earn in each round"",""All of the above.""]",89291,,,360186,,,survey-multi-choice,,32
,,,"[True, True, True, True, True]",,,,,,,,"[""True or false: The hidden values will change each time I start a new round."",""How much does it cost to observe each hidden value?"",""How many hidden values am I allowed to observe in each round?"",""How is your bonus determined?"",""What does the feedback teach you?""]","[""True"",""$1.00"",""As many or as few as I wish"",""5 cents for every $10 I earn in each round"",""All of the above.""]",30814,,,212529,,,survey-multi-choice,,33
,,,"[False, False, True, True, True]",,,,,,,,"[""True or false: The hidden values will change each time I start a new round."",""How much does it cost to observe each hidden value?"",""How many hidden values am I allowed to observe in each round?"",""How is your bonus determined?"",""What does the feedback teach you?""]","[""False"",""$0.05"",""As many or as few as I wish"",""5 cents for every $10 I earn in each round"",""All of the above.""]",45527,,,170036,,,survey-multi-choice,,34
,,,"[True, True, True, True, True]",,,,,,,,"[""True or false: The hidden values will change each time I start a new round."",""How much does it cost to observe each hidden value?"",""How many hidden values am I allowed to observe in each round?"",""How is your bonus determined?"",""What does the feedback teach you?""]","[""True"",""$1.00"",""As many or as few as I wish"",""5 cents for every $10 I earn in each round"",""All of the above.""]",12518,,,272885,,,survey-multi-choice,,34
,,,"[True, True, True, True, True]",,,,,,,,"[""True or false: The hidden values will change each time I start a new round."",""How much does it cost to observe each hidden value?"",""How many hidden values am I allowed to observe in each round?"",""How is your bonus determined?"",""What does the feedback teach you?""]","[""True"",""$1.00"",""As many or as few as I wish"",""5 cents for every $10 I earn in each round"",""All of the above.""]",30274,,,146829,,,survey-multi-choice,,35
,,,"[True, True, True, True, True]",,,,,,,,"[""True or false: The hidden values will change each time I start a new round."",""How much does it cost to observe each hidden value?"",""How many hidden values am I allowed to observe in each round?"",""How is your bonus determined?"",""What does the feedback teach you?""]","[""True"",""$1.00"",""As many or as few as I wish"",""5 cents for every $10 I earn in each round"",""All of the above.""]",17512,,,82607,,,survey-multi-choice,,36
