p_rdata,action_times,actions,beliefs,correct,delays,information_used_correctly,meta_actions,path,planned_too_little,planned_too_much,queries,questions,responses,rt,score,time_elapsed,trial_index,trial_id,trial_type,view_history,pid
,,,,,,,,,,,,,,179709,,179710,,,instructions,"[{""page_index"":0,""viewing_time"":77393},{""page_index"":1,""viewing_time"":53692},{""page_index"":2,""viewing_time"":48623}]",0
,,,,,,,,,,,,,,59859,,59860,,,instructions,"[{""page_index"":0,""viewing_time"":25238},{""page_index"":1,""viewing_time"":21789},{""page_index"":2,""viewing_time"":12830}]",1
,,,,,,,,,,,,,,88098,,88100,,,instructions,"[{""page_index"":0,""viewing_time"":33836},{""page_index"":1,""viewing_time"":201},{""page_index"":0,""viewing_time"":1537},{""page_index"":1,""viewing_time"":33140},{""page_index"":2,""viewing_time"":19383}]",2
,,,,,,,,,,,,,,44877,,175457,,,instructions,"[{""page_index"":0,""viewing_time"":20829},{""page_index"":1,""viewing_time"":14928},{""page_index"":2,""viewing_time"":9120}]",2
,,,,,,,,,,,,,,100371,,100372,,,instructions,"[{""page_index"":0,""viewing_time"":54876},{""page_index"":1,""viewing_time"":22587},{""page_index"":2,""viewing_time"":22907}]",3
,,,,,,,,,,,,,,32070,,32072,,,instructions,"[{""page_index"":0,""viewing_time"":20397},{""page_index"":1,""viewing_time"":4287},{""page_index"":2,""viewing_time"":7385}]",4
,,,,,,,,,,,,,,33145,,82361,,,instructions,"[{""page_index"":0,""viewing_time"":14817},{""page_index"":1,""viewing_time"":10487},{""page_index"":2,""viewing_time"":7840}]",4
,,,,,,,,,,,,,,150668,,150669,,,instructions,"[{""page_index"":0,""viewing_time"":61381},{""page_index"":1,""viewing_time"":46038},{""page_index"":2,""viewing_time"":43248}]",5
,,,,,,,,,,,,,,79651,,79652,,,instructions,"[{""page_index"":0,""viewing_time"":36961},{""page_index"":1,""viewing_time"":23825},{""page_index"":2,""viewing_time"":18864}]",6
,,,,,,,,,,,,,,7883,,7884,,,instructions,"[{""page_index"":0,""viewing_time"":5806},{""page_index"":1,""viewing_time"":1571},{""page_index"":2,""viewing_time"":505}]",7
,,,,,,,,,,,,,,73547,,93962,,,instructions,"[{""page_index"":0,""viewing_time"":69934},{""page_index"":1,""viewing_time"":1168},{""page_index"":2,""viewing_time"":2444}]",7
,,,,,,,,,,,,,,195658,,303288,,,instructions,"[{""page_index"":0,""viewing_time"":182235},{""page_index"":1,""viewing_time"":8062},{""page_index"":2,""viewing_time"":5361}]",7
,,,,,,,,,,,,,,11306,,332527,,,instructions,"[{""page_index"":0,""viewing_time"":9928},{""page_index"":1,""viewing_time"":812},{""page_index"":2,""viewing_time"":562}]",7
,,,,,,,,,,,,,,64995,,64996,,,instructions,"[{""page_index"":0,""viewing_time"":36804},{""page_index"":1,""viewing_time"":4161},{""page_index"":2,""viewing_time"":24029}]",8
,,,,,,,,,,,,,,57828,,148618,,,instructions,"[{""page_index"":0,""viewing_time"":8591},{""page_index"":1,""viewing_time"":32868},{""page_index"":2,""viewing_time"":16368}]",8
,,,,,,,,,,,,,,23886,,186959,,,instructions,"[{""page_index"":0,""viewing_time"":20864},{""page_index"":1,""viewing_time"":1618},{""page_index"":2,""viewing_time"":1404}]",8
,,,,,,,,,,,,,,23129,,225251,,,instructions,"[{""page_index"":0,""viewing_time"":9365},{""page_index"":1,""viewing_time"":12684},{""page_index"":2,""viewing_time"":1080}]",8
,,,,,,,,,,,,,,136499,,136499,,,instructions,"[{""page_index"":0,""viewing_time"":62253},{""page_index"":1,""viewing_time"":40889},{""page_index"":2,""viewing_time"":33356}]",9
,,,,,,,,,,,,,,43952,,43957,,,instructions,"[{""page_index"":0,""viewing_time"":9824},{""page_index"":1,""viewing_time"":16040},{""page_index"":2,""viewing_time"":18088}]",10
,,,,,,,,,,,,,,51635,,51635,,,instructions,"[{""page_index"":0,""viewing_time"":19349},{""page_index"":1,""viewing_time"":18887},{""page_index"":2,""viewing_time"":13399}]",11
,,,,,,,,,,,,,,80889,,80890,,,instructions,"[{""page_index"":0,""viewing_time"":24048},{""page_index"":1,""viewing_time"":36159},{""page_index"":2,""viewing_time"":20680}]",12
,,,,,,,,,,,,,,10738,,10739,,,instructions,"[{""page_index"":0,""viewing_time"":1833},{""page_index"":1,""viewing_time"":1632},{""page_index"":2,""viewing_time"":7272}]",13
,,,,,,,,,,,,,,50746,,81702,,,instructions,"[{""page_index"":0,""viewing_time"":25806},{""page_index"":1,""viewing_time"":12920},{""page_index"":2,""viewing_time"":12020}]",13
,,,,,,,,,,,,,,141668,,141669,,,instructions,"[{""page_index"":0,""viewing_time"":72536},{""page_index"":1,""viewing_time"":45561},{""page_index"":2,""viewing_time"":23569}]",14
,,,,,,,,,,,,,,76737,,76738,,,instructions,"[{""page_index"":0,""viewing_time"":37241},{""page_index"":1,""viewing_time"":21679},{""page_index"":2,""viewing_time"":17816}]",15
,,,,,,,,,,,,,,11400,,114608,,,instructions,"[{""page_index"":0,""viewing_time"":6367},{""page_index"":1,""viewing_time"":3536},{""page_index"":2,""viewing_time"":1496}]",15
,,,,,,,,,,,,,,90090,,90092,,,instructions,"[{""page_index"":0,""viewing_time"":37789},{""page_index"":1,""viewing_time"":31338},{""page_index"":2,""viewing_time"":20961}]",16
,,,,,,,,,,,,,,82622,,82624,,,instructions,"[{""page_index"":0,""viewing_time"":25361},{""page_index"":1,""viewing_time"":40405},{""page_index"":2,""viewing_time"":16855}]",17
,,,,,,,,,,,,,,31565,,136747,,,instructions,"[{""page_index"":0,""viewing_time"":8472},{""page_index"":1,""viewing_time"":16752},{""page_index"":2,""viewing_time"":6341}]",17
,,,,,,,,,,,,,,101205,,101206,,,instructions,"[{""page_index"":0,""viewing_time"":49886},{""page_index"":1,""viewing_time"":33490},{""page_index"":2,""viewing_time"":17828}]",18
,,,,,,,,,,,,,,17843,,17844,,,instructions,"[{""page_index"":0,""viewing_time"":8245},{""page_index"":1,""viewing_time"":3153},{""page_index"":2,""viewing_time"":6445}]",19
,,,,,,,,,,,,,,82151,,82155,,,instructions,"[{""page_index"":0,""viewing_time"":29791},{""page_index"":1,""viewing_time"":27553},{""page_index"":2,""viewing_time"":24801}]",20
,,,,,,,,,,,,,,143289,,143290,,,instructions,"[{""page_index"":0,""viewing_time"":48102},{""page_index"":1,""viewing_time"":67917},{""page_index"":2,""viewing_time"":27270}]",21
,,,,,,,,,,,,,,107751,,107753,,,instructions,"[{""page_index"":0,""viewing_time"":30797},{""page_index"":1,""viewing_time"":41640},{""page_index"":2,""viewing_time"":35313}]",22
,,,,,,,,,,,,,,170458,,170460,,,instructions,"[{""page_index"":0,""viewing_time"":107298},{""page_index"":1,""viewing_time"":61317},{""page_index"":2,""viewing_time"":1841}]",23
,,,,,,,,,,,,,,46869,,241848,,,instructions,"[{""page_index"":0,""viewing_time"":2829},{""page_index"":1,""viewing_time"":17746},{""page_index"":2,""viewing_time"":26294}]",23
,,,,,,,,,,,,,,117786,,117788,,,instructions,"[{""page_index"":0,""viewing_time"":42098},{""page_index"":1,""viewing_time"":54795},{""page_index"":2,""viewing_time"":20892}]",24
,,,,,,,,,,,,,,97449,,97450,,,instructions,"[{""page_index"":0,""viewing_time"":39538},{""page_index"":1,""viewing_time"":33976},{""page_index"":2,""viewing_time"":23935}]",25
,,,,,,,,,,,,,,204512,,204513,,,instructions,"[{""page_index"":0,""viewing_time"":105269},{""page_index"":1,""viewing_time"":69111},{""page_index"":2,""viewing_time"":30129}]",26
,,,,,,,,,,,,,,65757,,65757,,,instructions,"[{""page_index"":0,""viewing_time"":26765},{""page_index"":1,""viewing_time"":24551},{""page_index"":2,""viewing_time"":14440}]",27
,,,,,,,,,,,,,,74778,,74779,,,instructions,"[{""page_index"":0,""viewing_time"":25554},{""page_index"":1,""viewing_time"":32036},{""page_index"":2,""viewing_time"":17188}]",28
,,,,,,,,,,,,,,142913,,142914,,,instructions,"[{""page_index"":0,""viewing_time"":62317},{""page_index"":1,""viewing_time"":48602},{""page_index"":2,""viewing_time"":31994}]",29
,,,,,,,,,,,,,,216804,,216806,,,instructions,"[{""page_index"":0,""viewing_time"":50809},{""page_index"":1,""viewing_time"":83300},{""page_index"":2,""viewing_time"":63409},{""page_index"":1,""viewing_time"":16748},{""page_index"":2,""viewing_time"":2536}]",30
,,,,,,,,,,,,,,106372,,106374,,,instructions,"[{""page_index"":0,""viewing_time"":44562},{""page_index"":1,""viewing_time"":34186},{""page_index"":2,""viewing_time"":27621}]",31
,,,,,,,,,,,,,,78381,,78382,,,instructions,"[{""page_index"":0,""viewing_time"":40168},{""page_index"":1,""viewing_time"":23961},{""page_index"":2,""viewing_time"":14251}]",32
,,,,,,,,,,,,,,1540017,,1540017,,,instructions,"[{""page_index"":0,""viewing_time"":1278263},{""page_index"":1,""viewing_time"":7313},{""page_index"":2,""viewing_time"":254438}]",33
,,,,,,,,,,,,,,143271,,143271,,,instructions,"[{""page_index"":0,""viewing_time"":56320},{""page_index"":1,""viewing_time"":38982},{""page_index"":2,""viewing_time"":47968}]",34
,,,,,,,,,,,,,,70097,,70097,,,instructions,"[{""page_index"":0,""viewing_time"":20675},{""page_index"":1,""viewing_time"":35509},{""page_index"":2,""viewing_time"":13912}]",35
,,,,,,,,,,,,,,60905,,60905,,,instructions,"[{""page_index"":0,""viewing_time"":34505},{""page_index"":1,""viewing_time"":13280},{""page_index"":2,""viewing_time"":13119}]",36
,,,,,,,,,,,,,,169570,,169572,,,instructions,"[{""page_index"":0,""viewing_time"":79625},{""page_index"":1,""viewing_time"":55216},{""page_index"":2,""viewing_time"":34728}]",37
,,,,,,,,,,,,,,29143,,238308,,,instructions,"[{""page_index"":0,""viewing_time"":7365},{""page_index"":1,""viewing_time"":2904},{""page_index"":2,""viewing_time"":18873}]",37
,,,,,,,,,,,,,,54461,,320313,,,instructions,"[{""page_index"":0,""viewing_time"":19382},{""page_index"":1,""viewing_time"":27984},{""page_index"":2,""viewing_time"":7095}]",37
,,,,,,,,,,,,,,128525,,128528,,,instructions,"[{""page_index"":0,""viewing_time"":59001},{""page_index"":1,""viewing_time"":44570},{""page_index"":2,""viewing_time"":24953}]",38
,,,,,,,,,,,,,,112834,,112836,,,instructions,"[{""page_index"":0,""viewing_time"":39387},{""page_index"":1,""viewing_time"":347},{""page_index"":2,""viewing_time"":1321},{""page_index"":1,""viewing_time"":752},{""page_index"":0,""viewing_time"":11685},{""page_index"":1,""viewing_time"":34087},{""page_index"":2,""viewing_time"":25254}]",39
,,,,,,,,,,,,,,12748,,12749,,,instructions,"[{""page_index"":0,""viewing_time"":2332},{""page_index"":1,""viewing_time"":4399},{""page_index"":2,""viewing_time"":6015}]",40
,,,,,,,,,,,,,,29130,,95144,,,instructions,"[{""page_index"":0,""viewing_time"":11454},{""page_index"":1,""viewing_time"":10593},{""page_index"":2,""viewing_time"":7082}]",40
