p_rdata,action_times,actions,beliefs,correct,delays,information_used_correctly,meta_actions,path,planned_too_little,planned_too_much,queries,questions,responses,rt,score,time_elapsed,trial_index,trial_id,trial_type,view_history,pid
"[{u'Q': 36, u'action': u'__TERM_ACTION__', u'Qs': {u'1': -12, u'9': 12, u'13': -4, u'5': 36}, u'state': [0, u'__', u'__', u'__', u'__', 12, u'__', u'__', u'__', u'__', u'__', u'__', u'__', u'__', u'__', u'__', u'__'], u'V': 36}]","[10419, 37091, 44324]","[u'1', u'1', u'0']","[[0, u'__', u'__', u'__', u'__', u'__', u'__', u'__', u'__', u'__', u'__', u'__', u'__', u'__', u'__', u'__', u'__'], [0, u'__', u'__', u'__', u'__', 12, u'__', u'__', u'__', u'__', u'__', u'__', u'__', u'__', u'__', u'__', u'__']]",,[None],[True],"[5, u'__TERM_ACTION__']","[5, 6, 8]",[False],[False],"{u'mouseover': {u'state': {u'target': [], u'time': []}, u'edge': {u'target': [], u'time': []}}, u'click': {u'state': {u'target': [5], u'time': [3947]}, u'edge': {u'target': [], u'time': []}}, u'mouseout': {u'state': {u'target': [], u'time': []}, u'edge': {u'target': [], u'time': []}}}",,,"[10419, 26175, 6731]",35.99,257501,1.0,1.0,mouselab-mdp,,0
"[{u'Q': 36, u'action': u'__TERM_ACTION__', u'Qs': {u'1': 20, u'9': 36, u'13': -4, u'5': -4}, u'state': [0, u'__', u'__', u'__', u'__', u'__', u'__', u'__', u'__', 20, u'__', u'__', 4, -4, -4, u'__', 4], u'V': 36}]","[23524, 24869, 26012]","[u'2', u'2', u'1']","[[0, u'__', u'__', u'__', u'__', u'__', u'__', u'__', u'__', u'__', u'__', u'__', u'__', u'__', u'__', u'__', u'__'], [0, u'__', u'__', u'__', u'__', u'__', u'__', u'__', u'__', u'__', u'__', u'__', u'__', -4, u'__', u'__', u'__'], [0, u'__', u'__', u'__', u'__', u'__', u'__', u'__', u'__', u'__', u'__', u'__', u'__', -4, u'__', u'__', 4], [0, u'__', u'__', u'__', u'__', u'__', u'__', u'__', u'__', u'__', u'__', u'__', u'__', -4, -4, u'__', 4], [0, u'__', u'__', u'__', u'__', u'__', u'__', u'__', u'__', 20, u'__', u'__', u'__', -4, -4, u'__', 4], [0, u'__', u'__', u'__', u'__', u'__', u'__', u'__', u'__', 20, u'__', u'__', 4, -4, -4, u'__', 4]]",,[None],[True],"[13, 16, 14, 9, 12, u'__TERM_ACTION__']","[9, 10, 12]",[False],[False],"{u'mouseover': {u'state': {u'target': [], u'time': []}, u'edge': {u'target': [], u'time': []}}, u'click': {u'state': {u'target': [13, 16, 14, 9, 12], u'time': [4126, 7749, 11689, 14706, 20905]}, u'edge': {u'target': [], u'time': []}}, u'mouseout': {u'state': {u'target': [], u'time': []}, u'edge': {u'target': [], u'time': []}}}",,,"[23524, 857, 652]",27.95,300068,2.0,12.0,mouselab-mdp,,0
"[{u'Q': 28, u'action': u'__TERM_ACTION__', u'Qs': {u'1': 28, u'9': 36, u'13': -4, u'5': 20}, u'state': [0, 20, u'__', 4, -4, u'__', u'__', u'__', u'__', u'__', u'__', u'__', u'__', u'__', u'__', u'__', u'__'], u'V': 36}]","[9416, 10520, 11552]","[u'0', u'0', u'1']","[[0, u'__', u'__', u'__', u'__', u'__', u'__', u'__', u'__', u'__', u'__', u'__', u'__', u'__', u'__', u'__', u'__'], [0, 20, u'__', u'__', u'__', u'__', u'__', u'__', u'__', u'__', u'__', u'__', u'__', u'__', u'__', u'__', u'__'], [0, 20, u'__', u'__', -4, u'__', u'__', u'__', u'__', u'__', u'__', u'__', u'__', u'__', u'__', u'__', u'__'], [0, 20, u'__', 4, -4, u'__', u'__', u'__', u'__', u'__', u'__', u'__', u'__', u'__', u'__', u'__', u'__']]",,[None],[True],"[1, 4, 3, u'__TERM_ACTION__']","[1, 2, 3]",[True],[False],"{u'mouseover': {u'state': {u'target': [], u'time': []}, u'edge': {u'target': [], u'time': []}}, u'click': {u'state': {u'target': [1, 4, 3], u'time': [1866, 4732, 6918]}, u'edge': {u'target': [], u'time': []}}, u'mouseout': {u'state': {u'target': [], u'time': []}, u'edge': {u'target': [], u'time': []}}}",,,"[9416, 608, 541]",27.97,349261,3.0,2.0,mouselab-mdp,,0
"[{u'Q': -4, u'action': u'__TERM_ACTION__', u'Qs': {u'1': 4, u'9': 20, u'13': -20, u'5': -4}, u'state': [0, u'__', u'__', u'__', u'__', 4, u'__', 12, u'__', u'__', u'__', u'__', u'__', 4, u'__', -12, -12], u'V': 20}]","[15575, 16631, 18039]","[u'1', u'1', u'2']","[[0, u'__', u'__', u'__', u'__', u'__', u'__', u'__', u'__', u'__', u'__', u'__', u'__', u'__', u'__', u'__', u'__'], [0, u'__', u'__', u'__', u'__', u'__', u'__', u'__', u'__', u'__', u'__', u'__', u'__', 4, u'__', u'__', u'__'], [0, u'__', u'__', u'__', u'__', u'__', u'__', u'__', u'__', u'__', u'__', u'__', u'__', 4, u'__', u'__', -12], [0, u'__', u'__', u'__', u'__', u'__', u'__', u'__', u'__', u'__', u'__', u'__', u'__', 4, u'__', -12, -12], [0, u'__', u'__', u'__', u'__', 4, u'__', u'__', u'__', u'__', u'__', u'__', u'__', 4, u'__', -12, -12], [0, u'__', u'__', u'__', u'__', 4, u'__', 12, u'__', u'__', u'__', u'__', u'__', 4, u'__', -12, -12]]",,[None],[True],"[13, 16, 15, 5, 7, u'__TERM_ACTION__']","[5, 6, 7]",[True],[False],"{u'mouseover': {u'state': {u'target': [], u'time': []}, u'edge': {u'target': [], u'time': []}}, u'click': {u'state': {u'target': [13, 16, 15, 5, 7], u'time': [1902, 3718, 6876, 10711, 13258]}, u'edge': {u'target': [], u'time': []}}, u'mouseout': {u'state': {u'target': [], u'time': []}, u'edge': {u'target': [], u'time': []}}}",,,"[15575, 563, 922]",-4.05,391845,4.0,8.0,mouselab-mdp,,0
"[{u'Q': 28, u'action': u'__TERM_ACTION__', u'Qs': {u'1': 4, u'9': 28, u'13': 4, u'5': -36}, u'state': [0, u'__', u'__', u'__', u'__', u'__', u'__', u'__', u'__', 4, u'__', u'__', 20, u'__', u'__', u'__', u'__'], u'V': 28}]","[5583, 6479, 7311]","[u'2', u'2', u'1']","[[0, u'__', u'__', u'__', u'__', u'__', u'__', u'__', u'__', u'__', u'__', u'__', u'__', u'__', u'__', u'__', u'__'], [0, u'__', u'__', u'__', u'__', u'__', u'__', u'__', u'__', 4, u'__', u'__', u'__', u'__', u'__', u'__', u'__'], [0, u'__', u'__', u'__', u'__', u'__', u'__', u'__', u'__', 4, u'__', u'__', 20, u'__', u'__', u'__', u'__']]",,[None],[True],"[9, 12, u'__TERM_ACTION__']","[9, 10, 12]",[False],[False],"{u'mouseover': {u'state': {u'target': [], u'time': []}, u'edge': {u'target': [], u'time': []}}, u'click': {u'state': {u'target': [9, 12], u'time': [1948, 3666]}, u'edge': {u'target': [], u'time': []}}, u'mouseout': {u'state': {u'target': [], u'time': []}, u'edge': {u'target': [], u'time': []}}}",,,"[5583, 395, 346]",27.98,433117,5.0,10.0,mouselab-mdp,,0
"[{u'Q': 20, u'action': u'__TERM_ACTION__', u'Qs': {u'1': 20, u'9': 28, u'13': 12, u'5': 12}, u'state': [0, 12, u'__', u'__', 4, -4, u'__', 12, -4, u'__', u'__', u'__', u'__', u'__', u'__', u'__', u'__'], u'V': 28}]","[22784, 23776, 24712]","[u'0', u'0', u'3']","[[0, u'__', u'__', u'__', u'__', u'__', u'__', u'__', u'__', u'__', u'__', u'__', u'__', u'__', u'__', u'__', u'__'], [0, u'__', u'__', u'__', u'__', -4, u'__', u'__', u'__', u'__', u'__', u'__', u'__', u'__', u'__', u'__', u'__'], [0, u'__', u'__', u'__', u'__', -4, u'__', u'__', -4, u'__', u'__', u'__', u'__', u'__', u'__', u'__', u'__'], [0, 12, u'__', u'__', u'__', -4, u'__', u'__', -4, u'__', u'__', u'__', u'__', u'__', u'__', u'__', u'__'], [0, 12, u'__', u'__', 4, -4, u'__', u'__', -4, u'__', u'__', u'__', u'__', u'__', u'__', u'__', u'__'], [0, 12, u'__', u'__', 4, -4, u'__', 12, -4, u'__', u'__', u'__', u'__', u'__', u'__', u'__', u'__']]",,[None],[True],"[5, 8, 1, 4, 7, u'__TERM_ACTION__']","[1, 2, 4]",[True],[False],"{u'mouseover': {u'state': {u'target': [], u'time': []}, u'edge': {u'target': [], u'time': []}}, u'click': {u'state': {u'target': [5, 8, 1, 4, 7], u'time': [1921, 5504, 9046, 12413, 18253]}, u'edge': {u'target': [], u'time': []}}, u'mouseout': {u'state': {u'target': [], u'time': []}, u'edge': {u'target': [], u'time': []}}}",,,"[22784, 496, 434]",19.95,473900,6.0,6.0,mouselab-mdp,,0
"[{u'Q': 36, u'action': u'__TERM_ACTION__', u'Qs': {u'1': 12, u'9': 36, u'13': 28, u'5': 4}, u'state': [0, -4, u'__', u'__', u'__', u'__', u'__', u'__', u'__', 4, u'__', -20, 20, u'__', u'__', u'__', u'__'], u'V': 36}]","[21135, 22271, 23567]","[u'2', u'2', u'1']","[[0, u'__', u'__', u'__', u'__', u'__', u'__', u'__', u'__', u'__', u'__', u'__', u'__', u'__', u'__', u'__', u'__'], [0, u'__', u'__', u'__', u'__', u'__', u'__', u'__', u'__', 4, u'__', u'__', u'__', u'__', u'__', u'__', u'__'], [0, u'__', u'__', u'__', u'__', u'__', u'__', u'__', u'__', 4, u'__', -20, u'__', u'__', u'__', u'__', u'__'], [0, u'__', u'__', u'__', u'__', u'__', u'__', u'__', u'__', 4, u'__', -20, 20, u'__', u'__', u'__', u'__'], [0, -4, u'__', u'__', u'__', u'__', u'__', u'__', u'__', 4, u'__', -20, 20, u'__', u'__', u'__', u'__']]",,[None],[True],"[9, 11, 12, 1, u'__TERM_ACTION__']","[9, 10, 12]",[False],[False],"{u'mouseover': {u'state': {u'target': [], u'time': []}, u'edge': {u'target': [], u'time': []}}, u'click': {u'state': {u'target': [9, 11, 12, 1], u'time': [2815, 4871, 10528, 17188]}, u'edge': {u'target': [], u'time': []}}, u'mouseout': {u'state': {u'target': [], u'time': []}, u'edge': {u'target': [], u'time': []}}}",,,"[21135, 644, 809]",35.96,515037,7.0,15.0,mouselab-mdp,,0
"[{u'Q': 44, u'action': u'__TERM_ACTION__', u'Qs': {u'1': 44, u'9': 12, u'13': -4, u'5': -20}, u'state': [0, 12, u'__', u'__', 20, u'__', u'__', u'__', u'__', u'__', u'__', u'__', u'__', u'__', u'__', u'__', u'__'], u'V': 44}]","[7079, 8054, 8911]","[u'0', u'0', u'3']","[[0, u'__', u'__', u'__', u'__', u'__', u'__', u'__', u'__', u'__', u'__', u'__', u'__', u'__', u'__', u'__', u'__'], [0, 12, u'__', u'__', u'__', u'__', u'__', u'__', u'__', u'__', u'__', u'__', u'__', u'__', u'__', u'__', u'__'], [0, 12, u'__', u'__', 20, u'__', u'__', u'__', u'__', u'__', u'__', u'__', u'__', u'__', u'__', u'__', u'__']]",,[None],[True],"[1, 4, u'__TERM_ACTION__']","[1, 2, 4]",[False],[False],"{u'mouseover': {u'state': {u'target': [], u'time': []}, u'edge': {u'target': [], u'time': []}}, u'click': {u'state': {u'target': [1, 4], u'time': [3246, 5125]}, u'edge': {u'target': [], u'time': []}}, u'mouseout': {u'state': {u'target': [], u'time': []}, u'edge': {u'target': [], u'time': []}}}",,,"[7079, 480, 356]",43.98,556549,8.0,13.0,mouselab-mdp,,0
"[{u'Q': 28, u'action': u'__TERM_ACTION__', u'Qs': {u'1': 20, u'9': 12, u'13': -4, u'5': 28}, u'state': [0, u'__', u'__', u'__', u'__', 12, u'__', -4, 4, u'__', u'__', u'__', u'__', u'__', u'__', u'__', u'__'], u'V': 28}]","[11862, 13117, 13973]","[u'1', u'1', u'0']","[[0, u'__', u'__', u'__', u'__', u'__', u'__', u'__', u'__', u'__', u'__', u'__', u'__', u'__', u'__', u'__', u'__'], [0, u'__', u'__', u'__', u'__', 12, u'__', u'__', u'__', u'__', u'__', u'__', u'__', u'__', u'__', u'__', u'__'], [0, u'__', u'__', u'__', u'__', 12, u'__', u'__', 4, u'__', u'__', u'__', u'__', u'__', u'__', u'__', u'__'], [0, u'__', u'__', u'__', u'__', 12, u'__', -4, 4, u'__', u'__', u'__', u'__', u'__', u'__', u'__', u'__']]",,[None],[True],"[5, 8, 7, u'__TERM_ACTION__']","[5, 6, 8]",[False],[False],"{u'mouseover': {u'state': {u'target': [], u'time': []}, u'edge': {u'target': [], u'time': []}}, u'click': {u'state': {u'target': [5, 8, 7], u'time': [2465, 4226, 6942]}, u'edge': {u'target': [], u'time': []}}, u'mouseout': {u'state': {u'target': [], u'time': []}, u'edge': {u'target': [], u'time': []}}}",,,"[11861, 758, 365]",27.97,597701,9.0,14.0,mouselab-mdp,,0
"[{u'Q': 12, u'action': u'__TERM_ACTION__', u'Qs': {u'1': -4, u'9': 12, u'13': 12, u'5': -4}, u'state': [0, 4, -4, -12, -4, 4, -12, 4, -12, -4, 12, -12, 4, 4, 12, -4, -12], u'V': 12}]","[22960, 25432, 63809]","[u'3', u'3', u'0']","[[0, u'__', u'__', u'__', u'__', u'__', u'__', u'__', u'__', u'__', u'__', u'__', u'__', u'__', u'__', u'__', u'__'], [0, u'__', u'__', u'__', u'__', 4, u'__', u'__', u'__', u'__', u'__', u'__', u'__', u'__', u'__', u'__', u'__'], [0, u'__', u'__', u'__', u'__', 4, u'__', 4, u'__', u'__', u'__', u'__', u'__', u'__', u'__', u'__', u'__'], [0, u'__', u'__', u'__', u'__', 4, -12, 4, u'__', u'__', u'__', u'__', u'__', u'__', u'__', u'__', u'__'], [0, u'__', u'__', u'__', u'__', 4, -12, 4, -12, u'__', u'__', u'__', u'__', u'__', u'__', u'__', u'__'], [0, 4, u'__', u'__', u'__', 4, -12, 4, -12, u'__', u'__', u'__', u'__', u'__', u'__', u'__', u'__'], [0, 4, -4, u'__', u'__', 4, -12, 4, -12, u'__', u'__', u'__', u'__', u'__', u'__', u'__', u'__'], [0, 4, -4, u'__', -4, 4, -12, 4, -12, u'__', u'__', u'__', u'__', u'__', u'__', u'__', u'__'], [0, 4, -4, -12, -4, 4, -12, 4, -12, u'__', u'__', u'__', u'__', u'__', u'__', u'__', u'__'], [0, 4, -4, -12, -4, 4, -12, 4, -12, u'__', u'__', -12, u'__', u'__', u'__', u'__', u'__'], [0, 4, -4, -12, -4, 4, -12, 4, -12, u'__', u'__', -12, 4, u'__', u'__', u'__', u'__'], [0, 4, -4, -12, -4, 4, -12, 4, -12, u'__', u'__', -12, 4, u'__', u'__', u'__', -12], [0, 4, -4, -12, -4, 4, -12, 4, -12, u'__', u'__', -12, 4, u'__', u'__', -4, -12], [0, 4, -4, -12, -4, 4, -12, 4, -12, u'__', u'__', -12, 4, 4, u'__', -4, -12], [0, 4, -4, -12, -4, 4, -12, 4, -12, u'__', u'__', -12, 4, 4, 12, -4, -12], [0, 4, -4, -12, -4, 4, -12, 4, -12, -4, u'__', -12, 4, 4, 12, -4, -12], [0, 4, -4, -12, -4, 4, -12, 4, -12, -4, 12, -12, 4, 4, 12, -4, -12]]",,[None],[True],"[5, 7, 6, 8, 1, 2, 4, 3, 11, 12, 16, 15, 13, 14, 9, 10, u'__TERM_ACTION__']","[13, 14, 15]",[False],[False],"{u'mouseover': {u'state': {u'target': [], u'time': []}, u'edge': {u'target': [], u'time': []}}, u'click': {u'state': {u'target': [5, 7, 6, 8, 1, 2, 4, 3, 11, 12, 16, 15, 13, 14, 9, 10], u'time': [1965, 2970, 4107, 5292, 6433, 7165, 7742, 8960, 9941, 10619, 11584, 12176, 12851, 13506, 14176, 14788]}, u'edge': {u'target': [], u'time': []}}, u'mouseout': {u'state': {u'target': [], u'time': []}, u'edge': {u'target': [], u'time': []}}}",,,"[22960, 1972, 37885]",11.84,665852,10.0,11.0,mouselab-mdp,,0
,"[12752, 13608, 14312]","[u'0', u'0', u'1']","[[0, u'__', u'__', u'__', u'__', u'__', u'__', u'__', u'__', u'__', u'__', u'__', u'__', u'__', u'__', u'__', u'__'], [0, u'__', u'__', u'__', u'__', -4, u'__', u'__', u'__', u'__', u'__', u'__', u'__', u'__', u'__', u'__', u'__'], [0, u'__', u'__', u'__', u'__', -4, u'__', -4, u'__', u'__', u'__', u'__', u'__', u'__', u'__', u'__', u'__'], [0, u'__', u'__', u'__', u'__', -4, u'__', -4, u'__', u'__', u'__', u'__', u'__', -4, u'__', u'__', u'__'], [0, 12, u'__', u'__', u'__', -4, u'__', -4, u'__', u'__', u'__', u'__', u'__', -4, u'__', u'__', u'__'], [0, 12, u'__', u'__', -4, -4, u'__', -4, u'__', u'__', u'__', u'__', u'__', -4, u'__', u'__', u'__'], [0, 12, u'__', 4, -4, -4, u'__', -4, u'__', u'__', u'__', u'__', u'__', -4, u'__', u'__', u'__']]",,[],[],"[5, 7, 13, 1, 4, 3, u'__TERM_ACTION__']","[1, 2, 3]",[],[],"{u'mouseover': {u'state': {u'target': [], u'time': []}, u'edge': {u'target': [], u'time': []}}, u'click': {u'state': {u'target': [5, 7, 13, 1, 4, 3], u'time': [3557, 4670, 6953, 8727, 9960, 11408]}, u'edge': {u'target': [], u'time': []}}, u'mouseout': {u'state': {u'target': [], u'time': []}, u'edge': {u'target': [], u'time': []}}}",,,"[12752, 369, 190]",19.94,709933,11.0,5.0,mouselab-mdp,,0
,"[15870, 16725, 17517]","[u'2', u'2', u'1']","[[0, u'__', u'__', u'__', u'__', u'__', u'__', u'__', u'__', u'__', u'__', u'__', u'__', u'__', u'__', u'__', u'__'], [0, u'__', u'__', u'__', u'__', u'__', u'__', u'__', u'__', -4, u'__', u'__', u'__', u'__', u'__', u'__', u'__'], [0, u'__', u'__', u'__', u'__', -12, u'__', u'__', u'__', -4, u'__', u'__', u'__', u'__', u'__', u'__', u'__'], [0, -4, u'__', u'__', u'__', -12, u'__', u'__', u'__', -4, u'__', u'__', u'__', u'__', u'__', u'__', u'__'], [0, -4, u'__', u'__', u'__', -12, u'__', u'__', u'__', -4, u'__', u'__', u'__', -12, u'__', u'__', u'__'], [0, -4, u'__', u'__', u'__', -12, u'__', u'__', u'__', -4, u'__', u'__', 4, -12, u'__', u'__', u'__'], [0, -4, u'__', u'__', u'__', -12, u'__', u'__', u'__', -4, u'__', -4, 4, -12, u'__', u'__', u'__'], [0, -4, u'__', u'__', -4, -12, u'__', u'__', u'__', -4, u'__', -4, 4, -12, u'__', u'__', u'__'], [0, -4, u'__', -20, -4, -12, u'__', u'__', u'__', -4, u'__', -4, 4, -12, u'__', u'__', u'__']]",,[],[],"[9, 5, 1, 13, 12, 11, 4, 3, u'__TERM_ACTION__']","[9, 10, 12]",[],[],"{u'mouseover': {u'state': {u'target': [], u'time': []}, u'edge': {u'target': [], u'time': []}}, u'click': {u'state': {u'target': [9, 5, 1, 13, 12, 11, 4, 3], u'time': [1670, 4082, 5901, 7384, 9831, 11052, 13016, 13827]}, u'edge': {u'target': [], u'time': []}}, u'mouseout': {u'state': {u'target': [], u'time': []}, u'edge': {u'target': [], u'time': []}}}",,,"[15870, 369, 296]",3.92,750845,12.0,0.0,mouselab-mdp,,0
,"[13703, 14551, 15583]","[u'2', u'2', u'3']","[[0, u'__', u'__', u'__', u'__', u'__', u'__', u'__', u'__', u'__', u'__', u'__', u'__', u'__', u'__', u'__', u'__'], [0, u'__', u'__', u'__', u'__', -12, u'__', u'__', u'__', u'__', u'__', u'__', u'__', u'__', u'__', u'__', u'__'], [0, u'__', u'__', u'__', u'__', -12, u'__', u'__', -20, u'__', u'__', u'__', u'__', u'__', u'__', u'__', u'__'], [0, u'__', u'__', u'__', u'__', -12, u'__', -4, -20, u'__', u'__', u'__', u'__', u'__', u'__', u'__', u'__'], [0, u'__', u'__', u'__', u'__', -12, u'__', -4, -20, 4, u'__', u'__', u'__', u'__', u'__', u'__', u'__'], [0, u'__', u'__', u'__', u'__', -12, u'__', -4, -20, 4, u'__', 4, u'__', u'__', u'__', u'__', u'__'], [0, u'__', u'__', u'__', u'__', -12, u'__', -4, -20, 4, u'__', 4, 4, u'__', u'__', u'__', u'__']]",,[],[],"[5, 8, 7, 9, 11, 12, u'__TERM_ACTION__']","[9, 10, 11]",[],[],"{u'mouseover': {u'state': {u'target': [], u'time': []}, u'edge': {u'target': [], u'time': []}}, u'click': {u'state': {u'target': [5, 8, 7, 9, 11, 12], u'time': [1033, 2428, 4470, 6694, 8143, 12413]}, u'edge': {u'target': [], u'time': []}}, u'mouseout': {u'state': {u'target': [], u'time': []}, u'edge': {u'target': [], u'time': []}}}",,,"[13703, 348, 548]",-4.06,794381,13.0,3.0,mouselab-mdp,,0
,"[7808, 8600, 9489]","[u'3', u'3', u'2']","[[0, u'__', u'__', u'__', u'__', u'__', u'__', u'__', u'__', u'__', u'__', u'__', u'__', u'__', u'__', u'__', u'__'], [0, -20, u'__', u'__', u'__', u'__', u'__', u'__', u'__', u'__', u'__', u'__', u'__', u'__', u'__', u'__', u'__'], [0, -20, u'__', u'__', u'__', u'__', u'__', u'__', u'__', u'__', u'__', u'__', u'__', 12, u'__', u'__', u'__'], [0, -20, u'__', u'__', u'__', u'__', u'__', u'__', u'__', u'__', u'__', u'__', u'__', 12, u'__', u'__', 4]]",,[],[],"[1, 13, 16, u'__TERM_ACTION__']","[13, 14, 16]",[],[],"{u'mouseover': {u'state': {u'target': [], u'time': []}, u'edge': {u'target': [], u'time': []}}, u'click': {u'state': {u'target': [1, 13, 16], u'time': [1277, 3062, 5521]}, u'edge': {u'target': [], u'time': []}}, u'mouseout': {u'state': {u'target': [], u'time': []}, u'edge': {u'target': [], u'time': []}}}",,,"[7808, 290, 379]",11.97,835845,14.0,4.0,mouselab-mdp,,0
,"[6782, 7550, 8317]","[u'3', u'3', u'0']","[[0, u'__', u'__', u'__', u'__', u'__', u'__', u'__', u'__', u'__', u'__', u'__', u'__', u'__', u'__', u'__', u'__'], [0, u'__', u'__', u'__', u'__', u'__', u'__', u'__', u'__', u'__', u'__', u'__', u'__', 12, u'__', u'__', u'__'], [0, u'__', u'__', u'__', u'__', u'__', u'__', u'__', u'__', u'__', u'__', u'__', u'__', 12, u'__', 4, u'__']]",,[],[],"[13, 15, u'__TERM_ACTION__']","[13, 14, 15]",[],[],"{u'mouseover': {u'state': {u'target': [], u'time': []}, u'edge': {u'target': [], u'time': []}}, u'click': {u'state': {u'target': [13, 15], u'time': [2300, 3772]}, u'edge': {u'target': [], u'time': []}}, u'mouseout': {u'state': {u'target': [], u'time': []}, u'edge': {u'target': [], u'time': []}}}",,,"[6782, 276, 275]",19.98,876806,15.0,7.0,mouselab-mdp,,0
,"[14053, 14917, 15605]","[u'2', u'2', u'1']","[[0, u'__', u'__', u'__', u'__', u'__', u'__', u'__', u'__', u'__', u'__', u'__', u'__', u'__', u'__', u'__', u'__'], [0, u'__', u'__', u'__', u'__', u'__', u'__', u'__', u'__', 4, u'__', u'__', u'__', u'__', u'__', u'__', u'__'], [0, u'__', u'__', u'__', u'__', u'__', u'__', u'__', u'__', 4, u'__', u'__', 4, u'__', u'__', u'__', u'__'], [0, u'__', u'__', u'__', u'__', u'__', u'__', u'__', u'__', 4, u'__', -4, 4, u'__', u'__', u'__', u'__'], [0, -20, u'__', u'__', u'__', u'__', u'__', u'__', u'__', 4, u'__', -4, 4, u'__', u'__', u'__', u'__']]",,[],[],"[9, 12, 11, 1, u'__TERM_ACTION__']","[9, 10, 12]",[],[],"{u'mouseover': {u'state': {u'target': [], u'time': []}, u'edge': {u'target': [], u'time': []}}, u'click': {u'state': {u'target': [9, 12, 11, 1], u'time': [3343, 4953, 7511, 10055]}, u'edge': {u'target': [], u'time': []}}, u'mouseout': {u'state': {u'target': [], u'time': []}, u'edge': {u'target': [], u'time': []}}}",,,"[14053, 377, 199]",-4.04,917141,16.0,9.0,mouselab-mdp,,0
"[{u'Q': 36, u'action': u'__TERM_ACTION__', u'Qs': {u'1': -12, u'9': 12, u'13': -4, u'5': 36}, u'state': [0, u'__', u'__', u'__', u'__', 12, u'__', u'__', u'__', u'__', u'__', u'__', u'__', u'__', u'__', u'__', u'__'], u'V': 36}]","[3030, 14254, 21549]","[u'1', u'1', u'0']","[[0, u'__', u'__', u'__', u'__', u'__', u'__', u'__', u'__', u'__', u'__', u'__', u'__', u'__', u'__', u'__', u'__'], [0, u'__', u'__', u'__', u'__', 12, u'__', u'__', u'__', u'__', u'__', u'__', u'__', u'__', u'__', u'__', u'__']]",,[None],[True],"[5, u'__TERM_ACTION__']","[5, 6, 8]",[False],[False],"{u'mouseover': {u'state': {u'target': [], u'time': []}, u'edge': {u'target': [], u'time': []}}, u'click': {u'state': {u'target': [5], u'time': [1320]}, u'edge': {u'target': [], u'time': []}}, u'mouseout': {u'state': {u'target': [], u'time': []}, u'edge': {u'target': [], u'time': []}}}",,,"[3026, 10677, 6783]",35.99,121829,1.0,1.0,mouselab-mdp,,1
"[{u'Q': 44, u'action': u'__TERM_ACTION__', u'Qs': {u'1': 44, u'9': 12, u'13': -4, u'5': -20}, u'state': [0, 12, u'__', u'__', u'__', -12, u'__', u'__', u'__', -20, u'__', u'__', u'__', -12, u'__', u'__', u'__'], u'V': 44}]","[5650, 8305, 9929]","[u'0', u'0', u'3']","[[0, u'__', u'__', u'__', u'__', u'__', u'__', u'__', u'__', u'__', u'__', u'__', u'__', u'__', u'__', u'__', u'__'], [0, u'__', u'__', u'__', u'__', u'__', u'__', u'__', u'__', u'__', u'__', u'__', u'__', -12, u'__', u'__', u'__'], [0, u'__', u'__', u'__', u'__', -12, u'__', u'__', u'__', u'__', u'__', u'__', u'__', -12, u'__', u'__', u'__'], [0, 12, u'__', u'__', u'__', -12, u'__', u'__', u'__', u'__', u'__', u'__', u'__', -12, u'__', u'__', u'__'], [0, 12, u'__', u'__', u'__', -12, u'__', u'__', u'__', -20, u'__', u'__', u'__', -12, u'__', u'__', u'__']]",,[None],[True],"[13, 5, 1, 9, u'__TERM_ACTION__']","[1, 2, 4]",[False],[False],"{u'mouseover': {u'state': {u'target': [], u'time': []}, u'edge': {u'target': [], u'time': []}}, u'click': {u'state': {u'target': [13, 5, 1, 9], u'time': [1065, 2518, 3225, 3825]}, u'edge': {u'target': [], u'time': []}}, u'mouseout': {u'state': {u'target': [], u'time': []}, u'edge': {u'target': [], u'time': []}}}",,,"[5650, 2124, 1103]",43.96,163212,2.0,13.0,mouselab-mdp,,1
"[{u'Q': 28, u'action': u'__TERM_ACTION__', u'Qs': {u'1': 20, u'9': 28, u'13': -4, u'5': 28}, u'state': [0, 12, 4, 4, -4, -4, 12, -4, 20, 4, 4, -12, 20, -4, 4, -4, -4], u'V': 28}]","[14752, 15913, 16805]","[u'1', u'1', u'0']","[[0, u'__', u'__', u'__', u'__', u'__', u'__', u'__', u'__', u'__', u'__', u'__', u'__', u'__', u'__', u'__', u'__'], [0, u'__', u'__', u'__', u'__', u'__', u'__', u'__', u'__', u'__', u'__', u'__', u'__', -4, u'__', u'__', u'__'], [0, u'__', u'__', u'__', u'__', u'__', u'__', u'__', u'__', 4, u'__', u'__', u'__', -4, u'__', u'__', u'__'], [0, 12, u'__', u'__', u'__', u'__', u'__', u'__', u'__', 4, u'__', u'__', u'__', -4, u'__', u'__', u'__'], [0, 12, u'__', u'__', u'__', -4, u'__', u'__', u'__', 4, u'__', u'__', u'__', -4, u'__', u'__', u'__'], [0, 12, u'__', u'__', u'__', -4, u'__', -4, u'__', 4, u'__', u'__', u'__', -4, u'__', u'__', u'__'], [0, 12, u'__', u'__', u'__', -4, 12, -4, u'__', 4, u'__', u'__', u'__', -4, u'__', u'__', u'__'], [0, 12, u'__', u'__', u'__', -4, 12, -4, 20, 4, u'__', u'__', u'__', -4, u'__', u'__', u'__'], [0, 12, u'__', u'__', u'__', -4, 12, -4, 20, 4, u'__', u'__', u'__', -4, u'__', -4, u'__'], [0, 12, u'__', u'__', u'__', -4, 12, -4, 20, 4, u'__', u'__', u'__', -4, 4, -4, u'__'], [0, 12, u'__', u'__', u'__', -4, 12, -4, 20, 4, u'__', u'__', u'__', -4, 4, -4, -4], [0, 12, u'__', u'__', u'__', -4, 12, -4, 20, 4, u'__', -12, u'__', -4, 4, -4, -4], [0, 12, u'__', u'__', u'__', -4, 12, -4, 20, 4, 4, -12, u'__', -4, 4, -4, -4], [0, 12, u'__', u'__', u'__', -4, 12, -4, 20, 4, 4, -12, 20, -4, 4, -4, -4], [0, 12, u'__', u'__', -4, -4, 12, -4, 20, 4, 4, -12, 20, -4, 4, -4, -4], [0, 12, 4, u'__', -4, -4, 12, -4, 20, 4, 4, -12, 20, -4, 4, -4, -4], [0, 12, 4, 4, -4, -4, 12, -4, 20, 4, 4, -12, 20, -4, 4, -4, -4]]",,[None],[True],"[13, 9, 1, 5, 7, 6, 8, 15, 14, 16, 11, 10, 12, 4, 2, 3, u'__TERM_ACTION__']","[5, 6, 8]",[False],[False],"{u'mouseover': {u'state': {u'target': [], u'time': []}, u'edge': {u'target': [], u'time': []}}, u'click': {u'state': {u'target': [13, 9, 1, 5, 7, 6, 8, 15, 14, 16, 11, 10, 12, 4, 2, 3], u'time': [1100, 1721, 2282, 2738, 3258, 3667, 4075, 4718, 5181, 5586, 6434, 6826, 7201, 8182, 8553, 8951]}, u'edge': {u'target': [], u'time': []}}, u'mouseout': {u'state': {u'target': [], u'time': []}, u'edge': {u'target': [], u'time': []}}}",,,"[14751, 629, 376]",27.84,204532,3.0,5.0,mouselab-mdp,,1
"[{u'Q': -4, u'action': u'__TERM_ACTION__', u'Qs': {u'1': -12, u'9': -4, u'13': -12, u'5': -20}, u'state': [0, -4, -12, -20, 4, -12, -4, -4, -20, 4, -12, 4, 4, -12, -4, 4, -4], u'V': -4}]","[12592, 13326, 14078]","[u'2', u'2', u'3']","[[0, u'__', u'__', u'__', u'__', u'__', u'__', u'__', u'__', u'__', u'__', u'__', u'__', u'__', u'__', u'__', u'__'], [0, u'__', u'__', u'__', u'__', u'__', u'__', u'__', u'__', 4, u'__', u'__', u'__', u'__', u'__', u'__', u'__'], [0, u'__', u'__', u'__', u'__', u'__', u'__', u'__', u'__', 4, u'__', u'__', u'__', -12, u'__', u'__', u'__'], [0, u'__', u'__', u'__', u'__', u'__', u'__', u'__', u'__', 4, u'__', u'__', u'__', -12, u'__', u'__', -4], [0, u'__', u'__', u'__', u'__', u'__', u'__', u'__', u'__', 4, u'__', u'__', u'__', -12, -4, u'__', -4], [0, u'__', u'__', u'__', u'__', u'__', u'__', u'__', u'__', 4, u'__', u'__', u'__', -12, -4, 4, -4], [0, -4, u'__', u'__', u'__', u'__', u'__', u'__', u'__', 4, u'__', u'__', u'__', -12, -4, 4, -4], [0, -4, u'__', u'__', 4, u'__', u'__', u'__', u'__', 4, u'__', u'__', u'__', -12, -4, 4, -4], [0, -4, -12, u'__', 4, u'__', u'__', u'__', u'__', 4, u'__', u'__', u'__', -12, -4, 4, -4], [0, -4, -12, -20, 4, u'__', u'__', u'__', u'__', 4, u'__', u'__', u'__', -12, -4, 4, -4], [0, -4, -12, -20, 4, u'__', u'__', u'__', -20, 4, u'__', u'__', u'__', -12, -4, 4, -4], [0, -4, -12, -20, 4, u'__', -4, u'__', -20, 4, u'__', u'__', u'__', -12, -4, 4, -4], [0, -4, -12, -20, 4, -12, -4, u'__', -20, 4, u'__', u'__', u'__', -12, -4, 4, -4], [0, -4, -12, -20, 4, -12, -4, -4, -20, 4, u'__', u'__', u'__', -12, -4, 4, -4], [0, -4, -12, -20, 4, -12, -4, -4, -20, 4, -12, u'__', u'__', -12, -4, 4, -4], [0, -4, -12, -20, 4, -12, -4, -4, -20, 4, -12, 4, u'__', -12, -4, 4, -4], [0, -4, -12, -20, 4, -12, -4, -4, -20, 4, -12, 4, 4, -12, -4, 4, -4]]",,[None],[True],"[9, 13, 16, 14, 15, 1, 4, 2, 3, 8, 6, 5, 7, 10, 11, 12, u'__TERM_ACTION__']","[9, 10, 11]",[False],[False],"{u'mouseover': {u'state': {u'target': [], u'time': []}, u'edge': {u'target': [], u'time': []}}, u'click': {u'state': {u'target': [9, 13, 16, 14, 15, 1, 4, 2, 3, 8, 6, 5, 7, 10, 11, 12], u'time': [1419, 1938, 2410, 2771, 3192, 3801, 4274, 4626, 4970, 5616, 6081, 6545, 7003, 7665, 8058, 8477]}, u'edge': {u'target': [], u'time': []}}, u'mouseout': {u'state': {u'target': [], u'time': []}, u'edge': {u'target': [], u'time': []}}}",,,"[12592, 204, 228]",-4.16,245609,4.0,3.0,mouselab-mdp,,1
"[{u'Q': 4, u'action': u'__TERM_ACTION__', u'Qs': {u'1': -4, u'9': 4, u'13': 4, u'5': -28}, u'state': [0, -4, 4, -20, -4, -12, -12, -12, -4, -4, 4, -4, 4, -12, 12, -20, 4], u'V': 4}]","[17883, 18531, 19275]","[u'2', u'2', u'1']","[[0, u'__', u'__', u'__', u'__', u'__', u'__', u'__', u'__', u'__', u'__', u'__', u'__', u'__', u'__', u'__', u'__'], [0, u'__', u'__', u'__', u'__', u'__', u'__', u'__', u'__', u'__', u'__', u'__', u'__', -12, u'__', u'__', u'__'], [0, u'__', u'__', u'__', u'__', u'__', u'__', u'__', u'__', -4, u'__', u'__', u'__', -12, u'__', u'__', u'__'], [0, u'__', u'__', u'__', u'__', -12, u'__', u'__', u'__', -4, u'__', u'__', u'__', -12, u'__', u'__', u'__'], [0, -4, u'__', u'__', u'__', -12, u'__', u'__', u'__', -4, u'__', u'__', u'__', -12, u'__', u'__', u'__'], [0, -4, u'__', u'__', u'__', -12, u'__', u'__', u'__', -4, u'__', u'__', u'__', -12, u'__', u'__', 4], [0, -4, u'__', u'__', u'__', -12, u'__', u'__', u'__', -4, u'__', u'__', u'__', -12, 12, u'__', 4], [0, -4, u'__', u'__', u'__', -12, u'__', u'__', u'__', -4, u'__', u'__', u'__', -12, 12, -20, 4], [0, -4, u'__', u'__', u'__', -12, u'__', u'__', u'__', -4, 4, u'__', u'__', -12, 12, -20, 4], [0, -4, u'__', u'__', u'__', -12, u'__', u'__', u'__', -4, 4, -4, u'__', -12, 12, -20, 4], [0, -4, u'__', u'__', u'__', -12, u'__', u'__', u'__', -4, 4, -4, 4, -12, 12, -20, 4], [0, -4, u'__', u'__', u'__', -12, u'__', -12, u'__', -4, 4, -4, 4, -12, 12, -20, 4], [0, -4, u'__', u'__', u'__', -12, -12, -12, u'__', -4, 4, -4, 4, -12, 12, -20, 4], [0, -4, u'__', u'__', u'__', -12, -12, -12, -4, -4, 4, -4, 4, -12, 12, -20, 4], [0, -4, u'__', -20, u'__', -12, -12, -12, -4, -4, 4, -4, 4, -12, 12, -20, 4], [0, -4, 4, -20, u'__', -12, -12, -12, -4, -4, 4, -4, 4, -12, 12, -20, 4], [0, -4, 4, -20, -4, -12, -12, -12, -4, -4, 4, -4, 4, -12, 12, -20, 4]]",,[None],[True],"[13, 9, 5, 1, 16, 14, 15, 10, 11, 12, 7, 6, 8, 3, 2, 4, u'__TERM_ACTION__']","[9, 10, 12]",[False],[False],"{u'mouseover': {u'state': {u'target': [], u'time': []}, u'edge': {u'target': [], u'time': []}}, u'click': {u'state': {u'target': [13, 9, 5, 1, 16, 14, 15, 10, 11, 12, 7, 6, 8, 3, 2, 4], u'time': [786, 1283, 2207, 2721, 3351, 3847, 4223, 5038, 5448, 5871, 6919, 7855, 8296, 9047, 9695, 10174]}, u'edge': {u'target': [], u'time': []}}, u'mouseout': {u'state': {u'target': [], u'time': []}, u'edge': {u'target': [], u'time': []}}}",,,"[17883, 120, 222]",3.84,286829,5.0,0.0,mouselab-mdp,,1
"[{u'Q': 20, u'action': u'__TERM_ACTION__', u'Qs': {u'1': 4, u'9': 20, u'13': -20, u'5': -4}, u'state': [0, -12, -4, 4, 20, 4, -20, 12, -4, 12, -4, 12, 4, 4, -12, -12, -12], u'V': 20}]","[16131, 16866, 17688]","[u'2', u'2', u'3']","[[0, u'__', u'__', u'__', u'__', u'__', u'__', u'__', u'__', u'__', u'__', u'__', u'__', u'__', u'__', u'__', u'__'], [0, u'__', u'__', u'__', u'__', 4, u'__', u'__', u'__', u'__', u'__', u'__', u'__', u'__', u'__', u'__', u'__'], [0, u'__', u'__', u'__', u'__', 4, u'__', u'__', u'__', 12, u'__', u'__', u'__', u'__', u'__', u'__', u'__'], [0, u'__', u'__', u'__', u'__', 4, u'__', u'__', u'__', 12, u'__', u'__', u'__', 4, u'__', u'__', u'__'], [0, -12, u'__', u'__', u'__', 4, u'__', u'__', u'__', 12, u'__', u'__', u'__', 4, u'__', u'__', u'__'], [0, -12, u'__', u'__', u'__', 4, u'__', u'__', u'__', 12, -4, u'__', u'__', 4, u'__', u'__', u'__'], [0, -12, u'__', u'__', u'__', 4, u'__', u'__', u'__', 12, -4, 12, u'__', 4, u'__', u'__', u'__'], [0, -12, u'__', u'__', u'__', 4, u'__', u'__', u'__', 12, -4, 12, 4, 4, u'__', u'__', u'__'], [0, -12, u'__', u'__', u'__', 4, u'__', 12, u'__', 12, -4, 12, 4, 4, u'__', u'__', u'__'], [0, -12, u'__', u'__', u'__', 4, -20, 12, u'__', 12, -4, 12, 4, 4, u'__', u'__', u'__'], [0, -12, u'__', u'__', u'__', 4, -20, 12, -4, 12, -4, 12, 4, 4, u'__', u'__', u'__'], [0, -12, u'__', u'__', u'__', 4, -20, 12, -4, 12, -4, 12, 4, 4, -12, u'__', u'__'], [0, -12, u'__', u'__', u'__', 4, -20, 12, -4, 12, -4, 12, 4, 4, -12, u'__', -12], [0, -12, u'__', u'__', u'__', 4, -20, 12, -4, 12, -4, 12, 4, 4, -12, -12, -12], [0, -12, u'__', u'__', 20, 4, -20, 12, -4, 12, -4, 12, 4, 4, -12, -12, -12], [0, -12, -4, u'__', 20, 4, -20, 12, -4, 12, -4, 12, 4, 4, -12, -12, -12], [0, -12, -4, 4, 20, 4, -20, 12, -4, 12, -4, 12, 4, 4, -12, -12, -12]]",,[None],[True],"[5, 9, 13, 1, 10, 11, 12, 7, 6, 8, 14, 16, 15, 4, 2, 3, u'__TERM_ACTION__']","[9, 10, 11]",[False],[False],"{u'mouseover': {u'state': {u'target': [], u'time': []}, u'edge': {u'target': [], u'time': []}}, u'click': {u'state': {u'target': [5, 9, 13, 1, 10, 11, 12, 7, 6, 8, 14, 16, 15, 4, 2, 3], u'time': [1847, 2431, 2942, 3413, 4677, 5105, 5512, 7377, 7806, 8222, 9405, 9780, 10293, 10979, 11343, 11697]}, u'edge': {u'target': [], u'time': []}}, u'mouseout': {u'state': {u'target': [], u'time': []}, u'edge': {u'target': [], u'time': []}}}",,,"[16131, 208, 306]",19.84,329926,6.0,8.0,mouselab-mdp,,1
"[{u'Q': 28, u'action': u'__TERM_ACTION__', u'Qs': {u'1': 20, u'9': -44, u'13': 28, u'5': 20}, u'state': [0, 12, 4, -12, 4, 4, 12, 4, -12, -20, -20, -20, -4, 12, 4, 4, 12], u'V': 28}]","[16447, 17095, 17887]","[u'3', u'3', u'2']","[[0, u'__', u'__', u'__', u'__', u'__', u'__', u'__', u'__', u'__', u'__', u'__', u'__', u'__', u'__', u'__', u'__'], [0, u'__', u'__', u'__', u'__', 4, u'__', u'__', u'__', u'__', u'__', u'__', u'__', u'__', u'__', u'__', u'__'], [0, u'__', u'__', u'__', u'__', 4, u'__', u'__', u'__', -20, u'__', u'__', u'__', u'__', u'__', u'__', u'__'], [0, u'__', u'__', u'__', u'__', 4, u'__', u'__', u'__', -20, u'__', u'__', u'__', 12, u'__', u'__', u'__'], [0, 12, u'__', u'__', u'__', 4, u'__', u'__', u'__', -20, u'__', u'__', u'__', 12, u'__', u'__', u'__'], [0, 12, u'__', u'__', u'__', 4, u'__', u'__', u'__', -20, u'__', u'__', u'__', 12, u'__', u'__', 12], [0, 12, u'__', u'__', u'__', 4, u'__', u'__', u'__', -20, u'__', u'__', u'__', 12, 4, u'__', 12], [0, 12, u'__', u'__', u'__', 4, u'__', u'__', u'__', -20, u'__', u'__', u'__', 12, 4, 4, 12], [0, 12, u'__', u'__', 4, 4, u'__', u'__', u'__', -20, u'__', u'__', u'__', 12, 4, 4, 12], [0, 12, 4, u'__', 4, 4, u'__', u'__', u'__', -20, u'__', u'__', u'__', 12, 4, 4, 12], [0, 12, 4, -12, 4, 4, u'__', u'__', u'__', -20, u'__', u'__', u'__', 12, 4, 4, 12], [0, 12, 4, -12, 4, 4, u'__', u'__', -12, -20, u'__', u'__', u'__', 12, 4, 4, 12], [0, 12, 4, -12, 4, 4, 12, u'__', -12, -20, u'__', u'__', u'__', 12, 4, 4, 12], [0, 12, 4, -12, 4, 4, 12, 4, -12, -20, u'__', u'__', u'__', 12, 4, 4, 12], [0, 12, 4, -12, 4, 4, 12, 4, -12, -20, u'__', u'__', -4, 12, 4, 4, 12], [0, 12, 4, -12, 4, 4, 12, 4, -12, -20, -20, u'__', -4, 12, 4, 4, 12], [0, 12, 4, -12, 4, 4, 12, 4, -12, -20, -20, -20, -4, 12, 4, 4, 12]]",,[None],[True],"[5, 9, 13, 1, 16, 14, 15, 4, 2, 3, 8, 6, 7, 12, 10, 11, u'__TERM_ACTION__']","[13, 14, 16]",[False],[False],"{u'mouseover': {u'state': {u'target': [], u'time': []}, u'edge': {u'target': [], u'time': []}}, u'click': {u'state': {u'target': [5, 9, 13, 1, 16, 14, 15, 4, 2, 3, 8, 6, 7, 12, 10, 11], u'time': [1140, 1668, 2216, 2750, 4403, 4811, 5259, 5931, 6310, 6667, 7486, 7987, 8419, 9187, 9634, 10114]}, u'edge': {u'target': [], u'time': []}}, u'mouseout': {u'state': {u'target': [], u'time': []}, u'edge': {u'target': [], u'time': []}}}",,,"[16447, 114, 265]",27.84,370701,7.0,7.0,mouselab-mdp,,1
"[{u'Q': 28, u'action': u'__TERM_ACTION__', u'Qs': {u'1': 20, u'9': 28, u'13': 12, u'5': 12}, u'state': [0, 12, 4, -20, 4, -4, 4, 12, -4, 12, 4, -20, 12, 4, 20, -12, -12], u'V': 28}]","[20482, 21225, 22728]","[u'2', u'2', u'1']","[[0, u'__', u'__', u'__', u'__', u'__', u'__', u'__', u'__', u'__', u'__', u'__', u'__', u'__', u'__', u'__', u'__'], [0, u'__', u'__', u'__', u'__', u'__', u'__', u'__', u'__', 12, u'__', u'__', u'__', u'__', u'__', u'__', u'__'], [0, u'__', u'__', u'__', u'__', u'__', u'__', u'__', u'__', 12, u'__', u'__', u'__', 4, u'__', u'__', u'__'], [0, 12, u'__', u'__', u'__', u'__', u'__', u'__', u'__', 12, u'__', u'__', u'__', 4, u'__', u'__', u'__'], [0, 12, u'__', u'__', u'__', -4, u'__', u'__', u'__', 12, u'__', u'__', u'__', 4, u'__', u'__', u'__'], [0, 12, 4, u'__', u'__', -4, u'__', u'__', u'__', 12, u'__', u'__', u'__', 4, u'__', u'__', u'__'], [0, 12, 4, -20, u'__', -4, u'__', u'__', u'__', 12, u'__', u'__', u'__', 4, u'__', u'__', u'__'], [0, 12, 4, -20, 4, -4, u'__', u'__', u'__', 12, u'__', u'__', u'__', 4, u'__', u'__', u'__'], [0, 12, 4, -20, 4, -4, u'__', u'__', u'__', 12, u'__', u'__', u'__', 4, u'__', -12, u'__'], [0, 12, 4, -20, 4, -4, u'__', u'__', u'__', 12, u'__', u'__', u'__', 4, 20, -12, u'__'], [0, 12, 4, -20, 4, -4, u'__', u'__', u'__', 12, u'__', u'__', u'__', 4, 20, -12, -12], [0, 12, 4, -20, 4, -4, u'__', u'__', u'__', 12, u'__', -20, u'__', 4, 20, -12, -12], [0, 12, 4, -20, 4, -4, u'__', u'__', u'__', 12, 4, -20, u'__', 4, 20, -12, -12], [0, 12, 4, -20, 4, -4, u'__', u'__', u'__', 12, 4, -20, 12, 4, 20, -12, -12], [0, 12, 4, -20, 4, -4, u'__', 12, u'__', 12, 4, -20, 12, 4, 20, -12, -12], [0, 12, 4, -20, 4, -4, 4, 12, u'__', 12, 4, -20, 12, 4, 20, -12, -12], [0, 12, 4, -20, 4, -4, 4, 12, -4, 12, 4, -20, 12, 4, 20, -12, -12]]",,[None],[True],"[9, 13, 1, 5, 2, 3, 4, 15, 14, 16, 11, 10, 12, 7, 6, 8, u'__TERM_ACTION__']","[9, 10, 12]",[False],[False],"{u'mouseover': {u'state': {u'target': [], u'time': []}, u'edge': {u'target': [], u'time': []}}, u'click': {u'state': {u'target': [9, 13, 1, 5, 2, 3, 4, 15, 14, 16, 11, 10, 12, 7, 6, 8], u'time': [1358, 1917, 2351, 2764, 3949, 4316, 4783, 5324, 5686, 6047, 6967, 7904, 8263, 8947, 9419, 10171]}, u'edge': {u'target': [], u'time': []}}, u'mouseout': {u'state': {u'target': [], u'time': []}, u'edge': {u'target': [], u'time': []}}}",,,"[20481, 217, 976]",27.84,412385,8.0,6.0,mouselab-mdp,,1
"[{u'Q': 28, u'action': u'__TERM_ACTION__', u'Qs': {u'1': 20, u'9': 12, u'13': -4, u'5': 28}, u'state': [0, -4, 12, 4, 12, 12, 12, -4, 4, 12, -4, -4, 4, -20, 4, -4, 12], u'V': 28}]","[14778, 15375, 16040]","[u'1', u'1', u'0']","[[0, u'__', u'__', u'__', u'__', u'__', u'__', u'__', u'__', u'__', u'__', u'__', u'__', u'__', u'__', u'__', u'__'], [0, u'__', u'__', u'__', u'__', u'__', u'__', u'__', u'__', 12, u'__', u'__', u'__', u'__', u'__', u'__', u'__'], [0, u'__', u'__', u'__', u'__', u'__', u'__', u'__', u'__', 12, u'__', u'__', u'__', -20, u'__', u'__', u'__'], [0, -4, u'__', u'__', u'__', u'__', u'__', u'__', u'__', 12, u'__', u'__', u'__', -20, u'__', u'__', u'__'], [0, -4, u'__', u'__', u'__', 12, u'__', u'__', u'__', 12, u'__', u'__', u'__', -20, u'__', u'__', u'__'], [0, -4, u'__', u'__', u'__', 12, u'__', u'__', u'__', 12, -4, u'__', u'__', -20, u'__', u'__', u'__'], [0, -4, u'__', u'__', u'__', 12, u'__', u'__', u'__', 12, -4, -4, u'__', -20, u'__', u'__', u'__'], [0, -4, u'__', u'__', u'__', 12, u'__', u'__', u'__', 12, -4, -4, 4, -20, u'__', u'__', u'__'], [0, -4, u'__', u'__', u'__', 12, u'__', -4, u'__', 12, -4, -4, 4, -20, u'__', u'__', u'__'], [0, -4, u'__', u'__', u'__', 12, 12, -4, u'__', 12, -4, -4, 4, -20, u'__', u'__', u'__'], [0, -4, u'__', u'__', u'__', 12, 12, -4, 4, 12, -4, -4, 4, -20, u'__', u'__', u'__'], [0, -4, u'__', 4, u'__', 12, 12, -4, 4, 12, -4, -4, 4, -20, u'__', u'__', u'__'], [0, -4, 12, 4, u'__', 12, 12, -4, 4, 12, -4, -4, 4, -20, u'__', u'__', u'__'], [0, -4, 12, 4, 12, 12, 12, -4, 4, 12, -4, -4, 4, -20, u'__', u'__', u'__'], [0, -4, 12, 4, 12, 12, 12, -4, 4, 12, -4, -4, 4, -20, u'__', -4, u'__'], [0, -4, 12, 4, 12, 12, 12, -4, 4, 12, -4, -4, 4, -20, 4, -4, u'__'], [0, -4, 12, 4, 12, 12, 12, -4, 4, 12, -4, -4, 4, -20, 4, -4, 12]]",,[None],[True],"[9, 13, 1, 5, 10, 11, 12, 7, 6, 8, 3, 2, 4, 15, 14, 16, u'__TERM_ACTION__']","[5, 6, 8]",[False],[False],"{u'mouseover': {u'state': {u'target': [], u'time': []}, u'edge': {u'target': [], u'time': []}}, u'click': {u'state': {u'target': [9, 13, 1, 5, 10, 11, 12, 7, 6, 8, 3, 2, 4, 15, 14, 16], u'time': [814, 1300, 1803, 2345, 3103, 3555, 3979, 4858, 5587, 6070, 7046, 7491, 7858, 9779, 10133, 10490]}, u'edge': {u'target': [], u'time': []}}, u'mouseout': {u'state': {u'target': [], u'time': []}, u'edge': {u'target': [], u'time': []}}}",,,"[14778, 71, 142]",27.84,453316,9.0,14.0,mouselab-mdp,,1
"[{u'Q': 12, u'action': u'__TERM_ACTION__', u'Qs': {u'1': -4, u'9': 12, u'13': 12, u'5': -4}, u'state': [0, 4, -4, -12, -4, 4, -12, 4, -12, -4, 12, -12, 4, 4, 12, -4, -12], u'V': 12}]","[14375, 15092, 15813]","[u'2', u'2', u'1']","[[0, u'__', u'__', u'__', u'__', u'__', u'__', u'__', u'__', u'__', u'__', u'__', u'__', u'__', u'__', u'__', u'__'], [0, u'__', u'__', u'__', u'__', u'__', u'__', u'__', u'__', u'__', u'__', u'__', u'__', 4, u'__', u'__', u'__'], [0, u'__', u'__', u'__', u'__', u'__', u'__', u'__', u'__', -4, u'__', u'__', u'__', 4, u'__', u'__', u'__'], [0, 4, u'__', u'__', u'__', u'__', u'__', u'__', u'__', -4, u'__', u'__', u'__', 4, u'__', u'__', u'__'], [0, 4, u'__', u'__', u'__', 4, u'__', u'__', u'__', -4, u'__', u'__', u'__', 4, u'__', u'__', u'__'], [0, 4, u'__', u'__', u'__', 4, u'__', u'__', u'__', -4, u'__', u'__', u'__', 4, u'__', u'__', -12], [0, 4, u'__', u'__', u'__', 4, u'__', u'__', u'__', -4, u'__', u'__', u'__', 4, 12, u'__', -12], [0, 4, u'__', u'__', u'__', 4, u'__', u'__', u'__', -4, u'__', u'__', u'__', 4, 12, -4, -12], [0, 4, u'__', u'__', -4, 4, u'__', u'__', u'__', -4, u'__', u'__', u'__', 4, 12, -4, -12], [0, 4, -4, u'__', -4, 4, u'__', u'__', u'__', -4, u'__', u'__', u'__', 4, 12, -4, -12], [0, 4, -4, -12, -4, 4, u'__', u'__', u'__', -4, u'__', u'__', u'__', 4, 12, -4, -12], [0, 4, -4, -12, -4, 4, u'__', u'__', -12, -4, u'__', u'__', u'__', 4, 12, -4, -12], [0, 4, -4, -12, -4, 4, -12, u'__', -12, -4, u'__', u'__', u'__', 4, 12, -4, -12], [0, 4, -4, -12, -4, 4, -12, 4, -12, -4, u'__', u'__', u'__', 4, 12, -4, -12], [0, 4, -4, -12, -4, 4, -12, 4, -12, -4, u'__', -12, u'__', 4, 12, -4, -12], [0, 4, -4, -12, -4, 4, -12, 4, -12, -4, 12, -12, u'__', 4, 12, -4, -12], [0, 4, -4, -12, -4, 4, -12, 4, -12, -4, 12, -12, 4, 4, 12, -4, -12]]",,[None],[True],"[13, 9, 1, 5, 16, 14, 15, 4, 2, 3, 8, 6, 7, 11, 10, 12, u'__TERM_ACTION__']","[9, 10, 12]",[False],[False],"{u'mouseover': {u'state': {u'target': [], u'time': []}, u'edge': {u'target': [], u'time': []}}, u'click': {u'state': {u'target': [13, 9, 1, 5, 16, 14, 15, 4, 2, 3, 8, 6, 7, 11, 10, 12], u'time': [948, 1561, 2019, 2476, 3372, 3745, 4149, 4993, 5380, 5739, 6421, 6755, 7067, 8051, 9236, 9788]}, u'edge': {u'target': [], u'time': []}}, u'mouseout': {u'state': {u'target': [], u'time': []}, u'edge': {u'target': [], u'time': []}}}",,,"[14374, 189, 199]",11.84,493574,10.0,11.0,mouselab-mdp,,1
,"[14017, 14855, 15687]","[u'3', u'3', u'0']","[[0, u'__', u'__', u'__', u'__', u'__', u'__', u'__', u'__', u'__', u'__', u'__', u'__', u'__', u'__', u'__', u'__'], [0, u'__', u'__', u'__', u'__', u'__', u'__', u'__', u'__', 4, u'__', u'__', u'__', u'__', u'__', u'__', u'__'], [0, u'__', u'__', u'__', u'__', u'__', u'__', u'__', u'__', 4, u'__', u'__', u'__', -12, u'__', u'__', u'__'], [0, -20, u'__', u'__', u'__', u'__', u'__', u'__', u'__', 4, u'__', u'__', u'__', -12, u'__', u'__', u'__'], [0, -20, u'__', u'__', u'__', 4, u'__', u'__', u'__', 4, u'__', u'__', u'__', -12, u'__', u'__', u'__'], [0, -20, u'__', u'__', 4, 4, u'__', u'__', u'__', 4, u'__', u'__', u'__', -12, u'__', u'__', u'__'], [0, -20, -12, u'__', 4, 4, u'__', u'__', u'__', 4, u'__', u'__', u'__', -12, u'__', u'__', u'__'], [0, -20, -12, -4, 4, 4, u'__', u'__', u'__', 4, u'__', u'__', u'__', -12, u'__', u'__', u'__'], [0, -20, -12, -4, 4, 4, u'__', -12, u'__', 4, u'__', u'__', u'__', -12, u'__', u'__', u'__'], [0, -20, -12, -4, 4, 4, -20, -12, u'__', 4, u'__', u'__', u'__', -12, u'__', u'__', u'__'], [0, -20, -12, -4, 4, 4, -20, -12, 20, 4, u'__', u'__', u'__', -12, u'__', u'__', u'__'], [0, -20, -12, -4, 4, 4, -20, -12, 20, 4, u'__', u'__', 4, -12, u'__', u'__', u'__'], [0, -20, -12, -4, 4, 4, -20, -12, 20, 4, -12, u'__', 4, -12, u'__', u'__', u'__'], [0, -20, -12, -4, 4, 4, -20, -12, 20, 4, -12, -4, 4, -12, u'__', u'__', u'__'], [0, -20, -12, -4, 4, 4, -20, -12, 20, 4, -12, -4, 4, -12, u'__', u'__', 12], [0, -20, -12, -4, 4, 4, -20, -12, 20, 4, -12, -4, 4, -12, 4, u'__', 12], [0, -20, -12, -4, 4, 4, -20, -12, 20, 4, -12, -4, 4, -12, 4, 20, 12]]",,[],[],"[9, 13, 1, 5, 4, 2, 3, 7, 6, 8, 12, 10, 11, 16, 14, 15, u'__TERM_ACTION__']","[13, 14, 15]",[],[],"{u'mouseover': {u'state': {u'target': [], u'time': []}, u'edge': {u'target': [], u'time': []}}, u'click': {u'state': {u'target': [9, 13, 1, 5, 4, 2, 3, 7, 6, 8, 12, 10, 11, 16, 14, 15], u'time': [2236, 2731, 3147, 3598, 4443, 4786, 5115, 6159, 6522, 6837, 7753, 8437, 8851, 9360, 9753, 10115]}, u'edge': {u'target': [], u'time': []}}, u'mouseout': {u'state': {u'target': [], u'time': []}, u'edge': {u'target': [], u'time': []}}}",,,"[14016, 324, 306]",11.84,534089,11.0,9.0,mouselab-mdp,,1
,"[12102, 12862, 14035]","[u'2', u'2', u'1']","[[0, u'__', u'__', u'__', u'__', u'__', u'__', u'__', u'__', u'__', u'__', u'__', u'__', u'__', u'__', u'__', u'__'], [0, u'__', u'__', u'__', u'__', u'__', u'__', u'__', u'__', 4, u'__', u'__', u'__', u'__', u'__', u'__', u'__'], [0, u'__', u'__', u'__', u'__', u'__', u'__', u'__', u'__', 4, u'__', u'__', u'__', 4, u'__', u'__', u'__'], [0, -4, u'__', u'__', u'__', u'__', u'__', u'__', u'__', 4, u'__', u'__', u'__', 4, u'__', u'__', u'__'], [0, -4, u'__', u'__', u'__', -12, u'__', u'__', u'__', 4, u'__', u'__', u'__', 4, u'__', u'__', u'__'], [0, -4, u'__', u'__', u'__', -12, u'__', u'__', u'__', 4, u'__', -4, u'__', 4, u'__', u'__', u'__'], [0, -4, u'__', u'__', u'__', -12, u'__', u'__', u'__', 4, 4, -4, u'__', 4, u'__', u'__', u'__'], [0, -4, u'__', u'__', u'__', -12, u'__', u'__', u'__', 4, 4, -4, 20, 4, u'__', u'__', u'__'], [0, -4, u'__', u'__', u'__', -12, u'__', u'__', u'__', 4, 4, -4, 20, 4, u'__', u'__', 4], [0, -4, u'__', u'__', u'__', -12, u'__', u'__', u'__', 4, 4, -4, 20, 4, -4, u'__', 4], [0, -4, u'__', u'__', u'__', -12, u'__', u'__', u'__', 4, 4, -4, 20, 4, -4, 4, 4], [0, -4, u'__', u'__', 12, -12, u'__', u'__', u'__', 4, 4, -4, 20, 4, -4, 4, 4], [0, -4, -4, u'__', 12, -12, u'__', u'__', u'__', 4, 4, -4, 20, 4, -4, 4, 4], [0, -4, -4, 4, 12, -12, u'__', u'__', u'__', 4, 4, -4, 20, 4, -4, 4, 4], [0, -4, -4, 4, 12, -12, u'__', u'__', -4, 4, 4, -4, 20, 4, -4, 4, 4], [0, -4, -4, 4, 12, -12, -20, u'__', -4, 4, 4, -4, 20, 4, -4, 4, 4], [0, -4, -4, 4, 12, -12, -20, -12, -4, 4, 4, -4, 20, 4, -4, 4, 4]]",,[],[],"[9, 13, 1, 5, 11, 10, 12, 16, 14, 15, 4, 2, 3, 8, 6, 7, u'__TERM_ACTION__']","[9, 10, 12]",[],[],"{u'mouseover': {u'state': {u'target': [], u'time': []}, u'edge': {u'target': [], u'time': []}}, u'click': {u'state': {u'target': [9, 13, 1, 5, 11, 10, 12, 16, 14, 15, 4, 2, 3, 8, 6, 7], u'time': [1077, 1524, 2115, 2562, 3443, 3763, 4075, 4780, 5181, 5651, 6280, 7480, 7799, 8376, 8735, 9107]}, u'edge': {u'target': [], u'time': []}}, u'mouseout': {u'state': {u'target': [], u'time': []}, u'edge': {u'target': [], u'time': []}}}",,,"[12102, 246, 655]",27.84,575460,12.0,10.0,mouselab-mdp,,1
,"[16349, 17005, 17725]","[u'1', u'1', u'2']","[[0, u'__', u'__', u'__', u'__', u'__', u'__', u'__', u'__', u'__', u'__', u'__', u'__', u'__', u'__', u'__', u'__'], [0, u'__', u'__', u'__', u'__', u'__', u'__', u'__', u'__', u'__', u'__', u'__', u'__', 12, u'__', u'__', u'__'], [0, u'__', u'__', u'__', u'__', u'__', u'__', u'__', u'__', -12, u'__', u'__', u'__', 12, u'__', u'__', u'__'], [0, u'__', u'__', u'__', u'__', 12, u'__', u'__', u'__', -12, u'__', u'__', u'__', 12, u'__', u'__', u'__'], [0, -20, u'__', u'__', u'__', 12, u'__', u'__', u'__', -12, u'__', u'__', u'__', 12, u'__', u'__', u'__'], [0, -20, u'__', u'__', u'__', 12, u'__', 12, u'__', -12, u'__', u'__', u'__', 12, u'__', u'__', u'__'], [0, -20, u'__', u'__', u'__', 12, 4, 12, u'__', -12, u'__', u'__', u'__', 12, u'__', u'__', u'__'], [0, -20, u'__', u'__', u'__', 12, 4, 12, -12, -12, u'__', u'__', u'__', 12, u'__', u'__', u'__'], [0, -20, u'__', u'__', u'__', 12, 4, 12, -12, -12, u'__', u'__', u'__', 12, u'__', u'__', 4], [0, -20, u'__', u'__', u'__', 12, 4, 12, -12, -12, u'__', u'__', u'__', 12, -4, u'__', 4], [0, -20, u'__', u'__', u'__', 12, 4, 12, -12, -12, u'__', u'__', u'__', 12, -4, 4, 4], [0, -20, u'__', u'__', u'__', 12, 4, 12, -12, -12, u'__', -4, u'__', 12, -4, 4, 4], [0, -20, u'__', u'__', u'__', 12, 4, 12, -12, -12, 12, -4, u'__', 12, -4, 4, 4], [0, -20, u'__', u'__', u'__', 12, 4, 12, -12, -12, 12, -4, -12, 12, -4, 4, 4], [0, -20, u'__', u'__', 4, 12, 4, 12, -12, -12, 12, -4, -12, 12, -4, 4, 4], [0, -20, 4, u'__', 4, 12, 4, 12, -12, -12, 12, -4, -12, 12, -4, 4, 4], [0, -20, 4, 4, 4, 12, 4, 12, -12, -12, 12, -4, -12, 12, -4, 4, 4]]",,[],[],"[13, 9, 5, 1, 7, 6, 8, 16, 14, 15, 11, 10, 12, 4, 2, 3, u'__TERM_ACTION__']","[5, 6, 7]",[],[],"{u'mouseover': {u'state': {u'target': [], u'time': []}, u'edge': {u'target': [], u'time': []}}, u'click': {u'state': {u'target': [13, 9, 5, 1, 7, 6, 8, 16, 14, 15, 11, 10, 12, 4, 2, 3], u'time': [937, 1504, 1971, 2456, 3180, 3504, 3796, 4532, 5052, 5493, 6201, 6523, 6835, 7543, 7866, 8211]}, u'edge': {u'target': [], u'time': []}}, u'mouseout': {u'state': {u'target': [], u'time': []}, u'edge': {u'target': [], u'time': []}}}",,,"[16348, 139, 192]",27.84,616124,13.0,4.0,mouselab-mdp,,1
,"[12892, 13675, 14362]","[u'2', u'2', u'1']","[[0, u'__', u'__', u'__', u'__', u'__', u'__', u'__', u'__', u'__', u'__', u'__', u'__', u'__', u'__', u'__', u'__'], [0, u'__', u'__', u'__', u'__', u'__', u'__', u'__', u'__', 4, u'__', u'__', u'__', u'__', u'__', u'__', u'__'], [0, u'__', u'__', u'__', u'__', u'__', u'__', u'__', u'__', 4, u'__', u'__', u'__', -4, u'__', u'__', u'__'], [0, -4, u'__', u'__', u'__', u'__', u'__', u'__', u'__', 4, u'__', u'__', u'__', -4, u'__', u'__', u'__'], [0, -4, u'__', u'__', u'__', 4, u'__', u'__', u'__', 4, u'__', u'__', u'__', -4, u'__', u'__', u'__'], [0, -4, u'__', u'__', u'__', 4, u'__', u'__', u'__', 4, u'__', -20, u'__', -4, u'__', u'__', u'__'], [0, -4, u'__', u'__', u'__', 4, u'__', u'__', u'__', 4, 12, -20, u'__', -4, u'__', u'__', u'__'], [0, -4, u'__', u'__', u'__', 4, u'__', u'__', u'__', 4, 12, -20, 20, -4, u'__', u'__', u'__'], [0, -4, u'__', u'__', u'__', 4, u'__', -20, u'__', 4, 12, -20, 20, -4, u'__', u'__', u'__'], [0, -4, u'__', u'__', u'__', 4, 4, -20, u'__', 4, 12, -20, 20, -4, u'__', u'__', u'__'], [0, -4, u'__', u'__', u'__', 4, 4, -20, -4, 4, 12, -20, 20, -4, u'__', u'__', u'__'], [0, -4, u'__', u'__', -12, 4, 4, -20, -4, 4, 12, -20, 20, -4, u'__', u'__', u'__'], [0, -4, 12, u'__', -12, 4, 4, -20, -4, 4, 12, -20, 20, -4, u'__', u'__', u'__'], [0, -4, 12, 4, -12, 4, 4, -20, -4, 4, 12, -20, 20, -4, u'__', u'__', u'__'], [0, -4, 12, 4, -12, 4, 4, -20, -4, 4, 12, -20, 20, -4, u'__', 4, u'__'], [0, -4, 12, 4, -12, 4, 4, -20, -4, 4, 12, -20, 20, -4, 20, 4, u'__'], [0, -4, 12, 4, -12, 4, 4, -20, -4, 4, 12, -20, 20, -4, 20, 4, 12]]",,[],[],"[9, 13, 1, 5, 11, 10, 12, 7, 6, 8, 4, 2, 3, 15, 14, 16, u'__TERM_ACTION__']","[9, 10, 12]",[],[],"{u'mouseover': {u'state': {u'target': [], u'time': []}, u'edge': {u'target': [], u'time': []}}, u'click': {u'state': {u'target': [9, 13, 1, 5, 11, 10, 12, 7, 6, 8, 4, 2, 3, 15, 14, 16], u'time': [1904, 2481, 2903, 3323, 4017, 4350, 4657, 5567, 5941, 6248, 6886, 7205, 7501, 8237, 8608, 8952]}, u'edge': {u'target': [], u'time': []}}, u'mouseout': {u'state': {u'target': [], u'time': []}, u'edge': {u'target': [], u'time': []}}}",,,"[12892, 263, 167]",35.84,663495,14.0,15.0,mouselab-mdp,,1
,"[10522, 11144, 12592]","[u'2', u'2', u'1']","[[0, u'__', u'__', u'__', u'__', u'__', u'__', u'__', u'__', u'__', u'__', u'__', u'__', u'__', u'__', u'__', u'__'], [0, u'__', u'__', u'__', u'__', u'__', u'__', u'__', u'__', 20, u'__', u'__', u'__', u'__', u'__', u'__', u'__'], [0, u'__', u'__', u'__', u'__', u'__', u'__', u'__', u'__', 20, u'__', u'__', u'__', -12, u'__', u'__', u'__'], [0, 20, u'__', u'__', u'__', u'__', u'__', u'__', u'__', 20, u'__', u'__', u'__', -12, u'__', u'__', u'__'], [0, 20, u'__', u'__', u'__', 4, u'__', u'__', u'__', 20, u'__', u'__', u'__', -12, u'__', u'__', u'__'], [0, 20, u'__', u'__', -4, 4, u'__', u'__', u'__', 20, u'__', u'__', u'__', -12, u'__', u'__', u'__'], [0, 20, 4, u'__', -4, 4, u'__', u'__', u'__', 20, u'__', u'__', u'__', -12, u'__', u'__', u'__'], [0, 20, 4, 4, -4, 4, u'__', u'__', u'__', 20, u'__', u'__', u'__', -12, u'__', u'__', u'__'], [0, 20, 4, 4, -4, 4, u'__', u'__', u'__', 20, u'__', -4, u'__', -12, u'__', u'__', u'__'], [0, 20, 4, 4, -4, 4, u'__', u'__', u'__', 20, 4, -4, u'__', -12, u'__', u'__', u'__'], [0, 20, 4, 4, -4, 4, u'__', u'__', u'__', 20, 4, -4, 12, -12, u'__', u'__', u'__'], [0, 20, 4, 4, -4, 4, u'__', u'__', u'__', 20, 4, -4, 12, -12, u'__', u'__', -4], [0, 20, 4, 4, -4, 4, u'__', u'__', u'__', 20, 4, -4, 12, -12, -4, u'__', -4], [0, 20, 4, 4, -4, 4, u'__', u'__', u'__', 20, 4, -4, 12, -12, -4, 12, -4], [0, 20, 4, 4, -4, 4, u'__', -20, u'__', 20, 4, -4, 12, -12, -4, 12, -4], [0, 20, 4, 4, -4, 4, 12, -20, u'__', 20, 4, -4, 12, -12, -4, 12, -4], [0, 20, 4, 4, -4, 4, 12, -20, 4, 20, 4, -4, 12, -12, -4, 12, -4]]",,[],[],"[9, 13, 1, 5, 4, 2, 3, 11, 10, 12, 16, 14, 15, 7, 6, 8, u'__TERM_ACTION__']","[9, 10, 12]",[],[],"{u'mouseover': {u'state': {u'target': [], u'time': []}, u'edge': {u'target': [], u'time': []}}, u'click': {u'state': {u'target': [9, 13, 1, 5, 4, 2, 3, 11, 10, 12, 16, 14, 15, 7, 6, 8], u'time': [1132, 1694, 2192, 2661, 3558, 3887, 4195, 5092, 5871, 6215, 7118, 7459, 7819, 8430, 8739, 9030]}, u'edge': {u'target': [], u'time': []}}, u'mouseout': {u'state': {u'target': [], u'time': []}, u'edge': {u'target': [], u'time': []}}}",,,"[10522, 106, 921]",35.84,704876,15.0,2.0,mouselab-mdp,,1
,"[12082, 12729, 13472]","[u'2', u'2', u'3']","[[0, u'__', u'__', u'__', u'__', u'__', u'__', u'__', u'__', u'__', u'__', u'__', u'__', u'__', u'__', u'__', u'__'], [0, u'__', u'__', u'__', u'__', u'__', u'__', u'__', u'__', 20, u'__', u'__', u'__', u'__', u'__', u'__', u'__'], [0, u'__', u'__', u'__', u'__', u'__', u'__', u'__', u'__', 20, u'__', u'__', u'__', -4, u'__', u'__', u'__'], [0, 4, u'__', u'__', u'__', u'__', u'__', u'__', u'__', 20, u'__', u'__', u'__', -4, u'__', u'__', u'__'], [0, 4, u'__', u'__', u'__', -20, u'__', u'__', u'__', 20, u'__', u'__', u'__', -4, u'__', u'__', u'__'], [0, 4, u'__', u'__', u'__', -20, u'__', u'__', u'__', 20, u'__', 12, u'__', -4, u'__', u'__', u'__'], [0, 4, u'__', u'__', u'__', -20, u'__', u'__', u'__', 20, 4, 12, u'__', -4, u'__', u'__', u'__'], [0, 4, u'__', u'__', u'__', -20, u'__', u'__', u'__', 20, 4, 12, 4, -4, u'__', u'__', u'__'], [0, 4, u'__', u'__', u'__', -20, u'__', u'__', u'__', 20, 4, 12, 4, -4, u'__', u'__', 4], [0, 4, u'__', u'__', u'__', -20, u'__', u'__', u'__', 20, 4, 12, 4, -4, -4, u'__', 4], [0, 4, u'__', u'__', u'__', -20, u'__', u'__', u'__', 20, 4, 12, 4, -4, -4, 4, 4], [0, 4, u'__', u'__', 12, -20, u'__', u'__', u'__', 20, 4, 12, 4, -4, -4, 4, 4], [0, 4, 4, u'__', 12, -20, u'__', u'__', u'__', 20, 4, 12, 4, -4, -4, 4, 4], [0, 4, 4, 12, 12, -20, u'__', u'__', u'__', 20, 4, 12, 4, -4, -4, 4, 4], [0, 4, 4, 12, 12, -20, u'__', u'__', 20, 20, 4, 12, 4, -4, -4, 4, 4], [0, 4, 4, 12, 12, -20, -4, u'__', 20, 20, 4, 12, 4, -4, -4, 4, 4], [0, 4, 4, 12, 12, -20, -4, 4, 20, 20, 4, 12, 4, -4, -4, 4, 4]]",,[],[],"[9, 13, 1, 5, 11, 10, 12, 16, 14, 15, 4, 2, 3, 8, 6, 7, u'__TERM_ACTION__']","[9, 10, 11]",[],[],"{u'mouseover': {u'state': {u'target': [], u'time': []}, u'edge': {u'target': [], u'time': []}}, u'click': {u'state': {u'target': [9, 13, 1, 5, 11, 10, 12, 16, 14, 15, 4, 2, 3, 8, 6, 7], u'time': [775, 1433, 2037, 2480, 3139, 3472, 3789, 4643, 5148, 5505, 6278, 6567, 6853, 8664, 8996, 9358]}, u'edge': {u'target': [], u'time': []}}, u'mouseout': {u'state': {u'target': [], u'time': []}, u'edge': {u'target': [], u'time': []}}}",,,"[12082, 128, 222]",35.84,745357,16.0,12.0,mouselab-mdp,,1
"[{u'Q': -4, u'action': u'__TERM_ACTION__', u'Qs': {u'1': -12, u'9': -4, u'13': -12, u'5': -20}, u'state': [0, -4, -12, -20, 4, -12, -4, -4, -20, 4, -12, 4, 4, -12, -4, 4, -4], u'V': -4}]","[45956, 47490, 48610]","[u'2', u'2', u'3']","[[0, u'__', u'__', u'__', u'__', u'__', u'__', u'__', u'__', u'__', u'__', u'__', u'__', u'__', u'__', u'__', u'__'], [0, u'__', u'__', u'__', u'__', -12, u'__', u'__', u'__', u'__', u'__', u'__', u'__', u'__', u'__', u'__', u'__'], [0, u'__', u'__', u'__', u'__', -12, u'__', u'__', u'__', u'__', u'__', u'__', u'__', -12, u'__', u'__', u'__'], [0, -4, u'__', u'__', u'__', -12, u'__', u'__', u'__', u'__', u'__', u'__', u'__', -12, u'__', u'__', u'__'], [0, -4, u'__', u'__', u'__', -12, u'__', u'__', u'__', 4, u'__', u'__', u'__', -12, u'__', u'__', u'__'], [0, -4, u'__', u'__', u'__', -12, u'__', u'__', u'__', 4, -12, u'__', u'__', -12, u'__', u'__', u'__'], [0, -4, u'__', u'__', u'__', -12, u'__', u'__', u'__', 4, -12, 4, u'__', -12, u'__', u'__', u'__'], [0, -4, u'__', u'__', u'__', -12, u'__', u'__', u'__', 4, -12, 4, 4, -12, u'__', u'__', u'__'], [0, -4, -12, u'__', u'__', -12, u'__', u'__', u'__', 4, -12, 4, 4, -12, u'__', u'__', u'__'], [0, -4, -12, u'__', 4, -12, u'__', u'__', u'__', 4, -12, 4, 4, -12, u'__', u'__', u'__'], [0, -4, -12, -20, 4, -12, u'__', u'__', u'__', 4, -12, 4, 4, -12, u'__', u'__', u'__'], [0, -4, -12, -20, 4, -12, u'__', u'__', -20, 4, -12, 4, 4, -12, u'__', u'__', u'__'], [0, -4, -12, -20, 4, -12, -4, u'__', -20, 4, -12, 4, 4, -12, u'__', u'__', u'__'], [0, -4, -12, -20, 4, -12, -4, -4, -20, 4, -12, 4, 4, -12, u'__', u'__', u'__'], [0, -4, -12, -20, 4, -12, -4, -4, -20, 4, -12, 4, 4, -12, -4, u'__', u'__'], [0, -4, -12, -20, 4, -12, -4, -4, -20, 4, -12, 4, 4, -12, -4, u'__', -4], [0, -4, -12, -20, 4, -12, -4, -4, -20, 4, -12, 4, 4, -12, -4, 4, -4]]",,[None],[True],"[5, 13, 1, 9, 10, 11, 12, 2, 4, 3, 8, 6, 7, 14, 16, 15, u'__TERM_ACTION__']","[9, 10, 11]",[False],[False],"{u'mouseover': {u'state': {u'target': [], u'time': []}, u'edge': {u'target': [], u'time': []}}, u'click': {u'state': {u'target': [5, 13, 1, 9, 10, 11, 12, 2, 4, 3, 8, 6, 7, 14, 16, 15], u'time': [8362, 12981, 13889, 14691, 16203, 17187, 18043, 22428, 22908, 23316, 23788, 24099, 24379, 25259, 25579, 25979]}, u'edge': {u'target': [], u'time': []}}, u'mouseout': {u'state': {u'target': [], u'time': []}, u'edge': {u'target': [], u'time': []}}}",,,"[45955, 1013, 603]",-4.16,251847,1.0,3.0,mouselab-mdp,,2
"[{u'Q': 12, u'action': u'__TERM_ACTION__', u'Qs': {u'1': -4, u'9': 12, u'13': 12, u'5': -4}, u'state': [0, 4, -4, -12, -4, 4, -12, 4, -12, -4, 12, -12, 4, 4, 12, -4, -12], u'V': 12}]","[24315, 25498, 26473]","[u'2', u'2', u'1']","[[0, u'__', u'__', u'__', u'__', u'__', u'__', u'__', u'__', u'__', u'__', u'__', u'__', u'__', u'__', u'__', u'__'], [0, u'__', u'__', u'__', u'__', 4, u'__', u'__', u'__', u'__', u'__', u'__', u'__', u'__', u'__', u'__', u'__'], [0, u'__', u'__', u'__', u'__', 4, -12, u'__', u'__', u'__', u'__', u'__', u'__', u'__', u'__', u'__', u'__'], [0, u'__', u'__', u'__', u'__', 4, -12, u'__', -12, u'__', u'__', u'__', u'__', u'__', u'__', u'__', u'__'], [0, u'__', u'__', u'__', u'__', 4, -12, 4, -12, u'__', u'__', u'__', u'__', u'__', u'__', u'__', u'__'], [0, u'__', u'__', u'__', u'__', 4, -12, 4, -12, -4, u'__', u'__', u'__', u'__', u'__', u'__', u'__'], [0, u'__', u'__', u'__', u'__', 4, -12, 4, -12, -4, u'__', u'__', 4, u'__', u'__', u'__', u'__'], [0, u'__', u'__', u'__', u'__', 4, -12, 4, -12, -4, 12, u'__', 4, u'__', u'__', u'__', u'__'], [0, u'__', u'__', u'__', u'__', 4, -12, 4, -12, -4, 12, -12, 4, u'__', u'__', u'__', u'__'], [0, u'__', u'__', u'__', u'__', 4, -12, 4, -12, -4, 12, -12, 4, 4, u'__', u'__', u'__'], [0, u'__', u'__', u'__', u'__', 4, -12, 4, -12, -4, 12, -12, 4, 4, 12, u'__', u'__'], [0, u'__', u'__', u'__', u'__', 4, -12, 4, -12, -4, 12, -12, 4, 4, 12, u'__', -12], [0, u'__', u'__', u'__', u'__', 4, -12, 4, -12, -4, 12, -12, 4, 4, 12, -4, -12], [0, u'__', u'__', u'__', -4, 4, -12, 4, -12, -4, 12, -12, 4, 4, 12, -4, -12], [0, u'__', -4, u'__', -4, 4, -12, 4, -12, -4, 12, -12, 4, 4, 12, -4, -12], [0, 4, -4, u'__', -4, 4, -12, 4, -12, -4, 12, -12, 4, 4, 12, -4, -12], [0, 4, -4, -12, -4, 4, -12, 4, -12, -4, 12, -12, 4, 4, 12, -4, -12]]",,[None],[True],"[5, 6, 8, 7, 9, 12, 10, 11, 13, 14, 16, 15, 4, 2, 1, 3, u'__TERM_ACTION__']","[9, 10, 12]",[False],[False],"{u'mouseover': {u'state': {u'target': [], u'time': []}, u'edge': {u'target': [], u'time': []}}, u'click': {u'state': {u'target': [5, 6, 8, 7, 9, 12, 10, 11, 13, 14, 16, 15, 4, 2, 1, 3], u'time': [1643, 3043, 3595, 4147, 6730, 7683, 8139, 8594, 10090, 10464, 10893, 11442, 12178, 12527, 12858, 13234]}, u'edge': {u'target': [], u'time': []}}, u'mouseout': {u'state': {u'target': [], u'time': []}, u'edge': {u'target': [], u'time': []}}}",,,"[24315, 675, 460]",11.84,294021,2.0,11.0,mouselab-mdp,,2
"[{u'Q': 28, u'action': u'__TERM_ACTION__', u'Qs': {u'1': 20, u'9': 28, u'13': 12, u'5': 12}, u'state': [0, 12, 4, -20, 4, -4, 4, 12, -4, 12, 4, -20, 12, 4, 20, -12, -12], u'V': 28}]","[27468, 28587, 29627]","[u'2', u'2', u'1']","[[0, u'__', u'__', u'__', u'__', u'__', u'__', u'__', u'__', u'__', u'__', u'__', u'__', u'__', u'__', u'__', u'__'], [0, u'__', u'__', u'__', u'__', u'__', u'__', u'__', u'__', 12, u'__', u'__', u'__', u'__', u'__', u'__', u'__'], [0, u'__', u'__', u'__', u'__', u'__', u'__', u'__', u'__', 12, 4, u'__', u'__', u'__', u'__', u'__', u'__'], [0, u'__', u'__', u'__', u'__', u'__', u'__', u'__', u'__', 12, 4, u'__', 12, u'__', u'__', u'__', u'__'], [0, u'__', u'__', u'__', u'__', u'__', u'__', u'__', u'__', 12, 4, -20, 12, u'__', u'__', u'__', u'__'], [0, 12, u'__', u'__', u'__', u'__', u'__', u'__', u'__', 12, 4, -20, 12, u'__', u'__', u'__', u'__'], [0, 12, u'__', u'__', u'__', -4, u'__', u'__', u'__', 12, 4, -20, 12, u'__', u'__', u'__', u'__'], [0, 12, u'__', u'__', u'__', -4, u'__', u'__', u'__', 12, 4, -20, 12, 4, u'__', u'__', u'__'], [0, 12, u'__', u'__', u'__', -4, u'__', u'__', u'__', 12, 4, -20, 12, 4, 20, u'__', u'__'], [0, 12, u'__', u'__', u'__', -4, u'__', u'__', u'__', 12, 4, -20, 12, 4, 20, u'__', -12], [0, 12, u'__', u'__', u'__', -4, u'__', u'__', u'__', 12, 4, -20, 12, 4, 20, -12, -12], [0, 12, 4, u'__', u'__', -4, u'__', u'__', u'__', 12, 4, -20, 12, 4, 20, -12, -12], [0, 12, 4, u'__', 4, -4, u'__', u'__', u'__', 12, 4, -20, 12, 4, 20, -12, -12], [0, 12, 4, -20, 4, -4, u'__', u'__', u'__', 12, 4, -20, 12, 4, 20, -12, -12], [0, 12, 4, -20, 4, -4, 4, u'__', u'__', 12, 4, -20, 12, 4, 20, -12, -12], [0, 12, 4, -20, 4, -4, 4, 12, u'__', 12, 4, -20, 12, 4, 20, -12, -12], [0, 12, 4, -20, 4, -4, 4, 12, -4, 12, 4, -20, 12, 4, 20, -12, -12]]",,[None],[True],"[9, 10, 12, 11, 1, 5, 13, 14, 16, 15, 2, 4, 3, 6, 7, 8, u'__TERM_ACTION__']","[9, 10, 12]",[False],[False],"{u'mouseover': {u'state': {u'target': [], u'time': []}, u'edge': {u'target': [], u'time': []}}, u'click': {u'state': {u'target': [9, 10, 12, 11, 1, 5, 13, 14, 16, 15, 2, 4, 3, 6, 7, 8], u'time': [1572, 2923, 3539, 4435, 5570, 6059, 7212, 7812, 8389, 8916, 9666, 10012, 10395, 11193, 11579, 12411]}, u'edge': {u'target': [], u'time': []}}, u'mouseout': {u'state': {u'target': [], u'time': []}, u'edge': {u'target': [], u'time': []}}}",,,"[27468, 619, 537]",27.84,334790,3.0,6.0,mouselab-mdp,,2
"[{u'Q': 44, u'action': u'__TERM_ACTION__', u'Qs': {u'1': 44, u'9': 12, u'13': -4, u'5': -20}, u'state': [0, 12, 12, -4, 20, -12, -12, -12, 4, -20, 20, u'__', -20, -12, -4, -12, 12], u'V': 44}]","[13747, 15330, 16402]","[u'0', u'0', u'3']","[[0, u'__', u'__', u'__', u'__', u'__', u'__', u'__', u'__', u'__', u'__', u'__', u'__', u'__', u'__', u'__', u'__'], [0, u'__', u'__', u'__', u'__', u'__', u'__', u'__', u'__', -20, u'__', u'__', u'__', u'__', u'__', u'__', u'__'], [0, u'__', u'__', u'__', u'__', -12, u'__', u'__', u'__', -20, u'__', u'__', u'__', u'__', u'__', u'__', u'__'], [0, 12, u'__', u'__', u'__', -12, u'__', u'__', u'__', -20, u'__', u'__', u'__', u'__', u'__', u'__', u'__'], [0, 12, u'__', u'__', u'__', -12, u'__', u'__', u'__', -20, u'__', u'__', u'__', -12, u'__', u'__', u'__'], [0, 12, 12, u'__', u'__', -12, u'__', u'__', u'__', -20, u'__', u'__', u'__', -12, u'__', u'__', u'__'], [0, 12, 12, u'__', 20, -12, u'__', u'__', u'__', -20, u'__', u'__', u'__', -12, u'__', u'__', u'__'], [0, 12, 12, -4, 20, -12, u'__', u'__', u'__', -20, u'__', u'__', u'__', -12, u'__', u'__', u'__'], [0, 12, 12, -4, 20, -12, u'__', u'__', u'__', -20, u'__', u'__', u'__', -12, u'__', -12, u'__'], [0, 12, 12, -4, 20, -12, u'__', u'__', u'__', -20, u'__', u'__', u'__', -12, -4, -12, u'__'], [0, 12, 12, -4, 20, -12, u'__', u'__', u'__', -20, u'__', u'__', u'__', -12, -4, -12, 12], [0, 12, 12, -4, 20, -12, u'__', u'__', u'__', -20, 20, u'__', u'__', -12, -4, -12, 12], [0, 12, 12, -4, 20, -12, u'__', u'__', u'__', -20, 20, u'__', -20, -12, -4, -12, 12], [0, 12, 12, -4, 20, -12, u'__', -12, u'__', -20, 20, u'__', -20, -12, -4, -12, 12], [0, 12, 12, -4, 20, -12, -12, -12, u'__', -20, 20, u'__', -20, -12, -4, -12, 12], [0, 12, 12, -4, 20, -12, -12, -12, 4, -20, 20, u'__', -20, -12, -4, -12, 12]]",,[None],[True],"[9, 5, 1, 13, 2, 4, 3, 15, 14, 16, 10, 12, 7, 6, 8, u'__TERM_ACTION__']","[1, 2, 4]",[False],[False],"{u'mouseover': {u'state': {u'target': [], u'time': []}, u'edge': {u'target': [], u'time': []}}, u'click': {u'state': {u'target': [9, 5, 1, 13, 2, 4, 3, 15, 14, 16, 10, 12, 7, 6, 8], u'time': [860, 1357, 1884, 2377, 3043, 3523, 4203, 8347, 8747, 9100, 10411, 11043, 11659, 12008, 12268]}, u'edge': {u'target': [], u'time': []}}, u'mouseout': {u'state': {u'target': [], u'time': []}, u'edge': {u'target': [], u'time': []}}}",,,"[13747, 1069, 583]",43.85,376855,4.0,13.0,mouselab-mdp,,2
"[{u'Q': 28, u'action': u'__TERM_ACTION__', u'Qs': {u'1': -12, u'9': -4, u'13': 12, u'5': 28}, u'state': [0, -20, 4, 4, 4, 12, 4, 12, -12, -12, 12, -4, -12, 12, -4, 4, 4], u'V': 28}]","[21715, 22594, 23426]","[u'1', u'1', u'2']","[[0, u'__', u'__', u'__', u'__', u'__', u'__', u'__', u'__', u'__', u'__', u'__', u'__', u'__', u'__', u'__', u'__'], [0, -20, u'__', u'__', u'__', u'__', u'__', u'__', u'__', u'__', u'__', u'__', u'__', u'__', u'__', u'__', u'__'], [0, -20, u'__', u'__', u'__', 12, u'__', u'__', u'__', u'__', u'__', u'__', u'__', u'__', u'__', u'__', u'__'], [0, -20, u'__', u'__', u'__', 12, u'__', u'__', u'__', u'__', u'__', u'__', u'__', 12, u'__', u'__', u'__'], [0, -20, u'__', u'__', u'__', 12, u'__', u'__', u'__', -12, u'__', u'__', u'__', 12, u'__', u'__', u'__'], [0, -20, u'__', u'__', u'__', 12, u'__', u'__', u'__', -12, u'__', u'__', u'__', 12, -4, u'__', u'__'], [0, -20, u'__', u'__', u'__', 12, u'__', u'__', u'__', -12, u'__', u'__', u'__', 12, -4, 4, u'__'], [0, -20, u'__', u'__', u'__', 12, u'__', u'__', u'__', -12, u'__', u'__', u'__', 12, -4, 4, 4], [0, -20, u'__', u'__', u'__', 12, 4, u'__', u'__', -12, u'__', u'__', u'__', 12, -4, 4, 4], [0, -20, u'__', u'__', u'__', 12, 4, u'__', -12, -12, u'__', u'__', u'__', 12, -4, 4, 4], [0, -20, u'__', u'__', u'__', 12, 4, 12, -12, -12, u'__', u'__', u'__', 12, -4, 4, 4], [0, -20, 4, u'__', u'__', 12, 4, 12, -12, -12, u'__', u'__', u'__', 12, -4, 4, 4], [0, -20, 4, u'__', 4, 12, 4, 12, -12, -12, u'__', u'__', u'__', 12, -4, 4, 4], [0, -20, 4, 4, 4, 12, 4, 12, -12, -12, u'__', u'__', u'__', 12, -4, 4, 4], [0, -20, 4, 4, 4, 12, 4, 12, -12, -12, 12, u'__', u'__', 12, -4, 4, 4], [0, -20, 4, 4, 4, 12, 4, 12, -12, -12, 12, -4, u'__', 12, -4, 4, 4], [0, -20, 4, 4, 4, 12, 4, 12, -12, -12, 12, -4, -12, 12, -4, 4, 4]]",,[None],[True],"[1, 5, 13, 9, 14, 15, 16, 6, 8, 7, 2, 4, 3, 10, 11, 12, u'__TERM_ACTION__']","[5, 6, 7]",[False],[False],"{u'mouseover': {u'state': {u'target': [], u'time': []}, u'edge': {u'target': [], u'time': []}}, u'click': {u'state': {u'target': [1, 5, 13, 9, 14, 15, 16, 6, 8, 7, 2, 4, 3, 10, 11, 12], u'time': [5347, 6170, 6754, 7322, 8266, 8746, 9274, 10090, 10432, 10850, 11827, 12203, 12570, 13348, 13906, 14571]}, u'edge': {u'target': [], u'time': []}}, u'mouseout': {u'state': {u'target': [], u'time': []}, u'edge': {u'target': [], u'time': []}}}",,,"[21715, 355, 331]",27.84,418597,5.0,4.0,mouselab-mdp,,2
"[{u'Q': 20, u'action': u'__TERM_ACTION__', u'Qs': {u'1': 4, u'9': 20, u'13': -20, u'5': -4}, u'state': [0, -12, -4, 4, 20, 4, -20, 12, -4, 12, -4, 12, 4, 4, -12, -12, -12], u'V': 20}]","[42353, 43105, 43792]","[u'2', u'2', u'3']","[[0, u'__', u'__', u'__', u'__', u'__', u'__', u'__', u'__', u'__', u'__', u'__', u'__', u'__', u'__', u'__', u'__'], [0, u'__', u'__', u'__', u'__', u'__', u'__', u'__', u'__', 12, u'__', u'__', u'__', u'__', u'__', u'__', u'__'], [0, -12, u'__', u'__', u'__', u'__', u'__', u'__', u'__', 12, u'__', u'__', u'__', u'__', u'__', u'__', u'__'], [0, -12, u'__', u'__', u'__', u'__', u'__', u'__', u'__', 12, u'__', u'__', u'__', 4, u'__', u'__', u'__'], [0, -12, u'__', u'__', u'__', 4, u'__', u'__', u'__', 12, u'__', u'__', u'__', 4, u'__', u'__', u'__'], [0, -12, u'__', u'__', u'__', 4, u'__', u'__', -4, 12, u'__', u'__', u'__', 4, u'__', u'__', u'__'], [0, -12, u'__', u'__', u'__', 4, u'__', 12, -4, 12, u'__', u'__', u'__', 4, u'__', u'__', u'__'], [0, -12, u'__', u'__', u'__', 4, u'__', 12, -4, 12, u'__', u'__', u'__', 4, u'__', u'__', -12], [0, -12, u'__', u'__', u'__', 4, u'__', 12, -4, 12, u'__', u'__', u'__', 4, u'__', -12, -12], [0, -12, u'__', u'__', u'__', 4, u'__', 12, -4, 12, u'__', u'__', u'__', 4, -12, -12, -12], [0, -12, u'__', u'__', u'__', 4, u'__', 12, -4, 12, u'__', 12, u'__', 4, -12, -12, -12], [0, -12, u'__', u'__', u'__', 4, u'__', 12, -4, 12, u'__', 12, 4, 4, -12, -12, -12], [0, -12, u'__', u'__', 20, 4, u'__', 12, -4, 12, u'__', 12, 4, 4, -12, -12, -12], [0, -12, u'__', 4, 20, 4, u'__', 12, -4, 12, u'__', 12, 4, 4, -12, -12, -12], [0, -12, -4, 4, 20, 4, u'__', 12, -4, 12, u'__', 12, 4, 4, -12, -12, -12], [0, -12, -4, 4, 20, 4, -20, 12, -4, 12, u'__', 12, 4, 4, -12, -12, -12], [0, -12, -4, 4, 20, 4, -20, 12, -4, 12, -4, 12, 4, 4, -12, -12, -12]]",,[None],[True],"[9, 1, 13, 5, 8, 7, 16, 15, 14, 11, 12, 4, 3, 2, 6, 10, u'__TERM_ACTION__']","[9, 10, 11]",[False],[False],"{u'mouseover': {u'state': {u'target': [], u'time': []}, u'edge': {u'target': [], u'time': []}}, u'click': {u'state': {u'target': [9, 1, 13, 5, 8, 7, 16, 15, 14, 11, 12, 4, 3, 2, 6, 10], u'time': [3231, 3879, 4360, 5288, 5816, 6416, 10185, 10693, 11063, 12072, 12669, 15951, 16415, 17192, 18775, 21728]}, u'edge': {u'target': [], u'time': []}}, u'mouseout': {u'state': {u'target': [], u'time': []}, u'edge': {u'target': [], u'time': []}}}",,,"[42353, 234, 192]",19.84,467382,6.0,8.0,mouselab-mdp,,2
"[{u'Q': 36, u'action': u'__TERM_ACTION__', u'Qs': {u'1': 12, u'9': 36, u'13': 28, u'5': 4}, u'state': [0, u'__', u'__', u'__', u'__', u'__', 4, -20, -4, 4, 12, -20, 20, u'__', u'__', u'__', u'__'], u'V': 36}]","[7862, 8744, 9462]","[u'2', u'2', u'1']","[[0, u'__', u'__', u'__', u'__', u'__', u'__', u'__', u'__', u'__', u'__', u'__', u'__', u'__', u'__', u'__', u'__'], [0, u'__', u'__', u'__', u'__', u'__', u'__', u'__', u'__', 4, u'__', u'__', u'__', u'__', u'__', u'__', u'__'], [0, u'__', u'__', u'__', u'__', u'__', u'__', u'__', u'__', 4, 12, u'__', u'__', u'__', u'__', u'__', u'__'], [0, u'__', u'__', u'__', u'__', u'__', u'__', u'__', u'__', 4, 12, -20, u'__', u'__', u'__', u'__', u'__'], [0, u'__', u'__', u'__', u'__', u'__', u'__', u'__', u'__', 4, 12, -20, 20, u'__', u'__', u'__', u'__'], [0, u'__', u'__', u'__', u'__', u'__', u'__', -20, u'__', 4, 12, -20, 20, u'__', u'__', u'__', u'__'], [0, u'__', u'__', u'__', u'__', u'__', 4, -20, u'__', 4, 12, -20, 20, u'__', u'__', u'__', u'__'], [0, u'__', u'__', u'__', u'__', u'__', 4, -20, -4, 4, 12, -20, 20, u'__', u'__', u'__', u'__']]",,[None],[True],"[9, 10, 11, 12, 7, 6, 8, u'__TERM_ACTION__']","[9, 10, 12]",[False],[False],"{u'mouseover': {u'state': {u'target': [], u'time': []}, u'edge': {u'target': [], u'time': []}}, u'click': {u'state': {u'target': [9, 10, 11, 12, 7, 6, 8], u'time': [1647, 2180, 2526, 3030, 3686, 4078, 4430]}, u'edge': {u'target': [], u'time': []}}, u'mouseout': {u'state': {u'target': [], u'time': []}, u'edge': {u'target': [], u'time': []}}}",,,"[7861, 351, 229]",35.93,510198,7.0,15.0,mouselab-mdp,,2
"[{u'Q': 12, u'action': u'__TERM_ACTION__', u'Qs': {u'1': -28, u'9': -4, u'13': 12, u'5': 4}, u'state': [0, -20, -12, -4, 4, 4, -20, -12, 20, 4, -12, -4, 4, -12, 4, 20, 12], u'V': 12}]","[32756, 33507, 34242]","[u'3', u'3', u'0']","[[0, u'__', u'__', u'__', u'__', u'__', u'__', u'__', u'__', u'__', u'__', u'__', u'__', u'__', u'__', u'__', u'__'], [0, u'__', u'__', u'__', u'__', u'__', u'__', u'__', u'__', 4, u'__', u'__', u'__', u'__', u'__', u'__', u'__'], [0, u'__', u'__', u'__', u'__', 4, u'__', u'__', u'__', 4, u'__', u'__', u'__', u'__', u'__', u'__', u'__'], [0, -20, u'__', u'__', u'__', 4, u'__', u'__', u'__', 4, u'__', u'__', u'__', u'__', u'__', u'__', u'__'], [0, -20, u'__', u'__', u'__', 4, u'__', u'__', u'__', 4, u'__', u'__', u'__', -12, u'__', u'__', u'__'], [0, -20, -12, u'__', u'__', 4, u'__', u'__', u'__', 4, u'__', u'__', u'__', -12, u'__', u'__', u'__'], [0, -20, -12, u'__', u'__', 4, u'__', u'__', u'__', 4, -12, u'__', u'__', -12, u'__', u'__', u'__'], [0, -20, -12, u'__', u'__', 4, u'__', u'__', u'__', 4, -12, u'__', 4, -12, u'__', u'__', u'__'], [0, -20, -12, u'__', u'__', 4, u'__', u'__', u'__', 4, -12, -4, 4, -12, u'__', u'__', u'__'], [0, -20, -12, u'__', u'__', 4, u'__', u'__', u'__', 4, -12, -4, 4, -12, u'__', u'__', 12], [0, -20, -12, u'__', u'__', 4, u'__', u'__', u'__', 4, -12, -4, 4, -12, 4, u'__', 12], [0, -20, -12, u'__', u'__', 4, u'__', u'__', u'__', 4, -12, -4, 4, -12, 4, 20, 12], [0, -20, -12, u'__', u'__', 4, -20, u'__', u'__', 4, -12, -4, 4, -12, 4, 20, 12], [0, -20, -12, u'__', u'__', 4, -20, u'__', 20, 4, -12, -4, 4, -12, 4, 20, 12], [0, -20, -12, u'__', u'__', 4, -20, -12, 20, 4, -12, -4, 4, -12, 4, 20, 12], [0, -20, -12, -4, u'__', 4, -20, -12, 20, 4, -12, -4, 4, -12, 4, 20, 12], [0, -20, -12, -4, 4, 4, -20, -12, 20, 4, -12, -4, 4, -12, 4, 20, 12]]",,[None],[True],"[9, 5, 1, 13, 2, 10, 12, 11, 16, 14, 15, 6, 8, 7, 3, 4, u'__TERM_ACTION__']","[13, 14, 15]",[False],[False],"{u'mouseover': {u'state': {u'target': [], u'time': []}, u'edge': {u'target': [], u'time': []}}, u'click': {u'state': {u'target': [9, 5, 1, 13, 2, 10, 12, 11, 16, 14, 15, 6, 8, 7, 3, 4], u'time': [1685, 2692, 3289, 4147, 4811, 5907, 6435, 7081, 7851, 8284, 8627, 9787, 10155, 10900, 11691, 12171]}, u'edge': {u'target': [], u'time': []}}, u'mouseout': {u'state': {u'target': [], u'time': []}, u'edge': {u'target': [], u'time': []}}}",,,"[32755, 244, 240]",11.84,552726,8.0,9.0,mouselab-mdp,,2
"[{u'Q': 28, u'action': u'__TERM_ACTION__', u'Qs': {u'1': 4, u'9': 28, u'13': 4, u'5': -36}, u'state': [0, -4, u'__', u'__', u'__', -12, u'__', u'__', u'__', 4, 4, -4, 20, 4, -4, 4, 4], u'V': 28}]","[14669, 15724, 16444]","[u'2', u'2', u'1']","[[0, u'__', u'__', u'__', u'__', u'__', u'__', u'__', u'__', u'__', u'__', u'__', u'__', u'__', u'__', u'__', u'__'], [0, u'__', u'__', u'__', u'__', -12, u'__', u'__', u'__', u'__', u'__', u'__', u'__', u'__', u'__', u'__', u'__'], [0, u'__', u'__', u'__', u'__', -12, u'__', u'__', u'__', 4, u'__', u'__', u'__', u'__', u'__', u'__', u'__'], [0, -4, u'__', u'__', u'__', -12, u'__', u'__', u'__', 4, u'__', u'__', u'__', u'__', u'__', u'__', u'__'], [0, -4, u'__', u'__', u'__', -12, u'__', u'__', u'__', 4, u'__', u'__', u'__', 4, u'__', u'__', u'__'], [0, -4, u'__', u'__', u'__', -12, u'__', u'__', u'__', 4, u'__', u'__', u'__', 4, -4, u'__', u'__'], [0, -4, u'__', u'__', u'__', -12, u'__', u'__', u'__', 4, u'__', u'__', u'__', 4, -4, 4, u'__'], [0, -4, u'__', u'__', u'__', -12, u'__', u'__', u'__', 4, u'__', u'__', u'__', 4, -4, 4, 4], [0, -4, u'__', u'__', u'__', -12, u'__', u'__', u'__', 4, 4, u'__', u'__', 4, -4, 4, 4], [0, -4, u'__', u'__', u'__', -12, u'__', u'__', u'__', 4, 4, -4, u'__', 4, -4, 4, 4], [0, -4, u'__', u'__', u'__', -12, u'__', u'__', u'__', 4, 4, -4, 20, 4, -4, 4, 4]]",,[None],[True],"[5, 9, 1, 13, 14, 15, 16, 10, 11, 12, u'__TERM_ACTION__']","[9, 10, 12]",[False],[False],"{u'mouseover': {u'state': {u'target': [], u'time': []}, u'edge': {u'target': [], u'time': []}}, u'click': {u'state': {u'target': [5, 9, 1, 13, 14, 15, 16, 10, 11, 12], u'time': [1317, 2117, 2746, 3412, 4746, 5252, 5804, 6472, 7092, 7636]}, u'edge': {u'target': [], u'time': []}}, u'mouseout': {u'state': {u'target': [], u'time': []}, u'edge': {u'target': [], u'time': []}}}",,,"[14669, 526, 223]",27.9,597543,9.0,10.0,mouselab-mdp,,2
"[{u'Q': 28, u'action': u'__TERM_ACTION__', u'Qs': {u'1': 20, u'9': -44, u'13': 28, u'5': 20}, u'state': [0, 12, 4, -12, 4, 4, 12, 4, -12, -20, -20, u'__', u'__', 12, 4, 4, 12], u'V': 28}]","[32535, 33300, 34245]","[u'3', u'3', u'2']","[[0, u'__', u'__', u'__', u'__', u'__', u'__', u'__', u'__', u'__', u'__', u'__', u'__', u'__', u'__', u'__', u'__'], [0, u'__', u'__', u'__', u'__', u'__', u'__', u'__', u'__', -20, u'__', u'__', u'__', u'__', u'__', u'__', u'__'], [0, 12, u'__', u'__', u'__', u'__', u'__', u'__', u'__', -20, u'__', u'__', u'__', u'__', u'__', u'__', u'__'], [0, 12, u'__', u'__', u'__', 4, u'__', u'__', u'__', -20, u'__', u'__', u'__', u'__', u'__', u'__', u'__'], [0, 12, u'__', u'__', u'__', 4, u'__', u'__', u'__', -20, u'__', u'__', u'__', 12, u'__', u'__', u'__'], [0, 12, 4, u'__', u'__', 4, u'__', u'__', u'__', -20, u'__', u'__', u'__', 12, u'__', u'__', u'__'], [0, 12, 4, u'__', 4, 4, u'__', u'__', u'__', -20, u'__', u'__', u'__', 12, u'__', u'__', u'__'], [0, 12, 4, -12, 4, 4, u'__', u'__', u'__', -20, u'__', u'__', u'__', 12, u'__', u'__', u'__'], [0, 12, 4, -12, 4, 4, u'__', u'__', u'__', -20, u'__', u'__', u'__', 12, 4, u'__', u'__'], [0, 12, 4, -12, 4, 4, u'__', u'__', u'__', -20, u'__', u'__', u'__', 12, 4, u'__', 12], [0, 12, 4, -12, 4, 4, u'__', u'__', u'__', -20, u'__', u'__', u'__', 12, 4, 4, 12], [0, 12, 4, -12, 4, 4, 12, u'__', u'__', -20, u'__', u'__', u'__', 12, 4, 4, 12], [0, 12, 4, -12, 4, 4, 12, 4, u'__', -20, u'__', u'__', u'__', 12, 4, 4, 12], [0, 12, 4, -12, 4, 4, 12, 4, -12, -20, u'__', u'__', u'__', 12, 4, 4, 12], [0, 12, 4, -12, 4, 4, 12, 4, -12, -20, -20, u'__', u'__', 12, 4, 4, 12]]",,[None],[True],"[9, 1, 5, 13, 2, 4, 3, 14, 16, 15, 6, 7, 8, 10, u'__TERM_ACTION__']","[13, 14, 16]",[False],[False],"{u'mouseover': {u'state': {u'target': [], u'time': []}, u'edge': {u'target': [], u'time': []}}, u'click': {u'state': {u'target': [9, 1, 5, 13, 2, 4, 3, 14, 16, 15, 6, 7, 8, 10], u'time': [1843, 2806, 3501, 4133, 5333, 5755, 6227, 7070, 7477, 7948, 19863, 21054, 21710, 22918]}, u'edge': {u'target': [], u'time': []}}, u'mouseout': {u'state': {u'target': [], u'time': []}, u'edge': {u'target': [], u'time': []}}}",,,"[32535, 247, 433]",27.86,639638,10.0,7.0,mouselab-mdp,,2
,"[20004, 20852, 21748]","[u'1', u'1', u'0']","[[0, u'__', u'__', u'__', u'__', u'__', u'__', u'__', u'__', u'__', u'__', u'__', u'__', u'__', u'__', u'__', u'__'], [0, u'__', u'__', u'__', u'__', u'__', u'__', u'__', u'__', u'__', u'__', u'__', u'__', -12, u'__', u'__', u'__'], [0, -4, u'__', u'__', u'__', u'__', u'__', u'__', u'__', u'__', u'__', u'__', u'__', -12, u'__', u'__', u'__'], [0, -4, u'__', u'__', u'__', 12, u'__', u'__', u'__', u'__', u'__', u'__', u'__', -12, u'__', u'__', u'__'], [0, -4, u'__', u'__', u'__', 12, u'__', u'__', u'__', 12, u'__', u'__', u'__', -12, u'__', u'__', u'__'], [0, -4, u'__', u'__', u'__', 12, 20, u'__', u'__', 12, u'__', u'__', u'__', -12, u'__', u'__', u'__'], [0, -4, u'__', u'__', u'__', 12, 20, u'__', 4, 12, u'__', u'__', u'__', -12, u'__', u'__', u'__'], [0, -4, u'__', u'__', u'__', 12, 20, -4, 4, 12, u'__', u'__', u'__', -12, u'__', u'__', u'__'], [0, -4, u'__', u'__', u'__', 12, 20, -4, 4, 12, 12, u'__', u'__', -12, u'__', u'__', u'__'], [0, -4, u'__', u'__', u'__', 12, 20, -4, 4, 12, 12, u'__', -20, -12, u'__', u'__', u'__'], [0, -4, u'__', u'__', u'__', 12, 20, -4, 4, 12, 12, -12, -20, -12, u'__', u'__', u'__']]",,[],[],"[13, 1, 5, 9, 6, 8, 7, 10, 12, 11, u'__TERM_ACTION__']","[5, 6, 8]",[],[],"{u'mouseover': {u'state': {u'target': [], u'time': []}, u'edge': {u'target': [], u'time': []}}, u'click': {u'state': {u'target': [13, 1, 5, 9, 6, 8, 7, 10, 12, 11], u'time': [6845, 9084, 9649, 10556, 11534, 12309, 12973, 14892, 15404, 16340]}, u'edge': {u'target': [], u'time': []}}, u'mouseout': {u'state': {u'target': [], u'time': []}, u'edge': {u'target': [], u'time': []}}}",,,"[20004, 345, 407]",35.9,684310,11.0,1.0,mouselab-mdp,,2
,"[13884, 14811, 15963]","[u'1', u'1', u'0']","[[0, u'__', u'__', u'__', u'__', u'__', u'__', u'__', u'__', u'__', u'__', u'__', u'__', u'__', u'__', u'__', u'__'], [0, u'__', u'__', u'__', u'__', u'__', u'__', u'__', u'__', u'__', u'__', u'__', u'__', -20, u'__', u'__', u'__'], [0, -4, u'__', u'__', u'__', u'__', u'__', u'__', u'__', u'__', u'__', u'__', u'__', -20, u'__', u'__', u'__'], [0, -4, u'__', u'__', u'__', u'__', u'__', u'__', u'__', 12, u'__', u'__', u'__', -20, u'__', u'__', u'__'], [0, -4, u'__', u'__', u'__', 12, u'__', u'__', u'__', 12, u'__', u'__', u'__', -20, u'__', u'__', u'__'], [0, -4, u'__', u'__', u'__', 12, 12, u'__', u'__', 12, u'__', u'__', u'__', -20, u'__', u'__', u'__'], [0, -4, u'__', u'__', u'__', 12, 12, u'__', 4, 12, u'__', u'__', u'__', -20, u'__', u'__', u'__'], [0, -4, u'__', u'__', u'__', 12, 12, -4, 4, 12, u'__', u'__', u'__', -20, u'__', u'__', u'__'], [0, -4, u'__', u'__', u'__', 12, 12, -4, 4, 12, -4, u'__', u'__', -20, u'__', u'__', u'__'], [0, -4, u'__', u'__', u'__', 12, 12, -4, 4, 12, -4, -4, u'__', -20, u'__', u'__', u'__'], [0, -4, u'__', u'__', u'__', 12, 12, -4, 4, 12, -4, -4, 4, -20, u'__', u'__', u'__']]",,[],[],"[13, 1, 9, 5, 6, 8, 7, 10, 11, 12, u'__TERM_ACTION__']","[5, 6, 8]",[],[],"{u'mouseover': {u'state': {u'target': [], u'time': []}, u'edge': {u'target': [], u'time': []}}, u'click': {u'state': {u'target': [13, 1, 9, 5, 6, 8, 7, 10, 11, 12], u'time': [1997, 2588, 3193, 3723, 4532, 5025, 5603, 7315, 11177, 11923]}, u'edge': {u'target': [], u'time': []}}, u'mouseout': {u'state': {u'target': [], u'time': []}, u'edge': {u'target': [], u'time': []}}}",,,"[13883, 420, 654]",27.9,727447,12.0,14.0,mouselab-mdp,,2
,"[21126, 21958, 22790]","[u'2', u'2', u'1']","[[0, u'__', u'__', u'__', u'__', u'__', u'__', u'__', u'__', u'__', u'__', u'__', u'__', u'__', u'__', u'__', u'__'], [0, u'__', u'__', u'__', u'__', 4, u'__', u'__', u'__', u'__', u'__', u'__', u'__', u'__', u'__', u'__', u'__'], [0, 20, u'__', u'__', u'__', 4, u'__', u'__', u'__', u'__', u'__', u'__', u'__', u'__', u'__', u'__', u'__'], [0, 20, 4, u'__', u'__', 4, u'__', u'__', u'__', u'__', u'__', u'__', u'__', u'__', u'__', u'__', u'__'], [0, 20, 4, u'__', -4, 4, u'__', u'__', u'__', u'__', u'__', u'__', u'__', u'__', u'__', u'__', u'__'], [0, 20, 4, 4, -4, 4, u'__', u'__', u'__', u'__', u'__', u'__', u'__', u'__', u'__', u'__', u'__'], [0, 20, 4, 4, -4, 4, u'__', u'__', u'__', u'__', u'__', u'__', u'__', -12, u'__', u'__', u'__'], [0, 20, 4, 4, -4, 4, u'__', u'__', u'__', 20, u'__', u'__', u'__', -12, u'__', u'__', u'__'], [0, 20, 4, 4, -4, 4, u'__', u'__', u'__', 20, 4, u'__', u'__', -12, u'__', u'__', u'__'], [0, 20, 4, 4, -4, 4, u'__', u'__', u'__', 20, 4, u'__', 12, -12, u'__', u'__', u'__'], [0, 20, 4, 4, -4, 4, u'__', u'__', u'__', 20, 4, -4, 12, -12, u'__', u'__', u'__'], [0, 20, 4, 4, -4, 4, 12, u'__', u'__', 20, 4, -4, 12, -12, u'__', u'__', u'__'], [0, 20, 4, 4, -4, 4, 12, u'__', 4, 20, 4, -4, 12, -12, u'__', u'__', u'__'], [0, 20, 4, 4, -4, 4, 12, -20, 4, 20, 4, -4, 12, -12, u'__', u'__', u'__']]",,[],[],"[5, 1, 2, 4, 3, 13, 9, 10, 12, 11, 6, 8, 7, u'__TERM_ACTION__']","[9, 10, 12]",[],[],"{u'mouseover': {u'state': {u'target': [], u'time': []}, u'edge': {u'target': [], u'time': []}}, u'click': {u'state': {u'target': [5, 1, 2, 4, 3, 13, 9, 10, 12, 11, 6, 8, 7], u'time': [1239, 1830, 3262, 4279, 4791, 8806, 9639, 10808, 11421, 12175, 17374, 17942, 18494]}, u'edge': {u'target': [], u'time': []}}, u'mouseout': {u'state': {u'target': [], u'time': []}, u'edge': {u'target': [], u'time': []}}}",,,"[21126, 335, 333]",35.87,774727,13.0,2.0,mouselab-mdp,,2
,"[13390, 14460, 15229]","[u'2', u'2', u'3']","[[0, u'__', u'__', u'__', u'__', u'__', u'__', u'__', u'__', u'__', u'__', u'__', u'__', u'__', u'__', u'__', u'__'], [0, u'__', u'__', u'__', u'__', u'__', u'__', u'__', u'__', 20, u'__', u'__', u'__', u'__', u'__', u'__', u'__'], [0, u'__', u'__', u'__', u'__', u'__', u'__', u'__', u'__', 20, 4, u'__', u'__', u'__', u'__', u'__', u'__'], [0, u'__', u'__', u'__', u'__', u'__', u'__', u'__', u'__', 20, 4, 12, u'__', u'__', u'__', u'__', u'__'], [0, u'__', u'__', u'__', u'__', u'__', u'__', u'__', u'__', 20, 4, 12, 4, u'__', u'__', u'__', u'__'], [0, 4, u'__', u'__', u'__', u'__', u'__', u'__', u'__', 20, 4, 12, 4, u'__', u'__', u'__', u'__'], [0, 4, u'__', u'__', u'__', -20, u'__', u'__', u'__', 20, 4, 12, 4, u'__', u'__', u'__', u'__'], [0, 4, u'__', u'__', u'__', -20, u'__', u'__', u'__', 20, 4, 12, 4, -4, u'__', u'__', u'__']]",,[],[],"[9, 10, 11, 12, 1, 5, 13, u'__TERM_ACTION__']","[9, 10, 11]",[],[],"{u'mouseover': {u'state': {u'target': [], u'time': []}, u'edge': {u'target': [], u'time': []}}, u'click': {u'state': {u'target': [9, 10, 11, 12, 1, 5, 13], u'time': [2685, 3933, 4613, 5204, 7468, 8348, 8900]}, u'edge': {u'target': [], u'time': []}}, u'mouseout': {u'state': {u'target': [], u'time': []}, u'edge': {u'target': [], u'time': []}}}",,,"[13390, 561, 278]",35.93,817911,14.0,12.0,mouselab-mdp,,2
,"[52455, 53079, 53687]","[u'2', u'2', u'1']","[[0, u'__', u'__', u'__', u'__', u'__', u'__', u'__', u'__', u'__', u'__', u'__', u'__', u'__', u'__', u'__', u'__'], [0, u'__', u'__', u'__', u'__', u'__', u'__', u'__', u'__', -4, u'__', u'__', u'__', u'__', u'__', u'__', u'__'], [0, u'__', u'__', u'__', u'__', -12, u'__', u'__', u'__', -4, u'__', u'__', u'__', u'__', u'__', u'__', u'__'], [0, -4, u'__', u'__', u'__', -12, u'__', u'__', u'__', -4, u'__', u'__', u'__', u'__', u'__', u'__', u'__'], [0, -4, u'__', u'__', u'__', -12, u'__', u'__', u'__', -4, u'__', u'__', u'__', -12, u'__', u'__', u'__'], [0, -4, 4, u'__', u'__', -12, u'__', u'__', u'__', -4, u'__', u'__', u'__', -12, u'__', u'__', u'__'], [0, -4, 4, u'__', -4, -12, u'__', u'__', u'__', -4, u'__', u'__', u'__', -12, u'__', u'__', u'__'], [0, -4, 4, -20, -4, -12, u'__', u'__', u'__', -4, u'__', u'__', u'__', -12, u'__', u'__', u'__'], [0, -4, 4, -20, -4, -12, u'__', u'__', u'__', -4, 4, u'__', u'__', -12, u'__', u'__', u'__'], [0, -4, 4, -20, -4, -12, u'__', u'__', u'__', -4, 4, -4, u'__', -12, u'__', u'__', u'__'], [0, -4, 4, -20, -4, -12, u'__', u'__', u'__', -4, 4, -4, 4, -12, u'__', u'__', u'__'], [0, -4, 4, -20, -4, -12, -12, u'__', u'__', -4, 4, -4, 4, -12, u'__', u'__', u'__'], [0, -4, 4, -20, -4, -12, -12, u'__', -4, -4, 4, -4, 4, -12, u'__', u'__', u'__'], [0, -4, 4, -20, -4, -12, -12, -12, -4, -4, 4, -4, 4, -12, u'__', u'__', u'__'], [0, -4, 4, -20, -4, -12, -12, -12, -4, -4, 4, -4, 4, -12, 12, u'__', u'__'], [0, -4, 4, -20, -4, -12, -12, -12, -4, -4, 4, -4, 4, -12, 12, u'__', 4], [0, -4, 4, -20, -4, -12, -12, -12, -4, -4, 4, -4, 4, -12, 12, -20, 4]]",,[],[],"[9, 5, 1, 13, 2, 4, 3, 10, 11, 12, 6, 8, 7, 14, 16, 15, u'__TERM_ACTION__']","[9, 10, 12]",[],[],"{u'mouseover': {u'state': {u'target': [], u'time': []}, u'edge': {u'target': [], u'time': []}}, u'click': {u'state': {u'target': [9, 5, 1, 13, 2, 4, 3, 10, 11, 12, 6, 8, 7, 14, 16, 15], u'time': [1206, 1710, 2294, 2862, 4451, 5286, 5822, 6894, 9487, 9942, 12443, 12854, 13276, 13959, 14310, 15151]}, u'edge': {u'target': [], u'time': []}}, u'mouseout': {u'state': {u'target': [], u'time': []}, u'edge': {u'target': [], u'time': []}}}",,,"[52455, 120, 111]",3.84,880871,15.0,0.0,mouselab-mdp,,2
,"[18302, 19068, 19788]","[u'2', u'2', u'1']","[[0, u'__', u'__', u'__', u'__', u'__', u'__', u'__', u'__', u'__', u'__', u'__', u'__', u'__', u'__', u'__', u'__'], [0, u'__', u'__', u'__', u'__', -4, u'__', u'__', u'__', u'__', u'__', u'__', u'__', u'__', u'__', u'__', u'__'], [0, 12, u'__', u'__', u'__', -4, u'__', u'__', u'__', u'__', u'__', u'__', u'__', u'__', u'__', u'__', u'__'], [0, 12, 4, u'__', u'__', -4, u'__', u'__', u'__', u'__', u'__', u'__', u'__', u'__', u'__', u'__', u'__'], [0, 12, 4, u'__', -4, -4, u'__', u'__', u'__', u'__', u'__', u'__', u'__', u'__', u'__', u'__', u'__'], [0, 12, 4, 4, -4, -4, u'__', u'__', u'__', u'__', u'__', u'__', u'__', u'__', u'__', u'__', u'__'], [0, 12, 4, 4, -4, -4, u'__', u'__', u'__', 4, u'__', u'__', u'__', u'__', u'__', u'__', u'__'], [0, 12, 4, 4, -4, -4, u'__', u'__', u'__', 4, u'__', u'__', u'__', -4, u'__', u'__', u'__'], [0, 12, 4, 4, -4, -4, u'__', u'__', u'__', 4, 4, u'__', u'__', -4, u'__', u'__', u'__'], [0, 12, 4, 4, -4, -4, u'__', u'__', u'__', 4, 4, u'__', 20, -4, u'__', u'__', u'__'], [0, 12, 4, 4, -4, -4, u'__', u'__', u'__', 4, 4, -12, 20, -4, u'__', u'__', u'__'], [0, 12, 4, 4, -4, -4, u'__', u'__', u'__', 4, 4, -12, 20, -4, 4, u'__', u'__'], [0, 12, 4, 4, -4, -4, u'__', u'__', u'__', 4, 4, -12, 20, -4, 4, u'__', -4], [0, 12, 4, 4, -4, -4, u'__', u'__', u'__', 4, 4, -12, 20, -4, 4, -4, -4]]",,[],[],"[5, 1, 2, 4, 3, 9, 13, 10, 12, 11, 14, 16, 15, u'__TERM_ACTION__']","[9, 10, 12]",[],[],"{u'mouseover': {u'state': {u'target': [], u'time': []}, u'edge': {u'target': [], u'time': []}}, u'click': {u'state': {u'target': [5, 1, 2, 4, 3, 9, 13, 10, 12, 11, 14, 16, 15], u'time': [1213, 1738, 3020, 3572, 4156, 5109, 5517, 6308, 6844, 7405, 8603, 8892, 9284]}, u'edge': {u'target': [], u'time': []}}, u'mouseout': {u'state': {u'target': [], u'time': []}, u'edge': {u'target': [], u'time': []}}}",,,"[18302, 272, 225]",27.87,922774,16.0,5.0,mouselab-mdp,,2
"[{u'Q': -4, u'action': u'__TERM_ACTION__', u'Qs': {u'1': 4, u'9': 20, u'13': -20, u'5': -4}, u'state': [0, u'__', u'__', u'__', u'__', 4, u'__', u'__', u'__', u'__', u'__', u'__', u'__', u'__', u'__', u'__', u'__'], u'V': 20}]","[9661, 13124, 14649]","[u'1', u'1', u'2']","[[0, u'__', u'__', u'__', u'__', u'__', u'__', u'__', u'__', u'__', u'__', u'__', u'__', u'__', u'__', u'__', u'__'], [0, u'__', u'__', u'__', u'__', 4, u'__', u'__', u'__', u'__', u'__', u'__', u'__', u'__', u'__', u'__', u'__']]",,[None],[True],"[5, u'__TERM_ACTION__']","[5, 6, 7]",[True],[False],"{u'mouseover': {u'state': {u'target': [], u'time': []}, u'edge': {u'target': [], u'time': []}}, u'click': {u'state': {u'target': [5], u'time': [3607]}, u'edge': {u'target': [], u'time': []}}, u'mouseout': {u'state': {u'target': [], u'time': []}, u'edge': {u'target': [], u'time': []}}}",,,"[9661, 2913, 1005]",-4.05,158904,1.0,8.0,mouselab-mdp,,3
"[{u'Q': 12, u'action': u'__TERM_ACTION__', u'Qs': {u'1': -4, u'9': 12, u'13': 12, u'5': -4}, u'state': [0, 4, -4, -12, -4, 4, -12, 4, -12, -4, 12, -12, 4, 4, 12, -4, -12], u'V': 12}]","[19452, 20421, 21452]","[u'2', u'2', u'1']","[[0, u'__', u'__', u'__', u'__', u'__', u'__', u'__', u'__', u'__', u'__', u'__', u'__', u'__', u'__', u'__', u'__'], [0, u'__', u'__', u'__', u'__', u'__', u'__', u'__', u'__', u'__', u'__', u'__', u'__', 4, u'__', u'__', u'__'], [0, u'__', u'__', u'__', u'__', u'__', u'__', u'__', u'__', -4, u'__', u'__', u'__', 4, u'__', u'__', u'__'], [0, u'__', u'__', u'__', u'__', u'__', u'__', u'__', u'__', -4, 12, u'__', u'__', 4, u'__', u'__', u'__'], [0, u'__', u'__', u'__', u'__', u'__', u'__', u'__', u'__', -4, 12, u'__', u'__', 4, 12, u'__', u'__'], [0, u'__', u'__', u'__', u'__', u'__', u'__', u'__', u'__', -4, 12, u'__', u'__', 4, 12, u'__', -12], [0, u'__', u'__', u'__', u'__', u'__', u'__', u'__', u'__', -4, 12, u'__', u'__', 4, 12, -4, -12], [0, u'__', u'__', u'__', u'__', u'__', u'__', u'__', u'__', -4, 12, -12, u'__', 4, 12, -4, -12], [0, u'__', u'__', u'__', u'__', u'__', u'__', u'__', u'__', -4, 12, -12, 4, 4, 12, -4, -12], [0, u'__', u'__', u'__', u'__', 4, u'__', u'__', u'__', -4, 12, -12, 4, 4, 12, -4, -12], [0, u'__', u'__', u'__', u'__', 4, u'__', 4, u'__', -4, 12, -12, 4, 4, 12, -4, -12], [0, u'__', u'__', u'__', u'__', 4, -12, 4, u'__', -4, 12, -12, 4, 4, 12, -4, -12], [0, u'__', u'__', u'__', u'__', 4, -12, 4, -12, -4, 12, -12, 4, 4, 12, -4, -12], [0, 4, u'__', u'__', u'__', 4, -12, 4, -12, -4, 12, -12, 4, 4, 12, -4, -12], [0, 4, -4, u'__', u'__', 4, -12, 4, -12, -4, 12, -12, 4, 4, 12, -4, -12], [0, 4, -4, -12, u'__', 4, -12, 4, -12, -4, 12, -12, 4, 4, 12, -4, -12], [0, 4, -4, -12, -4, 4, -12, 4, -12, -4, 12, -12, 4, 4, 12, -4, -12]]",,[None],[True],"[13, 9, 10, 14, 16, 15, 11, 12, 5, 7, 6, 8, 1, 2, 3, 4, u'__TERM_ACTION__']","[9, 10, 12]",[False],[False],"{u'mouseover': {u'state': {u'target': [], u'time': []}, u'edge': {u'target': [], u'time': []}}, u'click': {u'state': {u'target': [13, 9, 10, 14, 16, 15, 11, 12, 5, 7, 6, 8, 1, 2, 3, 4], u'time': [1133, 2157, 2901, 4004, 4686, 5493, 7181, 9781, 10557, 11245, 11750, 12249, 12909, 13422, 13895, 14517]}, u'edge': {u'target': [], u'time': []}}, u'mouseout': {u'state': {u'target': [], u'time': []}, u'edge': {u'target': [], u'time': []}}}",,,"[19452, 448, 520]",11.2,200154,2.0,11.0,mouselab-mdp,,3
"[{u'Q': 28, u'action': u'__TERM_ACTION__', u'Qs': {u'1': -12, u'9': -4, u'13': 12, u'5': 28}, u'state': [0, -20, 4, 4, 4, 12, 4, 12, -12, -12, 12, -4, -12, 12, -4, 4, 4], u'V': 28}]","[14638, 15442, 16501]","[u'1', u'1', u'2']","[[0, u'__', u'__', u'__', u'__', u'__', u'__', u'__', u'__', u'__', u'__', u'__', u'__', u'__', u'__', u'__', u'__'], [0, u'__', u'__', u'__', u'__', u'__', u'__', u'__', u'__', u'__', u'__', u'__', u'__', 12, u'__', u'__', u'__'], [0, u'__', u'__', u'__', u'__', u'__', u'__', u'__', u'__', -12, u'__', u'__', u'__', 12, u'__', u'__', u'__'], [0, u'__', u'__', u'__', u'__', 12, u'__', u'__', u'__', -12, u'__', u'__', u'__', 12, u'__', u'__', u'__'], [0, u'__', u'__', u'__', u'__', 12, u'__', u'__', u'__', -12, u'__', u'__', u'__', 12, -4, u'__', u'__'], [0, u'__', u'__', u'__', u'__', 12, u'__', u'__', u'__', -12, u'__', u'__', u'__', 12, -4, u'__', 4], [0, u'__', u'__', u'__', u'__', 12, u'__', u'__', u'__', -12, u'__', u'__', u'__', 12, -4, 4, 4], [0, u'__', u'__', u'__', u'__', 12, u'__', u'__', -12, -12, u'__', u'__', u'__', 12, -4, 4, 4], [0, u'__', u'__', u'__', u'__', 12, 4, u'__', -12, -12, u'__', u'__', u'__', 12, -4, 4, 4], [0, u'__', u'__', u'__', u'__', 12, 4, 12, -12, -12, u'__', u'__', u'__', 12, -4, 4, 4], [0, u'__', u'__', u'__', u'__', 12, 4, 12, -12, -12, 12, u'__', u'__', 12, -4, 4, 4], [0, u'__', u'__', u'__', u'__', 12, 4, 12, -12, -12, 12, -4, u'__', 12, -4, 4, 4], [0, u'__', u'__', u'__', u'__', 12, 4, 12, -12, -12, 12, -4, -12, 12, -4, 4, 4], [0, -20, u'__', u'__', u'__', 12, 4, 12, -12, -12, 12, -4, -12, 12, -4, 4, 4], [0, -20, 4, u'__', u'__', 12, 4, 12, -12, -12, 12, -4, -12, 12, -4, 4, 4], [0, -20, 4, u'__', 4, 12, 4, 12, -12, -12, 12, -4, -12, 12, -4, 4, 4], [0, -20, 4, 4, 4, 12, 4, 12, -12, -12, 12, -4, -12, 12, -4, 4, 4]]",,[None],[True],"[13, 9, 5, 14, 16, 15, 8, 6, 7, 10, 11, 12, 1, 2, 4, 3, u'__TERM_ACTION__']","[5, 6, 7]",[False],[False],"{u'mouseover': {u'state': {u'target': [], u'time': []}, u'edge': {u'target': [], u'time': []}}, u'click': {u'state': {u'target': [13, 9, 5, 14, 16, 15, 8, 6, 7, 10, 11, 12, 1, 2, 4, 3], u'time': [1145, 1863, 2663, 3745, 4205, 4820, 5917, 6414, 6942, 7790, 8422, 8926, 9982, 10448, 10950, 11522]}, u'edge': {u'target': [], u'time': []}}, u'mouseout': {u'state': {u'target': [], u'time': []}, u'edge': {u'target': [], u'time': []}}}",,,"[14637, 290, 539]",27.2,241326,3.0,4.0,mouselab-mdp,,3
"[{u'Q': 4, u'action': u'__TERM_ACTION__', u'Qs': {u'1': -4, u'9': 4, u'13': 4, u'5': -28}, u'state': [0, -4, 4, -20, -4, -12, -12, -12, -4, -4, 4, -4, 4, -12, 12, -20, 4], u'V': 4}]","[21303, 22107, 23014]","[u'2', u'2', u'1']","[[0, u'__', u'__', u'__', u'__', u'__', u'__', u'__', u'__', u'__', u'__', u'__', u'__', u'__', u'__', u'__', u'__'], [0, u'__', u'__', u'__', u'__', -12, u'__', u'__', u'__', u'__', u'__', u'__', u'__', u'__', u'__', u'__', u'__'], [0, u'__', u'__', u'__', u'__', -12, -12, u'__', u'__', u'__', u'__', u'__', u'__', u'__', u'__', u'__', u'__'], [0, u'__', u'__', u'__', u'__', -12, -12, -12, u'__', u'__', u'__', u'__', u'__', u'__', u'__', u'__', u'__'], [0, u'__', u'__', u'__', u'__', -12, -12, -12, -4, u'__', u'__', u'__', u'__', u'__', u'__', u'__', u'__'], [0, -4, u'__', u'__', u'__', -12, -12, -12, -4, u'__', u'__', u'__', u'__', u'__', u'__', u'__', u'__'], [0, -4, 4, u'__', u'__', -12, -12, -12, -4, u'__', u'__', u'__', u'__', u'__', u'__', u'__', u'__'], [0, -4, 4, -20, u'__', -12, -12, -12, -4, u'__', u'__', u'__', u'__', u'__', u'__', u'__', u'__'], [0, -4, 4, -20, -4, -12, -12, -12, -4, u'__', u'__', u'__', u'__', u'__', u'__', u'__', u'__'], [0, -4, 4, -20, -4, -12, -12, -12, -4, u'__', u'__', u'__', u'__', u'__', u'__', -20, u'__'], [0, -4, 4, -20, -4, -12, -12, -12, -4, u'__', u'__', u'__', u'__', -12, u'__', -20, u'__'], [0, -4, 4, -20, -4, -12, -12, -12, -4, u'__', u'__', u'__', u'__', -12, 12, -20, u'__'], [0, -4, 4, -20, -4, -12, -12, -12, -4, u'__', u'__', u'__', u'__', -12, 12, -20, 4], [0, -4, 4, -20, -4, -12, -12, -12, -4, u'__', u'__', -4, u'__', -12, 12, -20, 4], [0, -4, 4, -20, -4, -12, -12, -12, -4, u'__', 4, -4, u'__', -12, 12, -20, 4], [0, -4, 4, -20, -4, -12, -12, -12, -4, -4, 4, -4, u'__', -12, 12, -20, 4], [0, -4, 4, -20, -4, -12, -12, -12, -4, -4, 4, -4, 4, -12, 12, -20, 4]]",,[None],[True],"[5, 6, 7, 8, 1, 2, 3, 4, 15, 13, 14, 16, 11, 10, 9, 12, u'__TERM_ACTION__']","[9, 10, 12]",[False],[False],"{u'mouseover': {u'state': {u'target': [], u'time': []}, u'edge': {u'target': [], u'time': []}}, u'click': {u'state': {u'target': [5, 6, 7, 8, 1, 2, 3, 4, 15, 13, 14, 16, 11, 10, 9, 12], u'time': [1165, 1848, 2354, 3044, 3672, 4170, 4640, 5305, 5824, 6312, 6734, 7206, 8063, 8470, 8895, 9362]}, u'edge': {u'target': [], u'time': []}}, u'mouseout': {u'state': {u'target': [], u'time': []}, u'edge': {u'target': [], u'time': []}}}",,,"[21303, 279, 390]",3.2,281850,4.0,0.0,mouselab-mdp,,3
"[{u'Q': 28, u'action': u'__TERM_ACTION__', u'Qs': {u'1': 20, u'9': -44, u'13': 28, u'5': 20}, u'state': [0, 12, 4, -12, 4, 4, 12, 4, -12, -20, -20, -20, -4, 12, 4, 4, 12], u'V': 28}]","[11041, 11894, 12688]","[u'3', u'3', u'2']","[[0, u'__', u'__', u'__', u'__', u'__', u'__', u'__', u'__', u'__', u'__', u'__', u'__', u'__', u'__', u'__', u'__'], [0, u'__', u'__', u'__', u'__', u'__', u'__', u'__', u'__', u'__', u'__', u'__', u'__', u'__', u'__', 4, u'__'], [0, u'__', u'__', u'__', u'__', u'__', u'__', u'__', u'__', u'__', u'__', u'__', u'__', u'__', 4, 4, u'__'], [0, u'__', u'__', u'__', u'__', u'__', u'__', u'__', u'__', u'__', u'__', u'__', u'__', u'__', 4, 4, 12], [0, u'__', u'__', u'__', u'__', u'__', u'__', u'__', u'__', u'__', u'__', u'__', u'__', 12, 4, 4, 12], [0, u'__', u'__', u'__', u'__', u'__', u'__', u'__', u'__', u'__', u'__', -20, u'__', 12, 4, 4, 12], [0, u'__', u'__', u'__', u'__', u'__', u'__', u'__', u'__', u'__', -20, -20, u'__', 12, 4, 4, 12], [0, u'__', u'__', u'__', u'__', u'__', u'__', u'__', u'__', -20, -20, -20, u'__', 12, 4, 4, 12], [0, u'__', u'__', u'__', u'__', u'__', u'__', u'__', u'__', -20, -20, -20, -4, 12, 4, 4, 12], [0, u'__', u'__', u'__', u'__', 4, u'__', u'__', u'__', -20, -20, -20, -4, 12, 4, 4, 12], [0, u'__', u'__', u'__', u'__', 4, 12, u'__', u'__', -20, -20, -20, -4, 12, 4, 4, 12], [0, u'__', u'__', u'__', u'__', 4, 12, 4, u'__', -20, -20, -20, -4, 12, 4, 4, 12], [0, u'__', u'__', u'__', u'__', 4, 12, 4, -12, -20, -20, -20, -4, 12, 4, 4, 12], [0, 12, u'__', u'__', u'__', 4, 12, 4, -12, -20, -20, -20, -4, 12, 4, 4, 12], [0, 12, 4, u'__', u'__', 4, 12, 4, -12, -20, -20, -20, -4, 12, 4, 4, 12], [0, 12, 4, -12, u'__', 4, 12, 4, -12, -20, -20, -20, -4, 12, 4, 4, 12], [0, 12, 4, -12, 4, 4, 12, 4, -12, -20, -20, -20, -4, 12, 4, 4, 12]]",,[None],[True],"[15, 14, 16, 13, 11, 10, 9, 12, 5, 6, 7, 8, 1, 2, 3, 4, u'__TERM_ACTION__']","[13, 14, 16]",[False],[False],"{u'mouseover': {u'state': {u'target': [], u'time': []}, u'edge': {u'target': [], u'time': []}}, u'click': {u'state': {u'target': [15, 14, 16, 13, 11, 10, 9, 12, 5, 6, 7, 8, 1, 2, 3, 4], u'time': [555, 1052, 1571, 2171, 2828, 3292, 3651, 4092, 4699, 5088, 5443, 5912, 7053, 7597, 8109, 8699]}, u'edge': {u'target': [], u'time': []}}, u'mouseout': {u'state': {u'target': [], u'time': []}, u'edge': {u'target': [], u'time': []}}}",,,"[11041, 327, 278]",27.2,322419,5.0,7.0,mouselab-mdp,,3
