action_times,actions,button_pressed,correct,delays,path,queries,questions,responses,rt,score,stimulus,time_elapsed,trial_index,trial_i,trial_type,view_history,pid
,,,,,,,,,68176,,,68178,,,instructions,"[{""page_index"":0,""viewing_time"":16916},{""page_index"":1,""viewing_time"":14127},{""page_index"":2,""viewing_time"":23953},{""page_index"":3,""viewing_time"":13180}]",0
,,,,,,,,,115183,,,115183,,,instructions,"[{""page_index"":0,""viewing_time"":62102},{""page_index"":1,""viewing_time"":36713},{""page_index"":2,""viewing_time"":16367}]",1
,,,,,,,,,151135,,,151136,,,instructions,"[{""page_index"":0,""viewing_time"":54844},{""page_index"":1,""viewing_time"":58110},{""page_index"":2,""viewing_time"":38179}]",2
,,,,,,,,,140103,,,335771,,,instructions,"[{""page_index"":0,""viewing_time"":54360},{""page_index"":1,""viewing_time"":62560},{""page_index"":2,""viewing_time"":23182}]",2
,,,,,,,,,19960,,,392443,,,instructions,"[{""page_index"":0,""viewing_time"":17842},{""page_index"":1,""viewing_time"":1287},{""page_index"":2,""viewing_time"":830}]",2
,,,,,,,,,19003,,,433716,,,instructions,"[{""page_index"":0,""viewing_time"":4939},{""page_index"":1,""viewing_time"":1162},{""page_index"":2,""viewing_time"":12901}]",2
,,,,,,,,,135799,,,135799,,,instructions,"[{""page_index"":0,""viewing_time"":63182},{""page_index"":1,""viewing_time"":13544},{""page_index"":2,""viewing_time"":24504},{""page_index"":3,""viewing_time"":34568}]",3
,,,,,,,,,112128,,,295479,,,instructions,"[{""page_index"":0,""viewing_time"":8127},{""page_index"":1,""viewing_time"":7089},{""page_index"":2,""viewing_time"":29855},{""page_index"":3,""viewing_time"":7657},{""page_index"":2,""viewing_time"":2528},{""page_index"":1,""viewing_time"":2736},{""page_index"":0,""viewing_time"":17224},{""page_index"":1,""viewing_time"":9256},{""page_index"":2,""viewing_time"":15464},{""page_index"":3,""viewing_time"":12192}]",3
,,,,,,,,,37341,,,363006,,,instructions,"[{""page_index"":0,""viewing_time"":24117},{""page_index"":1,""viewing_time"":9136},{""page_index"":2,""viewing_time"":2552},{""page_index"":3,""viewing_time"":1536}]",3
,,,,,,,,,150955,,,150955,,,instructions,"[{""page_index"":0,""viewing_time"":61395},{""page_index"":1,""viewing_time"":48769},{""page_index"":2,""viewing_time"":40790}]",4
,,,,,,,,,329803,,,329803,,,instructions,"[{""page_index"":0,""viewing_time"":239615},{""page_index"":1,""viewing_time"":54797},{""page_index"":2,""viewing_time"":35390}]",5
,,,,,,,,,119860,,,119861,,,instructions,"[{""page_index"":0,""viewing_time"":24707},{""page_index"":1,""viewing_time"":55134},{""page_index"":2,""viewing_time"":26308},{""page_index"":3,""viewing_time"":13711}]",6
,,,,,,,,,23337,,,23341,,,instructions,"[{""page_index"":0,""viewing_time"":10761},{""page_index"":1,""viewing_time"":11731},{""page_index"":2,""viewing_time"":845}]",7
,,,,,,,,,6591,,,45537,,,instructions,"[{""page_index"":0,""viewing_time"":1357},{""page_index"":1,""viewing_time"":688},{""page_index"":2,""viewing_time"":4546}]",7
,,,,,,,,,75126,,,75127,,,instructions,"[{""page_index"":0,""viewing_time"":25497},{""page_index"":1,""viewing_time"":27678},{""page_index"":2,""viewing_time"":12448},{""page_index"":3,""viewing_time"":9503}]",8
,,,,,,,,,166527,,,166529,,,instructions,"[{""page_index"":0,""viewing_time"":66015},{""page_index"":1,""viewing_time"":54158},{""page_index"":2,""viewing_time"":46353}]",9
,,,,,,,,,61075,,,272713,,,instructions,"[{""page_index"":0,""viewing_time"":4632},{""page_index"":1,""viewing_time"":47065},{""page_index"":2,""viewing_time"":9377}]",9
,,,,,,,,,82429,,,380540,,,instructions,"[{""page_index"":0,""viewing_time"":23941},{""page_index"":1,""viewing_time"":41674},{""page_index"":2,""viewing_time"":16814}]",9
,,,,,,,,,102162,,,102162,,,instructions,"[{""page_index"":0,""viewing_time"":14985},{""page_index"":1,""viewing_time"":9468},{""page_index"":2,""viewing_time"":18971},{""page_index"":1,""viewing_time"":885},{""page_index"":0,""viewing_time"":18188},{""page_index"":1,""viewing_time"":23731},{""page_index"":2,""viewing_time"":15933}]",10
,,,,,,,,,204143,,,204145,,,instructions,"[{""page_index"":0,""viewing_time"":59895},{""page_index"":1,""viewing_time"":60704},{""page_index"":2,""viewing_time"":20871},{""page_index"":1,""viewing_time"":1285},{""page_index"":0,""viewing_time"":37108},{""page_index"":1,""viewing_time"":13471},{""page_index"":2,""viewing_time"":10808}]",11
,,,,,,,,,185364,,,185368,,,instructions,"[{""page_index"":0,""viewing_time"":45885},{""page_index"":1,""viewing_time"":58408},{""page_index"":2,""viewing_time"":60476},{""page_index"":3,""viewing_time"":20589}]",12
,,,,,,,,,53662,,,53665,,,instructions,"[{""page_index"":0,""viewing_time"":31206},{""page_index"":1,""viewing_time"":5614},{""page_index"":2,""viewing_time"":9856},{""page_index"":3,""viewing_time"":6984}]",13
,,,,,,,,,28620,,,116887,,,instructions,"[{""page_index"":0,""viewing_time"":11043},{""page_index"":1,""viewing_time"":8344},{""page_index"":2,""viewing_time"":4928},{""page_index"":3,""viewing_time"":4304}]",13
,,,,,,,,,28125,,,28129,,,instructions,"[{""page_index"":0,""viewing_time"":17020},{""page_index"":1,""viewing_time"":8579},{""page_index"":2,""viewing_time"":2523}]",14
,,,,,,,,,44115,,,91177,,,instructions,"[{""page_index"":0,""viewing_time"":21704},{""page_index"":1,""viewing_time"":9242},{""page_index"":2,""viewing_time"":13168}]",14
,,,,,,,,,171922,,,171922,,,instructions,"[{""page_index"":0,""viewing_time"":47868},{""page_index"":1,""viewing_time"":56699},{""page_index"":2,""viewing_time"":42243},{""page_index"":3,""viewing_time"":25110}]",15
,,,,,,,,,67024,,,283320,,,instructions,"[{""page_index"":0,""viewing_time"":13192},{""page_index"":1,""viewing_time"":17404},{""page_index"":2,""viewing_time"":23073},{""page_index"":3,""viewing_time"":13355}]",15
,,,,,,,,,16923,,,16924,,,instructions,"[{""page_index"":0,""viewing_time"":6133},{""page_index"":1,""viewing_time"":4358},{""page_index"":2,""viewing_time"":6431}]",16
,,,,,,,,,25921,,,53274,,,instructions,"[{""page_index"":0,""viewing_time"":8177},{""page_index"":1,""viewing_time"":10612},{""page_index"":2,""viewing_time"":7131}]",16
,,,,,,,,,109605,,,109605,,,instructions,"[{""page_index"":0,""viewing_time"":31355},{""page_index"":1,""viewing_time"":57157},{""page_index"":2,""viewing_time"":21092}]",17
,,,,,,,,,68726,,,68730,,,instructions,"[{""page_index"":0,""viewing_time"":17229},{""page_index"":1,""viewing_time"":26719},{""page_index"":2,""viewing_time"":13064},{""page_index"":3,""viewing_time"":11712}]",18
,,,,,,,,,78619,,,189659,,,instructions,"[{""page_index"":0,""viewing_time"":9803},{""page_index"":1,""viewing_time"":17790},{""page_index"":2,""viewing_time"":37563},{""page_index"":3,""viewing_time"":13461}]",18
,,,,,,,,,44409,,,255792,,,instructions,"[{""page_index"":0,""viewing_time"":10915},{""page_index"":1,""viewing_time"":15650},{""page_index"":2,""viewing_time"":13167},{""page_index"":3,""viewing_time"":4675}]",18
,,,,,,,,,95054,,,95055,,,instructions,"[{""page_index"":0,""viewing_time"":58902},{""page_index"":1,""viewing_time"":17439},{""page_index"":2,""viewing_time"":18712}]",19
,,,,,,,,,198861,,,198862,,,instructions,"[{""page_index"":0,""viewing_time"":95303},{""page_index"":1,""viewing_time"":62907},{""page_index"":2,""viewing_time"":40650}]",20
,,,,,,,,,43997,,,43998,,,instructions,"[{""page_index"":0,""viewing_time"":11595},{""page_index"":1,""viewing_time"":9304},{""page_index"":2,""viewing_time"":7374},{""page_index"":3,""viewing_time"":15722}]",21
,,,,,,,,,41490,,,108981,,,instructions,"[{""page_index"":0,""viewing_time"":6902},{""page_index"":1,""viewing_time"":18235},{""page_index"":2,""viewing_time"":5240},{""page_index"":3,""viewing_time"":11113}]",21
,,,,,,,,,63105,,,195568,,,instructions,"[{""page_index"":0,""viewing_time"":8509},{""page_index"":1,""viewing_time"":7951},{""page_index"":2,""viewing_time"":39213},{""page_index"":3,""viewing_time"":7431}]",21
,,,,,,,,,19386,,,235728,,,instructions,"[{""page_index"":0,""viewing_time"":8353},{""page_index"":1,""viewing_time"":5248},{""page_index"":2,""viewing_time"":4590},{""page_index"":3,""viewing_time"":1194}]",21
,,,,,,,,,179985,,,179986,,,instructions,"[{""page_index"":0,""viewing_time"":145544},{""page_index"":1,""viewing_time"":17722},{""page_index"":2,""viewing_time"":10493},{""page_index"":3,""viewing_time"":6224}]",22
,,,,,,,,,64397,,,278567,,,instructions,"[{""page_index"":0,""viewing_time"":1716},{""page_index"":1,""viewing_time"":6545},{""page_index"":2,""viewing_time"":12635},{""page_index"":3,""viewing_time"":43500}]",22
,,,,,,,,,21690,,,319737,,,instructions,"[{""page_index"":0,""viewing_time"":2480},{""page_index"":1,""viewing_time"":4378},{""page_index"":2,""viewing_time"":9391},{""page_index"":3,""viewing_time"":5440}]",22
,,,,,,,,,139260,,,139262,,,instructions,"[{""page_index"":0,""viewing_time"":54677},{""page_index"":1,""viewing_time"":24819},{""page_index"":0,""viewing_time"":1410},{""page_index"":1,""viewing_time"":791},{""page_index"":2,""viewing_time"":37713},{""page_index"":3,""viewing_time"":19850}]",23
,,,,,,,,,67677,,,247543,,,instructions,"[{""page_index"":0,""viewing_time"":29515},{""page_index"":1,""viewing_time"":4308},{""page_index"":2,""viewing_time"":25121},{""page_index"":3,""viewing_time"":8733}]",23
,,,,,,,,,92978,,,380001,,,instructions,"[{""page_index"":0,""viewing_time"":7100},{""page_index"":1,""viewing_time"":39988},{""page_index"":2,""viewing_time"":32429},{""page_index"":3,""viewing_time"":13461}]",23
,,,,,,,,,42170,,,555552,,,instructions,"[{""page_index"":0,""viewing_time"":11555},{""page_index"":1,""viewing_time"":5556},{""page_index"":2,""viewing_time"":8212},{""page_index"":3,""viewing_time"":16847}]",23
,,,,,,,,,4399,,,594780,,,instructions,"[{""page_index"":0,""viewing_time"":1655},{""page_index"":1,""viewing_time"":722},{""page_index"":2,""viewing_time"":1518},{""page_index"":3,""viewing_time"":504}]",23
,,,,,,,,,6225,,,613330,,,instructions,"[{""page_index"":0,""viewing_time"":1849},{""page_index"":1,""viewing_time"":1210},{""page_index"":2,""viewing_time"":2414},{""page_index"":3,""viewing_time"":752}]",23
,,,,,,,,,4434,,,631818,,,instructions,"[{""page_index"":0,""viewing_time"":1820},{""page_index"":1,""viewing_time"":661},{""page_index"":2,""viewing_time"":1403},{""page_index"":3,""viewing_time"":549}]",23
,,,,,,,,,254540,,,254540,,,instructions,"[{""page_index"":0,""viewing_time"":110889},{""page_index"":1,""viewing_time"":57525},{""page_index"":2,""viewing_time"":59445},{""page_index"":3,""viewing_time"":26679}]",24
,,,,,,,,,244611,,,244613,,,instructions,"[{""page_index"":0,""viewing_time"":110172},{""page_index"":1,""viewing_time"":64744},{""page_index"":2,""viewing_time"":22017},{""page_index"":1,""viewing_time"":1795},{""page_index"":0,""viewing_time"":7944},{""page_index"":1,""viewing_time"":29370},{""page_index"":2,""viewing_time"":8567}]",25
,,,,,,,,,74298,,,74299,,,instructions,"[{""page_index"":0,""viewing_time"":30761},{""page_index"":1,""viewing_time"":21944},{""page_index"":2,""viewing_time"":21591}]",26
,,,,,,,,,87604,,,87607,,,instructions,"[{""page_index"":0,""viewing_time"":26444},{""page_index"":1,""viewing_time"":29855},{""page_index"":2,""viewing_time"":15550},{""page_index"":3,""viewing_time"":15753}]",27
,,,,,,,,,302664,,,302665,,,instructions,"[{""page_index"":0,""viewing_time"":67377},{""page_index"":1,""viewing_time"":45780},{""page_index"":2,""viewing_time"":95893},{""page_index"":3,""viewing_time"":93614}]",28
,,,,,,,,,214824,,,214825,,,instructions,"[{""page_index"":0,""viewing_time"":103571},{""page_index"":1,""viewing_time"":45042},{""page_index"":2,""viewing_time"":41961},{""page_index"":3,""viewing_time"":24249}]",29
,,,,,,,,,247697,,,247697,,,instructions,"[{""page_index"":0,""viewing_time"":73942},{""page_index"":1,""viewing_time"":131729},{""page_index"":2,""viewing_time"":42025}]",30
,,,,,,,,,115290,,,115292,,,instructions,"[{""page_index"":0,""viewing_time"":30107},{""page_index"":1,""viewing_time"":26872},{""page_index"":2,""viewing_time"":40367},{""page_index"":3,""viewing_time"":17944}]",31
,,,,,,,,,180653,,,180655,,,instructions,"[{""page_index"":0,""viewing_time"":65033},{""page_index"":1,""viewing_time"":37633},{""page_index"":2,""viewing_time"":47276},{""page_index"":3,""viewing_time"":30710}]",32
,,,,,,,,,94213,,,94214,,,instructions,"[{""page_index"":0,""viewing_time"":30710},{""page_index"":1,""viewing_time"":29517},{""page_index"":2,""viewing_time"":23018},{""page_index"":3,""viewing_time"":10968}]",33
,,,,,,,,,148004,,,148006,,,instructions,"[{""page_index"":0,""viewing_time"":63542},{""page_index"":1,""viewing_time"":42020},{""page_index"":2,""viewing_time"":23446},{""page_index"":3,""viewing_time"":18993}]",34
,,,,,,,,,154975,,,154977,,,instructions,"[{""page_index"":0,""viewing_time"":42182},{""page_index"":1,""viewing_time"":42600},{""page_index"":2,""viewing_time"":44973},{""page_index"":3,""viewing_time"":25219}]",35
,,,,,,,,,139471,,,139473,,,instructions,"[{""page_index"":0,""viewing_time"":37151},{""page_index"":1,""viewing_time"":27642},{""page_index"":0,""viewing_time"":1535},{""page_index"":1,""viewing_time"":842},{""page_index"":0,""viewing_time"":2453},{""page_index"":1,""viewing_time"":16773},{""page_index"":2,""viewing_time"":23081},{""page_index"":3,""viewing_time"":29993}]",36
,,,,,,,,,260936,,,260944,,,instructions,"[{""page_index"":0,""viewing_time"":39567},{""page_index"":1,""viewing_time"":91023},{""page_index"":2,""viewing_time"":100186},{""page_index"":3,""viewing_time"":30150}]",37
,,,,,,,,,191896,,,191897,,,instructions,"[{""page_index"":0,""viewing_time"":65470},{""page_index"":1,""viewing_time"":40829},{""page_index"":2,""viewing_time"":53551},{""page_index"":3,""viewing_time"":32045}]",38
,,,,,,,,,90869,,,90874,,,instructions,"[{""page_index"":0,""viewing_time"":46402},{""page_index"":1,""viewing_time"":19582},{""page_index"":0,""viewing_time"":4841},{""page_index"":1,""viewing_time"":9253},{""page_index"":2,""viewing_time"":10788}]",39
,,,,,,,,,35216,,,149609,,,instructions,"[{""page_index"":0,""viewing_time"":7942},{""page_index"":1,""viewing_time"":15548},{""page_index"":2,""viewing_time"":11724}]",39
,,,,,,,,,68643,,,68644,,,instructions,"[{""page_index"":0,""viewing_time"":17967},{""page_index"":1,""viewing_time"":13371},{""page_index"":2,""viewing_time"":22587},{""page_index"":3,""viewing_time"":14718}]",40
,,,,,,,,,83388,,,205183,,,instructions,"[{""page_index"":0,""viewing_time"":15841},{""page_index"":1,""viewing_time"":26538},{""page_index"":2,""viewing_time"":28232},{""page_index"":3,""viewing_time"":12776}]",40
,,,,,,,,,65053,,,323170,,,instructions,"[{""page_index"":0,""viewing_time"":9964},{""page_index"":1,""viewing_time"":31236},{""page_index"":2,""viewing_time"":16031},{""page_index"":3,""viewing_time"":7821}]",40
,,,,,,,,,97577,,,97578,,,instructions,"[{""page_index"":0,""viewing_time"":33714},{""page_index"":1,""viewing_time"":50172},{""page_index"":2,""viewing_time"":13690}]",41
,,,,,,,,,32196,,,32198,,,instructions,"[{""page_index"":0,""viewing_time"":21138},{""page_index"":1,""viewing_time"":3196},{""page_index"":2,""viewing_time"":5193},{""page_index"":3,""viewing_time"":2668}]",42
,,,,,,,,,54586,,,54588,,,instructions,"[{""page_index"":0,""viewing_time"":12959},{""page_index"":1,""viewing_time"":14118},{""page_index"":2,""viewing_time"":11909},{""page_index"":3,""viewing_time"":15599}]",43
,,,,,,,,,117576,,,117579,,,instructions,"[{""page_index"":0,""viewing_time"":38695},{""page_index"":1,""viewing_time"":23226},{""page_index"":2,""viewing_time"":42864},{""page_index"":3,""viewing_time"":12790}]",44
,,,,,,,,,62351,,,208418,,,instructions,"[{""page_index"":0,""viewing_time"":16214},{""page_index"":1,""viewing_time"":10486},{""page_index"":2,""viewing_time"":25286},{""page_index"":3,""viewing_time"":10365}]",44
,,,,,,,,,70254,,,311372,,,instructions,"[{""page_index"":0,""viewing_time"":22572},{""page_index"":1,""viewing_time"":15899},{""page_index"":2,""viewing_time"":17377},{""page_index"":3,""viewing_time"":14406}]",44
,,,,,,,,,127986,,,127988,,,instructions,"[{""page_index"":0,""viewing_time"":35456},{""page_index"":1,""viewing_time"":25574},{""page_index"":2,""viewing_time"":41234},{""page_index"":3,""viewing_time"":25722}]",45
,,,,,,,,,140448,,,140448,,,instructions,"[{""page_index"":0,""viewing_time"":42621},{""page_index"":1,""viewing_time"":22097},{""page_index"":2,""viewing_time"":61106},{""page_index"":3,""viewing_time"":14624}]",46
,,,,,,,,,88656,,,88658,,,instructions,"[{""page_index"":0,""viewing_time"":27896},{""page_index"":1,""viewing_time"":23830},{""page_index"":2,""viewing_time"":23475},{""page_index"":3,""viewing_time"":13454}]",47
,,,,,,,,,102116,,,102118,,,instructions,"[{""page_index"":0,""viewing_time"":20580},{""page_index"":1,""viewing_time"":53895},{""page_index"":2,""viewing_time"":27640}]",48
,,,,,,,,,100729,,,100731,,,instructions,"[{""page_index"":0,""viewing_time"":43273},{""page_index"":1,""viewing_time"":39856},{""page_index"":2,""viewing_time"":17599}]",49
,,,,,,,,,185170,,,185171,,,instructions,"[{""page_index"":0,""viewing_time"":77488},{""page_index"":1,""viewing_time"":77581},{""page_index"":2,""viewing_time"":30101}]",50
,,,,,,,,,205952,,,205956,,,instructions,"[{""page_index"":0,""viewing_time"":46430},{""page_index"":1,""viewing_time"":45135},{""page_index"":2,""viewing_time"":56968},{""page_index"":3,""viewing_time"":57410}]",51
,,,,,,,,,8463,,,8467,,,instructions,"[{""page_index"":0,""viewing_time"":3065},{""page_index"":1,""viewing_time"":1497},{""page_index"":2,""viewing_time"":2237},{""page_index"":3,""viewing_time"":1655}]",51
,,,,,,,,,81039,,,81041,,,instructions,"[{""page_index"":0,""viewing_time"":31432},{""page_index"":1,""viewing_time"":17262},{""page_index"":2,""viewing_time"":18257},{""page_index"":3,""viewing_time"":14087}]",52
,,,,,,,,,21757,,,130951,,,instructions,"[{""page_index"":0,""viewing_time"":2564},{""page_index"":1,""viewing_time"":2082},{""page_index"":2,""viewing_time"":11845},{""page_index"":3,""viewing_time"":5265}]",52
,,,,,,,,,122210,,,122212,,,instructions,"[{""page_index"":0,""viewing_time"":90766},{""page_index"":1,""viewing_time"":16841},{""page_index"":2,""viewing_time"":14601}]",53
,,,,,,,,,95220,,,236341,,,instructions,"[{""page_index"":0,""viewing_time"":24435},{""page_index"":1,""viewing_time"":8724},{""page_index"":2,""viewing_time"":62061}]",53
,,,,,,,,,175786,,,175788,,,instructions,"[{""page_index"":0,""viewing_time"":54787},{""page_index"":1,""viewing_time"":53360},{""page_index"":2,""viewing_time"":47796},{""page_index"":3,""viewing_time"":19842}]",54
,,,,,,,,,144456,,,144457,,,instructions,"[{""page_index"":0,""viewing_time"":35711},{""page_index"":1,""viewing_time"":36152},{""page_index"":2,""viewing_time"":42580},{""page_index"":3,""viewing_time"":30012}]",55
,,,,,,,,,237436,,,237437,,,instructions,"[{""page_index"":0,""viewing_time"":60846},{""page_index"":1,""viewing_time"":79466},{""page_index"":2,""viewing_time"":53033},{""page_index"":3,""viewing_time"":44090}]",56
,,,,,,,,,192913,,,192916,,,instructions,"[{""page_index"":0,""viewing_time"":48626},{""page_index"":1,""viewing_time"":45095},{""page_index"":2,""viewing_time"":68024},{""page_index"":3,""viewing_time"":31165}]",57
,,,,,,,,,264983,,,264984,,,instructions,"[{""page_index"":0,""viewing_time"":131082},{""page_index"":1,""viewing_time"":51722},{""page_index"":2,""viewing_time"":36157},{""page_index"":3,""viewing_time"":46021}]",58
,,,,,,,,,1380860,,,1380862,,,instructions,"[{""page_index"":0,""viewing_time"":35904},{""page_index"":1,""viewing_time"":36093},{""page_index"":2,""viewing_time"":1271106},{""page_index"":3,""viewing_time"":37755}]",59
,,,,,,,,,94646,,,94646,,,instructions,"[{""page_index"":0,""viewing_time"":28338},{""page_index"":1,""viewing_time"":15279},{""page_index"":2,""viewing_time"":32241},{""page_index"":3,""viewing_time"":18787}]",60
,,,,,,,,,32598,,,176972,,,instructions,"[{""page_index"":0,""viewing_time"":9767},{""page_index"":1,""viewing_time"":7943},{""page_index"":2,""viewing_time"":7141},{""page_index"":3,""viewing_time"":7747}]",60
,,,,,,,,,7397,,,7399,,,instructions,"[{""page_index"":0,""viewing_time"":1914},{""page_index"":1,""viewing_time"":430},{""page_index"":0,""viewing_time"":618},{""page_index"":1,""viewing_time"":430},{""page_index"":0,""viewing_time"":548},{""page_index"":1,""viewing_time"":429},{""page_index"":2,""viewing_time"":1643},{""page_index"":3,""viewing_time"":1383}]",61
,,,,,,,,,18936,,,56300,,,instructions,"[{""page_index"":0,""viewing_time"":15363},{""page_index"":1,""viewing_time"":656},{""page_index"":2,""viewing_time"":1455},{""page_index"":3,""viewing_time"":1461}]",61
,,,,,,,,,30139,,,102193,,,instructions,"[{""page_index"":0,""viewing_time"":12794},{""page_index"":1,""viewing_time"":15576},{""page_index"":2,""viewing_time"":1330},{""page_index"":3,""viewing_time"":437}]",61
,,,,,,,,,35995,,,152593,,,instructions,"[{""page_index"":0,""viewing_time"":5515},{""page_index"":1,""viewing_time"":3267},{""page_index"":0,""viewing_time"":5795},{""page_index"":1,""viewing_time"":1948},{""page_index"":2,""viewing_time"":15583},{""page_index"":3,""viewing_time"":3886}]",61
,,,,,,,,,185426,,,476037,,,instructions,"[{""page_index"":0,""viewing_time"":33410},{""page_index"":1,""viewing_time"":27546},{""page_index"":2,""viewing_time"":3383},{""page_index"":1,""viewing_time"":431},{""page_index"":0,""viewing_time"":19274},{""page_index"":1,""viewing_time"":11739},{""page_index"":2,""viewing_time"":57017},{""page_index"":3,""viewing_time"":32625}]",61
,,,,,,,,,91316,,,91317,,,instructions,"[{""page_index"":0,""viewing_time"":31879},{""page_index"":1,""viewing_time"":19200},{""page_index"":2,""viewing_time"":24072},{""page_index"":3,""viewing_time"":16164}]",62
,,,,,,,,,135818,,,135819,,,instructions,"[{""page_index"":0,""viewing_time"":36467},{""page_index"":1,""viewing_time"":38481},{""page_index"":2,""viewing_time"":37144},{""page_index"":3,""viewing_time"":23725}]",63
,,,,,,,,,35518,,,217345,,,instructions,"[{""page_index"":0,""viewing_time"":3107},{""page_index"":1,""viewing_time"":15269},{""page_index"":2,""viewing_time"":7841},{""page_index"":3,""viewing_time"":9301}]",63
,,,,,,,,,150574,,,150576,,,instructions,"[{""page_index"":0,""viewing_time"":45386},{""page_index"":1,""viewing_time"":31535},{""page_index"":2,""viewing_time"":36526},{""page_index"":3,""viewing_time"":37127}]",64
,,,,,,,,,55893,,,294125,,,instructions,"[{""page_index"":0,""viewing_time"":10735},{""page_index"":1,""viewing_time"":12005},{""page_index"":2,""viewing_time"":26388},{""page_index"":3,""viewing_time"":6764}]",64
,,,,,,,,,143749,,,143749,,,instructions,"[{""page_index"":0,""viewing_time"":79514},{""page_index"":1,""viewing_time"":38123},{""page_index"":2,""viewing_time"":26111}]",65
,,,,,,,,,16085,,,182815,,,instructions,"[{""page_index"":0,""viewing_time"":3730},{""page_index"":1,""viewing_time"":9838},{""page_index"":2,""viewing_time"":2516}]",65
,,,,,,,,,66671,,,66671,,,instructions,"[{""page_index"":0,""viewing_time"":14129},{""page_index"":1,""viewing_time"":17255},{""page_index"":2,""viewing_time"":15004},{""page_index"":3,""viewing_time"":7817},{""page_index"":2,""viewing_time"":10388},{""page_index"":3,""viewing_time"":2078}]",66
,,,,,,,,,168599,,,168600,,,instructions,"[{""page_index"":0,""viewing_time"":82069},{""page_index"":1,""viewing_time"":241},{""page_index"":2,""viewing_time"":1680},{""page_index"":1,""viewing_time"":240},{""page_index"":0,""viewing_time"":2879},{""page_index"":1,""viewing_time"":52767},{""page_index"":2,""viewing_time"":28721}]",67
,,,,,,,,,154300,,,154304,,,instructions,"[{""page_index"":0,""viewing_time"":52723},{""page_index"":1,""viewing_time"":77354},{""page_index"":2,""viewing_time"":24214}]",68
,,,,,,,,,96375,,,96377,,,instructions,"[{""page_index"":0,""viewing_time"":48195},{""page_index"":1,""viewing_time"":3247},{""page_index"":0,""viewing_time"":1423},{""page_index"":1,""viewing_time"":20409},{""page_index"":2,""viewing_time"":23101}]",69
,,,,,,,,,95257,,,95258,,,instructions,"[{""page_index"":0,""viewing_time"":29781},{""page_index"":1,""viewing_time"":29281},{""page_index"":2,""viewing_time"":22970},{""page_index"":3,""viewing_time"":13223}]",70
,,,,,,,,,86595,,,86596,,,instructions,"[{""page_index"":0,""viewing_time"":36648},{""page_index"":1,""viewing_time"":19695},{""page_index"":2,""viewing_time"":12631},{""page_index"":3,""viewing_time"":17620}]",71
,,,,,,,,,26037,,,26039,,,instructions,"[{""page_index"":0,""viewing_time"":11658},{""page_index"":1,""viewing_time"":5014},{""page_index"":2,""viewing_time"":5718},{""page_index"":3,""viewing_time"":3646}]",72
,,,,,,,,,146310,,,146311,,,instructions,"[{""page_index"":0,""viewing_time"":35452},{""page_index"":1,""viewing_time"":46600},{""page_index"":2,""viewing_time"":37576},{""page_index"":3,""viewing_time"":26681}]",73
,,,,,,,,,38303,,,226504,,,instructions,"[{""page_index"":0,""viewing_time"":16069},{""page_index"":1,""viewing_time"":8089},{""page_index"":2,""viewing_time"":9470},{""page_index"":3,""viewing_time"":4674}]",73
,,,,,,,,,11222,,,263284,,,instructions,"[{""page_index"":0,""viewing_time"":3407},{""page_index"":1,""viewing_time"":1679},{""page_index"":2,""viewing_time"":2341},{""page_index"":3,""viewing_time"":3795}]",73
,,,,,,,,,7291,,,285535,,,instructions,"[{""page_index"":0,""viewing_time"":1680},{""page_index"":1,""viewing_time"":1335},{""page_index"":2,""viewing_time"":1875},{""page_index"":3,""viewing_time"":2401}]",73
,,,,,,,,,53941,,,368564,,,instructions,"[{""page_index"":0,""viewing_time"":14246},{""page_index"":1,""viewing_time"":24440},{""page_index"":2,""viewing_time"":11319},{""page_index"":3,""viewing_time"":3935}]",73
,,,,,,,,,255314,,,255316,,,instructions,"[{""page_index"":0,""viewing_time"":68131},{""page_index"":1,""viewing_time"":77164},{""page_index"":2,""viewing_time"":62468},{""page_index"":3,""viewing_time"":47549}]",74
,,,,,,,,,424700,,,424703,,,instructions,"[{""page_index"":0,""viewing_time"":76677},{""page_index"":1,""viewing_time"":198955},{""page_index"":2,""viewing_time"":81927},{""page_index"":3,""viewing_time"":67139}]",75
,,,,,,,,,27630,,,520917,,,instructions,"[{""page_index"":0,""viewing_time"":11206},{""page_index"":1,""viewing_time"":2718},{""page_index"":2,""viewing_time"":10193},{""page_index"":3,""viewing_time"":3512}]",75
,,,,,,,,,86883,,,86885,,,instructions,"[{""page_index"":0,""viewing_time"":33971},{""page_index"":1,""viewing_time"":38023},{""page_index"":2,""viewing_time"":11008},{""page_index"":3,""viewing_time"":3881}]",76
,,,,,,,,,5390,,,133740,,,instructions,"[{""page_index"":0,""viewing_time"":1774},{""page_index"":1,""viewing_time"":1040},{""page_index"":2,""viewing_time"":1728},{""page_index"":3,""viewing_time"":848}]",76
,,,,,,,,,39031,,,190115,,,instructions,"[{""page_index"":0,""viewing_time"":1639},{""page_index"":1,""viewing_time"":687},{""page_index"":2,""viewing_time"":25833},{""page_index"":3,""viewing_time"":10871}]",76
,,,,,,,,,8118,,,231411,,,instructions,"[{""page_index"":0,""viewing_time"":1430},{""page_index"":1,""viewing_time"":704},{""page_index"":2,""viewing_time"":4976},{""page_index"":3,""viewing_time"":1008}]",76
,,,,,,,,,116522,,,116524,,,instructions,"[{""page_index"":0,""viewing_time"":29329},{""page_index"":1,""viewing_time"":47328},{""page_index"":2,""viewing_time"":30264},{""page_index"":3,""viewing_time"":9600}]",77
,,,,,,,,,212212,,,212214,,,instructions,"[{""page_index"":0,""viewing_time"":72914},{""page_index"":1,""viewing_time"":45319},{""page_index"":2,""viewing_time"":58897},{""page_index"":3,""viewing_time"":35080}]",78
,,,,,,,,,94150,,,367468,,,instructions,"[{""page_index"":0,""viewing_time"":13540},{""page_index"":1,""viewing_time"":21073},{""page_index"":2,""viewing_time"":14775},{""page_index"":3,""viewing_time"":44761}]",78
,,,,,,,,,76130,,,76132,,,instructions,"[{""page_index"":0,""viewing_time"":34084},{""page_index"":1,""viewing_time"":33096},{""page_index"":2,""viewing_time"":8949}]",79
,,,,,,,,,340985,,,340987,,,instructions,"[{""page_index"":0,""viewing_time"":127192},{""page_index"":1,""viewing_time"":89619},{""page_index"":2,""viewing_time"":74348},{""page_index"":3,""viewing_time"":49824}]",80
,,,,,,,,,84834,,,84839,,,instructions,"[{""page_index"":0,""viewing_time"":24448},{""page_index"":1,""viewing_time"":19645},{""page_index"":2,""viewing_time"":24247},{""page_index"":3,""viewing_time"":16493}]",81
,,,,,,,,,14912,,,123619,,,instructions,"[{""page_index"":0,""viewing_time"":2995},{""page_index"":1,""viewing_time"":5919},{""page_index"":2,""viewing_time"":3611},{""page_index"":3,""viewing_time"":2386}]",81
,,,,,,,,,122441,,,122443,,,instructions,"[{""page_index"":0,""viewing_time"":44005},{""page_index"":1,""viewing_time"":34906},{""page_index"":2,""viewing_time"":18835},{""page_index"":3,""viewing_time"":24694}]",82
,,,,,,,,,230756,,,230758,,,instructions,"[{""page_index"":0,""viewing_time"":89609},{""page_index"":1,""viewing_time"":57391},{""page_index"":2,""viewing_time"":55187},{""page_index"":3,""viewing_time"":28567}]",83
,,,,,,,,,132149,,,132150,,,instructions,"[{""page_index"":0,""viewing_time"":50676},{""page_index"":1,""viewing_time"":30448},{""page_index"":2,""viewing_time"":29928},{""page_index"":3,""viewing_time"":21096}]",84
,,,,,,,,,616401,,,616407,,,instructions,"[{""page_index"":0,""viewing_time"":376713},{""page_index"":1,""viewing_time"":117728},{""page_index"":2,""viewing_time"":121955}]",85
,,,,,,,,,207737,,,207740,,,instructions,"[{""page_index"":0,""viewing_time"":86297},{""page_index"":1,""viewing_time"":65062},{""page_index"":2,""viewing_time"":56376}]",86
,,,,,,,,,101447,,,101449,,,instructions,"[{""page_index"":0,""viewing_time"":38446},{""page_index"":1,""viewing_time"":19584},{""page_index"":0,""viewing_time"":1979},{""page_index"":1,""viewing_time"":17750},{""page_index"":0,""viewing_time"":812},{""page_index"":1,""viewing_time"":643},{""page_index"":2,""viewing_time"":1086},{""page_index"":1,""viewing_time"":756},{""page_index"":2,""viewing_time"":20391}]",87
,,,,,,,,,15937,,,140891,,,instructions,"[{""page_index"":0,""viewing_time"":6168},{""page_index"":1,""viewing_time"":3658},{""page_index"":2,""viewing_time"":6110}]",87
,,,,,,,,,8072,,,166230,,,instructions,"[{""page_index"":0,""viewing_time"":4453},{""page_index"":1,""viewing_time"":1998},{""page_index"":2,""viewing_time"":1620}]",87
,,,,,,,,,31024,,,212722,,,instructions,"[{""page_index"":0,""viewing_time"":5603},{""page_index"":1,""viewing_time"":8016},{""page_index"":2,""viewing_time"":17405}]",87
,,,,,,,,,17323,,,17327,,,instructions,"[{""page_index"":0,""viewing_time"":5181},{""page_index"":1,""viewing_time"":6031},{""page_index"":2,""viewing_time"":4159},{""page_index"":3,""viewing_time"":1949}]",88
,,,,,,,,,40742,,,79284,,,instructions,"[{""page_index"":0,""viewing_time"":14434},{""page_index"":1,""viewing_time"":7430},{""page_index"":2,""viewing_time"":12556},{""page_index"":3,""viewing_time"":6320}]",88
,,,,,,,,,134580,,,134581,,,instructions,"[{""page_index"":0,""viewing_time"":32667},{""page_index"":1,""viewing_time"":47632},{""page_index"":2,""viewing_time"":36016},{""page_index"":3,""viewing_time"":18264}]",89
,,,,,,,,,341862,,,341863,,,instructions,"[{""page_index"":0,""viewing_time"":71455},{""page_index"":1,""viewing_time"":161238},{""page_index"":2,""viewing_time"":87232},{""page_index"":3,""viewing_time"":21937}]",90
,,,,,,,,,20041,,,405642,,,instructions,"[{""page_index"":0,""viewing_time"":3745},{""page_index"":1,""viewing_time"":1705},{""page_index"":2,""viewing_time"":12508},{""page_index"":3,""viewing_time"":2083}]",90
,,,,,,,,,144969,,,144971,,,instructions,"[{""page_index"":0,""viewing_time"":93132},{""page_index"":1,""viewing_time"":33927},{""page_index"":2,""viewing_time"":17908}]",91
,,,,,,,,,104080,,,104082,,,instructions,"[{""page_index"":0,""viewing_time"":31107},{""page_index"":1,""viewing_time"":27439},{""page_index"":2,""viewing_time"":24543},{""page_index"":3,""viewing_time"":20990}]",92
,,,,,,,,,133355,,,133356,,,instructions,"[{""page_index"":0,""viewing_time"":75410},{""page_index"":1,""viewing_time"":41449},{""page_index"":2,""viewing_time"":16496}]",93
,,,,,,,,,158640,,,158641,,,instructions,"[{""page_index"":0,""viewing_time"":70064},{""page_index"":1,""viewing_time"":23072},{""page_index"":2,""viewing_time"":37738},{""page_index"":3,""viewing_time"":27765}]",94
,,,,,,,,,141744,,,141744,,,instructions,"[{""page_index"":0,""viewing_time"":35740},{""page_index"":1,""viewing_time"":36051},{""page_index"":2,""viewing_time"":39584},{""page_index"":3,""viewing_time"":30368}]",95
,,,,,,,,,94227,,,284395,,,instructions,"[{""page_index"":0,""viewing_time"":30391},{""page_index"":1,""viewing_time"":25264},{""page_index"":2,""viewing_time"":31664},{""page_index"":3,""viewing_time"":6908}]",95
,,,,,,,,,114138,,,440733,,,instructions,"[{""page_index"":0,""viewing_time"":50998},{""page_index"":1,""viewing_time"":20640},{""page_index"":2,""viewing_time"":27680},{""page_index"":3,""viewing_time"":14819}]",95
,,,,,,,,,8101,,,485497,,,instructions,"[{""page_index"":0,""viewing_time"":2576},{""page_index"":1,""viewing_time"":1436},{""page_index"":2,""viewing_time"":2400},{""page_index"":3,""viewing_time"":1688}]",95
,,,,,,,,,40616,,,40620,,,instructions,"[{""page_index"":0,""viewing_time"":28648},{""page_index"":1,""viewing_time"":2774},{""page_index"":2,""viewing_time"":8043},{""page_index"":3,""viewing_time"":1148}]",96
,,,,,,,,,34558,,,107637,,,instructions,"[{""page_index"":0,""viewing_time"":8994},{""page_index"":1,""viewing_time"":4430},{""page_index"":2,""viewing_time"":7824},{""page_index"":3,""viewing_time"":13307}]",96
,,,,,,,,,34696,,,160405,,,instructions,"[{""page_index"":0,""viewing_time"":6994},{""page_index"":1,""viewing_time"":7579},{""page_index"":2,""viewing_time"":15571},{""page_index"":3,""viewing_time"":4549}]",96
,,,,,,,,,221260,,,221262,,,instructions,"[{""page_index"":0,""viewing_time"":136677},{""page_index"":1,""viewing_time"":38270},{""page_index"":2,""viewing_time"":46311}]",97
,,,,,,,,,50329,,,50331,,,instructions,"[{""page_index"":0,""viewing_time"":30965},{""page_index"":1,""viewing_time"":12565},{""page_index"":2,""viewing_time"":6798}]",98
,,,,,,,,,76350,,,145920,,,instructions,"[{""page_index"":0,""viewing_time"":17718},{""page_index"":1,""viewing_time"":42548},{""page_index"":2,""viewing_time"":16083}]",98
,,,,,,,,,363527,,,363528,,,instructions,"[{""page_index"":0,""viewing_time"":165393},{""page_index"":1,""viewing_time"":61748},{""page_index"":2,""viewing_time"":87828},{""page_index"":3,""viewing_time"":48557}]",99
,,,,,,,,,89548,,,523836,,,instructions,"[{""page_index"":0,""viewing_time"":34750},{""page_index"":1,""viewing_time"":15325},{""page_index"":2,""viewing_time"":28467},{""page_index"":3,""viewing_time"":11005}]",99
,,,,,,,,,70856,,,70856,,,instructions,"[{""page_index"":0,""viewing_time"":29035},{""page_index"":1,""viewing_time"":26822},{""page_index"":2,""viewing_time"":14998}]",100
,,,,,,,,,117087,,,117088,,,instructions,"[{""page_index"":0,""viewing_time"":49177},{""page_index"":1,""viewing_time"":5235},{""page_index"":0,""viewing_time"":1392},{""page_index"":1,""viewing_time"":31812},{""page_index"":2,""viewing_time"":29469}]",101
,,,,,,,,,79660,,,79662,,,instructions,"[{""page_index"":0,""viewing_time"":36474},{""page_index"":1,""viewing_time"":25119},{""page_index"":2,""viewing_time"":18064}]",102
,,,,,,,,,97325,,,97327,,,instructions,"[{""page_index"":0,""viewing_time"":25449},{""page_index"":1,""viewing_time"":39614},{""page_index"":2,""viewing_time"":15798},{""page_index"":3,""viewing_time"":16461}]",103
,,,,,,,,,73169,,,210413,,,instructions,"[{""page_index"":0,""viewing_time"":17049},{""page_index"":1,""viewing_time"":19900},{""page_index"":2,""viewing_time"":27011},{""page_index"":3,""viewing_time"":9208}]",103
,,,,,,,,,35034,,,275623,,,instructions,"[{""page_index"":0,""viewing_time"":4315},{""page_index"":1,""viewing_time"":3656},{""page_index"":2,""viewing_time"":23323},{""page_index"":3,""viewing_time"":3738}]",103
,,,,,,,,,6537,,,307543,,,instructions,"[{""page_index"":0,""viewing_time"":1839},{""page_index"":1,""viewing_time"":1174},{""page_index"":2,""viewing_time"":2156},{""page_index"":3,""viewing_time"":1367}]",103
,,,,,,,,,17830,,,343972,,,instructions,"[{""page_index"":0,""viewing_time"":1978},{""page_index"":1,""viewing_time"":554},{""page_index"":0,""viewing_time"":2794},{""page_index"":1,""viewing_time"":1323},{""page_index"":2,""viewing_time"":9016},{""page_index"":3,""viewing_time"":2163}]",103
,,,,,,,,,6362,,,364937,,,instructions,"[{""page_index"":0,""viewing_time"":1845},{""page_index"":1,""viewing_time"":1147},{""page_index"":2,""viewing_time"":2378},{""page_index"":3,""viewing_time"":990}]",103
,,,,,,,,,21986,,,406273,,,instructions,"[{""page_index"":0,""viewing_time"":11976},{""page_index"":1,""viewing_time"":6809},{""page_index"":2,""viewing_time"":1986},{""page_index"":3,""viewing_time"":1214}]",103
,,,,,,,,,6628,,,432874,,,instructions,"[{""page_index"":0,""viewing_time"":1623},{""page_index"":1,""viewing_time"":914},{""page_index"":2,""viewing_time"":1819},{""page_index"":3,""viewing_time"":2270}]",103
,,,,,,,,,64025,,,526188,,,instructions,"[{""page_index"":0,""viewing_time"":14543},{""page_index"":1,""viewing_time"":1353},{""page_index"":2,""viewing_time"":36303},{""page_index"":3,""viewing_time"":11824}]",103
,,,,,,,,,28359,,,584856,,,instructions,"[{""page_index"":0,""viewing_time"":5930},{""page_index"":1,""viewing_time"":7402},{""page_index"":2,""viewing_time"":8812},{""page_index"":3,""viewing_time"":6214}]",103
,,,,,,,,,116404,,,116404,,,instructions,"[{""page_index"":0,""viewing_time"":38611},{""page_index"":1,""viewing_time"":25461},{""page_index"":2,""viewing_time"":34928},{""page_index"":3,""viewing_time"":17403}]",104
,,,,,,,,,50743,,,50744,,,instructions,"[{""page_index"":0,""viewing_time"":25009},{""page_index"":1,""viewing_time"":18621},{""page_index"":2,""viewing_time"":7111}]",105
,,,,,,,,,51947,,,137323,,,instructions,"[{""page_index"":0,""viewing_time"":19932},{""page_index"":1,""viewing_time"":19189},{""page_index"":2,""viewing_time"":12825}]",105
,,,,,,,,,166395,,,166397,,,instructions,"[{""page_index"":0,""viewing_time"":36984},{""page_index"":1,""viewing_time"":70492},{""page_index"":2,""viewing_time"":33510},{""page_index"":3,""viewing_time"":25408}]",106
,,,,,,,,,186579,,,186580,,,instructions,"[{""page_index"":0,""viewing_time"":42900},{""page_index"":1,""viewing_time"":1031},{""page_index"":0,""viewing_time"":7940},{""page_index"":1,""viewing_time"":3107},{""page_index"":0,""viewing_time"":797},{""page_index"":1,""viewing_time"":52873},{""page_index"":2,""viewing_time"":50613},{""page_index"":3,""viewing_time"":27318}]",107
,,,,,,,,,123075,,,123078,,,instructions,"[{""page_index"":0,""viewing_time"":62747},{""page_index"":1,""viewing_time"":35781},{""page_index"":2,""viewing_time"":24544}]",108
,,,,,,,,,57300,,,223080,,,instructions,"[{""page_index"":0,""viewing_time"":4805},{""page_index"":1,""viewing_time"":27904},{""page_index"":2,""viewing_time"":24588}]",108
,,,,,,,,,114609,,,114610,,,instructions,"[{""page_index"":0,""viewing_time"":30109},{""page_index"":1,""viewing_time"":23082},{""page_index"":2,""viewing_time"":34451},{""page_index"":3,""viewing_time"":26966}]",109
,,,,,,,,,42115,,,42115,,,instructions,"[{""page_index"":0,""viewing_time"":12185},{""page_index"":1,""viewing_time"":7993},{""page_index"":2,""viewing_time"":10248},{""page_index"":3,""viewing_time"":11689}]",110
,,,,,,,,,35545,,,101034,,,instructions,"[{""page_index"":0,""viewing_time"":8735},{""page_index"":1,""viewing_time"":9587},{""page_index"":2,""viewing_time"":10494},{""page_index"":3,""viewing_time"":6728}]",110
,,,,,,,,,173432,,,173434,,,instructions,"[{""page_index"":0,""viewing_time"":50099},{""page_index"":1,""viewing_time"":57560},{""page_index"":2,""viewing_time"":48054},{""page_index"":3,""viewing_time"":17717}]",111
,,,,,,,,,45017,,,45020,,,instructions,"[{""page_index"":0,""viewing_time"":12773},{""page_index"":1,""viewing_time"":13879},{""page_index"":2,""viewing_time"":9497},{""page_index"":3,""viewing_time"":8865}]",112
,,,,,,,,,32670,,,107845,,,instructions,"[{""page_index"":0,""viewing_time"":3625},{""page_index"":1,""viewing_time"":8880},{""page_index"":2,""viewing_time"":10865},{""page_index"":3,""viewing_time"":9296}]",112
,,,,,,,,,123027,,,123031,,,instructions,"[{""page_index"":0,""viewing_time"":36816},{""page_index"":1,""viewing_time"":31118},{""page_index"":2,""viewing_time"":34910},{""page_index"":3,""viewing_time"":20180}]",113
,,,,,,,,,173570,,,173572,,,instructions,"[{""page_index"":0,""viewing_time"":52556},{""page_index"":1,""viewing_time"":94928},{""page_index"":2,""viewing_time"":26085}]",114
,,,,,,,,,139495,,,139497,,,instructions,"[{""page_index"":0,""viewing_time"":37816},{""page_index"":1,""viewing_time"":47674},{""page_index"":2,""viewing_time"":35115},{""page_index"":3,""viewing_time"":18886}]",115
,,,,,,,,,189999,,,190002,,,instructions,"[{""page_index"":0,""viewing_time"":65302},{""page_index"":1,""viewing_time"":47180},{""page_index"":2,""viewing_time"":44356},{""page_index"":3,""viewing_time"":33159}]",116
,,,,,,,,,80099,,,324903,,,instructions,"[{""page_index"":0,""viewing_time"":28427},{""page_index"":1,""viewing_time"":3110},{""page_index"":2,""viewing_time"":47072},{""page_index"":3,""viewing_time"":1488}]",116
,,,,,,,,,70006,,,422677,,,instructions,"[{""page_index"":0,""viewing_time"":5570},{""page_index"":1,""viewing_time"":18034},{""page_index"":2,""viewing_time"":35787},{""page_index"":3,""viewing_time"":10614}]",116
,,,,,,,,,94079,,,94079,,,instructions,"[{""page_index"":0,""viewing_time"":22905},{""page_index"":1,""viewing_time"":23169},{""page_index"":2,""viewing_time"":31086},{""page_index"":3,""viewing_time"":16919}]",117
,,,,,,,,,30135,,,162419,,,instructions,"[{""page_index"":0,""viewing_time"":2631},{""page_index"":1,""viewing_time"":9094},{""page_index"":2,""viewing_time"":9509},{""page_index"":3,""viewing_time"":8901}]",117
,,,,,,,,,67474,,,67476,,,instructions,"[{""page_index"":0,""viewing_time"":27140},{""page_index"":1,""viewing_time"":4355},{""page_index"":2,""viewing_time"":19813},{""page_index"":3,""viewing_time"":16166}]",118
,,,,,,,,,10366,,,103934,,,instructions,"[{""page_index"":0,""viewing_time"":4343},{""page_index"":1,""viewing_time"":3483},{""page_index"":2,""viewing_time"":1562},{""page_index"":3,""viewing_time"":978}]",118
,,,,,,,,,22565,,,142127,,,instructions,"[{""page_index"":0,""viewing_time"":2621},{""page_index"":1,""viewing_time"":9856},{""page_index"":2,""viewing_time"":5036},{""page_index"":3,""viewing_time"":5052}]",118
,,,,,,,,,133014,,,133017,,,instructions,"[{""page_index"":0,""viewing_time"":49743},{""page_index"":1,""viewing_time"":36604},{""page_index"":2,""viewing_time"":28335},{""page_index"":3,""viewing_time"":18330}]",119
,,,,,,,,,52085,,,52088,,,instructions,"[{""page_index"":0,""viewing_time"":32096},{""page_index"":1,""viewing_time"":13360},{""page_index"":2,""viewing_time"":6626}]",120
,,,,,,,,,95459,,,95461,,,instructions,"[{""page_index"":0,""viewing_time"":44753},{""page_index"":1,""viewing_time"":32585},{""page_index"":2,""viewing_time"":18120}]",121
,,,,,,,,,54777,,,178469,,,instructions,"[{""page_index"":0,""viewing_time"":21663},{""page_index"":1,""viewing_time"":17441},{""page_index"":2,""viewing_time"":15672}]",121
,,,,,,,,,216354,,,216355,,,instructions,"[{""page_index"":0,""viewing_time"":61587},{""page_index"":1,""viewing_time"":48453},{""page_index"":2,""viewing_time"":68269},{""page_index"":3,""viewing_time"":38044}]",122
,,,,,,,,,242173,,,242175,,,instructions,"[{""page_index"":0,""viewing_time"":119599},{""page_index"":1,""viewing_time"":99214},{""page_index"":2,""viewing_time"":23358}]",123
,,,,,,,,,132109,,,132110,,,instructions,"[{""page_index"":0,""viewing_time"":36281},{""page_index"":1,""viewing_time"":35898},{""page_index"":2,""viewing_time"":29422},{""page_index"":3,""viewing_time"":30504}]",124
,,,,,,,,,138214,,,138216,,,instructions,"[{""page_index"":0,""viewing_time"":81458},{""page_index"":1,""viewing_time"":87},{""page_index"":0,""viewing_time"":6652},{""page_index"":1,""viewing_time"":3427},{""page_index"":0,""viewing_time"":699},{""page_index"":1,""viewing_time"":871},{""page_index"":0,""viewing_time"":484},{""page_index"":1,""viewing_time"":720},{""page_index"":0,""viewing_time"":517},{""page_index"":1,""viewing_time"":18946},{""page_index"":2,""viewing_time"":14389},{""page_index"":3,""viewing_time"":9963}]",125
,,,,,,,,,27671,,,194418,,,instructions,"[{""page_index"":0,""viewing_time"":4421},{""page_index"":1,""viewing_time"":1492},{""page_index"":0,""viewing_time"":2719},{""page_index"":1,""viewing_time"":1508},{""page_index"":2,""viewing_time"":15701},{""page_index"":3,""viewing_time"":1829}]",125
,,,,,,,,,44029,,,261953,,,instructions,"[{""page_index"":0,""viewing_time"":5398},{""page_index"":1,""viewing_time"":21620},{""page_index"":2,""viewing_time"":15781},{""page_index"":3,""viewing_time"":1229}]",125
,,,,,,,,,26755,,,303773,,,instructions,"[{""page_index"":0,""viewing_time"":7814},{""page_index"":1,""viewing_time"":4858},{""page_index"":2,""viewing_time"":12966},{""page_index"":3,""viewing_time"":1116}]",125
,,,,,,,,,37110,,,356808,,,instructions,"[{""page_index"":0,""viewing_time"":12960},{""page_index"":1,""viewing_time"":7950},{""page_index"":2,""viewing_time"":9320},{""page_index"":3,""viewing_time"":6879}]",125
,,,,,,,,,25278,,,400406,,,instructions,"[{""page_index"":0,""viewing_time"":5694},{""page_index"":1,""viewing_time"":2109},{""page_index"":2,""viewing_time"":13035},{""page_index"":3,""viewing_time"":4439}]",125
,,,,,,,,,41141,,,465191,,,instructions,"[{""page_index"":0,""viewing_time"":10283},{""page_index"":1,""viewing_time"":10641},{""page_index"":2,""viewing_time"":15628},{""page_index"":3,""viewing_time"":4588}]",125
,,,,,,,,,105974,,,105978,,,instructions,"[{""page_index"":0,""viewing_time"":33318},{""page_index"":1,""viewing_time"":26525},{""page_index"":2,""viewing_time"":27555},{""page_index"":3,""viewing_time"":18574}]",126
,,,,,,,,,92365,,,92367,,,instructions,"[{""page_index"":0,""viewing_time"":43680},{""page_index"":1,""viewing_time"":36620},{""page_index"":2,""viewing_time"":12062}]",127
,,,,,,,,,9247,,,124251,,,instructions,"[{""page_index"":0,""viewing_time"":3306},{""page_index"":1,""viewing_time"":2084},{""page_index"":2,""viewing_time"":3856}]",127
,,,,,,,,,494561,,,494561,,,instructions,"[{""page_index"":0,""viewing_time"":21211},{""page_index"":1,""viewing_time"":4325},{""page_index"":2,""viewing_time"":469025}]",128
,,,,,,,,,281589,,,791802,,,instructions,"[{""page_index"":0,""viewing_time"":248021},{""page_index"":1,""viewing_time"":24863},{""page_index"":2,""viewing_time"":8705}]",128
,,,,,,,,,10587,,,989113,,,instructions,"[{""page_index"":0,""viewing_time"":3334},{""page_index"":1,""viewing_time"":2920},{""page_index"":2,""viewing_time"":4333}]",128
,,,,,,,,,104778,,,104780,,,instructions,"[{""page_index"":0,""viewing_time"":36428},{""page_index"":1,""viewing_time"":29430},{""page_index"":2,""viewing_time"":22279},{""page_index"":3,""viewing_time"":16640}]",129
,,,,,,,,,83012,,,83013,,,instructions,"[{""page_index"":0,""viewing_time"":24573},{""page_index"":1,""viewing_time"":22594},{""page_index"":2,""viewing_time"":25194},{""page_index"":3,""viewing_time"":10650}]",130
,,,,,,,,,88244,,,88246,,,instructions,"[{""page_index"":0,""viewing_time"":37343},{""page_index"":1,""viewing_time"":27323},{""page_index"":2,""viewing_time"":23576}]",131
,,,,,,,,,34128,,,169989,,,instructions,"[{""page_index"":0,""viewing_time"":4526},{""page_index"":1,""viewing_time"":9352},{""page_index"":2,""viewing_time"":20249}]",131
,,,,,,,,,117249,,,117251,,,instructions,"[{""page_index"":0,""viewing_time"":16577},{""page_index"":1,""viewing_time"":9719},{""page_index"":0,""viewing_time"":20310},{""page_index"":1,""viewing_time"":14901},{""page_index"":2,""viewing_time"":16076},{""page_index"":3,""viewing_time"":39666}]",132
,,,,,,,,,125887,,,125889,,,instructions,"[{""page_index"":0,""viewing_time"":36543},{""page_index"":1,""viewing_time"":50760},{""page_index"":2,""viewing_time"":24998},{""page_index"":3,""viewing_time"":13585}]",133
,,,,,,,,,125943,,,125947,,,instructions,"[{""page_index"":0,""viewing_time"":52389},{""page_index"":1,""viewing_time"":39412},{""page_index"":2,""viewing_time"":34137}]",134
,,,,,,,,,172738,,,172740,,,instructions,"[{""page_index"":0,""viewing_time"":6556},{""page_index"":1,""viewing_time"":20419},{""page_index"":2,""viewing_time"":133296},{""page_index"":3,""viewing_time"":12466}]",135
,,,,,,,,,68280,,,266154,,,instructions,"[{""page_index"":0,""viewing_time"":23862},{""page_index"":1,""viewing_time"":22744},{""page_index"":2,""viewing_time"":10900},{""page_index"":3,""viewing_time"":10773}]",135
,,,,,,,,,83782,,,83783,,,instructions,"[{""page_index"":0,""viewing_time"":28558},{""page_index"":1,""viewing_time"":24853},{""page_index"":2,""viewing_time"":12666},{""page_index"":3,""viewing_time"":17703}]",136
,,,,,,,,,19165,,,155703,,,instructions,"[{""page_index"":0,""viewing_time"":11106},{""page_index"":1,""viewing_time"":3588},{""page_index"":2,""viewing_time"":3240},{""page_index"":3,""viewing_time"":1230}]",136
,,,,,,,,,51606,,,226526,,,instructions,"[{""page_index"":0,""viewing_time"":7161},{""page_index"":1,""viewing_time"":22184},{""page_index"":2,""viewing_time"":19190},{""page_index"":3,""viewing_time"":3070}]",136
,,,,,,,,,120221,,,120222,,,instructions,"[{""page_index"":0,""viewing_time"":59081},{""page_index"":1,""viewing_time"":40649},{""page_index"":2,""viewing_time"":20491}]",137
,,,,,,,,,199411,,,199411,,,instructions,"[{""page_index"":0,""viewing_time"":76249},{""page_index"":1,""viewing_time"":42170},{""page_index"":2,""viewing_time"":54959},{""page_index"":3,""viewing_time"":26032}]",138
,,,,,,,,,136406,,,136409,,,instructions,"[{""page_index"":0,""viewing_time"":59654},{""page_index"":1,""viewing_time"":45105},{""page_index"":2,""viewing_time"":31643}]",139
,,,,,,,,,213292,,,213294,,,instructions,"[{""page_index"":0,""viewing_time"":80447},{""page_index"":1,""viewing_time"":38790},{""page_index"":2,""viewing_time"":52888},{""page_index"":3,""viewing_time"":41164}]",140
,,,,,,,,,51523,,,51525,,,instructions,"[{""page_index"":0,""viewing_time"":26689},{""page_index"":1,""viewing_time"":10212},{""page_index"":2,""viewing_time"":5596},{""page_index"":3,""viewing_time"":9025}]",141
,,,,,,,,,150494,,,150495,,,instructions,"[{""page_index"":0,""viewing_time"":47983},{""page_index"":1,""viewing_time"":37001},{""page_index"":2,""viewing_time"":34744},{""page_index"":3,""viewing_time"":30765}]",142
,,,,,,,,,170704,,,170707,,,instructions,"[{""page_index"":0,""viewing_time"":57391},{""page_index"":1,""viewing_time"":33648},{""page_index"":2,""viewing_time"":59999},{""page_index"":3,""viewing_time"":19664}]",143
,,,,,,,,,49568,,,274193,,,instructions,"[{""page_index"":0,""viewing_time"":19718},{""page_index"":1,""viewing_time"":7712},{""page_index"":2,""viewing_time"":8992},{""page_index"":3,""viewing_time"":13144}]",143
,,,,,,,,,115942,,,424112,,,instructions,"[{""page_index"":0,""viewing_time"":37109},{""page_index"":1,""viewing_time"":6016},{""page_index"":2,""viewing_time"":54528},{""page_index"":3,""viewing_time"":18288}]",143
,,,,,,,,,100959,,,562624,,,instructions,"[{""page_index"":0,""viewing_time"":29717},{""page_index"":1,""viewing_time"":33888},{""page_index"":2,""viewing_time"":23825},{""page_index"":3,""viewing_time"":13527}]",143
,,,,,,,,,107109,,,699832,,,instructions,"[{""page_index"":0,""viewing_time"":27019},{""page_index"":1,""viewing_time"":28048},{""page_index"":2,""viewing_time"":42048},{""page_index"":3,""viewing_time"":9992}]",143
,,,,,,,,,7768,,,749751,,,instructions,"[{""page_index"":0,""viewing_time"":4167},{""page_index"":1,""viewing_time"":1144},{""page_index"":2,""viewing_time"":1696},{""page_index"":3,""viewing_time"":760}]",143
,,,,,,,,,5760,,,775464,,,instructions,"[{""page_index"":0,""viewing_time"":2431},{""page_index"":1,""viewing_time"":832},{""page_index"":2,""viewing_time"":1744},{""page_index"":3,""viewing_time"":752}]",143
,,,,,,,,,119762,,,119762,,,instructions,"[{""page_index"":0,""viewing_time"":50249},{""page_index"":1,""viewing_time"":18775},{""page_index"":2,""viewing_time"":41671},{""page_index"":3,""viewing_time"":9065}]",144
,,,,,,,,,61839,,,238332,,,instructions,"[{""page_index"":0,""viewing_time"":11585},{""page_index"":1,""viewing_time"":19387},{""page_index"":2,""viewing_time"":20863},{""page_index"":3,""viewing_time"":10003}]",144
,,,,,,,,,37587,,,37588,,,instructions,"[{""page_index"":0,""viewing_time"":18044},{""page_index"":1,""viewing_time"":12622},{""page_index"":2,""viewing_time"":6920}]",145
,,,,,,,,,644289,,,644292,,,instructions,"[{""page_index"":0,""viewing_time"":264620},{""page_index"":1,""viewing_time"":25872},{""page_index"":2,""viewing_time"":339572},{""page_index"":3,""viewing_time"":14222}]",146
,,,,,,,,,179421,,,881964,,,instructions,"[{""page_index"":0,""viewing_time"":147214},{""page_index"":1,""viewing_time"":22444},{""page_index"":2,""viewing_time"":7558},{""page_index"":3,""viewing_time"":2200}]",146
,,,,,,,,,212587,,,212590,,,instructions,"[{""page_index"":0,""viewing_time"":68310},{""page_index"":1,""viewing_time"":51025},{""page_index"":2,""viewing_time"":61336},{""page_index"":3,""viewing_time"":31914}]",147
,,,,,,,,,139661,,,139661,,,instructions,"[{""page_index"":0,""viewing_time"":40310},{""page_index"":1,""viewing_time"":28804},{""page_index"":2,""viewing_time"":45266},{""page_index"":3,""viewing_time"":25280}]",148
,,,,,,,,,104931,,,283205,,,instructions,"[{""page_index"":0,""viewing_time"":33924},{""page_index"":1,""viewing_time"":22109},{""page_index"":2,""viewing_time"":32710},{""page_index"":3,""viewing_time"":16187}]",148
,,,,,,,,,93744,,,416948,,,instructions,"[{""page_index"":0,""viewing_time"":42856},{""page_index"":1,""viewing_time"":30450},{""page_index"":2,""viewing_time"":19743},{""page_index"":3,""viewing_time"":695}]",148
,,,,,,,,,342704,,,342707,,,instructions,"[{""page_index"":0,""viewing_time"":243222},{""page_index"":1,""viewing_time"":15491},{""page_index"":2,""viewing_time"":42544},{""page_index"":3,""viewing_time"":12445},{""page_index"":2,""viewing_time"":8524},{""page_index"":3,""viewing_time"":20475}]",149
,,,,,,,,,704227,,,1116373,,,instructions,"[{""page_index"":0,""viewing_time"":46043},{""page_index"":1,""viewing_time"":14419},{""page_index"":2,""viewing_time"":637338},{""page_index"":3,""viewing_time"":6425}]",149
,,,,,,,,,430639,,,1673955,,,instructions,"[{""page_index"":0,""viewing_time"":70102},{""page_index"":1,""viewing_time"":49102},{""page_index"":2,""viewing_time"":145510},{""page_index"":1,""viewing_time"":11585},{""page_index"":0,""viewing_time"":22014},{""page_index"":1,""viewing_time"":28330},{""page_index"":2,""viewing_time"":10444},{""page_index"":3,""viewing_time"":93537}]",149
,,,,,,,,,293226,,,293227,,,instructions,"[{""page_index"":0,""viewing_time"":49933},{""page_index"":1,""viewing_time"":40296},{""page_index"":2,""viewing_time"":70088},{""page_index"":3,""viewing_time"":132908}]",150
,,,,,,,,,106942,,,447915,,,instructions,"[{""page_index"":0,""viewing_time"":39284},{""page_index"":1,""viewing_time"":47036},{""page_index"":2,""viewing_time"":10890},{""page_index"":3,""viewing_time"":9731}]",150
,,,,,,,,,15998,,,481519,,,instructions,"[{""page_index"":0,""viewing_time"":7020},{""page_index"":1,""viewing_time"":4803},{""page_index"":2,""viewing_time"":2385},{""page_index"":3,""viewing_time"":1789}]",150
,,,,,,,,,243224,,,243227,,,instructions,"[{""page_index"":0,""viewing_time"":77148},{""page_index"":1,""viewing_time"":68025},{""page_index"":2,""viewing_time"":61162},{""page_index"":3,""viewing_time"":36887}]",151
,,,,,,,,,195768,,,195769,,,instructions,"[{""page_index"":0,""viewing_time"":51703},{""page_index"":1,""viewing_time"":65221},{""page_index"":2,""viewing_time"":47069},{""page_index"":3,""viewing_time"":31765}]",152
,,,,,,,,,291724,,,291725,,,instructions,"[{""page_index"":0,""viewing_time"":73252},{""page_index"":1,""viewing_time"":38966},{""page_index"":2,""viewing_time"":70045},{""page_index"":1,""viewing_time"":25246},{""page_index"":0,""viewing_time"":31777},{""page_index"":1,""viewing_time"":4296},{""page_index"":0,""viewing_time"":4247},{""page_index"":1,""viewing_time"":1947},{""page_index"":2,""viewing_time"":25869},{""page_index"":3,""viewing_time"":5823},{""page_index"":2,""viewing_time"":3904},{""page_index"":3,""viewing_time"":1396},{""page_index"":2,""viewing_time"":1533},{""page_index"":3,""viewing_time"":748},{""page_index"":2,""viewing_time"":1543},{""page_index"":3,""viewing_time"":1132}]",153
,,,,,,,,,195904,,,549115,,,instructions,"[{""page_index"":0,""viewing_time"":56433},{""page_index"":1,""viewing_time"":49528},{""page_index"":2,""viewing_time"":59248},{""page_index"":3,""viewing_time"":30695}]",153
,,,,,,,,,29782,,,616373,,,instructions,"[{""page_index"":0,""viewing_time"":25309},{""page_index"":1,""viewing_time"":1176},{""page_index"":2,""viewing_time"":1864},{""page_index"":3,""viewing_time"":1433}]",153
,,,,,,,,,339943,,,339945,,,instructions,"[{""page_index"":0,""viewing_time"":200059},{""page_index"":1,""viewing_time"":5587},{""page_index"":0,""viewing_time"":10825},{""page_index"":1,""viewing_time"":26458},{""page_index"":2,""viewing_time"":69694},{""page_index"":3,""viewing_time"":27320}]",154
,,,,,,,,,132850,,,626835,,,instructions,"[{""page_index"":0,""viewing_time"":28650},{""page_index"":1,""viewing_time"":67777},{""page_index"":2,""viewing_time"":23100},{""page_index"":3,""viewing_time"":13322}]",154
,,,,,,,,,83056,,,758157,,,instructions,"[{""page_index"":0,""viewing_time"":73588},{""page_index"":1,""viewing_time"":2397},{""page_index"":2,""viewing_time"":4601},{""page_index"":3,""viewing_time"":2469}]",154
,,,,,,,,,168293,,,1030106,,,instructions,"[{""page_index"":0,""viewing_time"":23669},{""page_index"":1,""viewing_time"":33363},{""page_index"":2,""viewing_time"":19234},{""page_index"":1,""viewing_time"":77494},{""page_index"":2,""viewing_time"":2272},{""page_index"":3,""viewing_time"":12260}]",154
,,,,,,,,,248705,,,248707,,,instructions,"[{""page_index"":0,""viewing_time"":122312},{""page_index"":1,""viewing_time"":40604},{""page_index"":2,""viewing_time"":52437},{""page_index"":3,""viewing_time"":33351}]",155
,,,,,,,,,442733,,,442744,,,instructions,"[{""page_index"":0,""viewing_time"":370947},{""page_index"":1,""viewing_time"":56323},{""page_index"":2,""viewing_time"":15443}]",156
,,,,,,,,,161942,,,641071,,,instructions,"[{""page_index"":0,""viewing_time"":48298},{""page_index"":1,""viewing_time"":76852},{""page_index"":2,""viewing_time"":36781}]",156
,,,,,,,,,4778,,,688907,,,instructions,"[{""page_index"":0,""viewing_time"":1863},{""page_index"":1,""viewing_time"":1673},{""page_index"":2,""viewing_time"":1231}]",156
,,,,,,,,,4882,,,718387,,,instructions,"[{""page_index"":0,""viewing_time"":3197},{""page_index"":1,""viewing_time"":978},{""page_index"":2,""viewing_time"":701}]",156
,,,,,,,,,331421,,,331422,,,instructions,"[{""page_index"":0,""viewing_time"":84187},{""page_index"":1,""viewing_time"":79805},{""page_index"":2,""viewing_time"":167427}]",157
,,,,,,,,,139664,,,139664,,,instructions,"[{""page_index"":0,""viewing_time"":45143},{""page_index"":1,""viewing_time"":16708},{""page_index"":2,""viewing_time"":51463},{""page_index"":3,""viewing_time"":26349}]",158
,,,,,,,,,105226,,,105227,,,instructions,"[{""page_index"":0,""viewing_time"":40737},{""page_index"":1,""viewing_time"":28032},{""page_index"":2,""viewing_time"":14176},{""page_index"":3,""viewing_time"":22279}]",159
,,,,,,,,,25856,,,169738,,,instructions,"[{""page_index"":0,""viewing_time"":3933},{""page_index"":1,""viewing_time"":4066},{""page_index"":2,""viewing_time"":14670},{""page_index"":3,""viewing_time"":3185}]",159
,,,,,,,,,40363,,,235785,,,instructions,"[{""page_index"":0,""viewing_time"":8202},{""page_index"":1,""viewing_time"":19528},{""page_index"":2,""viewing_time"":5616},{""page_index"":3,""viewing_time"":7016}]",159
,,,,,,,,,29579,,,287239,,,instructions,"[{""page_index"":0,""viewing_time"":13474},{""page_index"":1,""viewing_time"":6065},{""page_index"":2,""viewing_time"":8919},{""page_index"":3,""viewing_time"":1120}]",159
,,,,,,,,,9637,,,317727,,,instructions,"[{""page_index"":0,""viewing_time"":2708},{""page_index"":1,""viewing_time"":456},{""page_index"":0,""viewing_time"":2335},{""page_index"":1,""viewing_time"":1249},{""page_index"":2,""viewing_time"":1992},{""page_index"":3,""viewing_time"":896}]",159
,,,,,,,,,192404,,,192405,,,instructions,"[{""page_index"":0,""viewing_time"":137602},{""page_index"":1,""viewing_time"":31275},{""page_index"":2,""viewing_time"":23525}]",160
,,,,,,,,,3054754,,,3054755,,,instructions,"[{""page_index"":0,""viewing_time"":50126},{""page_index"":1,""viewing_time"":2949476},{""page_index"":2,""viewing_time"":39973},{""page_index"":3,""viewing_time"":15177}]",161
,,,,,,,,,46323,,,3138942,,,instructions,"[{""page_index"":0,""viewing_time"":11781},{""page_index"":1,""viewing_time"":13226},{""page_index"":2,""viewing_time"":14378},{""page_index"":3,""viewing_time"":6937}]",161
,,,,,,,,,31442,,,3196245,,,instructions,"[{""page_index"":0,""viewing_time"":4949},{""page_index"":1,""viewing_time"":5561},{""page_index"":2,""viewing_time"":9058},{""page_index"":3,""viewing_time"":11874}]",161
,,,,,,,,,49371,,,49371,,,instructions,"[{""page_index"":0,""viewing_time"":27310},{""page_index"":1,""viewing_time"":15228},{""page_index"":2,""viewing_time"":6833}]",162
,,,,,,,,,26289,,,112552,,,instructions,"[{""page_index"":0,""viewing_time"":11452},{""page_index"":1,""viewing_time"":9460},{""page_index"":2,""viewing_time"":5377}]",162
,,,,,,,,,22367,,,162893,,,instructions,"[{""page_index"":0,""viewing_time"":14140},{""page_index"":1,""viewing_time"":4067},{""page_index"":0,""viewing_time"":1330},{""page_index"":1,""viewing_time"":570},{""page_index"":0,""viewing_time"":563},{""page_index"":1,""viewing_time"":1037},{""page_index"":2,""viewing_time"":660}]",162
,,,,,,,,,36146,,,213792,,,instructions,"[{""page_index"":0,""viewing_time"":11490},{""page_index"":1,""viewing_time"":10756},{""page_index"":2,""viewing_time"":13900}]",162
,,,,,,,,,127485,,,127487,,,instructions,"[{""page_index"":0,""viewing_time"":48528},{""page_index"":1,""viewing_time"":32014},{""page_index"":2,""viewing_time"":24362},{""page_index"":3,""viewing_time"":22581}]",163
,,,,,,,,,148481,,,148483,,,instructions,"[{""page_index"":0,""viewing_time"":57338},{""page_index"":1,""viewing_time"":35000},{""page_index"":2,""viewing_time"":37802},{""page_index"":3,""viewing_time"":18339}]",164
,,,,,,,,,22196,,,22196,,,instructions,"[{""page_index"":0,""viewing_time"":7176},{""page_index"":1,""viewing_time"":4268},{""page_index"":2,""viewing_time"":3385},{""page_index"":3,""viewing_time"":7366}]",165
,,,,,,,,,19934,,,59846,,,instructions,"[{""page_index"":0,""viewing_time"":5866},{""page_index"":1,""viewing_time"":3045},{""page_index"":2,""viewing_time"":6525},{""page_index"":3,""viewing_time"":4497}]",165
,,,,,,,,,11419,,,93143,,,instructions,"[{""page_index"":0,""viewing_time"":1168},{""page_index"":1,""viewing_time"":1901},{""page_index"":2,""viewing_time"":7683},{""page_index"":3,""viewing_time"":666}]",165
,,,,,,,,,34019,,,140918,,,instructions,"[{""page_index"":0,""viewing_time"":6463},{""page_index"":1,""viewing_time"":4797},{""page_index"":2,""viewing_time"":17055},{""page_index"":3,""viewing_time"":5703}]",165
,,,,,,,,,116598,,,116601,,,instructions,"[{""page_index"":0,""viewing_time"":49762},{""page_index"":1,""viewing_time"":22325},{""page_index"":2,""viewing_time"":26667},{""page_index"":3,""viewing_time"":17843}]",166
,,,,,,,,,35200,,,177091,,,instructions,"[{""page_index"":0,""viewing_time"":5527},{""page_index"":1,""viewing_time"":13095},{""page_index"":2,""viewing_time"":8563},{""page_index"":3,""viewing_time"":8014}]",166
,,,,,,,,,118604,,,118608,,,instructions,"[{""page_index"":0,""viewing_time"":49739},{""page_index"":1,""viewing_time"":33315},{""page_index"":2,""viewing_time"":18876},{""page_index"":3,""viewing_time"":16672}]",167
,,,,,,,,,54420,,,191719,,,instructions,"[{""page_index"":0,""viewing_time"":14789},{""page_index"":1,""viewing_time"":10488},{""page_index"":2,""viewing_time"":22643},{""page_index"":3,""viewing_time"":6499}]",167
,,,,,,,,,25719,,,240080,,,instructions,"[{""page_index"":0,""viewing_time"":7571},{""page_index"":1,""viewing_time"":2699},{""page_index"":2,""viewing_time"":11296},{""page_index"":3,""viewing_time"":4152}]",167
,,,,,,,,,111062,,,111063,,,instructions,"[{""page_index"":0,""viewing_time"":46419},{""page_index"":1,""viewing_time"":45684},{""page_index"":2,""viewing_time"":18957}]",168
,,,,,,,,,460049,,,460050,,,instructions,"[{""page_index"":0,""viewing_time"":114943},{""page_index"":1,""viewing_time"":130496},{""page_index"":2,""viewing_time"":41288},{""page_index"":1,""viewing_time"":857},{""page_index"":0,""viewing_time"":62716},{""page_index"":1,""viewing_time"":36707},{""page_index"":0,""viewing_time"":10834},{""page_index"":1,""viewing_time"":7862},{""page_index"":2,""viewing_time"":10504},{""page_index"":1,""viewing_time"":35223},{""page_index"":2,""viewing_time"":8619}]",169
,,,,,,,,,353939,,,863180,,,instructions,"[{""page_index"":0,""viewing_time"":48822},{""page_index"":1,""viewing_time"":34820},{""page_index"":2,""viewing_time"":62185},{""page_index"":1,""viewing_time"":37820},{""page_index"":0,""viewing_time"":23526},{""page_index"":1,""viewing_time"":47953},{""page_index"":2,""viewing_time"":32502},{""page_index"":1,""viewing_time"":46783},{""page_index"":2,""viewing_time"":19528}]",169
,,,,,,,,,115155,,,115156,,,instructions,"[{""page_index"":0,""viewing_time"":28404},{""page_index"":1,""viewing_time"":30779},{""page_index"":2,""viewing_time"":36183},{""page_index"":3,""viewing_time"":19789}]",170
,,,,,,,,,115790,,,115791,,,instructions,"[{""page_index"":0,""viewing_time"":33301},{""page_index"":1,""viewing_time"":30750},{""page_index"":2,""viewing_time"":33592},{""page_index"":3,""viewing_time"":18147}]",171
,,,,,,,,,145324,,,145326,,,instructions,"[{""page_index"":0,""viewing_time"":59863},{""page_index"":1,""viewing_time"":53675},{""page_index"":2,""viewing_time"":31785}]",172
,,,,,,,,,110023,,,110026,,,instructions,"[{""page_index"":0,""viewing_time"":47246},{""page_index"":1,""viewing_time"":46581},{""page_index"":2,""viewing_time"":16194}]",173
,,,,,,,,,143189,,,143193,,,instructions,"[{""page_index"":0,""viewing_time"":44278},{""page_index"":1,""viewing_time"":45050},{""page_index"":2,""viewing_time"":28759},{""page_index"":3,""viewing_time"":25099}]",174
,,,,,,,,,97933,,,97934,,,instructions,"[{""page_index"":0,""viewing_time"":35578},{""page_index"":1,""viewing_time"":33942},{""page_index"":2,""viewing_time"":3707},{""page_index"":1,""viewing_time"":2805},{""page_index"":2,""viewing_time"":21899}]",175
,,,,,,,,,139306,,,139309,,,instructions,"[{""page_index"":0,""viewing_time"":47546},{""page_index"":1,""viewing_time"":27286},{""page_index"":2,""viewing_time"":42045},{""page_index"":3,""viewing_time"":22427}]",176
,,,,,,,,,118492,,,118492,,,instructions,"[{""page_index"":0,""viewing_time"":43026},{""page_index"":1,""viewing_time"":25950},{""page_index"":2,""viewing_time"":33347},{""page_index"":3,""viewing_time"":16167}]",177
,,,,,,,,,59813,,,216401,,,instructions,"[{""page_index"":0,""viewing_time"":7371},{""page_index"":1,""viewing_time"":18430},{""page_index"":2,""viewing_time"":30185},{""page_index"":3,""viewing_time"":3826}]",177
,,,,,,,,,135801,,,135803,,,instructions,"[{""page_index"":0,""viewing_time"":55757},{""page_index"":1,""viewing_time"":37970},{""page_index"":2,""viewing_time"":23514},{""page_index"":3,""viewing_time"":18558}]",178
,,,,,,,,,69304,,,240228,,,instructions,"[{""page_index"":0,""viewing_time"":8931},{""page_index"":1,""viewing_time"":32468},{""page_index"":2,""viewing_time"":25787},{""page_index"":3,""viewing_time"":2116}]",178
,,,,,,,,,172859,,,172862,,,instructions,"[{""page_index"":0,""viewing_time"":51938},{""page_index"":1,""viewing_time"":49288},{""page_index"":2,""viewing_time"":51316},{""page_index"":3,""viewing_time"":20315}]",179
,,,,,,,,,14287,,,14295,,,instructions,"[{""page_index"":0,""viewing_time"":11633},{""page_index"":1,""viewing_time"":1116},{""page_index"":2,""viewing_time"":782},{""page_index"":3,""viewing_time"":748}]",180
,,,,,,,,,21422,,,61264,,,instructions,"[{""page_index"":0,""viewing_time"":10038},{""page_index"":1,""viewing_time"":5053},{""page_index"":2,""viewing_time"":3723},{""page_index"":3,""viewing_time"":2604}]",180
,,,,,,,,,29511,,,142041,,,instructions,"[{""page_index"":0,""viewing_time"":4701},{""page_index"":1,""viewing_time"":7248},{""page_index"":2,""viewing_time"":8696},{""page_index"":3,""viewing_time"":8864}]",180
,,,,,,,,,100678,,,259925,,,instructions,"[{""page_index"":0,""viewing_time"":74595},{""page_index"":1,""viewing_time"":11809},{""page_index"":2,""viewing_time"":9656},{""page_index"":3,""viewing_time"":4617}]",180
,,,,,,,,,51610,,,51612,,,instructions,"[{""page_index"":0,""viewing_time"":14666},{""page_index"":1,""viewing_time"":13680},{""page_index"":2,""viewing_time"":13831},{""page_index"":3,""viewing_time"":9432}]",181
,,,,,,,,,77408,,,176012,,,instructions,"[{""page_index"":0,""viewing_time"":5959},{""page_index"":1,""viewing_time"":16648},{""page_index"":2,""viewing_time"":38436},{""page_index"":3,""viewing_time"":16365}]",181
,,,,,,,,,130522,,,130533,,,instructions,"[{""page_index"":0,""viewing_time"":39133},{""page_index"":1,""viewing_time"":31675},{""page_index"":2,""viewing_time"":32426},{""page_index"":3,""viewing_time"":27288}]",182
,,,,,,,,,57027,,,57029,,,instructions,"[{""page_index"":0,""viewing_time"":20374},{""page_index"":1,""viewing_time"":16919},{""page_index"":2,""viewing_time"":19734}]",183
,,,,,,,,,109465,,,109467,,,instructions,"[{""page_index"":0,""viewing_time"":20427},{""page_index"":1,""viewing_time"":34737},{""page_index"":2,""viewing_time"":39524},{""page_index"":3,""viewing_time"":14775}]",184
,,,,,,,,,182346,,,182348,,,instructions,"[{""page_index"":0,""viewing_time"":75030},{""page_index"":1,""viewing_time"":42308},{""page_index"":2,""viewing_time"":34888},{""page_index"":3,""viewing_time"":30119}]",185
,,,,,,,,,22655,,,272917,,,instructions,"[{""page_index"":0,""viewing_time"":2334},{""page_index"":1,""viewing_time"":2285},{""page_index"":2,""viewing_time"":15793},{""page_index"":3,""viewing_time"":2242}]",185
,,,,,,,,,31511,,,323766,,,instructions,"[{""page_index"":0,""viewing_time"":17611},{""page_index"":1,""viewing_time"":11779},{""page_index"":2,""viewing_time"":1247},{""page_index"":3,""viewing_time"":873}]",185
,,,,,,,,,38981,,,382852,,,instructions,"[{""page_index"":0,""viewing_time"":3147},{""page_index"":1,""viewing_time"":3764},{""page_index"":2,""viewing_time"":21697},{""page_index"":3,""viewing_time"":10372}]",185
,,,,,,,,,3588,,,417422,,,instructions,"[{""page_index"":0,""viewing_time"":721},{""page_index"":1,""viewing_time"":637},{""page_index"":2,""viewing_time"":810},{""page_index"":3,""viewing_time"":1420}]",185
,,,,,,,,,147241,,,147244,,,instructions,"[{""page_index"":0,""viewing_time"":18600},{""page_index"":1,""viewing_time"":20628},{""page_index"":2,""viewing_time"":108012}]",186
,,,,,,,,,280753,,,280756,,,instructions,"[{""page_index"":0,""viewing_time"":87999},{""page_index"":1,""viewing_time"":43683},{""page_index"":2,""viewing_time"":63982},{""page_index"":3,""viewing_time"":85086}]",187
,,,,,,,,,198244,,,198245,,,instructions,"[{""page_index"":0,""viewing_time"":49600},{""page_index"":1,""viewing_time"":52943},{""page_index"":2,""viewing_time"":64882},{""page_index"":3,""viewing_time"":30819}]",188
,,,,,,,,,97099,,,97100,,,instructions,"[{""page_index"":0,""viewing_time"":40983},{""page_index"":1,""viewing_time"":33750},{""page_index"":2,""viewing_time"":22365}]",189
,,,,,,,,,37645,,,37646,,,instructions,"[{""page_index"":0,""viewing_time"":13375},{""page_index"":1,""viewing_time"":11853},{""page_index"":2,""viewing_time"":12416}]",190
,,,,,,,,,124097,,,124099,,,instructions,"[{""page_index"":0,""viewing_time"":31857},{""page_index"":1,""viewing_time"":30136},{""page_index"":2,""viewing_time"":14984},{""page_index"":1,""viewing_time"":1336},{""page_index"":0,""viewing_time"":8031},{""page_index"":1,""viewing_time"":23616},{""page_index"":2,""viewing_time"":14136}]",191
,,,,,,,,,298701,,,298703,,,instructions,"[{""page_index"":0,""viewing_time"":75347},{""page_index"":1,""viewing_time"":80500},{""page_index"":2,""viewing_time"":97022},{""page_index"":3,""viewing_time"":45830}]",192
,,,,,,,,,44334,,,503022,,,instructions,"[{""page_index"":0,""viewing_time"":15224},{""page_index"":1,""viewing_time"":3169},{""page_index"":2,""viewing_time"":20506},{""page_index"":3,""viewing_time"":5434}]",192
,,,,,,,,,25923,,,597114,,,instructions,"[{""page_index"":0,""viewing_time"":20534},{""page_index"":1,""viewing_time"":1957},{""page_index"":2,""viewing_time"":1798},{""page_index"":3,""viewing_time"":1633}]",192
,,,,,,,,,59071,,,59072,,,instructions,"[{""page_index"":0,""viewing_time"":30611},{""page_index"":1,""viewing_time"":15148},{""page_index"":2,""viewing_time"":13311}]",193
,,,,,,,,,24134,,,110102,,,instructions,"[{""page_index"":0,""viewing_time"":2743},{""page_index"":1,""viewing_time"":15874},{""page_index"":2,""viewing_time"":5516}]",193
,,,,,,,,,227484,,,227486,,,instructions,"[{""page_index"":0,""viewing_time"":74339},{""page_index"":1,""viewing_time"":49747},{""page_index"":0,""viewing_time"":6180},{""page_index"":1,""viewing_time"":3696},{""page_index"":2,""viewing_time"":56816},{""page_index"":3,""viewing_time"":36705}]",194
,,,,,,,,,134895,,,134903,,,instructions,"[{""page_index"":0,""viewing_time"":61584},{""page_index"":1,""viewing_time"":48722},{""page_index"":2,""viewing_time"":24576}]",195
,,,,,,,,,55733,,,55733,,,instructions,"[{""page_index"":0,""viewing_time"":25852},{""page_index"":1,""viewing_time"":17848},{""page_index"":2,""viewing_time"":12032}]",196
,,,,,,,,,25623,,,122861,,,instructions,"[{""page_index"":0,""viewing_time"":2142},{""page_index"":1,""viewing_time"":2200},{""page_index"":2,""viewing_time"":6400},{""page_index"":1,""viewing_time"":13993},{""page_index"":2,""viewing_time"":887}]",196
,,,,,,,,,10937,,,10938,,,instructions,"[{""page_index"":0,""viewing_time"":4168},{""page_index"":1,""viewing_time"":3835},{""page_index"":2,""viewing_time"":2932}]",197
,,,,,,,,,115470,,,115473,,,instructions,"[{""page_index"":0,""viewing_time"":37475},{""page_index"":1,""viewing_time"":54764},{""page_index"":2,""viewing_time"":23229}]",198
,,,,,,,,,163836,,,163838,,,instructions,"[{""page_index"":0,""viewing_time"":59576},{""page_index"":1,""viewing_time"":99345},{""page_index"":2,""viewing_time"":4913}]",199
,,,,,,,,,103671,,,320783,,,instructions,"[{""page_index"":0,""viewing_time"":41396},{""page_index"":1,""viewing_time"":34136},{""page_index"":2,""viewing_time"":28138}]",199
,,,,,,,,,148719,,,148720,,,instructions,"[{""page_index"":0,""viewing_time"":48318},{""page_index"":1,""viewing_time"":65502},{""page_index"":2,""viewing_time"":34898}]",200
,,,,,,,,,260271,,,260272,,,instructions,"[{""page_index"":0,""viewing_time"":78807},{""page_index"":1,""viewing_time"":65248},{""page_index"":2,""viewing_time"":89648},{""page_index"":3,""viewing_time"":26567}]",201
,,,,,,,,,78549,,,78549,,,instructions,"[{""page_index"":0,""viewing_time"":35544},{""page_index"":1,""viewing_time"":23927},{""page_index"":2,""viewing_time"":19076}]",202
,,,,,,,,,52776,,,52777,,,instructions,"[{""page_index"":0,""viewing_time"":31942},{""page_index"":1,""viewing_time"":8015},{""page_index"":2,""viewing_time"":7513},{""page_index"":3,""viewing_time"":5305}]",203
,,,,,,,,,52641,,,134735,,,instructions,"[{""page_index"":0,""viewing_time"":7088},{""page_index"":1,""viewing_time"":21408},{""page_index"":2,""viewing_time"":12584},{""page_index"":3,""viewing_time"":11561}]",203
,,,,,,,,,5847,,,238157,,,instructions,"[{""page_index"":0,""viewing_time"":1695},{""page_index"":1,""viewing_time"":1343},{""page_index"":2,""viewing_time"":1400},{""page_index"":3,""viewing_time"":1407}]",203
,,,,,,,,,141276,,,141278,,,instructions,"[{""page_index"":0,""viewing_time"":65651},{""page_index"":1,""viewing_time"":22140},{""page_index"":2,""viewing_time"":22606},{""page_index"":3,""viewing_time"":30878}]",204
,,,,,,,,,110069,,,110069,,,instructions,"[{""page_index"":0,""viewing_time"":33752},{""page_index"":1,""viewing_time"":22959},{""page_index"":2,""viewing_time"":36540},{""page_index"":3,""viewing_time"":16817}]",205
,,,,,,,,,115132,,,115135,,,instructions,"[{""page_index"":0,""viewing_time"":18266},{""page_index"":1,""viewing_time"":25398},{""page_index"":2,""viewing_time"":5895},{""page_index"":1,""viewing_time"":9805},{""page_index"":2,""viewing_time"":43659},{""page_index"":3,""viewing_time"":12105}]",206
,,,,,,,,,136732,,,136733,,,instructions,"[{""page_index"":0,""viewing_time"":42274},{""page_index"":1,""viewing_time"":34719},{""page_index"":2,""viewing_time"":40771},{""page_index"":3,""viewing_time"":18967}]",207
,,,,,,,,,112906,,,112907,,,instructions,"[{""page_index"":0,""viewing_time"":49456},{""page_index"":1,""viewing_time"":42040},{""page_index"":2,""viewing_time"":21409}]",208
,,,,,,,,,99752,,,254307,,,instructions,"[{""page_index"":0,""viewing_time"":56237},{""page_index"":1,""viewing_time"":27911},{""page_index"":2,""viewing_time"":15603}]",208
,,,,,,,,,38215,,,322077,,,instructions,"[{""page_index"":0,""viewing_time"":16209},{""page_index"":1,""viewing_time"":11104},{""page_index"":2,""viewing_time"":10901}]",208
,,,,,,,,,122254,,,469936,,,instructions,"[{""page_index"":0,""viewing_time"":44167},{""page_index"":1,""viewing_time"":47070},{""page_index"":2,""viewing_time"":31016}]",208
,,,,,,,,,117428,,,117428,,,instructions,"[{""page_index"":0,""viewing_time"":48433},{""page_index"":1,""viewing_time"":19080},{""page_index"":2,""viewing_time"":28595},{""page_index"":3,""viewing_time"":21319}]",209
,,,,,,,,,95593,,,95593,,,instructions,"[{""page_index"":0,""viewing_time"":23796},{""page_index"":1,""viewing_time"":31205},{""page_index"":2,""viewing_time"":40591}]",210
,,,,,,,,,92097,,,92097,,,instructions,"[{""page_index"":0,""viewing_time"":38348},{""page_index"":1,""viewing_time"":16960},{""page_index"":2,""viewing_time"":20804},{""page_index"":3,""viewing_time"":15985}]",211
,,,,,,,,,105936,,,105937,,,instructions,"[{""page_index"":0,""viewing_time"":42572},{""page_index"":1,""viewing_time"":25367},{""page_index"":2,""viewing_time"":23060},{""page_index"":3,""viewing_time"":14936}]",212
,,,,,,,,,166665,,,166667,,,instructions,"[{""page_index"":0,""viewing_time"":65603},{""page_index"":1,""viewing_time"":39938},{""page_index"":2,""viewing_time"":37753},{""page_index"":3,""viewing_time"":23370}]",213
,,,,,,,,,156580,,,156581,,,instructions,"[{""page_index"":0,""viewing_time"":54626},{""page_index"":1,""viewing_time"":38156},{""page_index"":2,""viewing_time"":34654},{""page_index"":3,""viewing_time"":29143}]",214
,,,,,,,,,19464,,,244236,,,instructions,"[{""page_index"":0,""viewing_time"":14532},{""page_index"":1,""viewing_time"":2114},{""page_index"":2,""viewing_time"":1932},{""page_index"":3,""viewing_time"":885}]",214
,,,,,,,,,130624,,,130625,,,instructions,"[{""page_index"":0,""viewing_time"":34015},{""page_index"":1,""viewing_time"":33453},{""page_index"":2,""viewing_time"":39549},{""page_index"":3,""viewing_time"":23605}]",215
