action_times,actions,button_pressed,correct,delays,path,queries,questions,responses,rt,score,stimulus,time_elapsed,trial_index,trial_i,trial_type,view_history,pid
"[7606, 21502, 23497]","[u'right', u'right', u'down']",,,"[11, 0, 0]","[u'1', 2, 6, 11]","{u'mouseover': {u'state': {u'target': [], u'time': []}, u'edge': {u'target': [], u'time': []}}, u'click': {u'state': {u'target': [u'2', u'6', u'10'], u'time': [2317, 5729, 6597]}, u'edge': {u'target': [], u'time': []}}, u'mouseout': {u'state': {u'target': [], u'time': []}, u'edge': {u'target': [], u'time': []}}}",,,"[7605, 358, 1163]",29.6,,152294,1.0,6.0,mouselab-mdp,,0
"[9988, 23494, 25702]","[u'down', u'down', u'left']",,,"[9, 0, 0]","[u'1', 5, 9, 16]","{u'mouseover': {u'state': {u'target': [], u'time': []}, u'edge': {u'target': [], u'time': []}}, u'click': {u'state': {u'target': [u'6', u'5'], u'time': [3726, 6642]}, u'edge': {u'target': [], u'time': []}}, u'mouseout': {u'state': {u'target': [], u'time': []}, u'edge': {u'target': [], u'time': []}}}",,,"[9988, 2357, 1380]",28.4,,224688,2.0,7.0,mouselab-mdp,,0
"[9127, 30966, 33092]","[u'right', u'right', u'down']",,,"[18, 0, 0]","[u'1', 2, 6, 11]","{u'mouseover': {u'state': {u'target': [], u'time': []}, u'edge': {u'target': [], u'time': []}}, u'click': {u'state': {u'target': [u'3', u'4', u'5', u'2'], u'time': [5663, 6541, 7408, 8115]}, u'edge': {u'target': [], u'time': []}}, u'mouseout': {u'state': {u'target': [], u'time': []}, u'edge': {u'target': [], u'time': []}}}",,,"[9127, 1133, 1260]",-1.2,,291248,3.0,10.0,mouselab-mdp,,0
"[4739, 17448, 19308]","[u'left', u'left', u'up']",,,"[9, 0, 0]","[u'1', 4, 8, 14]","{u'mouseover': {u'state': {u'target': [], u'time': []}, u'edge': {u'target': [], u'time': []}}, u'click': {u'state': {u'target': [u'3', u'4'], u'time': [2617, 3681]}, u'edge': {u'target': [], u'time': []}}, u'mouseout': {u'state': {u'target': [], u'time': []}, u'edge': {u'target': [], u'time': []}}}",,,"[4739, 1491, 1005]",10.4,,347877,4.0,4.0,mouselab-mdp,,0
"[5115, 19254, 23824]","[u'down', u'down', u'right']",,,"[9, 3, 0]","[u'1', 5, 9, 17]","{u'mouseover': {u'state': {u'target': [], u'time': []}, u'edge': {u'target': [], u'time': []}}, u'click': {u'state': {u'target': [u'2', u'5', u'16'], u'time': [2507, 3317, 17978]}, u'edge': {u'target': [], u'time': []}}, u'mouseout': {u'state': {u'target': [], u'time': []}, u'edge': {u'target': [], u'time': []}}}",,,"[5115, 2128, 74]",1.6,,412102,5.0,0.0,mouselab-mdp,,0
"[14537, 27178, 28514]","[u'up', u'up', u'right']",,,"[9, 0, 0]","[u'1', 3, 7, 13]","{u'mouseover': {u'state': {u'target': [], u'time': []}, u'edge': {u'target': [], u'time': []}}, u'click': {u'state': {u'target': [u'3', u'13'], u'time': [11353, 13144]}, u'edge': {u'target': [], u'time': []}}, u'mouseout': {u'state': {u'target': [], u'time': []}, u'edge': {u'target': [], u'time': []}}}",,,"[14536, 812, 312]",29.4,,470237,6.0,8.0,mouselab-mdp,,0
"[12255, 56649, 57799]","[u'down', u'down', u'left']",,,"[29, 0, 0]","[u'1', 5, 9, 16]","{u'mouseover': {u'state': {u'target': [], u'time': []}, u'edge': {u'target': [], u'time': []}}, u'click': {u'state': {u'target': [u'2', u'4', u'3', u'5', u'13', u'16', u'12'], u'time': [3040, 3811, 4455, 5235, 6829, 7819, 10459]}, u'edge': {u'target': [], u'time': []}}, u'mouseout': {u'state': {u'target': [], u'time': []}, u'edge': {u'target': [], u'time': []}}}",,,"[12254, 10854, 121]",26.4,,550661,7.0,1.0,mouselab-mdp,,0
"[13661, 71515, 72658]","[u'right', u'right', u'up']",,,"[47, 0, 0]","[u'1', 2, 6, 10]","{u'mouseover': {u'state': {u'target': [], u'time': []}, u'edge': {u'target': [], u'time': []}}, u'click': {u'state': {u'target': [u'5', u'17', u'16', u'12', u'13', u'2', u'10', u'11', u'14', u'15', u'4'], u'time': [2060, 3169, 3859, 6247, 6975, 7777, 8320, 8945, 10069, 10737, 12551]}, u'edge': {u'target': [], u'time': []}}, u'mouseout': {u'state': {u'target': [], u'time': []}, u'edge': {u'target': [], u'time': []}}}",,,"[13661, 4461, 3]",3.2,,655932,8.0,3.0,mouselab-mdp,,0
"[5227, 31358, 32309]","[u'right', u'right', u'down']",,,"[12, 0, 0]","[u'1', 2, 6, 11]","{u'mouseover': {u'state': {u'target': [], u'time': []}, u'edge': {u'target': [], u'time': []}}, u'click': {u'state': {u'target': [u'2', u'10', u'11'], u'time': [2295, 3028, 4206]}, u'edge': {u'target': [], u'time': []}}, u'mouseout': {u'state': {u'target': [], u'time': []}, u'edge': {u'target': [], u'time': []}}}",,,"[5227, 10409, 2]",29.6,,717483,9.0,11.0,mouselab-mdp,,0
"[5239, 15193, 24307]","[u'left', u'left', u'down']",,,"[4, 6, 0]","[u'1', 4, 8, 15]","{u'mouseover': {u'state': {u'target': [], u'time': []}, u'edge': {u'target': [], u'time': []}}, u'click': {u'state': {u'target': [u'4', u'15', u'14'], u'time': [3722, 13190, 14056]}, u'edge': {u'target': [], u'time': []}}, u'mouseout': {u'state': {u'target': [], u'time': []}, u'edge': {u'target': [], u'time': []}}}",,,"[5239, 2933, 1347]",19.6,,781407,10.0,9.0,mouselab-mdp,,0
"[12183, 48883, 49813]","[u'down', u'down', u'right']",,,"[28, 0, 0]","[u'1', 5, 9, 17]","{u'mouseover': {u'state': {u'target': [], u'time': []}, u'edge': {u'target': [], u'time': []}}, u'click': {u'state': {u'target': [u'2', u'4', u'3', u'5', u'17', u'16'], u'time': [8248, 8911, 9456, 9896, 10917, 11420]}, u'edge': {u'target': [], u'time': []}}, u'mouseout': {u'state': {u'target': [], u'time': []}, u'edge': {u'target': [], u'time': []}}}",,,"[12182, 3850, 3]",-12.8,,861186,11.0,2.0,mouselab-mdp,,0
"[6495, 31545, 32929]","[u'left', u'left', u'up']",,,"[20, 0, 0]","[u'1', 4, 8, 14]","{u'mouseover': {u'state': {u'target': [], u'time': []}, u'edge': {u'target': [], u'time': []}}, u'click': {u'state': {u'target': [u'2', u'10', u'11', u'14', u'4'], u'time': [1769, 2955, 3398, 4543, 5436]}, u'edge': {u'target': [], u'time': []}}, u'mouseout': {u'state': {u'target': [], u'time': []}, u'edge': {u'target': [], u'time': []}}}",,,"[6495, 1167, 444]",20.0,,930892,12.0,5.0,mouselab-mdp,,0
"[6288, 14545, 20523]","[u'right', u'right', u'down']",,,"[5, 0, 1]","[u'1', 2, 6, 11]","{u'mouseover': {u'state': {u'target': [], u'time': []}, u'edge': {u'target': [], u'time': []}}, u'click': {u'state': {u'target': [u'2', u'10'], u'time': [4553, 17692]}, u'edge': {u'target': [], u'time': []}}, u'mouseout': {u'state': {u'target': [], u'time': []}, u'edge': {u'target': [], u'time': []}}}",,,"[6287, 1515, 5210]",1.98,,195010,1.0,7.0,mouselab-mdp,,1
"[8215, 15550, 18634]","[u'right', u'right', u'up']",,,"[5, 0, 1]","[u'1', 2, 6, 10]","{u'mouseover': {u'state': {u'target': [], u'time': []}, u'edge': {u'target': [], u'time': []}}, u'click': {u'state': {u'target': [u'2', u'6', u'10'], u'time': [3031, 7108, 17074]}, u'edge': {u'target': [], u'time': []}}, u'mouseout': {u'state': {u'target': [], u'time': []}, u'edge': {u'target': [], u'time': []}}}",,,"[8214, 492, 2179]",33.97,,253946,2.0,3.0,mouselab-mdp,,1
"[5704, 16149, 22683]","[u'up', u'up', u'left']",,,"[5, 0, 1]","[u'1', 3, 7, 12]","{u'mouseover': {u'state': {u'target': [], u'time': []}, u'edge': {u'target': [], u'time': []}}, u'click': {u'state': {u'target': [u'2', u'3', u'12'], u'time': [1593, 3165, 19310]}, u'edge': {u'target': [], u'time': []}}, u'mouseout': {u'state': {u'target': [], u'time': []}, u'edge': {u'target': [], u'time': []}}}",,,"[5704, 3542, 5742]",36.97,,313140,3.0,9.0,mouselab-mdp,,1
"[4054, 11842, 22919]","[u'up', u'up', u'right']",,,"[5, 0, 1]","[u'1', 3, 7, 13]","{u'mouseover': {u'state': {u'target': [], u'time': []}, u'edge': {u'target': [], u'time': []}}, u'click': {u'state': {u'target': [u'3', u'12', u'13'], u'time': [1570, 15184, 17979]}, u'edge': {u'target': [], u'time': []}}, u'mouseout': {u'state': {u'target': [], u'time': []}, u'edge': {u'target': [], u'time': []}}}",,,"[4054, 1104, 10313]",0.97,,370140,4.0,5.0,mouselab-mdp,,1
"[9110, 16690, 19583]","[u'up', u'up', u'right']",,,"[5, 0, 1]","[u'1', 3, 7, 13]","{u'mouseover': {u'state': {u'target': [], u'time': []}, u'edge': {u'target': [], u'time': []}}, u'click': {u'state': {u'target': [u'3', u'13'], u'time': [3499, 5934]}, u'edge': {u'target': [], u'time': []}}, u'mouseout': {u'state': {u'target': [], u'time': []}, u'edge': {u'target': [], u'time': []}}}",,,"[9110, 734, 2144]",8.98,,434003,5.0,6.0,mouselab-mdp,,1
"[11776, 23069, 28766]","[u'right', u'right', u'up']",,,"[5, 0, 1]","[u'1', 2, 6, 10]","{u'mouseover': {u'state': {u'target': [], u'time': []}, u'edge': {u'target': [], u'time': []}}, u'click': {u'state': {u'target': [u'3', u'4', u'5', u'2', u'10'], u'time': [5138, 6846, 8120, 9340, 25412]}, u'edge': {u'target': [], u'time': []}}, u'mouseout': {u'state': {u'target': [], u'time': []}, u'edge': {u'target': [], u'time': []}}}",,,"[11776, 3928, 4878]",21.95,,493265,6.0,10.0,mouselab-mdp,,1
"[5864, 13759, 21441]","[u'down', u'down', u'right']",,,"[5, 0, 1]","[u'1', 5, 9, 17]","{u'mouseover': {u'state': {u'target': [], u'time': []}, u'edge': {u'target': [], u'time': []}}, u'click': {u'state': {u'target': [u'5', u'16'], u'time': [3272, 16358]}, u'edge': {u'target': [], u'time': []}}, u'mouseout': {u'state': {u'target': [], u'time': []}, u'edge': {u'target': [], u'time': []}}}",,,"[5863, 1093, 6874]",41.98,,549770,7.0,4.0,mouselab-mdp,,1
"[3942, 12055, 17235]","[u'up', u'up', u'left']",,,"[5, 0, 1]","[u'1', 3, 7, 12]","{u'mouseover': {u'state': {u'target': [], u'time': []}, u'edge': {u'target': [], u'time': []}}, u'click': {u'state': {u'target': [u'3', u'12'], u'time': [2505, 14831]}, u'edge': {u'target': [], u'time': []}}, u'mouseout': {u'state': {u'target': [], u'time': []}, u'edge': {u'target': [], u'time': []}}}",,,"[3942, 1340, 4385]",40.98,,605828,8.0,8.0,mouselab-mdp,,1
"[4858, 12222, 17677]","[u'up', u'up', u'right']",,,"[5, 0, 1]","[u'1', 3, 7, 13]","{u'mouseover': {u'state': {u'target': [], u'time': []}, u'edge': {u'target': [], u'time': []}}, u'click': {u'state': {u'target': [u'3', u'12'], u'time': [2510, 14658]}, u'edge': {u'target': [], u'time': []}}, u'mouseout': {u'state': {u'target': [], u'time': []}, u'edge': {u'target': [], u'time': []}}}",,,"[4858, 576, 4650]",24.98,,661727,9.0,11.0,mouselab-mdp,,1
"[3447, 15442, 20207]","[u'up', u'up', u'right']",,,"[5, 0, 1]","[u'1', 3, 7, 13]","{u'mouseover': {u'state': {u'target': [], u'time': []}, u'edge': {u'target': [], u'time': []}}, u'click': {u'state': {u'target': [u'3', u'7', u'12'], u'time': [1991, 12230, 17911]}, u'edge': {u'target': [], u'time': []}}, u'mouseout': {u'state': {u'target': [], u'time': []}, u'edge': {u'target': [], u'time': []}}}",,,"[3447, 5198, 3698]",20.97,,719084,10.0,1.0,mouselab-mdp,,1
"[11301, 19627, 29113]","[u'down', u'down', u'right']",,,"[5, 0, 1]","[u'1', 5, 9, 17]","{u'mouseover': {u'state': {u'target': [], u'time': []}, u'edge': {u'target': [], u'time': []}}, u'click': {u'state': {u'target': [u'4', u'3', u'2', u'5', u'16', u'17'], u'time': [3429, 6768, 7756, 9419, 21839, 24363]}, u'edge': {u'target': [], u'time': []}}, u'mouseout': {u'state': {u'target': [], u'time': []}, u'edge': {u'target': [], u'time': []}}}",,,"[11301, 838, 8624]",3.94,,782583,11.0,2.0,mouselab-mdp,,1
"[3575, 14202, 22194]","[u'up', u'up', u'right']",,,"[5, 0, 1]","[u'1', 3, 7, 13]","{u'mouseover': {u'state': {u'target': [], u'time': []}, u'edge': {u'target': [], u'time': []}}, u'click': {u'state': {u'target': [u'3', u'12'], u'time': [1901, 17680]}, u'edge': {u'target': [], u'time': []}}, u'mouseout': {u'state': {u'target': [], u'time': []}, u'edge': {u'target': [], u'time': []}}}",,,"[3575, 2802, 6952]",14.98,,842140,12.0,0.0,mouselab-mdp,,1
"[15423, 25524, 29540]","[u'right', u'right', u'up']",,,"[5, 0, 1]","[u'1', 2, 6, 10]","{u'mouseover': {u'state': {u'target': [], u'time': []}, u'edge': {u'target': [], u'time': []}}, u'click': {u'state': {u'target': [u'10', u'2'], u'time': [4550, 9022]}, u'edge': {u'target': [], u'time': []}}, u'mouseout': {u'state': {u'target': [], u'time': []}, u'edge': {u'target': [], u'time': []}}}",,,"[15422, 941, 2789]",28.4,,512404,1.0,3.0,mouselab-mdp,,2
"[4419, 27645, 33709]","[u'right', u'right', u'down']",,,"[5, 0, 1]","[u'1', 2, 6, 11]","{u'mouseover': {u'state': {u'target': [], u'time': []}, u'edge': {u'target': [], u'time': []}}, u'click': {u'state': {u'target': [], u'time': []}, u'edge': {u'target': [], u'time': []}}, u'mouseout': {u'state': {u'target': [], u'time': []}, u'edge': {u'target': [], u'time': []}}}",,,"[4419, 15169, 4804]",2.0,,583840,2.0,1.0,mouselab-mdp,,2
"[21332, 32591, 35072]","[u'down', u'down', u'right']",,,"[5, 0, 1]","[u'1', 5, 9, 17]","{u'mouseover': {u'state': {u'target': [], u'time': []}, u'edge': {u'target': [], u'time': []}}, u'click': {u'state': {u'target': [u'7', u'3', u'4', u'15', u'14', u'5', u'9'], u'time': [3296, 5725, 7185, 9566, 11192, 17483, 18850]}, u'edge': {u'target': [], u'time': []}}, u'mouseout': {u'state': {u'target': [], u'time': []}, u'edge': {u'target': [], u'time': []}}}",,,"[21332, 579, 1227]",22.4,,649558,3.0,4.0,mouselab-mdp,,2
"[7919, 19150, 28672]","[u'up', u'up', u'left']",,,"[5, 0, 1]","[u'1', 3, 7, 12]","{u'mouseover': {u'state': {u'target': [], u'time': []}, u'edge': {u'target': [], u'time': []}}, u'click': {u'state': {u'target': [u'5', u'2', u'3', u'13', u'12'], u'time': [2503, 4061, 5463, 25429, 26852]}, u'edge': {u'target': [], u'time': []}}, u'mouseout': {u'state': {u'target': [], u'time': []}, u'edge': {u'target': [], u'time': []}}}",,,"[7919, 1861, 8272]",23.0,,709672,4.0,9.0,mouselab-mdp,,2
"[6158, 15157, 23078]","[u'down', u'down', u'right']",,,"[5, 0, 1]","[u'1', 5, 9, 17]","{u'mouseover': {u'state': {u'target': [], u'time': []}, u'edge': {u'target': [], u'time': []}}, u'click': {u'state': {u'target': [u'5'], u'time': [2419]}, u'edge': {u'target': [], u'time': []}}, u'mouseout': {u'state': {u'target': [], u'time': []}, u'edge': {u'target': [], u'time': []}}}",,,"[6158, 457, 6737]",11.2,,767102,5.0,5.0,mouselab-mdp,,2
"[16272, 30812, 33449]","[u'up', u'up', u'right']",,,"[5, 0, 1]","[u'1', 3, 7, 13]","{u'mouseover': {u'state': {u'target': [], u'time': []}, u'edge': {u'target': [], u'time': []}}, u'click': {u'state': {u'target': [u'2', u'3', u'4', u'5', u'6', u'7', u'13', u'12'], u'time': [3692, 5101, 6518, 8076, 10325, 12935, 27343, 28356]}, u'edge': {u'target': [], u'time': []}}, u'mouseout': {u'state': {u'target': [], u'time': []}, u'edge': {u'target': [], u'time': []}}}",,,"[16272, 4115, 709]",-19.4,,829465,6.0,10.0,mouselab-mdp,,2
"[24709, 36543, 42743]","[u'right', u'right', u'down']",,,"[5, 0, 1]","[u'1', 2, 6, 11]","{u'mouseover': {u'state': {u'target': [], u'time': []}, u'edge': {u'target': [], u'time': []}}, u'click': {u'state': {u'target': [u'5', u'2', u'9', u'17', u'16', u'4', u'8', u'3', u'7', u'13', u'12', u'6', u'10', u'11'], u'time': [3143, 4285, 5850, 7026, 8039, 9372, 11075, 13821, 15407, 16382, 17971, 19801, 21710, 23009]}, u'edge': {u'target': [], u'time': []}}, u'mouseout': {u'state': {u'target': [], u'time': []}, u'edge': {u'target': [], u'time': []}}}",,,"[24708, 491, 5462]",-1.2,,889720,7.0,6.0,mouselab-mdp,,2
"[12036, 21820, 24788]","[u'right', u'right', u'down']",,,"[5, 0, 1]","[u'1', 2, 6, 11]","{u'mouseover': {u'state': {u'target': [], u'time': []}, u'edge': {u'target': [], u'time': []}}, u'click': {u'state': {u'target': [u'2', u'6', u'10', u'11'], u'time': [5354, 7559, 8770, 9928]}, u'edge': {u'target': [], u'time': []}}, u'mouseout': {u'state': {u'target': [], u'time': []}, u'edge': {u'target': [], u'time': []}}}",,,"[12035, 432, 1916]",26.8,,949423,8.0,11.0,mouselab-mdp,,2
"[13688, 30793, 39468]","[u'left', u'left', u'down']",,,"[5, 0, 1]","[u'1', 4, 8, 15]","{u'mouseover': {u'state': {u'target': [], u'time': []}, u'edge': {u'target': [], u'time': []}}, u'click': {u'state': {u'target': [u'2', u'3', u'5', u'9', u'17', u'16', u'4', u'8', u'15', u'14'], u'time': [3743, 4804, 5803, 7401, 8473, 9501, 10796, 11745, 36327, 37553]}, u'edge': {u'target': [], u'time': []}}, u'mouseout': {u'state': {u'target': [], u'time': []}, u'edge': {u'target': [], u'time': []}}}",,,"[13687, 6443, 7573]",-20.0,,1020336,9.0,2.0,mouselab-mdp,,2
"[18036, 34742, 40213]","[u'down', u'down', u'right']",,,"[5, 0, 1]","[u'1', 5, 9, 17]","{u'mouseover': {u'state': {u'target': [], u'time': []}, u'edge': {u'target': [], u'time': []}}, u'click': {u'state': {u'target': [u'2', u'6', u'11', u'10', u'5', u'4', u'3', u'7', u'13', u'12', u'9', u'17'], u'time': [1636, 3309, 4208, 5240, 6779, 8165, 9109, 10093, 11088, 12124, 15425, 16457]}, u'edge': {u'target': [], u'time': []}}, u'mouseout': {u'state': {u'target': [], u'time': []}, u'edge': {u'target': [], u'time': []}}}",,,"[18036, 5351, 4582]",0.4,,1083607,10.0,7.0,mouselab-mdp,,2
"[20832, 33496, 42241]","[u'left', u'left', u'up']",,,"[5, 0, 1]","[u'1', 4, 8, 14]","{u'mouseover': {u'state': {u'target': [], u'time': []}, u'edge': {u'target': [], u'time': []}}, u'click': {u'state': {u'target': [u'2', u'5', u'9', u'17', u'16', u'4', u'3', u'7', u'12', u'13', u'8', u'14'], u'time': [5381, 6594, 8013, 8861, 9791, 11090, 13053, 14056, 15057, 16141, 17600, 19320]}, u'edge': {u'target': [], u'time': []}}, u'mouseout': {u'state': {u'target': [], u'time': []}, u'edge': {u'target': [], u'time': []}}}",,,"[20831, 814, 7858]",6.4,,1144359,11.0,0.0,mouselab-mdp,,2
"[3597, 13988, 20850]","[u'right', u'right', u'up']",,,"[5, 0, 1]","[u'1', 2, 6, 10]","{u'mouseover': {u'state': {u'target': [], u'time': []}, u'edge': {u'target': [], u'time': []}}, u'click': {u'state': {u'target': [], u'time': []}, u'edge': {u'target': [], u'time': []}}, u'mouseout': {u'state': {u'target': [], u'time': []}, u'edge': {u'target': [], u'time': []}}}",,,"[3597, 2180, 5546]",28.0,,1202094,12.0,8.0,mouselab-mdp,,2
"[42945, 115792, 118695]","[u'right', u'right', u'up']",,,"[55, 0, 0]","[u'1', 2, 6, 10]","{u'mouseover': {u'state': {u'target': [], u'time': []}, u'edge': {u'target': [], u'time': []}}, u'click': {u'state': {u'target': [u'2', u'4', u'3', u'5', u'12', u'17', u'8', u'15', u'14', u'6', u'10', u'11'], u'time': [6712, 9785, 11021, 12163, 15592, 21762, 24152, 24783, 25856, 35606, 36447, 38088]}, u'edge': {u'target': [], u'time': []}}, u'mouseout': {u'state': {u'target': [], u'time': []}, u'edge': {u'target': [], u'time': []}}}",,,"[42944, 12317, 2134]",-25.6,,504480,1.0,1.0,mouselab-mdp,,3
"[7693, 35992, 41761]","[u'up', u'up', u'right']",,,"[17, 3, 0]","[u'1', 3, 7, 13]","{u'mouseover': {u'state': {u'target': [], u'time': []}, u'edge': {u'target': [], u'time': []}}, u'click': {u'state': {u'target': [u'2', u'5', u'4', u'3', u'13'], u'time': [2593, 3560, 4297, 4983, 33384]}, u'edge': {u'target': [], u'time': []}}, u'mouseout': {u'state': {u'target': [], u'time': []}, u'edge': {u'target': [], u'time': []}}}",,,"[7693, 7544, 1104]",17.0,,587802,2.0,9.0,mouselab-mdp,,3
"[11908, 31620, 38650]","[u'left', u'left', u'up']",,,"[13, 3, 0]","[u'1', 4, 8, 14]","{u'mouseover': {u'state': {u'target': [], u'time': []}, u'edge': {u'target': [], u'time': []}}, u'click': {u'state': {u'target': [u'2', u'5', u'4', u'14'], u'time': [4520, 8095, 9494, 29056]}, u'edge': {u'target': [], u'time': []}}, u'mouseout': {u'state': {u'target': [], u'time': []}, u'edge': {u'target': [], u'time': []}}}",,,"[11908, 3608, 2497]",22.8,,658686,3.0,5.0,mouselab-mdp,,3
"[5137, 17974, 23091]","[u'down', u'down', u'left']",,,"[9, 0, 4]","[u'1', 5, 9, 16]","{u'mouseover': {u'state': {u'target': [], u'time': []}, u'edge': {u'target': [], u'time': []}}, u'click': {u'state': {u'target': [u'2', u'5', u'17'], u'time': [2176, 3607, 21352]}, u'edge': {u'target': [], u'time': []}}, u'mouseout': {u'state': {u'target': [], u'time': []}, u'edge': {u'target': [], u'time': []}}}",,,"[5137, 750, 4037]",3.6,,723064,4.0,8.0,mouselab-mdp,,3
"[6493, 19363, 22871]","[u'down', u'down', u'right']",,,"[9, 0, 4]","[u'1', 5, 9, 17]","{u'mouseover': {u'state': {u'target': [], u'time': []}, u'edge': {u'target': [], u'time': []}}, u'click': {u'state': {u'target': [u'3', u'5', u'17'], u'time': [3404, 5055, 21614]}, u'edge': {u'target': [], u'time': []}}, u'mouseout': {u'state': {u'target': [], u'time': []}, u'edge': {u'target': [], u'time': []}}}",,,"[6493, 932, 2474]",33.6,,786935,5.0,4.0,mouselab-mdp,,3
"[6740, 29647, 33982]","[u'up', u'up', u'left']",,,"[13, 0, 4]","[u'1', 3, 7, 12]","{u'mouseover': {u'state': {u'target': [], u'time': []}, u'edge': {u'target': [], u'time': []}}, u'click': {u'state': {u'target': [u'2', u'4', u'3', u'13'], u'time': [3065, 4087, 5185, 32433]}, u'edge': {u'target': [], u'time': []}}, u'mouseout': {u'state': {u'target': [], u'time': []}, u'edge': {u'target': [], u'time': []}}}",,,"[6740, 6679, 3329]",-14.2,,859762,6.0,0.0,mouselab-mdp,,3
"[10976, 24682, 31943]","[u'right', u'right', u'up']",,,"[9, 0, 4]","[u'1', 2, 6, 10]","{u'mouseover': {u'state': {u'target': [], u'time': []}, u'edge': {u'target': [], u'time': []}}, u'click': {u'state': {u'target': [u'2', u'3', u'10'], u'time': [4210, 5201, 27137]}, u'edge': {u'target': [], u'time': []}}, u'mouseout': {u'state': {u'target': [], u'time': []}, u'edge': {u'target': [], u'time': []}}}",,,"[10976, 1698, 6221]",25.6,,938377,7.0,2.0,mouselab-mdp,,3
"[3558, 12166, 16414]","[u'right', u'right', u'down']",,,"[4, 0, 4]","[u'1', 2, 6, 11]","{u'mouseover': {u'state': {u'target': [], u'time': []}, u'edge': {u'target': [], u'time': []}}, u'click': {u'state': {u'target': [u'2', u'10'], u'time': [1895, 14335]}, u'edge': {u'target': [], u'time': []}}, u'mouseout': {u'state': {u'target': [], u'time': []}, u'edge': {u'target': [], u'time': []}}}",,,"[3558, 1926, 3198]",-3.6,,998474,8.0,7.0,mouselab-mdp,,3
"[6233, 20524, 23716]","[u'up', u'up', u'left']",,,"[9, 0, 4]","[u'1', 3, 7, 12]","{u'mouseover': {u'state': {u'target': [], u'time': []}, u'edge': {u'target': [], u'time': []}}, u'click': {u'state': {u'target': [u'2', u'4', u'13'], u'time': [1610, 2945, 22195]}, u'edge': {u'target': [], u'time': []}}, u'mouseout': {u'state': {u'target': [], u'time': []}, u'edge': {u'target': [], u'time': []}}}",,,"[6233, 2395, 2138]",-3.4,,1062849,9.0,6.0,mouselab-mdp,,3
"[3906, 22562, 29719]","[u'right', u'right', u'up']",,,"[4, 0, 4]","[u'1', 2, 6, 10]","{u'mouseover': {u'state': {u'target': [], u'time': []}, u'edge': {u'target': [], u'time': []}}, u'click': {u'state': {u'target': [u'2', u'10'], u'time': [1946, 25250]}, u'edge': {u'target': [], u'time': []}}, u'mouseout': {u'state': {u'target': [], u'time': []}, u'edge': {u'target': [], u'time': []}}}",,,"[3906, 11911, 6042]",16.4,,1126797,10.0,10.0,mouselab-mdp,,3
"[4285, 14638, 21369]","[u'right', u'right', u'up']",,,"[4, 0, 7]","[u'1', 2, 6, 10]","{u'mouseover': {u'state': {u'target': [], u'time': []}, u'edge': {u'target': [], u'time': []}}, u'click': {u'state': {u'target': [u'2', u'10'], u'time': [2850, 16433]}, u'edge': {u'target': [], u'time': []}}, u'mouseout': {u'state': {u'target': [], u'time': []}, u'edge': {u'target': [], u'time': []}}}",,,"[4285, 3622, 5657]",18.4,,1190209,11.0,11.0,mouselab-mdp,,3
"[2567, 10181, 18221]","[u'right', u'right', u'up']",,,"[4, 0, 4]","[u'1', 2, 6, 10]","{u'mouseover': {u'state': {u'target': [], u'time': []}, u'edge': {u'target': [], u'time': []}}, u'click': {u'state': {u'target': [u'2', u'10'], u'time': [856, 12518]}, u'edge': {u'target': [], u'time': []}}, u'mouseout': {u'state': {u'target': [], u'time': []}, u'edge': {u'target': [], u'time': []}}}",,,"[2567, 872, 6983]",28.4,,1254503,12.0,3.0,mouselab-mdp,,3
"[5168, 13542, 18866]","[u'right', u'right', u'up']",,,"[5, 0, 1]","[u'1', 2, 6, 10]","{u'mouseover': {u'state': {u'target': [], u'time': []}, u'edge': {u'target': [], u'time': []}}, u'click': {u'state': {u'target': [], u'time': []}, u'edge': {u'target': [], u'time': []}}, u'mouseout': {u'state': {u'target': [], u'time': []}, u'edge': {u'target': [], u'time': []}}}",,,"[5168, 1189, 4333]",24.0,,410810,1.0,11.0,mouselab-mdp,,5
"[3374, 12236, 18638]","[u'down', u'down', u'left']",,,"[5, 0, 1]","[u'1', 5, 9, 16]","{u'mouseover': {u'state': {u'target': [], u'time': []}, u'edge': {u'target': [], u'time': []}}, u'click': {u'state': {u'target': [], u'time': []}, u'edge': {u'target': [], u'time': []}}, u'mouseout': {u'state': {u'target': [], u'time': []}, u'edge': {u'target': [], u'time': []}}}",,,"[3374, 1687, 5423]",6.0,,471062,2.0,3.0,mouselab-mdp,,5
"[5316, 13139, 18519]","[u'up', u'up', u'right']",,,"[5, 0, 1]","[u'1', 3, 7, 13]","{u'mouseover': {u'state': {u'target': [], u'time': []}, u'edge': {u'target': [], u'time': []}}, u'click': {u'state': {u'target': [], u'time': []}, u'edge': {u'target': [], u'time': []}}, u'mouseout': {u'state': {u'target': [], u'time': []}, u'edge': {u'target': [], u'time': []}}}",,,"[5316, 603, 4398]",13.0,,533242,3.0,2.0,mouselab-mdp,,5
"[6696, 17093, 30760]","[u'right', u'right', u'down']",,,"[5, 0, 1]","[u'1', 2, 6, 11]","{u'mouseover': {u'state': {u'target': [], u'time': []}, u'edge': {u'target': [], u'time': []}}, u'click': {u'state': {u'target': [], u'time': []}, u'edge': {u'target': [], u'time': []}}, u'mouseout': {u'state': {u'target': [], u'time': []}, u'edge': {u'target': [], u'time': []}}}",,,"[6695, 3226, 12698]",18.0,,626780,4.0,8.0,mouselab-mdp,,5
"[14433, 24015, 34167]","[u'up', u'up', u'right']",,,"[5, 0, 1]","[u'1', 3, 7, 13]","{u'mouseover': {u'state': {u'target': [], u'time': []}, u'edge': {u'target': [], u'time': []}}, u'click': {u'state': {u'target': [], u'time': []}, u'edge': {u'target': [], u'time': []}}, u'mouseout': {u'state': {u'target': [], u'time': []}, u'edge': {u'target': [], u'time': []}}}",,,"[14433, 2399, 9165]",21.0,,686675,5.0,1.0,mouselab-mdp,,5
"[7271, 16837, 28473]","[u'left', u'left', u'down']",,,"[5, 0, 1]","[u'1', 4, 8, 15]","{u'mouseover': {u'state': {u'target': [], u'time': []}, u'edge': {u'target': [], u'time': []}}, u'click': {u'state': {u'target': [], u'time': []}, u'edge': {u'target': [], u'time': []}}, u'mouseout': {u'state': {u'target': [], u'time': []}, u'edge': {u'target': [], u'time': []}}}",,,"[7271, 2379, 10654]",4.0,,743264,6.0,5.0,mouselab-mdp,,5
"[8225, 17939, 34773]","[u'down', u'down', u'left']",,,"[5, 0, 1]","[u'1', 5, 9, 16]","{u'mouseover': {u'state': {u'target': [], u'time': []}, u'edge': {u'target': [], u'time': []}}, u'click': {u'state': {u'target': [], u'time': []}, u'edge': {u'target': [], u'time': []}}, u'mouseout': {u'state': {u'target': [], u'time': []}, u'edge': {u'target': [], u'time': []}}}",,,"[8225, 2518, 15852]",4.0,,802622,7.0,0.0,mouselab-mdp,,5
"[2612, 11342, 16921]","[u'up', u'up', u'right']",,,"[5, 0, 1]","[u'1', 3, 7, 13]","{u'mouseover': {u'state': {u'target': [], u'time': []}, u'edge': {u'target': [], u'time': []}}, u'click': {u'state': {u'target': [], u'time': []}, u'edge': {u'target': [], u'time': []}}, u'mouseout': {u'state': {u'target': [], u'time': []}, u'edge': {u'target': [], u'time': []}}}",,,"[2611, 1536, 4606]",5.0,,859258,8.0,7.0,mouselab-mdp,,5
"[3107, 11518, 19003]","[u'right', u'right', u'up']",,,"[5, 0, 1]","[u'1', 2, 6, 10]","{u'mouseover': {u'state': {u'target': [], u'time': []}, u'edge': {u'target': [], u'time': []}}, u'click': {u'state': {u'target': [], u'time': []}, u'edge': {u'target': [], u'time': []}}, u'mouseout': {u'state': {u'target': [], u'time': []}, u'edge': {u'target': [], u'time': []}}}",,,"[3107, 1198, 6500]",22.0,,921522,9.0,10.0,mouselab-mdp,,5
"[6197, 14991, 27515]","[u'down', u'down', u'left']",,,"[5, 0, 1]","[u'1', 5, 9, 16]","{u'mouseover': {u'state': {u'target': [], u'time': []}, u'edge': {u'target': [], u'time': []}}, u'click': {u'state': {u'target': [], u'time': []}, u'edge': {u'target': [], u'time': []}}, u'mouseout': {u'state': {u'target': [], u'time': []}, u'edge': {u'target': [], u'time': []}}}",,,"[6197, 1575, 11537]",14.0,,979108,10.0,4.0,mouselab-mdp,,5
"[4089, 12316, 19945]","[u'left', u'left', u'up']",,,"[5, 0, 1]","[u'1', 4, 8, 14]","{u'mouseover': {u'state': {u'target': [], u'time': []}, u'edge': {u'target': [], u'time': []}}, u'click': {u'state': {u'target': [], u'time': []}, u'edge': {u'target': [], u'time': []}}, u'mouseout': {u'state': {u'target': [], u'time': []}, u'edge': {u'target': [], u'time': []}}}",,,"[4089, 1020, 6650]",10.0,,1037639,11.0,6.0,mouselab-mdp,,5
"[4350, 13415, 22161]","[u'up', u'up', u'left']",,,"[5, 0, 1]","[u'1', 3, 7, 12]","{u'mouseover': {u'state': {u'target': [], u'time': []}, u'edge': {u'target': [], u'time': []}}, u'click': {u'state': {u'target': [], u'time': []}, u'edge': {u'target': [], u'time': []}}, u'mouseout': {u'state': {u'target': [], u'time': []}, u'edge': {u'target': [], u'time': []}}}",,,"[4349, 1877, 7740]",37.0,,1094971,12.0,9.0,mouselab-mdp,,5
"[5811, 17517, 22351]","[u'left', u'left', u'down']",,,"[9, 0, 0]","[u'1', 4, 8, 15]","{u'mouseover': {u'state': {u'target': [], u'time': []}, u'edge': {u'target': [], u'time': []}}, u'click': {u'state': {u'target': [u'5', u'4', u'14', u'15'], u'time': [2729, 4273, 19914, 21087]}, u'edge': {u'target': [], u'time': []}}, u'mouseout': {u'state': {u'target': [], u'time': []}, u'edge': {u'target': [], u'time': []}}}",,,"[5809, 1506, 4156]",16.8,,199026,1.0,9.0,mouselab-mdp,,6
"[6782, 34231, 37680]","[u'right', u'right', u'up']",,,"[25, 0, 4]","[u'1', 2, 6, 10]","{u'mouseover': {u'state': {u'target': [], u'time': []}, u'edge': {u'target': [], u'time': []}}, u'click': {u'state': {u'target': [u'3', u'2', u'4', u'5', u'9', u'6', u'10'], u'time': [754, 1608, 2806, 3433, 4500, 5511, 36069]}, u'edge': {u'target': [], u'time': []}}, u'mouseout': {u'state': {u'target': [], u'time': []}, u'edge': {u'target': [], u'time': []}}}",,,"[6782, 1040, 2791]",14.4,,277509,2.0,2.0,mouselab-mdp,,6
"[2133, 12363, 19895]","[u'right', u'right', u'up']",,,"[4, 6, 0]","[u'1', 2, 6, 10]","{u'mouseover': {u'state': {u'target': [], u'time': []}, u'edge': {u'target': [], u'time': []}}, u'click': {u'state': {u'target': [u'2', u'6', u'10'], u'time': [540, 8103, 11453]}, u'edge': {u'target': [], u'time': []}}, u'mouseout': {u'state': {u'target': [], u'time': []}, u'edge': {u'target': [], u'time': []}}}",,,"[2133, 5154, 696]",13.6,,358171,3.0,10.0,mouselab-mdp,,6
"[6736, 31791, 34382]","[u'up', u'up', u'left']",,,"[21, 0, 4]","[u'1', 3, 7, 12]","{u'mouseover': {u'state': {u'target': [], u'time': []}, u'edge': {u'target': [], u'time': []}}, u'click': {u'state': {u'target': [u'4', u'2', u'5', u'3', u'7', u'13'], u'time': [1229, 2574, 3324, 4285, 5443, 33589]}, u'edge': {u'target': [], u'time': []}}, u'mouseout': {u'state': {u'target': [], u'time': []}, u'edge': {u'target': [], u'time': []}}}",,,"[6736, 2710, 1918]",4.2,,431372,4.0,1.0,mouselab-mdp,,6
"[22814, 69254, 71661]","[u'left', u'left', u'up']",,,"[41, 0, 0]","[u'1', 4, 8, 14]","{u'mouseover': {u'state': {u'target': [], u'time': []}, u'edge': {u'target': [], u'time': []}}, u'click': {u'state': {u'target': [u'4', u'2', u'5', u'8', u'9', u'3', u'7', u'13', u'12', u'14', u'16', u'17'], u'time': [1008, 2727, 4438, 7486, 8431, 13531, 15454, 17026, 17825, 18926, 20718, 21418]}, u'edge': {u'target': [], u'time': []}}, u'mouseout': {u'state': {u'target': [], u'time': []}, u'edge': {u'target': [], u'time': []}}}",,,"[22814, 3709, 1801]",6.4,,527397,5.0,0.0,mouselab-mdp,,6
"[3847, 18187, 21649]","[u'right', u'right', u'down']",,,"[12, 0, 0]","[u'1', 2, 6, 11]","{u'mouseover': {u'state': {u'target': [], u'time': []}, u'edge': {u'target': [], u'time': []}}, u'click': {u'state': {u'target': [u'4', u'2', u'6', u'10', u'11'], u'time': [731, 1759, 2777, 20083, 20922]}, u'edge': {u'target': [], u'time': []}}, u'mouseout': {u'state': {u'target': [], u'time': []}, u'edge': {u'target': [], u'time': []}}}",,,"[3847, 1147, 2806]",24.0,,586630,6.0,11.0,mouselab-mdp,,6
"[3861, 13526, 17463]","[u'down', u'down', u'right']",,,"[8, 0, 0]","[u'1', 5, 9, 17]","{u'mouseover': {u'state': {u'target': [], u'time': []}, u'edge': {u'target': [], u'time': []}}, u'click': {u'state': {u'target': [u'5', u'9', u'17', u'16'], u'time': [1813, 2930, 15320, 16446]}, u'edge': {u'target': [], u'time': []}}, u'mouseout': {u'state': {u'target': [], u'time': []}, u'edge': {u'target': [], u'time': []}}}",,,"[3860, 494, 3262]",4.8,,641710,7.0,8.0,mouselab-mdp,,6
"[24240, 70259, 71994]","[u'down', u'down', u'right']",,,"[43, 0, 0]","[u'1', 5, 9, 17]","{u'mouseover': {u'state': {u'target': [], u'time': []}, u'edge': {u'target': [], u'time': []}}, u'click': {u'state': {u'target': [u'4', u'2', u'3', u'5', u'6', u'10', u'11', u'9', u'17', u'7', u'12', u'13', u'16'], u'time': [3884, 4731, 6590, 7298, 8162, 9075, 9825, 10787, 11537, 13786, 15505, 19986, 21151]}, u'edge': {u'target': [], u'time': []}}, u'mouseout': {u'state': {u'target': [], u'time': []}, u'edge': {u'target': [], u'time': []}}}",,,"[24240, 1359, 1144]",-2.4,,734558,8.0,7.0,mouselab-mdp,,6
"[9757, 41421, 47821]","[u'down', u'down', u'left']",,,"[28, 0, 0]","[u'1', 5, 9, 16]","{u'mouseover': {u'state': {u'target': [], u'time': []}, u'edge': {u'target': [], u'time': []}}, u'click': {u'state': {u'target': [u'3', u'4', u'7', u'8', u'2', u'5', u'9', u'17', u'16'], u'time': [565, 1494, 4991, 5993, 7493, 8332, 9033, 43848, 44817]}, u'edge': {u'target': [], u'time': []}}, u'mouseout': {u'state': {u'target': [], u'time': []}, u'edge': {u'target': [], u'time': []}}}",,,"[9757, 2219, 5741]",-13.2,,811086,9.0,6.0,mouselab-mdp,,6
"[18652, 62249, 64358]","[u'left', u'left', u'up']",,,"[41, 0, 0]","[u'1', 4, 8, 14]","{u'mouseover': {u'state': {u'target': [], u'time': []}, u'edge': {u'target': [], u'time': []}}, u'click': {u'state': {u'target': [u'4', u'8', u'3', u'7', u'2', u'5', u'9', u'6', u'10', u'11', u'15', u'14'], u'time': [5043, 6796, 7846, 8547, 9491, 10714, 11570, 12319, 14821, 15766, 16996, 17624]}, u'edge': {u'target': [], u'time': []}}, u'mouseout': {u'state': {u'target': [], u'time': []}, u'edge': {u'target': [], u'time': []}}}",,,"[18652, 879, 1485]",0.4,,927987,10.0,5.0,mouselab-mdp,,6
"[4224, 18488, 22533]","[u'left', u'left', u'up']",,,"[12, 0, 0]","[u'1', 4, 8, 14]","{u'mouseover': {u'state': {u'target': [], u'time': []}, u'edge': {u'target': [], u'time': []}}, u'click': {u'state': {u'target': [u'2', u'4', u'8', u'14', u'15'], u'time': [611, 1393, 2362, 20151, 21186]}, u'edge': {u'target': [], u'time': []}}, u'mouseout': {u'state': {u'target': [], u'time': []}, u'edge': {u'target': [], u'time': []}}}",,,"[4224, 1036, 3378]",2.0,,988490,11.0,4.0,mouselab-mdp,,6
"[30705, 79431, 84017]","[u'right', u'right', u'up']",,,"[44, 3, 0]","[u'1', 2, 6, 10]","{u'mouseover': {u'state': {u'target': [], u'time': []}, u'edge': {u'target': [], u'time': []}}, u'click': {u'state': {u'target': [u'12', u'14', u'15', u'8', u'4', u'16', u'17', u'11', u'10', u'6', u'2'], u'time': [1013, 14007, 15866, 19329, 21130, 22638, 23298, 23999, 24692, 26632, 28693]}, u'edge': {u'target': [], u'time': []}}, u'mouseout': {u'state': {u'target': [], u'time': []}, u'edge': {u'target': [], u'time': []}}}",,,"[30705, 3177, 927]",3.2,,1083248,12.0,3.0,mouselab-mdp,,6
"[41401, 47040, 48162]","[u'left', u'left', u'down']",,,"[1, 0, 0]","[u'1', 4, 8, 15]","{u'mouseover': {u'state': {u'target': [], u'time': []}, u'edge': {u'target': [], u'time': []}}, u'click': {u'state': {u'target': [u'3', u'2', u'4', u'15', u'13', u'5', u'17', u'16', u'14', u'8'], u'time': [4637, 10911, 17939, 20605, 22569, 26357, 28563, 30739, 33499, 37557]}, u'edge': {u'target': [], u'time': []}}, u'mouseout': {u'state': {u'target': [], u'time': []}, u'edge': {u'target': [], u'time': []}}}",,,"[41400, 2730, 501]",39.9,,146337,1.0,0.0,mouselab-mdp,,8
"[7362, 17706, 18650]","[u'up', u'up', u'left']",,,"[4, 0, 0]","[u'1', 3, 7, 12]","{u'mouseover': {u'state': {u'target': [], u'time': []}, u'edge': {u'target': [], u'time': []}}, u'click': {u'state': {u'target': [u'3', u'5', u'17', u'12', u'2', u'13', u'7'], u'time': [1856, 3926, 4846, 5632, 14376, 15536, 16646]}, u'edge': {u'target': [], u'time': []}}, u'mouseout': {u'state': {u'target': [], u'time': []}, u'edge': {u'target': [], u'time': []}}}",,,"[7362, 4926, 99]",40.93,,201290,2.0,8.0,mouselab-mdp,,8
"[14038, 17734, 20438]","[u'right', u'right', u'down']",,,"[1, 0, 0]","[u'1', 2, 6, 11]","{u'mouseover': {u'state': {u'target': [], u'time': []}, u'edge': {u'target': [], u'time': []}}, u'click': {u'state': {u'target': [u'5', u'3', u'2', u'4', u'17', u'12', u'11', u'14', u'15', u'6', u'10'], u'time': [1402, 3048, 3952, 4596, 6502, 7342, 8240, 9016, 10388, 11996, 19583]}, u'edge': {u'target': [], u'time': []}}, u'mouseout': {u'state': {u'target': [], u'time': []}, u'edge': {u'target': [], u'time': []}}}",,,"[14038, 864, 2050]",37.89,,249889,3.0,6.0,mouselab-mdp,,8
"[16131, 21395, 22707]","[u'right', u'right', u'up']",,,"[2, 0, 0]","[u'1', 2, 6, 10]","{u'mouseover': {u'state': {u'target': [], u'time': []}, u'edge': {u'target': [], u'time': []}}, u'click': {u'state': {u'target': [u'5', u'4', u'3', u'2', u'11', u'10', u'13', u'14', u'8', u'15', u'12', u'7', u'6', u'16'], u'time': [1359, 2198, 2767, 3320, 4495, 5400, 6019, 6907, 7891, 8381, 9127, 9651, 10361, 11987]}, u'edge': {u'target': [], u'time': []}}, u'mouseout': {u'state': {u'target': [], u'time': []}, u'edge': {u'target': [], u'time': []}}}",,,"[16131, 1403, 754]",21.86,,299576,4.0,10.0,mouselab-mdp,,8
"[13974, 15723, 16615]","[u'right', u'right', u'down']",,,"[0, 0, 0]","[u'1', 2, 6, 11]","{u'mouseover': {u'state': {u'target': [], u'time': []}, u'edge': {u'target': [], u'time': []}}, u'click': {u'state': {u'target': [u'3', u'5', u'2', u'4', u'11', u'6', u'10', u'17', u'9', u'16', u'14', u'15', u'8', u'12', u'7', u'13'], u'time': [881, 1413, 2038, 2664, 3355, 3919, 5319, 6326, 6921, 8246, 9518, 9970, 10377, 11105, 12073, 12551]}, u'edge': {u'target': [], u'time': []}}, u'mouseout': {u'state': {u'target': [], u'time': []}, u'edge': {u'target': [], u'time': []}}}",,,"[13974, 5, 370]",37.84,,349167,5.0,11.0,mouselab-mdp,,8
"[13097, 14856, 16305]","[u'left', u'left', u'up']",,,"[0, 0, 0]","[u'1', 4, 8, 14]","{u'mouseover': {u'state': {u'target': [], u'time': []}, u'edge': {u'target': [], u'time': []}}, u'click': {u'state': {u'target': [u'5', u'3', u'2', u'4', u'16', u'9', u'17', u'15', u'8', u'14', u'12', u'7', u'13', u'10', u'11', u'6'], u'time': [1309, 2521, 3087, 3717, 4455, 4821, 5228, 5834, 6209, 6715, 7255, 7807, 8363, 9005, 9869, 10893]}, u'edge': {u'target': [], u'time': []}}, u'mouseout': {u'state': {u'target': [], u'time': []}, u'edge': {u'target': [], u'time': []}}}",,,"[13097, 6, 930]",33.84,,399272,6.0,5.0,mouselab-mdp,,8
"[28897, 30726, 31696]","[u'right', u'right', u'up']",,,"[0, 0, 0]","[u'1', 2, 6, 10]","{u'mouseover': {u'state': {u'target': [], u'time': []}, u'edge': {u'target': [], u'time': []}}, u'click': {u'state': {u'target': [u'5', u'2', u'4', u'3', u'17', u'16', u'15', u'8', u'14', u'11', u'6', u'10', u'9'], u'time': [2829, 3458, 4354, 4830, 6075, 6870, 9563, 10664, 11196, 12044, 12592, 13012, 16405]}, u'edge': {u'target': [], u'time': []}}, u'mouseout': {u'state': {u'target': [], u'time': []}, u'edge': {u'target': [], u'time': []}}}",,,"[28896, 4, 402]",33.87,,454359,7.0,2.0,mouselab-mdp,,8
"[14791, 16665, 17655]","[u'up', u'up', u'left']",,,"[0, 0, 0]","[u'1', 3, 7, 12]","{u'mouseover': {u'state': {u'target': [], u'time': []}, u'edge': {u'target': [], u'time': []}}, u'click': {u'state': {u'target': [u'5', u'4', u'3', u'2', u'13', u'7', u'12', u'8', u'14', u'15', u'16', u'9', u'11', u'6', u'10'], u'time': [1213, 1895, 2487, 3113, 4019, 5049, 5487, 6481, 7291, 7837, 11039, 11467, 12285, 12681, 13657]}, u'edge': {u'target': [], u'time': []}}, u'mouseout': {u'state': {u'target': [], u'time': []}, u'edge': {u'target': [], u'time': []}}}",,,"[14790, 5, 428]",36.85,,508366,8.0,9.0,mouselab-mdp,,8
"[12305, 13993, 14884]","[u'down', u'down', u'left']",,,"[0, 0, 0]","[u'1', 5, 9, 16]","{u'mouseover': {u'state': {u'target': [], u'time': []}, u'edge': {u'target': [], u'time': []}}, u'click': {u'state': {u'target': [u'3', u'5', u'4', u'2', u'11', u'10', u'6', u'13', u'7', u'12', u'9', u'16', u'17'], u'time': [1842, 2467, 3039, 3665, 5899, 6661, 7557, 8301, 8755, 9247, 10043, 10511, 11249]}, u'edge': {u'target': [], u'time': []}}, u'mouseout': {u'state': {u'target': [], u'time': []}, u'edge': {u'target': [], u'time': []}}}",,,"[12305, 5, 324]",33.87,,556852,9.0,7.0,mouselab-mdp,,8
"[14603, 16367, 17115]","[u'right', u'right', u'up']",,,"[0, 0, 0]","[u'1', 2, 6, 10]","{u'mouseover': {u'state': {u'target': [], u'time': []}, u'edge': {u'target': [], u'time': []}}, u'click': {u'state': {u'target': [u'3', u'5', u'2', u'4', u'9', u'17', u'16', u'11', u'10', u'6', u'12', u'13', u'7', u'8', u'15', u'14'], u'time': [2073, 2589, 3415, 3939, 5143, 5795, 6437, 7369, 8099, 8503, 9399, 9859, 10217, 11263, 11771, 13271]}, u'edge': {u'target': [], u'time': []}}, u'mouseout': {u'state': {u'target': [], u'time': []}, u'edge': {u'target': [], u'time': []}}}",,,"[14603, 5, 239]",33.84,,603918,10.0,3.0,mouselab-mdp,,8
"[9393, 11013, 12012]","[u'down', u'down', u'right']",,,"[0, 0, 0]","[u'1', 5, 9, 17]","{u'mouseover': {u'state': {u'target': [], u'time': []}, u'edge': {u'target': [], u'time': []}}, u'click': {u'state': {u'target': [u'3', u'5', u'2', u'4', u'14', u'15', u'8', u'17', u'16', u'9'], u'time': [1181, 1807, 2331, 2861, 3869, 4655, 5149, 5959, 6569, 6951]}, u'edge': {u'target': [], u'time': []}}, u'mouseout': {u'state': {u'target': [], u'time': []}, u'edge': {u'target': [], u'time': []}}}",,,"[9393, 5, 416]",41.9,,651673,11.0,4.0,mouselab-mdp,,8
"[7489, 9202, 10385]","[u'down', u'down', u'left']",,,"[0, 0, 0]","[u'1', 5, 9, 16]","{u'mouseover': {u'state': {u'target': [], u'time': []}, u'edge': {u'target': [], u'time': []}}, u'click': {u'state': {u'target': [u'3', u'5', u'2', u'4', u'13', u'12', u'17', u'16', u'9'], u'time': [815, 1473, 2167, 2705, 3395, 3959, 5609, 6125, 6775]}, u'edge': {u'target': [], u'time': []}}, u'mouseout': {u'state': {u'target': [], u'time': []}, u'edge': {u'target': [], u'time': []}}}",,,"[7489, 5, 566]",45.91,,698918,12.0,1.0,mouselab-mdp,,8
"[6947, 19575, 27031]","[u'up', u'up', u'right']",,,"[5, 0, 1]","[u'1', 3, 7, 13]","{u'mouseover': {u'state': {u'target': [], u'time': []}, u'edge': {u'target': [], u'time': []}}, u'click': {u'state': {u'target': [], u'time': []}, u'edge': {u'target': [], u'time': []}}, u'mouseout': {u'state': {u'target': [], u'time': []}, u'edge': {u'target': [], u'time': []}}}",,,"[6947, 5561, 6520]",9.0,,472935,1.0,6.0,mouselab-mdp,,9
"[4194, 12386, 17785]","[u'left', u'left', u'down']",,,"[5, 0, 1]","[u'1', 4, 8, 15]","{u'mouseover': {u'state': {u'target': [], u'time': []}, u'edge': {u'target': [], u'time': []}}, u'click': {u'state': {u'target': [u'14'], u'time': [15762]}, u'edge': {u'target': [], u'time': []}}, u'mouseout': {u'state': {u'target': [], u'time': []}, u'edge': {u'target': [], u'time': []}}}",,,"[4194, 1151, 4436]",5.2,,531231,2.0,4.0,mouselab-mdp,,9
"[3494, 11358, 13926]","[u'down', u'down', u'right']",,,"[5, 0, 1]","[u'1', 5, 9, 17]","{u'mouseover': {u'state': {u'target': [], u'time': []}, u'edge': {u'target': [], u'time': []}}, u'click': {u'state': {u'target': [], u'time': []}, u'edge': {u'target': [], u'time': []}}, u'mouseout': {u'state': {u'target': [], u'time': []}, u'edge': {u'target': [], u'time': []}}}",,,"[3494, 840, 1614]",2.0,,591701,3.0,10.0,mouselab-mdp,,9
"[8867, 17451, 23802]","[u'up', u'up', u'left']",,,"[5, 0, 1]","[u'1', 3, 7, 12]","{u'mouseover': {u'state': {u'target': [], u'time': []}, u'edge': {u'target': [], u'time': []}}, u'click': {u'state': {u'target': [u'3', u'13'], u'time': [6976, 22004]}, u'edge': {u'target': [], u'time': []}}, u'mouseout': {u'state': {u'target': [], u'time': []}, u'edge': {u'target': [], u'time': []}}}",,,"[8867, 1200, 5390]",15.4,,649894,4.0,1.0,mouselab-mdp,,9
"[6526, 17294, 23998]","[u'right', u'right', u'down']",,,"[5, 0, 1]","[u'1', 2, 6, 11]","{u'mouseover': {u'state': {u'target': [], u'time': []}, u'edge': {u'target': [], u'time': []}}, u'click': {u'state': {u'target': [u'4', u'11'], u'time': [4365, 21805]}, u'edge': {u'target': [], u'time': []}}, u'mouseout': {u'state': {u'target': [], u'time': []}, u'edge': {u'target': [], u'time': []}}}",,,"[6526, 3421, 5727]",32.4,,711638,5.0,11.0,mouselab-mdp,,9
"[6526, 14429, 18701]","[u'down', u'down', u'right']",,,"[5, 0, 1]","[u'1', 5, 9, 17]","{u'mouseover': {u'state': {u'target': [], u'time': []}, u'edge': {u'target': [], u'time': []}}, u'click': {u'state': {u'target': [u'5', u'16'], u'time': [3549, 17028]}, u'edge': {u'target': [], u'time': []}}, u'mouseout': {u'state': {u'target': [], u'time': []}, u'edge': {u'target': [], u'time': []}}}",,,"[6526, 522, 3304]",-1.6,,767750,6.0,2.0,mouselab-mdp,,9
"[9978, 17881, 22834]","[u'down', u'down', u'right']",,,"[5, 0, 1]","[u'1', 5, 9, 17]","{u'mouseover': {u'state': {u'target': [], u'time': []}, u'edge': {u'target': [], u'time': []}}, u'click': {u'state': {u'target': [u'5', u'16'], u'time': [8052, 20598]}, u'edge': {u'target': [], u'time': []}}, u'mouseout': {u'state': {u'target': [], u'time': []}, u'edge': {u'target': [], u'time': []}}}",,,"[9978, 515, 3997]",4.4,,824663,7.0,0.0,mouselab-mdp,,9
"[5807, 16336, 23927]","[u'right', u'right', u'down']",,,"[5, 0, 1]","[u'1', 2, 6, 11]","{u'mouseover': {u'state': {u'target': [], u'time': []}, u'edge': {u'target': [], u'time': []}}, u'click': {u'state': {u'target': [u'2', u'10'], u'time': [4099, 21357]}, u'edge': {u'target': [], u'time': []}}, u'mouseout': {u'state': {u'target': [], u'time': []}, u'edge': {u'target': [], u'time': []}}}",,,"[5807, 3142, 6636]",0.4,,882015,8.0,5.0,mouselab-mdp,,9
"[5219, 13283, 18730]","[u'down', u'down', u'left']",,,"[5, 0, 1]","[u'1', 5, 9, 16]","{u'mouseover': {u'state': {u'target': [], u'time': []}, u'edge': {u'target': [], u'time': []}}, u'click': {u'state': {u'target': [u'5', u'17'], u'time': [2954, 17348]}, u'edge': {u'target': [], u'time': []}}, u'mouseout': {u'state': {u'target': [], u'time': []}, u'edge': {u'target': [], u'time': []}}}",,,"[5219, 631, 4487]",0.4,,938296,9.0,3.0,mouselab-mdp,,9
"[1351, 9136, 18815]","[u'left', u'left', u'down']",,,"[5, 0, 1]","[u'1', 4, 8, 15]","{u'mouseover': {u'state': {u'target': [], u'time': []}, u'edge': {u'target': [], u'time': []}}, u'click': {u'state': {u'target': [u'15'], u'time': [13575]}, u'edge': {u'target': [], u'time': []}}, u'mouseout': {u'state': {u'target': [], u'time': []}, u'edge': {u'target': [], u'time': []}}}",,,"[1351, 717, 8696]",25.2,,1015742,10.0,9.0,mouselab-mdp,,9
"[10910, 18590, 23750]","[u'up', u'up', u'left']",,,"[5, 0, 1]","[u'1', 3, 7, 12]","{u'mouseover': {u'state': {u'target': [], u'time': []}, u'edge': {u'target': [], u'time': []}}, u'click': {u'state': {u'target': [u'12'], u'time': [22272]}, u'edge': {u'target': [], u'time': []}}, u'mouseout': {u'state': {u'target': [], u'time': []}, u'edge': {u'target': [], u'time': []}}}",,,"[10910, 574, 4182]",38.2,,1076391,11.0,8.0,mouselab-mdp,,9
"[3250, 11250, 17826]","[u'up', u'up', u'left']",,,"[5, 0, 1]","[u'1', 3, 7, 12]","{u'mouseover': {u'state': {u'target': [], u'time': []}, u'edge': {u'target': [], u'time': []}}, u'click': {u'state': {u'target': [u'12'], u'time': [16199]}, u'edge': {u'target': [], u'time': []}}, u'mouseout': {u'state': {u'target': [], u'time': []}, u'edge': {u'target': [], u'time': []}}}",,,"[3250, 881, 5625]",16.2,,1135935,12.0,7.0,mouselab-mdp,,9
"[37837, 47166, 51597]","[u'right', u'right', u'up']",,,"[5, 0, 1]","[u'1', 2, 6, 10]","{u'mouseover': {u'state': {u'target': [], u'time': []}, u'edge': {u'target': [], u'time': []}}, u'click': {u'state': {u'target': [u'3', u'7', u'2', u'6', u'4', u'8', u'5', u'9', u'17', u'16', u'15', u'14', u'13', u'12', u'10', u'11'], u'time': [1567, 3453, 5620, 6534, 8404, 9431, 10875, 11961, 13009, 14555, 15885, 16738, 18304, 19380, 21382, 22284]}, u'edge': {u'target': [], u'time': []}}, u'mouseout': {u'state': {u'target': [], u'time': []}, u'edge': {u'target': [], u'time': []}}}",,,"[37835, 508, 3925]",33.84,,177549,1.0,3.0,mouselab-mdp,,10
"[8895, 16947, 22999]","[u'up', u'up', u'left']",,,"[5, 0, 1]","[u'1', 3, 7, 12]","{u'mouseover': {u'state': {u'target': [], u'time': []}, u'edge': {u'target': [], u'time': []}}, u'click': {u'state': {u'target': [u'3', u'2', u'7', u'12', u'13'], u'time': [1745, 4369, 6057, 7010, 7918]}, u'edge': {u'target': [], u'time': []}}, u'mouseout': {u'state': {u'target': [], u'time': []}, u'edge': {u'target': [], u'time': []}}}",,,"[8895, 513, 5223]",40.95,,237955,2.0,8.0,mouselab-mdp,,10
"[6318, 14290, 23262]","[u'right', u'right', u'up']",,,"[5, 0, 1]","[u'1', 2, 6, 10]","{u'mouseover': {u'state': {u'target': [], u'time': []}, u'edge': {u'target': [], u'time': []}}, u'click': {u'state': {u'target': [u'3', u'2', u'5', u'4', u'10', u'11'], u'time': [1529, 2884, 3665, 4848, 20050, 21127]}, u'edge': {u'target': [], u'time': []}}, u'mouseout': {u'state': {u'target': [], u'time': []}, u'edge': {u'target': [], u'time': []}}}",,,"[6318, 349, 7988]",21.94,,294237,3.0,10.0,mouselab-mdp,,10
"[3797, 11557, 18414]","[u'right', u'right', u'down']",,,"[5, 0, 1]","[u'1', 2, 6, 11]","{u'mouseover': {u'state': {u'target': [], u'time': []}, u'edge': {u'target': [], u'time': []}}, u'click': {u'state': {u'target': [u'3', u'2', u'10', u'11'], u'time': [1399, 2604, 14903, 15737]}, u'edge': {u'target': [], u'time': []}}, u'mouseout': {u'state': {u'target': [], u'time': []}, u'edge': {u'target': [], u'time': []}}}",,,"[3797, 589, 5974]",37.96,,349320,4.0,11.0,mouselab-mdp,,10
"[4171, 13625, 18425]","[u'up', u'up', u'left']",,,"[5, 0, 1]","[u'1', 3, 7, 12]","{u'mouseover': {u'state': {u'target': [], u'time': []}, u'edge': {u'target': [], u'time': []}}, u'click': {u'state': {u'target': [u'3', u'12', u'13'], u'time': [2861, 16383, 17125]}, u'edge': {u'target': [], u'time': []}}, u'mouseout': {u'state': {u'target': [], u'time': []}, u'edge': {u'target': [], u'time': []}}}",,,"[4171, 2572, 3980]",36.97,,406927,5.0,9.0,mouselab-mdp,,10
"[8634, 22672, 29863]","[u'down', u'down', u'right']",,,"[5, 0, 1]","[u'1', 5, 9, 17]","{u'mouseover': {u'state': {u'target': [], u'time': []}, u'edge': {u'target': [], u'time': []}}, u'click': {u'state': {u'target': [u'3', u'2', u'5', u'4', u'16', u'17'], u'time': [3578, 4587, 5483, 7455, 27502, 28498]}, u'edge': {u'target': [], u'time': []}}, u'mouseout': {u'state': {u'target': [], u'time': []}, u'edge': {u'target': [], u'time': []}}}",,,"[8634, 6577, 6340]",3.94,,464894,6.0,2.0,mouselab-mdp,,10
"[7391, 19645, 62432]","[u'right', u'right', u'up']",,,"[5, 0, 1]","[u'1', 2, 6, 10]","{u'mouseover': {u'state': {u'target': [], u'time': []}, u'edge': {u'target': [], u'time': []}}, u'click': {u'state': {u'target': [u'3', u'2', u'10', u'11'], u'time': [5040, 6070, 29231, 30109]}, u'edge': {u'target': [], u'time': []}}, u'mouseout': {u'state': {u'target': [], u'time': []}, u'edge': {u'target': [], u'time': []}}}",,,"[7391, 5246, 41959]",7.96,,531728,7.0,7.0,mouselab-mdp,,10
"[9755, 21683, 42079]","[u'down', u'down', u'right']",,,"[5, 0, 1]","[u'1', 5, 9, 17]","{u'mouseover': {u'state': {u'target': [], u'time': []}, u'edge': {u'target': [], u'time': []}}, u'click': {u'state': {u'target': [u'3', u'2', u'5', u'4', u'9', u'17', u'16'], u'time': [2892, 3938, 5078, 7406, 8672, 39324, 40417]}, u'edge': {u'target': [], u'time': []}}, u'mouseout': {u'state': {u'target': [], u'time': []}, u'edge': {u'target': [], u'time': []}}}",,,"[9755, 4174, 19515]",9.93,,597144,8.0,0.0,mouselab-mdp,,10
"[6074, 14594, 57370]","[u'up', u'up', u'left']",,,"[5, 0, 1]","[u'1', 3, 7, 12]","{u'mouseover': {u'state': {u'target': [], u'time': []}, u'edge': {u'target': [], u'time': []}}, u'click': {u'state': {u'target': [u'3', u'13', u'12'], u'time': [3987, 55411, 56405]}, u'edge': {u'target': [], u'time': []}}, u'mouseout': {u'state': {u'target': [], u'time': []}, u'edge': {u'target': [], u'time': []}}}",,,"[6073, 1539, 41906]",20.97,,661312,9.0,1.0,mouselab-mdp,,10
"[7665, 20816, 24854]","[u'up', u'up', u'right']",,,"[5, 0, 1]","[u'1', 3, 7, 13]","{u'mouseover': {u'state': {u'target': [], u'time': []}, u'edge': {u'target': [], u'time': []}}, u'click': {u'state': {u'target': [u'3', u'7', u'12', u'13'], u'time': [6153, 18740, 23063, 23789]}, u'edge': {u'target': [], u'time': []}}, u'mouseout': {u'state': {u'target': [], u'time': []}, u'edge': {u'target': [], u'time': []}}}",,,"[7665, 6225, 2942]",0.96,,719456,10.0,5.0,mouselab-mdp,,10
"[6928, 19616, 23449]","[u'left', u'left', u'up']",,,"[5, 0, 1]","[u'1', 4, 8, 14]","{u'mouseover': {u'state': {u'target': [], u'time': []}, u'edge': {u'target': [], u'time': []}}, u'click': {u'state': {u'target': [u'3', u'2', u'5', u'4', u'8', u'14', u'15'], u'time': [1916, 2668, 3438, 5872, 17598, 21319, 22113]}, u'edge': {u'target': [], u'time': []}}, u'mouseout': {u'state': {u'target': [], u'time': []}, u'edge': {u'target': [], u'time': []}}}",,,"[6927, 5167, 2642]",15.93,,775376,11.0,4.0,mouselab-mdp,,10
"[25675, 36253, 55878]","[u'right', u'right', u'down']",,,"[5, 0, 1]","[u'1', 2, 6, 11]","{u'mouseover': {u'state': {u'target': [], u'time': []}, u'edge': {u'target': [], u'time': []}}, u'click': {u'state': {u'target': [u'3', u'2', u'5', u'9', u'16', u'17', u'4', u'8', u'14', u'15', u'12', u'7', u'13', u'10', u'6', u'11'], u'time': [5839, 6582, 7525, 9357, 10780, 11492, 16018, 17098, 17726, 18479, 19335, 20066, 21575, 22365, 23090, 23747]}, u'edge': {u'target': [], u'time': []}}, u'mouseout': {u'state': {u'target': [], u'time': []}, u'edge': {u'target': [], u'time': []}}}",,,"[25675, 2426, 19111]",37.84,,835455,12.0,6.0,mouselab-mdp,,10
"[5817, 14648, 29978]","[u'right', u'right', u'down']",,,"[5, 0, 1]","[u'1', 2, 6, 11]","{u'mouseover': {u'state': {u'target': [], u'time': []}, u'edge': {u'target': [], u'time': []}}, u'click': {u'state': {u'target': [], u'time': []}, u'edge': {u'target': [], u'time': []}}, u'mouseout': {u'state': {u'target': [], u'time': []}, u'edge': {u'target': [], u'time': []}}}",,,"[5816, 2411, 14571]",18.0,,408671,1.0,8.0,mouselab-mdp,,11
"[2893, 9632, 11565]","[u'down', u'down', u'right']",,,"[5, 0, 1]","[u'1', 5, 9, 17]","{u'mouseover': {u'state': {u'target': [], u'time': []}, u'edge': {u'target': [], u'time': []}}, u'click': {u'state': {u'target': [], u'time': []}, u'edge': {u'target': [], u'time': []}}, u'mouseout': {u'state': {u'target': [], u'time': []}, u'edge': {u'target': [], u'time': []}}}",,,"[2892, 317, 1167]",2.0,,463136,2.0,10.0,mouselab-mdp,,11
"[1492, 10716, 13525]","[u'left', u'left', u'up']",,,"[5, 0, 1]","[u'1', 4, 8, 14]","{u'mouseover': {u'state': {u'target': [], u'time': []}, u'edge': {u'target': [], u'time': []}}, u'click': {u'state': {u'target': [], u'time': []}, u'edge': {u'target': [], u'time': []}}, u'mouseout': {u'state': {u'target': [], u'time': []}, u'edge': {u'target': [], u'time': []}}}",,,"[1492, 2806, 2046]",4.0,,520827,3.0,1.0,mouselab-mdp,,11
"[2845, 9759, 11679]","[u'up', u'up', u'right']",,,"[5, 0, 1]","[u'1', 3, 7, 13]","{u'mouseover': {u'state': {u'target': [], u'time': []}, u'edge': {u'target': [], u'time': []}}, u'click': {u'state': {u'target': [], u'time': []}, u'edge': {u'target': [], u'time': []}}, u'mouseout': {u'state': {u'target': [], u'time': []}, u'edge': {u'target': [], u'time': []}}}",,,"[2845, 503, 1161]",5.0,,576825,4.0,3.0,mouselab-mdp,,11
"[838, 7288, 10054]","[u'right', u'right', u'down']",,,"[5, 0, 1]","[u'1', 2, 6, 11]","{u'mouseover': {u'state': {u'target': [], u'time': []}, u'edge': {u'target': [], u'time': []}}, u'click': {u'state': {u'target': [], u'time': []}, u'edge': {u'target': [], u'time': []}}, u'mouseout': {u'state': {u'target': [], u'time': []}, u'edge': {u'target': [], u'time': []}}}",,,"[838, 2, 1992]",0.0,,631587,5.0,4.0,mouselab-mdp,,11
"[612, 7496, 10109]","[u'right', u'right', u'up']",,,"[5, 0, 1]","[u'1', 2, 6, 10]","{u'mouseover': {u'state': {u'target': [], u'time': []}, u'edge': {u'target': [], u'time': []}}, u'click': {u'state': {u'target': [], u'time': []}, u'edge': {u'target': [], u'time': []}}, u'mouseout': {u'state': {u'target': [], u'time': []}, u'edge': {u'target': [], u'time': []}}}",,,"[612, 462, 1857]",8.0,,688232,6.0,0.0,mouselab-mdp,,11
"[6402, 16357, 63675]","[u'down', u'down', u'left']",,,"[5, 0, 1]","[u'1', 5, 9, 16]","{u'mouseover': {u'state': {u'target': [], u'time': []}, u'edge': {u'target': [], u'time': []}}, u'click': {u'state': {u'target': [u'2', u'5', u'9', u'17', u'16'], u'time': [1690, 4765, 14026, 17826, 18899]}, u'edge': {u'target': [], u'time': []}}, u'mouseout': {u'state': {u'target': [], u'time': []}, u'edge': {u'target': [], u'time': []}}}",,,"[6402, 3074, 46294]",11.95,,757552,7.0,6.0,mouselab-mdp,,11
"[21459, 29586, 31513]","[u'left', u'left', u'up']",,,"[5, 0, 1]","[u'1', 4, 8, 14]","{u'mouseover': {u'state': {u'target': [], u'time': []}, u'edge': {u'target': [], u'time': []}}, u'click': {u'state': {u'target': [u'2', u'3', u'7', u'12', u'13', u'5', u'4', u'8', u'14', u'15', u'16', u'9', u'17', u'6', u'10', u'11'], u'time': [1058, 2211, 4762, 5626, 6402, 7483, 8169, 8887, 9437, 10461, 11124, 12085, 12658, 17109, 17908, 18474]}, u'edge': {u'target': [], u'time': []}}, u'mouseout': {u'state': {u'target': [], u'time': []}, u'edge': {u'target': [], u'time': []}}}",,,"[21459, 448, 1416]",33.84,,814055,8.0,5.0,mouselab-mdp,,11
"[12292, 20737, 22019]","[u'up', u'up', u'left']",,,"[5, 0, 1]","[u'1', 3, 7, 12]","{u'mouseover': {u'state': {u'target': [], u'time': []}, u'edge': {u'target': [], u'time': []}}, u'click': {u'state': {u'target': [u'3', u'2', u'5', u'4', u'7', u'12', u'13', u'8', u'14', u'15'], u'time': [1131, 1841, 2480, 3084, 3867, 4642, 5577, 7241, 7774, 8516]}, u'edge': {u'target': [], u'time': []}}, u'mouseout': {u'state': {u'target': [], u'time': []}, u'edge': {u'target': [], u'time': []}}}",,,"[12291, 719, 639]",36.9,,871036,9.0,9.0,mouselab-mdp,,11
"[16484, 24632, 26105]","[u'right', u'right', u'up']",,,"[5, 0, 1]","[u'1', 2, 6, 10]","{u'mouseover': {u'state': {u'target': [], u'time': []}, u'edge': {u'target': [], u'time': []}}, u'click': {u'state': {u'target': [u'2', u'3', u'4', u'5', u'6', u'11', u'10', u'9', u'17', u'16', u'8', u'14', u'15'], u'time': [1540, 2322, 3008, 3679, 4792, 5857, 7150, 8636, 9355, 10492, 11558, 12430, 13142]}, u'edge': {u'target': [], u'time': []}}, u'mouseout': {u'state': {u'target': [], u'time': []}, u'edge': {u'target': [], u'time': []}}}",,,"[16484, 323, 886]",33.87,,927704,10.0,2.0,mouselab-mdp,,11
"[23113, 31240, 32314]","[u'down', u'down', u'right']",,,"[5, 0, 1]","[u'1', 5, 9, 17]","{u'mouseover': {u'state': {u'target': [], u'time': []}, u'edge': {u'target': [], u'time': []}}, u'click': {u'state': {u'target': [u'2', u'6', u'10', u'11', u'5', u'9', u'16', u'17', u'4', u'3', u'7', u'12', u'13', u'14', u'15', u'8'], u'time': [2105, 3123, 3971, 4559, 6295, 7312, 7910, 8612, 10217, 10880, 11461, 11906, 12502, 13156, 13753, 14286]}, u'edge': {u'target': [], u'time': []}}, u'mouseout': {u'state': {u'target': [], u'time': []}, u'edge': {u'target': [], u'time': []}}}",,,"[23113, 627, 555]",33.84,,988896,11.0,7.0,mouselab-mdp,,11
"[18971, 27891, 29692]","[u'right', u'right', u'down']",,,"[5, 0, 1]","[u'1', 2, 6, 11]","{u'mouseover': {u'state': {u'target': [], u'time': []}, u'edge': {u'target': [], u'time': []}}, u'click': {u'state': {u'target': [u'3', u'2', u'6', u'10', u'11', u'5', u'9', u'17', u'16', u'4', u'8', u'14', u'12', u'13', u'7'], u'time': [1371, 2120, 3364, 3913, 4583, 6602, 7079, 7619, 8169, 9524, 10292, 11100, 11803, 13360, 15644]}, u'edge': {u'target': [], u'time': []}}, u'mouseout': {u'state': {u'target': [], u'time': []}, u'edge': {u'target': [], u'time': []}}}",,,"[18971, 1114, 1225]",37.85,,1044182,12.0,11.0,mouselab-mdp,,11
"[13158, 66180, 71997]","[u'right', u'right', u'down']",,,"[29, 0, 0]","[u'1', 2, 6, 11]","{u'mouseover': {u'state': {u'target': [], u'time': []}, u'edge': {u'target': [], u'time': []}}, u'click': {u'state': {u'target': [u'6', u'11', u'10'], u'time': [56421, 57922, 59941]}, u'edge': {u'target': [], u'time': []}}, u'mouseout': {u'state': {u'target': [], u'time': []}, u'edge': {u'target': [], u'time': []}}}",,,"[13156, 14617, 14]",37.97,,393616,1.0,11.0,mouselab-mdp,,12
"[13580, 31756, 33997]","[u'up', u'up', u'left']",,,"[3, 0, 0]","[u'1', 3, 7, 12]","{u'mouseover': {u'state': {u'target': [], u'time': []}, u'edge': {u'target': [], u'time': []}}, u'click': {u'state': {u'target': [u'3', u'7', u'13', u'12'], u'time': [2538, 3750, 5154, 6083]}, u'edge': {u'target': [], u'time': []}}, u'mouseout': {u'state': {u'target': [], u'time': []}, u'edge': {u'target': [], u'time': []}}}",,,"[13580, 1477, 11]",36.96,,462165,2.0,9.0,mouselab-mdp,,12
"[24971, 47249, 52175]","[u'left', u'left', u'down']",,,"[0, 0, 0]","[u'1', 4, 8, 15]","{u'mouseover': {u'state': {u'target': [], u'time': []}, u'edge': {u'target': [], u'time': []}}, u'click': {u'state': {u'target': [u'2', u'3', u'7', u'12', u'13', u'4', u'8', u'14', u'15', u'5', u'9', u'16', u'17', u'6'], u'time': [1364, 4826, 6441, 8369, 9504, 11072, 11947, 12926, 14073, 15288, 15930, 16943, 17816, 20995]}, u'edge': {u'target': [], u'time': []}}, u'mouseout': {u'state': {u'target': [], u'time': []}, u'edge': {u'target': [], u'time': []}}}",,,"[24971, 14, 3531]",39.86,,531765,3.0,0.0,mouselab-mdp,,12
"[16157, 38064, 39517]","[u'down', u'down', u'right']",,,"[0, 0, 0]","[u'1', 5, 9, 17]","{u'mouseover': {u'state': {u'target': [], u'time': []}, u'edge': {u'target': [], u'time': []}}, u'click': {u'state': {u'target': [u'2', u'3', u'4', u'5', u'9', u'16', u'17', u'8', u'15', u'14', u'7', u'12', u'13'], u'time': [1544, 2409, 3104, 3872, 4522, 5227, 6608, 8144, 8902, 9808, 11635, 12590, 13263]}, u'edge': {u'target': [], u'time': []}}, u'mouseout': {u'state': {u'target': [], u'time': []}, u'edge': {u'target': [], u'time': []}}}",,,"[16157, 13, 110]",41.87,,600951,4.0,4.0,mouselab-mdp,,12
"[32521, 53364, 57780]","[u'down', u'down', u'right']",,,"[0, 0, 0]","[u'1', 5, 9, 17]","{u'mouseover': {u'state': {u'target': [], u'time': []}, u'edge': {u'target': [], u'time': []}}, u'click': {u'state': {u'target': [u'2', u'6', u'10', u'11', u'4', u'3', u'7', u'13', u'12', u'5', u'9', u'17', u'16', u'8', u'15', u'14'], u'time': [1256, 3093, 4012, 5065, 6384, 7307, 8082, 8692, 10037, 11103, 11659, 12275, 13079, 16368, 17085, 18002]}, u'edge': {u'target': [], u'time': []}}, u'mouseout': {u'state': {u'target': [], u'time': []}, u'edge': {u'target': [], u'time': []}}}",,,"[32521, 38, 3873]",33.84,,669137,5.0,7.0,mouselab-mdp,,12
"[17198, 38157, 39441]","[u'down', u'down', u'left']",,,"[0, 0, 0]","[u'1', 5, 9, 16]","{u'mouseover': {u'state': {u'target': [], u'time': []}, u'edge': {u'target': [], u'time': []}}, u'click': {u'state': {u'target': [u'2', u'3', u'7', u'13', u'12', u'4', u'8', u'14', u'15', u'5', u'9', u'16', u'17', u'6', u'10', u'11'], u'time': [2544, 3302, 3924, 4844, 5603, 6620, 7251, 7655, 8432, 9093, 9603, 10117, 10708, 12474, 13028, 13758]}, u'edge': {u'target': [], u'time': []}}, u'mouseout': {u'state': {u'target': [], u'time': []}, u'edge': {u'target': [], u'time': []}}}",,,"[17197, 14, 707]",45.84,,737814,6.0,1.0,mouselab-mdp,,12
"[33533, 55754, 56877]","[u'right', u'right', u'up']",,,"[0, 0, 0]","[u'1', 2, 6, 10]","{u'mouseover': {u'state': {u'target': [], u'time': []}, u'edge': {u'target': [], u'time': []}}, u'click': {u'state': {u'target': [u'2', u'6', u'10', u'11', u'3', u'7', u'13', u'12', u'4', u'8', u'14', u'15', u'5', u'9', u'16', u'17'], u'time': [2190, 3116, 3762, 4660, 5762, 6619, 7158, 7954, 8857, 9397, 9838, 10647, 11409, 11889, 12326, 12927]}, u'edge': {u'target': [], u'time': []}}, u'mouseout': {u'state': {u'target': [], u'time': []}, u'edge': {u'target': [], u'time': []}}}",,,"[33532, 3269, 565]",21.84,,814664,7.0,10.0,mouselab-mdp,,12
"[18478, 44267, 45907]","[u'right', u'right', u'down']",,,"[0, 0, 0]","[u'1', 2, 6, 11]","{u'mouseover': {u'state': {u'target': [], u'time': []}, u'edge': {u'target': [], u'time': []}}, u'click': {u'state': {u'target': [u'2', u'3', u'4', u'5', u'9', u'17', u'16', u'8', u'14', u'15', u'6', u'10', u'11', u'13', u'7', u'12'], u'time': [1730, 2971, 3815, 4646, 5279, 5926, 6939, 7976, 8596, 9279, 10223, 10746, 11712, 13336, 13975, 14479]}, u'edge': {u'target': [], u'time': []}}, u'mouseout': {u'state': {u'target': [], u'time': []}, u'edge': {u'target': [], u'time': []}}}",,,"[18477, 4897, 1081]",37.84,,882621,8.0,6.0,mouselab-mdp,,12
"[28133, 49637, 52810]","[u'right', u'right', u'up']",,,"[0, 0, 0]","[u'1', 2, 6, 10]","{u'mouseover': {u'state': {u'target': [], u'time': []}, u'edge': {u'target': [], u'time': []}}, u'click': {u'state': {u'target': [u'2', u'3', u'4', u'5', u'9', u'17', u'16', u'8', u'14', u'15', u'6', u'10', u'11', u'7', u'13', u'12'], u'time': [1769, 2454, 3088, 3866, 4467, 4971, 5646, 6664, 7045, 7726, 9263, 9765, 10499, 12147, 12594, 13449]}, u'edge': {u'target': [], u'time': []}}, u'mouseout': {u'state': {u'target': [], u'time': []}, u'edge': {u'target': [], u'time': []}}}",,,"[28133, 14, 2613]",33.84,,951634,9.0,3.0,mouselab-mdp,,12
"[36054, 58178, 60429]","[u'up', u'up', u'left']",,,"[0, 0, 0]","[u'1', 3, 7, 12]","{u'mouseover': {u'state': {u'target': [], u'time': []}, u'edge': {u'target': [], u'time': []}}, u'click': {u'state': {u'target': [u'2', u'3', u'4', u'5', u'7', u'13', u'12', u'9', u'17', u'16', u'14', u'8', u'15', u'6', u'10', u'11'], u'time': [1179, 2053, 3006, 3651, 4780, 5332, 6052, 9154, 9769, 10799, 15690, 16464, 17130, 18330, 18786, 19423]}, u'edge': {u'target': [], u'time': []}}, u'mouseout': {u'state': {u'target': [], u'time': []}, u'edge': {u'target': [], u'time': []}}}",,,"[36053, 13, 1617]",40.84,,1023691,10.0,8.0,mouselab-mdp,,12
"[27746, 50841, 52152]","[u'left', u'left', u'up']",,,"[0, 0, 0]","[u'1', 4, 8, 14]","{u'mouseover': {u'state': {u'target': [], u'time': []}, u'edge': {u'target': [], u'time': []}}, u'click': {u'state': {u'target': [u'2', u'3', u'4', u'5', u'6', u'10', u'11', u'9', u'17', u'16', u'8', u'15', u'14', u'7', u'13', u'12'], u'time': [966, 1913, 2780, 3434, 4687, 5429, 6139, 7180, 7686, 8554, 9471, 9987, 10669, 12454, 13004, 13747]}, u'edge': {u'target': [], u'time': []}}, u'mouseout': {u'state': {u'target': [], u'time': []}, u'edge': {u'target': [], u'time': []}}}",,,"[27744, 1611, 754]",33.84,,1091926,11.0,5.0,mouselab-mdp,,12
"[30920, 55394, 56403]","[u'right', u'right', u'up']",,,"[0, 0, 0]","[u'1', 2, 6, 10]","{u'mouseover': {u'state': {u'target': [], u'time': []}, u'edge': {u'target': [], u'time': []}}, u'click': {u'state': {u'target': [u'2', u'3', u'5', u'4', u'16', u'9', u'17', u'8', u'14', u'15', u'7', u'13', u'12', u'6', u'10', u'11'], u'time': [1242, 1894, 2622, 3551, 4349, 4841, 5261, 6291, 6790, 8170, 9495, 10169, 10840, 12015, 12519, 13315]}, u'edge': {u'target': [], u'time': []}}, u'mouseout': {u'state': {u'target': [], u'time': []}, u'edge': {u'target': [], u'time': []}}}",,,"[30920, 3258, 408]",33.84,,1169894,12.0,2.0,mouselab-mdp,,12
"[2784, 44260, 49057]","[u'right', u'right', u'up']",,,"[29, 0, 5]","[u'1', 2, 6, 10]","{u'mouseover': {u'state': {u'target': [], u'time': []}, u'edge': {u'target': [], u'time': []}}, u'click': {u'state': {u'target': [u'6', u'10'], u'time': [42829, 47520]}, u'edge': {u'target': [], u'time': []}}, u'mouseout': {u'state': {u'target': [], u'time': []}, u'edge': {u'target': [], u'time': []}}}",,,"[2783, 6599, 1553]",27.98,,311418,1.0,8.0,mouselab-mdp,,13
"[7802, 44752, 48116]","[u'down', u'down', u'right']",,,"[9, 0, 19]","[u'1', 5, 9, 17]","{u'mouseover': {u'state': {u'target': [], u'time': []}, u'edge': {u'target': [], u'time': []}}, u'click': {u'state': {u'target': [u'3', u'5', u'2', u'4', u'9'], u'time': [2899, 4276, 6196, 7020, 36735]}, u'edge': {u'target': [], u'time': []}}, u'mouseout': {u'state': {u'target': [], u'time': []}, u'edge': {u'target': [], u'time': []}}}",,,"[7802, 17636, 7]",3.95,,413326,2.0,2.0,mouselab-mdp,,13
"[9922, 32862, 37359]","[u'down', u'down', u'left']",,,"[11, 0, 19]","[u'1', 5, 9, 16]","{u'mouseover': {u'state': {u'target': [], u'time': []}, u'edge': {u'target': [], u'time': []}}, u'click': {u'state': {u'target': [u'4', u'2', u'3', u'5'], u'time': [3717, 6740, 7967, 8702]}, u'edge': {u'target': [], u'time': []}}, u'mouseout': {u'state': {u'target': [], u'time': []}, u'edge': {u'target': [], u'time': []}}}",,,"[9922, 2229, 2400]",11.96,,510307,3.0,6.0,mouselab-mdp,,13
"[6765, 25326, 31800]","[u'right', u'right', u'up']",,,"[6, 0, 19]","[u'1', 2, 6, 10]","{u'mouseover': {u'state': {u'target': [], u'time': []}, u'edge': {u'target': [], u'time': []}}, u'click': {u'state': {u'target': [u'3', u'4', u'5', u'2'], u'time': [2020, 4132, 5090, 5770]}, u'edge': {u'target': [], u'time': []}}, u'mouseout': {u'state': {u'target': [], u'time': []}, u'edge': {u'target': [], u'time': []}}}",,,"[6764, 1627, 3315]",23.96,,603128,4.0,11.0,mouselab-mdp,,13
"[4002, 36545, 40411]","[u'left', u'left', u'up']",,,"[6, 0, 0]","[u'1', 4, 8, 14]","{u'mouseover': {u'state': {u'target': [], u'time': []}, u'edge': {u'target': [], u'time': []}}, u'click': {u'state': {u'target': [u'3', u'4', u'5', u'2', u'14', u'15'], u'time': [1479, 1994, 2597, 3071, 31088, 32644]}, u'edge': {u'target': [], u'time': []}}, u'mouseout': {u'state': {u'target': [], u'time': []}, u'edge': {u'target': [], u'time': []}}}",,,"[4002, 15829, 5]",15.94,,681887,5.0,4.0,mouselab-mdp,,13
"[39528, 65825, 68947]","[u'right', u'right', u'up']",,,"[8, 0, 0]","[u'1', 2, 6, 10]","{u'mouseover': {u'state': {u'target': [], u'time': []}, u'edge': {u'target': [], u'time': []}}, u'click': {u'state': {u'target': [u'13', u'6', u'4', u'9', u'3', u'5', u'2', u'14', u'15', u'11', u'17', u'10'], u'time': [16666, 19568, 21439, 23504, 25175, 27665, 28152, 29847, 31140, 34537, 35914, 36696]}, u'edge': {u'target': [], u'time': []}}, u'mouseout': {u'state': {u'target': [], u'time': []}, u'edge': {u'target': [], u'time': []}}}",,,"[39528, 1456, 1777]",21.88,,758554,6.0,10.0,mouselab-mdp,,13
"[6338, 32924, 86878]","[u'down', u'down', u'right']",,,"[10, 0, 0]","[u'1', 5, 9, 17]","{u'mouseover': {u'state': {u'target': [], u'time': []}, u'edge': {u'target': [], u'time': []}}, u'click': {u'state': {u'target': [u'7', u'9', u'17', u'16'], u'time': [2506, 4528, 35184, 36122]}, u'edge': {u'target': [], u'time': []}}, u'mouseout': {u'state': {u'target': [], u'time': []}, u'edge': {u'target': [], u'time': []}}}",,,"[6338, 8843, 51926]",9.96,,858141,7.0,0.0,mouselab-mdp,,13
"[10572, 39858, 46111]","[u'right', u'right', u'down']",,,"[9, 0, 0]","[u'1', 2, 6, 11]","{u'mouseover': {u'state': {u'target': [], u'time': []}, u'edge': {u'target': [], u'time': []}}, u'click': {u'state': {u'target': [u'9', u'7', u'6', u'8', u'10', u'11'], u'time': [4598, 6725, 8151, 8925, 43615, 44405]}, u'edge': {u'target': [], u'time': []}}, u'mouseout': {u'state': {u'target': [], u'time': []}, u'edge': {u'target': [], u'time': []}}}",,,"[10572, 9876, 3714]",15.94,,933241,8.0,9.0,mouselab-mdp,,13
"[6793, 30253, 35611]","[u'down', u'down', u'left']",,,"[11, 0, 8]","[u'1', 5, 9, 16]","{u'mouseover': {u'state': {u'target': [], u'time': []}, u'edge': {u'target': [], u'time': []}}, u'click': {u'state': {u'target': [u'8', u'6', u'7', u'9', u'16', u'17'], u'time': [1675, 3005, 3924, 4685, 33670, 34405]}, u'edge': {u'target': [], u'time': []}}, u'mouseout': {u'state': {u'target': [], u'time': []}, u'edge': {u'target': [], u'time': []}}}",,,"[6793, 1791, 3183]",45.94,,1018605,9.0,1.0,mouselab-mdp,,13
"[10482, 41446, 47956]","[u'left', u'left', u'down']",,,"[15, 0, 0]","[u'1', 4, 8, 15]","{u'mouseover': {u'state': {u'target': [], u'time': []}, u'edge': {u'target': [], u'time': []}}, u'click': {u'state': {u'target': [u'6', u'7', u'8', u'9', u'4', u'14', u'15'], u'time': [4790, 5511, 6069, 6648, 8063, 46353, 47050]}, u'edge': {u'target': [], u'time': []}}, u'mouseout': {u'state': {u'target': [], u'time': []}, u'edge': {u'target': [], u'time': []}}}",,,"[10481, 5033, 4300]",25.93,,1108275,10.0,3.0,mouselab-mdp,,13
"[10128, 34123, 46185]","[u'up', u'up', u'right']",,,"[8, 0, 0]","[u'1', 3, 7, 13]","{u'mouseover': {u'state': {u'target': [], u'time': []}, u'edge': {u'target': [], u'time': []}}, u'click': {u'state': {u'target': [u'4', u'2', u'3', u'5', u'13', u'12'], u'time': [6834, 7762, 8384, 8957, 31595, 32568]}, u'edge': {u'target': [], u'time': []}}, u'mouseout': {u'state': {u'target': [], u'time': []}, u'edge': {u'target': [], u'time': []}}}",,,"[10128, 5304, 7567]",0.94,,1178791,11.0,5.0,mouselab-mdp,,13
"[9205, 38104, 42952]","[u'right', u'right', u'up']",,,"[8, 0, 0]","[u'1', 2, 6, 10]","{u'mouseover': {u'state': {u'target': [], u'time': []}, u'edge': {u'target': [], u'time': []}}, u'click': {u'state': {u'target': [u'3', u'5', u'2', u'4', u'10', u'11'], u'time': [5625, 6490, 6863, 7558, 36420, 37027]}, u'edge': {u'target': [], u'time': []}}, u'mouseout': {u'state': {u'target': [], u'time': []}, u'edge': {u'target': [], u'time': []}}}",,,"[9204, 7925, 16]",7.94,,1263899,12.0,7.0,mouselab-mdp,,13
"[13407, 26904, 31510]","[u'down', u'down', u'right']",,,"[5, 0, 1]","[u'1', 5, 9, 17]","{u'mouseover': {u'state': {u'target': [], u'time': []}, u'edge': {u'target': [], u'time': []}}, u'click': {u'state': {u'target': [], u'time': []}, u'edge': {u'target': [], u'time': []}}, u'mouseout': {u'state': {u'target': [], u'time': []}, u'edge': {u'target': [], u'time': []}}}",,,"[13405, 1530, 2380]",42.0,,257086,1.0,4.0,mouselab-mdp,,14
"[7235, 22582, 28914]","[u'right', u'right', u'up']",,,"[5, 0, 1]","[u'1', 2, 6, 10]","{u'mouseover': {u'state': {u'target': [], u'time': []}, u'edge': {u'target': [], u'time': []}}, u'click': {u'state': {u'target': [], u'time': []}, u'edge': {u'target': [], u'time': []}}, u'mouseout': {u'state': {u'target': [], u'time': []}, u'edge': {u'target': [], u'time': []}}}",,,"[7234, 3392, 4087]",8.0,,327996,2.0,0.0,mouselab-mdp,,14
"[1918, 16213, 22811]","[u'up', u'up', u'right']",,,"[5, 0, 1]","[u'1', 3, 7, 13]","{u'mouseover': {u'state': {u'target': [], u'time': []}, u'edge': {u'target': [], u'time': []}}, u'click': {u'state': {u'target': [], u'time': []}, u'edge': {u'target': [], u'time': []}}, u'mouseout': {u'state': {u'target': [], u'time': []}, u'edge': {u'target': [], u'time': []}}}",,,"[1918, 2364, 4332]",25.0,,394045,3.0,11.0,mouselab-mdp,,14
"[3056, 16477, 27429]","[u'left', u'left', u'down']",,,"[5, 0, 1]","[u'1', 4, 8, 15]","{u'mouseover': {u'state': {u'target': [], u'time': []}, u'edge': {u'target': [], u'time': []}}, u'click': {u'state': {u'target': [], u'time': []}, u'edge': {u'target': [], u'time': []}}, u'mouseout': {u'state': {u'target': [], u'time': []}, u'edge': {u'target': [], u'time': []}}}",,,"[3056, 1564, 8720]",6.0,,465663,4.0,10.0,mouselab-mdp,,14
"[2600, 16395, 26440]","[u'up', u'up', u'left']",,,"[5, 0, 1]","[u'1', 3, 7, 12]","{u'mouseover': {u'state': {u'target': [], u'time': []}, u'edge': {u'target': [], u'time': []}}, u'click': {u'state': {u'target': [], u'time': []}, u'edge': {u'target': [], u'time': []}}, u'mouseout': {u'state': {u'target': [], u'time': []}, u'edge': {u'target': [], u'time': []}}}",,,"[2600, 1902, 7806]",1.0,,531484,5.0,5.0,mouselab-mdp,,14
"[2288, 17534, 22770]","[u'right', u'right', u'down']",,,"[5, 0, 1]","[u'1', 2, 6, 11]","{u'mouseover': {u'state': {u'target': [], u'time': []}, u'edge': {u'target': [], u'time': []}}, u'click': {u'state': {u'target': [], u'time': []}, u'edge': {u'target': [], u'time': []}}, u'mouseout': {u'state': {u'target': [], u'time': []}, u'edge': {u'target': [], u'time': []}}}",,,"[2288, 3205, 2974]",16.0,,598087,6.0,9.0,mouselab-mdp,,14
"[4071, 16593, 32898]","[u'down', u'down', u'left']",,,"[5, 0, 1]","[u'1', 5, 9, 16]","{u'mouseover': {u'state': {u'target': [], u'time': []}, u'edge': {u'target': [], u'time': []}}, u'click': {u'state': {u'target': [], u'time': []}, u'edge': {u'target': [], u'time': []}}, u'mouseout': {u'state': {u'target': [], u'time': []}, u'edge': {u'target': [], u'time': []}}}",,,"[4071, 547, 14070]",12.0,,663482,7.0,6.0,mouselab-mdp,,14
"[3564, 16838, 32233]","[u'up', u'up', u'right']",,,"[5, 0, 1]","[u'1', 3, 7, 13]","{u'mouseover': {u'state': {u'target': [], u'time': []}, u'edge': {u'target': [], u'time': []}}, u'click': {u'state': {u'target': [], u'time': []}, u'edge': {u'target': [], u'time': []}}, u'mouseout': {u'state': {u'target': [], u'time': []}, u'edge': {u'target': [], u'time': []}}}",,,"[3564, 1266, 13105]",21.0,,732804,8.0,1.0,mouselab-mdp,,14
"[2226, 15955, 26477]","[u'left', u'left', u'up']",,,"[5, 0, 1]","[u'1', 4, 8, 14]","{u'mouseover': {u'state': {u'target': [], u'time': []}, u'edge': {u'target': [], u'time': []}}, u'click': {u'state': {u'target': [], u'time': []}, u'edge': {u'target': [], u'time': []}}, u'mouseout': {u'state': {u'target': [], u'time': []}, u'edge': {u'target': [], u'time': []}}}",,,"[2226, 1589, 8228]",4.0,,803429,9.0,3.0,mouselab-mdp,,14
"[2429, 17097, 27329]","[u'down', u'down', u'left']",,,"[5, 0, 1]","[u'1', 5, 9, 16]","{u'mouseover': {u'state': {u'target': [], u'time': []}, u'edge': {u'target': [], u'time': []}}, u'click': {u'state': {u'target': [], u'time': []}, u'edge': {u'target': [], u'time': []}}, u'mouseout': {u'state': {u'target': [], u'time': []}, u'edge': {u'target': [], u'time': []}}}",,,"[2428, 2404, 7907]",4.0,,909209,10.0,2.0,mouselab-mdp,,14
"[6413, 20541, 41677]","[u'up', u'up', u'right']",,,"[5, 0, 1]","[u'1', 3, 7, 13]","{u'mouseover': {u'state': {u'target': [], u'time': []}, u'edge': {u'target': [], u'time': []}}, u'click': {u'state': {u'target': [], u'time': []}, u'edge': {u'target': [], u'time': []}}, u'mouseout': {u'state': {u'target': [], u'time': []}, u'edge': {u'target': [], u'time': []}}}",,,"[6412, 1920, 18778]",35.0,,996108,11.0,8.0,mouselab-mdp,,14
"[13360, 30313, 46155]","[u'right', u'right', u'up']",,,"[5, 0, 1]","[u'1', 2, 6, 10]","{u'mouseover': {u'state': {u'target': [], u'time': []}, u'edge': {u'target': [], u'time': []}}, u'click': {u'state': {u'target': [], u'time': []}, u'edge': {u'target': [], u'time': []}}, u'mouseout': {u'state': {u'target': [], u'time': []}, u'edge': {u'target': [], u'time': []}}}",,,"[13359, 4779, 13538]",8.0,,1063340,12.0,7.0,mouselab-mdp,,14
"[9925, 48712, 50898]","[u'left', u'left', u'up']",,,"[13, 0, 0]","[u'1', 4, 8, 14]","{u'mouseover': {u'state': {u'target': [], u'time': []}, u'edge': {u'target': [], u'time': []}}, u'click': {u'state': {u'target': [u'8', u'14', u'15', u'4', u'3', u'7', u'12', u'13', u'2', u'6', u'10', u'11'], u'time': [2570, 3670, 5087, 6235, 31185, 32411, 33345, 34335, 35507, 36419, 37294, 39052]}, u'edge': {u'target': [], u'time': []}}, u'mouseout': {u'state': {u'target': [], u'time': []}, u'edge': {u'target': [], u'time': []}}}",,,"[9925, 22317, 17]",15.88,,376678,1.0,11.0,mouselab-mdp,,15
"[15429, 22562, 23732]","[u'up', u'up', u'left']",,,"[2, 0, 0]","[u'1', 3, 7, 12]","{u'mouseover': {u'state': {u'target': [], u'time': []}, u'edge': {u'target': [], u'time': []}}, u'click': {u'state': {u'target': [u'6', u'10', u'11', u'2', u'7', u'12', u'13', u'3'], u'time': [3721, 4756, 6081, 7298, 8884, 9917, 11109, 12303]}, u'edge': {u'target': [], u'time': []}}, u'mouseout': {u'state': {u'target': [], u'time': []}, u'edge': {u'target': [], u'time': []}}}",,,"[15429, 866, 381]",40.92,,430509,2.0,8.0,mouselab-mdp,,15
"[22836, 28110, 29552]","[u'left', u'left', u'up']",,,"[0, 0, 0]","[u'1', 4, 8, 14]","{u'mouseover': {u'state': {u'target': [], u'time': []}, u'edge': {u'target': [], u'time': []}}, u'click': {u'state': {u'target': [u'8', u'4', u'14', u'15', u'5', u'9', u'17', u'16', u'7', u'13', u'12', u'3', u'2', u'6', u'10'], u'time': [2260, 3419, 5162, 6354, 8346, 9246, 10123, 11260, 12733, 13745, 15197, 16704, 17751, 18808, 20384]}, u'edge': {u'target': [], u'time': []}}, u'mouseout': {u'state': {u'target': [], u'time': []}, u'edge': {u'target': [], u'time': []}}}",,,"[22836, 3, 753]",39.85,,481878,3.0,0.0,mouselab-mdp,,15
"[28789, 33581, 34987]","[u'down', u'down', u'right']",,,"[0, 0, 0]","[u'1', 5, 9, 17]","{u'mouseover': {u'state': {u'target': [], u'time': []}, u'edge': {u'target': [], u'time': []}}, u'click': {u'state': {u'target': [u'12', u'7', u'13', u'3', u'10', u'6', u'11', u'2', u'5', u'9', u'17', u'16', u'8', u'4', u'15', u'14'], u'time': [1793, 2668, 3454, 4616, 5615, 6694, 7605, 9000, 10339, 11464, 12454, 13432, 14783, 15773, 16829, 18371]}, u'edge': {u'target': [], u'time': []}}, u'mouseout': {u'state': {u'target': [], u'time': []}, u'edge': {u'target': [], u'time': []}}}",,,"[28789, 3, 903]",33.84,,532660,4.0,7.0,mouselab-mdp,,15
"[26920, 31679, 32804]","[u'right', u'right', u'up']",,,"[0, 0, 0]","[u'1', 2, 6, 10]","{u'mouseover': {u'state': {u'target': [], u'time': []}, u'edge': {u'target': [], u'time': []}}, u'click': {u'state': {u'target': [u'6', u'2', u'10', u'11', u'9', u'5', u'16', u'17', u'7', u'12', u'13', u'3', u'4', u'8', u'14', u'15'], u'time': [2557, 3647, 5523, 6424, 7729, 8864, 9674, 10585, 11856, 12677, 13612, 14567, 15761, 16649, 17447, 18887]}, u'edge': {u'target': [], u'time': []}}, u'mouseout': {u'state': {u'target': [], u'time': []}, u'edge': {u'target': [], u'time': []}}}",,,"[26920, 3, 622]",21.84,,584162,5.0,10.0,mouselab-mdp,,15
"[22118, 27154, 28147]","[u'down', u'down', u'right']",,,"[0, 0, 0]","[u'1', 5, 9, 17]","{u'mouseover': {u'state': {u'target': [], u'time': []}, u'edge': {u'target': [], u'time': []}}, u'click': {u'state': {u'target': [u'10', u'6', u'11', u'2', u'5', u'9', u'17', u'16', u'14', u'8', u'4', u'15', u'12', u'7', u'3', u'13'], u'time': [2262, 3206, 4366, 5513, 6435, 7594, 8516, 9630, 10924, 11913, 12802, 13815, 15210, 16887, 17877, 18990]}, u'edge': {u'target': [], u'time': []}}, u'mouseout': {u'state': {u'target': [], u'time': []}, u'edge': {u'target': [], u'time': []}}}",,,"[22117, 3, 493]",41.84,,636407,6.0,4.0,mouselab-mdp,,15
"[18049, 22924, 23876]","[u'right', u'right', u'down']",,,"[0, 0, 0]","[u'1', 2, 6, 11]","{u'mouseover': {u'state': {u'target': [], u'time': []}, u'edge': {u'target': [], u'time': []}}, u'click': {u'state': {u'target': [u'12', u'7', u'13', u'3', u'10', u'6', u'11', u'2', u'5', u'9', u'17', u'16', u'4', u'8', u'14', u'15'], u'time': [2040, 2827, 3605, 4864, 5820, 6798, 7754, 8643, 9802, 10646, 11479, 12435, 13639, 14392, 15180, 16373]}, u'edge': {u'target': [], u'time': []}}, u'mouseout': {u'state': {u'target': [], u'time': []}, u'edge': {u'target': [], u'time': []}}}",,,"[18049, 4, 453]",37.84,,686516,7.0,6.0,mouselab-mdp,,15
"[19371, 24331, 25558]","[u'right', u'right', u'up']",,,"[0, 0, 0]","[u'1', 2, 6, 10]","{u'mouseover': {u'state': {u'target': [], u'time': []}, u'edge': {u'target': [], u'time': []}}, u'click': {u'state': {u'target': [u'12', u'7', u'13', u'3', u'6', u'2', u'10', u'11', u'17', u'9', u'16', u'5', u'4', u'14', u'15'], u'time': [2241, 3116, 4476, 5411, 6423, 7390, 8291, 9448, 10641, 11496, 12217, 13476, 14556, 15423, 16614]}, u'edge': {u'target': [], u'time': []}}, u'mouseout': {u'state': {u'target': [], u'time': []}, u'edge': {u'target': [], u'time': []}}}",,,"[19371, 3, 602]",33.85,,738412,8.0,2.0,mouselab-mdp,,15
"[19791, 25226, 26271]","[u'down', u'down', u'left']",,,"[0, 0, 0]","[u'1', 5, 9, 16]","{u'mouseover': {u'state': {u'target': [], u'time': []}, u'edge': {u'target': [], u'time': []}}, u'click': {u'state': {u'target': [u'10', u'6', u'11', u'2', u'5', u'9', u'17', u'16', u'15', u'8', u'14', u'4', u'7', u'12', u'13'], u'time': [2267, 3166, 4123, 5134, 6348, 7371, 8361, 9464, 10892, 12041, 13525, 14516, 15820, 16641, 17687]}, u'edge': {u'target': [], u'time': []}}, u'mouseout': {u'state': {u'target': [], u'time': []}, u'edge': {u'target': [], u'time': []}}}",,,"[19791, 3, 411]",45.85,,789735,9.0,1.0,mouselab-mdp,,15
"[24126, 30107, 31225]","[u'up', u'up', u'left']",,,"[0, 0, 0]","[u'1', 3, 7, 12]","{u'mouseover': {u'state': {u'target': [], u'time': []}, u'edge': {u'target': [], u'time': []}}, u'click': {u'state': {u'target': [u'12', u'7', u'13', u'10', u'6', u'11', u'17', u'9', u'16', u'8', u'14', u'15', u'3', u'2'], u'time': [3104, 4306, 5272, 7413, 8432, 9322, 10278, 11031, 12010, 13303, 14441, 15542, 17219, 18333]}, u'edge': {u'target': [], u'time': []}}, u'mouseout': {u'state': {u'target': [], u'time': []}, u'edge': {u'target': [], u'time': []}}}",,,"[24126, 3, 443]",36.86,,843295,10.0,9.0,mouselab-mdp,,15
"[21123, 27356, 28356]","[u'right', u'right', u'up']",,,"[0, 0, 0]","[u'1', 2, 6, 10]","{u'mouseover': {u'state': {u'target': [], u'time': []}, u'edge': {u'target': [], u'time': []}}, u'click': {u'state': {u'target': [u'12', u'7', u'13', u'10', u'6', u'11', u'2', u'9', u'17', u'16', u'15', u'8', u'14', u'4'], u'time': [2066, 3754, 5115, 6082, 7094, 8039, 9097, 10784, 11572, 12618, 13810, 14724, 15613, 16882]}, u'edge': {u'target': [], u'time': []}}, u'mouseout': {u'state': {u'target': [], u'time': []}, u'edge': {u'target': [], u'time': []}}}",,,"[21123, 3, 318]",33.86,,898848,11.0,3.0,mouselab-mdp,,15
"[21404, 27752, 28751]","[u'left', u'left', u'up']",,,"[0, 0, 0]","[u'1', 4, 8, 14]","{u'mouseover': {u'state': {u'target': [], u'time': []}, u'edge': {u'target': [], u'time': []}}, u'click': {u'state': {u'target': [u'10', u'6', u'11', u'12', u'7', u'13', u'9', u'17', u'16', u'15', u'8', u'14', u'4', u'2', u'5', u'3'], u'time': [2201, 3113, 4101, 6463, 7409, 8365, 9512, 10423, 11425, 12572, 13619, 14395, 15452, 16746, 17804, 19379]}, u'edge': {u'target': [], u'time': []}}, u'mouseout': {u'state': {u'target': [], u'time': []}, u'edge': {u'target': [], u'time': []}}}",,,"[21404, 3, 499]",33.84,,958722,12.0,5.0,mouselab-mdp,,15
"[10790, 19618, 22689]","[u'right', u'right', u'down']",,,"[5, 0, 1]","[u'1', 2, 6, 11]","{u'mouseover': {u'state': {u'target': [], u'time': []}, u'edge': {u'target': [], u'time': []}}, u'click': {u'state': {u'target': [u'13', u'3'], u'time': [3099, 5697]}, u'edge': {u'target': [], u'time': []}}, u'mouseout': {u'state': {u'target': [], u'time': []}, u'edge': {u'target': [], u'time': []}}}",,,"[10789, 1376, 2248]",-7.6,,119175,1.0,0.0,mouselab-mdp,,16
"[1104, 8135, 9895]","[u'left', u'left', u'up']",,,"[5, 0, 1]","[u'1', 4, 8, 14]","{u'mouseover': {u'state': {u'target': [], u'time': []}, u'edge': {u'target': [], u'time': []}}, u'click': {u'state': {u'target': [], u'time': []}, u'edge': {u'target': [], u'time': []}}, u'mouseout': {u'state': {u'target': [], u'time': []}, u'edge': {u'target': [], u'time': []}}}",,,"[1104, 378, 924]",8.0,,181938,2.0,9.0,mouselab-mdp,,16
"[498, 7438, 9464]","[u'up', u'up', u'left']",,,"[5, 0, 1]","[u'1', 3, 7, 12]","{u'mouseover': {u'state': {u'target': [], u'time': []}, u'edge': {u'target': [], u'time': []}}, u'click': {u'state': {u'target': [], u'time': []}, u'edge': {u'target': [], u'time': []}}, u'mouseout': {u'state': {u'target': [], u'time': []}, u'edge': {u'target': [], u'time': []}}}",,,"[498, 291, 1211]",41.0,,252116,3.0,8.0,mouselab-mdp,,16
"[636, 7832, 9283]","[u'down', u'down', u'right']",,,"[5, 0, 1]","[u'1', 5, 9, 17]","{u'mouseover': {u'state': {u'target': [], u'time': []}, u'edge': {u'target': [], u'time': []}}, u'click': {u'state': {u'target': [], u'time': []}, u'edge': {u'target': [], u'time': []}}, u'mouseout': {u'state': {u'target': [], u'time': []}, u'edge': {u'target': [], u'time': []}}}",,,"[636, 492, 628]",2.0,,314947,4.0,10.0,mouselab-mdp,,16
"[915, 7905, 9255]","[u'right', u'right', u'up']",,,"[5, 0, 1]","[u'1', 2, 6, 10]","{u'mouseover': {u'state': {u'target': [], u'time': []}, u'edge': {u'target': [], u'time': []}}, u'click': {u'state': {u'target': [], u'time': []}, u'edge': {u'target': [], u'time': []}}, u'mouseout': {u'state': {u'target': [], u'time': []}, u'edge': {u'target': [], u'time': []}}}",,,"[915, 326, 532]",34.0,,370427,5.0,2.0,mouselab-mdp,,16
"[626, 7968, 9313]","[u'left', u'left', u'down']",,,"[5, 0, 1]","[u'1', 4, 8, 15]","{u'mouseover': {u'state': {u'target': [], u'time': []}, u'edge': {u'target': [], u'time': []}}, u'click': {u'state': {u'target': [], u'time': []}, u'edge': {u'target': [], u'time': []}}, u'mouseout': {u'state': {u'target': [], u'time': []}, u'edge': {u'target': [], u'time': []}}}",,,"[626, 694, 520]",4.0,,425048,6.0,5.0,mouselab-mdp,,16
"[505, 7839, 9488]","[u'up', u'up', u'left']",,,"[5, 0, 1]","[u'1', 3, 7, 12]","{u'mouseover': {u'state': {u'target': [], u'time': []}, u'edge': {u'target': [], u'time': []}}, u'click': {u'state': {u'target': [], u'time': []}, u'edge': {u'target': [], u'time': []}}, u'mouseout': {u'state': {u'target': [], u'time': []}, u'edge': {u'target': [], u'time': []}}}",,,"[505, 317, 798]",23.0,,479804,7.0,4.0,mouselab-mdp,,16
"[1367, 8555, 9959]","[u'down', u'down', u'left']",,,"[5, 0, 1]","[u'1', 5, 9, 16]","{u'mouseover': {u'state': {u'target': [], u'time': []}, u'edge': {u'target': [], u'time': []}}, u'click': {u'state': {u'target': [], u'time': []}, u'edge': {u'target': [], u'time': []}}, u'mouseout': {u'state': {u'target': [], u'time': []}, u'edge': {u'target': [], u'time': []}}}",,,"[1367, 207, 506]",46.0,,541878,8.0,1.0,mouselab-mdp,,16
"[359, 7134, 8486]","[u'left', u'left', u'up']",,,"[5, 0, 1]","[u'1', 4, 8, 14]","{u'mouseover': {u'state': {u'target': [], u'time': []}, u'edge': {u'target': [], u'time': []}}, u'click': {u'state': {u'target': [], u'time': []}, u'edge': {u'target': [], u'time': []}}, u'mouseout': {u'state': {u'target': [], u'time': []}, u'edge': {u'target': [], u'time': []}}}",,,"[359, 48, 532]",4.0,,598861,9.0,3.0,mouselab-mdp,,16
"[336, 8257, 10033]","[u'right', u'right', u'down']",,,"[5, 0, 1]","[u'1', 2, 6, 11]","{u'mouseover': {u'state': {u'target': [], u'time': []}, u'edge': {u'target': [], u'time': []}}, u'click': {u'state': {u'target': [], u'time': []}, u'edge': {u'target': [], u'time': []}}, u'mouseout': {u'state': {u'target': [], u'time': []}, u'edge': {u'target': [], u'time': []}}}",,,"[335, 901, 957]",2.0,,658244,10.0,7.0,mouselab-mdp,,16
"[39226, 46797, 47823]","[u'right', u'right', u'up']",,,"[5, 0, 1]","[u'1', 2, 6, 10]","{u'mouseover': {u'state': {u'target': [], u'time': []}, u'edge': {u'target': [], u'time': []}}, u'click': {u'state': {u'target': [], u'time': []}, u'edge': {u'target': [], u'time': []}}, u'mouseout': {u'state': {u'target': [], u'time': []}, u'edge': {u'target': [], u'time': []}}}",,,"[39226, 850, 3]",24.0,,716395,11.0,11.0,mouselab-mdp,,16
"[1486, 8544, 9768]","[u'down', u'down', u'right']",,,"[5, 0, 1]","[u'1', 5, 9, 17]","{u'mouseover': {u'state': {u'target': [], u'time': []}, u'edge': {u'target': [], u'time': []}}, u'click': {u'state': {u'target': [], u'time': []}, u'edge': {u'target': [], u'time': []}}, u'mouseout': {u'state': {u'target': [], u'time': []}, u'edge': {u'target': [], u'time': []}}}",,,"[1486, 351, 385]",8.0,,781599,12.0,6.0,mouselab-mdp,,16
"[21320, 36023, 37723]","[u'right', u'right', u'up']",,,"[5, 0, 1]","[u'1', 2, 6, 10]","{u'mouseover': {u'state': {u'target': [], u'time': []}, u'edge': {u'target': [], u'time': []}}, u'click': {u'state': {u'target': [u'3', u'7', u'12', u'4', u'8', u'5', u'9'], u'time': [3136, 5355, 7025, 11379, 12749, 16614, 19318]}, u'edge': {u'target': [], u'time': []}}, u'mouseout': {u'state': {u'target': [], u'time': []}, u'edge': {u'target': [], u'time': []}}}",,,"[21320, 5747, 743]",8.4,,188924,1.0,8.0,mouselab-mdp,,17
"[2301, 10555, 12474]","[u'right', u'right', u'down']",,,"[5, 0, 1]","[u'1', 2, 6, 11]","{u'mouseover': {u'state': {u'target': [], u'time': []}, u'edge': {u'target': [], u'time': []}}, u'click': {u'state': {u'target': [], u'time': []}, u'edge': {u'target': [], u'time': []}}, u'mouseout': {u'state': {u'target': [], u'time': []}, u'edge': {u'target': [], u'time': []}}}",,,"[2301, 1219, 901]",38.0,,248321,2.0,11.0,mouselab-mdp,,17
"[1059, 8952, 10891]","[u'up', u'up', u'left']",,,"[5, 0, 1]","[u'1', 3, 7, 12]","{u'mouseover': {u'state': {u'target': [], u'time': []}, u'edge': {u'target': [], u'time': []}}, u'click': {u'state': {u'target': [], u'time': []}, u'edge': {u'target': [], u'time': []}}, u'mouseout': {u'state': {u'target': [], u'time': []}, u'edge': {u'target': [], u'time': []}}}",,,"[1059, 821, 988]",21.0,,309475,3.0,1.0,mouselab-mdp,,17
"[5070, 13931, 16979]","[u'down', u'down', u'right']",,,"[5, 0, 1]","[u'1', 5, 9, 17]","{u'mouseover': {u'state': {u'target': [], u'time': []}, u'edge': {u'target': [], u'time': []}}, u'click': {u'state': {u'target': [], u'time': []}, u'edge': {u'target': [], u'time': []}}, u'mouseout': {u'state': {u'target': [], u'time': []}, u'edge': {u'target': [], u'time': []}}}",,,"[5070, 1763, 2110]",34.0,,365930,4.0,7.0,mouselab-mdp,,17
"[2661, 10245, 13316]","[u'left', u'left', u'down']",,,"[5, 0, 1]","[u'1', 4, 8, 15]","{u'mouseover': {u'state': {u'target': [], u'time': []}, u'edge': {u'target': [], u'time': []}}, u'click': {u'state': {u'target': [], u'time': []}, u'edge': {u'target': [], u'time': []}}, u'mouseout': {u'state': {u'target': [], u'time': []}, u'edge': {u'target': [], u'time': []}}}",,,"[2661, 553, 2066]",6.0,,421622,5.0,10.0,mouselab-mdp,,17
"[3961, 11659, 14364]","[u'up', u'up', u'right']",,,"[5, 0, 1]","[u'1', 3, 7, 13]","{u'mouseover': {u'state': {u'target': [], u'time': []}, u'edge': {u'target': [], u'time': []}}, u'click': {u'state': {u'target': [], u'time': []}, u'edge': {u'target': [], u'time': []}}, u'mouseout': {u'state': {u'target': [], u'time': []}, u'edge': {u'target': [], u'time': []}}}",,,"[3960, 670, 1735]",31.0,,481333,6.0,9.0,mouselab-mdp,,17
"[3728, 11366, 14786]","[u'right', u'right', u'up']",,,"[5, 0, 1]","[u'1', 2, 6, 10]","{u'mouseover': {u'state': {u'target': [], u'time': []}, u'edge': {u'target': [], u'time': []}}, u'click': {u'state': {u'target': [], u'time': []}, u'edge': {u'target': [], u'time': []}}, u'mouseout': {u'state': {u'target': [], u'time': []}, u'edge': {u'target': [], u'time': []}}}",,,"[3728, 616, 2425]",6.0,,537233,7.0,5.0,mouselab-mdp,,17
"[3981, 11849, 14755]","[u'up', u'up', u'left']",,,"[5, 0, 1]","[u'1', 3, 7, 12]","{u'mouseover': {u'state': {u'target': [], u'time': []}, u'edge': {u'target': [], u'time': []}}, u'click': {u'state': {u'target': [], u'time': []}, u'edge': {u'target': [], u'time': []}}, u'mouseout': {u'state': {u'target': [], u'time': []}, u'edge': {u'target': [], u'time': []}}}",,,"[3981, 761, 1964]",5.0,,594083,8.0,6.0,mouselab-mdp,,17
"[4287, 12108, 14745]","[u'down', u'down', u'left']",,,"[5, 0, 1]","[u'1', 5, 9, 16]","{u'mouseover': {u'state': {u'target': [], u'time': []}, u'edge': {u'target': [], u'time': []}}, u'click': {u'state': {u'target': [], u'time': []}, u'edge': {u'target': [], u'time': []}}, u'mouseout': {u'state': {u'target': [], u'time': []}, u'edge': {u'target': [], u'time': []}}}",,,"[4287, 842, 1686]",14.0,,651980,9.0,4.0,mouselab-mdp,,17
"[7157, 17050, 25710]","[u'right', u'right', u'down']",,,"[5, 0, 1]","[u'1', 2, 6, 11]","{u'mouseover': {u'state': {u'target': [], u'time': []}, u'edge': {u'target': [], u'time': []}}, u'click': {u'state': {u'target': [u'10', u'11'], u'time': [20941, 22310]}, u'edge': {u'target': [], u'time': []}}, u'mouseout': {u'state': {u'target': [], u'time': []}, u'edge': {u'target': [], u'time': []}}}",,,"[7157, 614, 7654]",-7.6,,713491,10.0,0.0,mouselab-mdp,,17
"[2455, 10138, 12781]","[u'up', u'up', u'right']",,,"[5, 0, 1]","[u'1', 3, 7, 13]","{u'mouseover': {u'state': {u'target': [], u'time': []}, u'edge': {u'target': [], u'time': []}}, u'click': {u'state': {u'target': [], u'time': []}, u'edge': {u'target': [], u'time': []}}, u'mouseout': {u'state': {u'target': [], u'time': []}, u'edge': {u'target': [], u'time': []}}}",,,"[2455, 648, 1653]",13.0,,769710,11.0,2.0,mouselab-mdp,,17
"[3706, 11550, 13993]","[u'down', u'down', u'left']",,,"[5, 0, 1]","[u'1', 5, 9, 16]","{u'mouseover': {u'state': {u'target': [], u'time': []}, u'edge': {u'target': [], u'time': []}}, u'click': {u'state': {u'target': [], u'time': []}, u'edge': {u'target': [], u'time': []}}, u'mouseout': {u'state': {u'target': [], u'time': []}, u'edge': {u'target': [], u'time': []}}}",,,"[3706, 720, 1416]",6.0,,825863,12.0,3.0,mouselab-mdp,,17
"[7987, 24900, 30474]","[u'up', u'up', u'left']",,,"[4, 0, 0]","[u'1', 3, 7, 12]","{u'mouseover': {u'state': {u'target': [], u'time': []}, u'edge': {u'target': [], u'time': []}}, u'click': {u'state': {u'target': [u'3', u'13', u'12'], u'time': [3427, 28888, 29889]}, u'edge': {u'target': [], u'time': []}}, u'mouseout': {u'state': {u'target': [], u'time': []}, u'edge': {u'target': [], u'time': []}}}",,,"[7985, 4186, 3306]",32.6,,350736,1.0,8.0,mouselab-mdp,,18
"[8215, 39010, 56531]","[u'up', u'up', u'right']",,,"[13, 6, 0]","[u'1', 3, 7, 13]","{u'mouseover': {u'state': {u'target': [], u'time': []}, u'edge': {u'target': [], u'time': []}}, u'click': {u'state': {u'target': [u'2', u'4', u'3', u'12', u'13'], u'time': [1968, 4000, 6391, 36048, 36961]}, u'edge': {u'target': [], u'time': []}}, u'mouseout': {u'state': {u'target': [], u'time': []}, u'edge': {u'target': [], u'time': []}}}",,,"[8214, 6850, 6715]",7.0,,437631,2.0,1.0,mouselab-mdp,,18
"[15263, 56786, 63964]","[u'down', u'down', u'right']",,,"[26, 3, 0]","[u'1', 5, 9, 17]","{u'mouseover': {u'state': {u'target': [], u'time': []}, u'edge': {u'target': [], u'time': []}}, u'click': {u'state': {u'target': [u'10', u'15', u'12', u'13', u'17', u'16'], u'time': [3414, 5650, 8122, 11380, 14477, 56230]}, u'edge': {u'target': [], u'time': []}}, u'mouseout': {u'state': {u'target': [], u'time': []}, u'edge': {u'target': [], u'time': []}}}",,,"[15263, 2836, 1240]",1.2,,554662,3.0,11.0,mouselab-mdp,,18
"[8503, 31570, 42718]","[u'up', u'up', u'right']",,,"[10, 6, 0]","[u'1', 3, 7, 13]","{u'mouseover': {u'state': {u'target': [], u'time': []}, u'edge': {u'target': [], u'time': []}}, u'click': {u'state': {u'target': [u'3', u'5', u'13', u'12'], u'time': [5406, 7825, 29185, 29905]}, u'edge': {u'target': [], u'time': []}}, u'mouseout': {u'state': {u'target': [], u'time': []}, u'edge': {u'target': [], u'time': []}}}",,,"[8503, 3698, 711]",-8.2,,644719,4.0,10.0,mouselab-mdp,,18
"[5513, 41335, 43873]","[u'right', u'right', u'up']",,,"[18, 0, 0]","[u'1', 2, 6, 10]","{u'mouseover': {u'state': {u'target': [], u'time': []}, u'edge': {u'target': [], u'time': []}}, u'click': {u'state': {u'target': [u'13', u'16', u'10'], u'time': [1891, 3195, 4625]}, u'edge': {u'target': [], u'time': []}}, u'mouseout': {u'state': {u'target': [], u'time': []}, u'edge': {u'target': [], u'time': []}}}",,,"[5511, 6716, 18]",25.6,,728141,5.0,3.0,mouselab-mdp,,18
"[9644, 42058, 44202]","[u'down', u'down', u'right']",,,"[17, 0, 0]","[u'1', 5, 9, 17]","{u'mouseover': {u'state': {u'target': [], u'time': []}, u'edge': {u'target': [], u'time': []}}, u'click': {u'state': {u'target': [u'13', u'15', u'17'], u'time': [5314, 6318, 7121]}, u'edge': {u'target': [], u'time': []}}, u'mouseout': {u'state': {u'target': [], u'time': []}, u'edge': {u'target': [], u'time': []}}}",,,"[9642, 3596, 17]",25.6,,817165,6.0,7.0,mouselab-mdp,,18
"[5463, 48900, 50965]","[u'right', u'right', u'up']",,,"[23, 0, 0]","[u'1', 2, 6, 10]","{u'mouseover': {u'state': {u'target': [], u'time': []}, u'edge': {u'target': [], u'time': []}}, u'click': {u'state': {u'target': [u'13', u'15', u'17', u'10'], u'time': [1353, 2346, 3162, 4182]}, u'edge': {u'target': [], u'time': []}}, u'mouseout': {u'state': {u'target': [], u'time': []}, u'edge': {u'target': [], u'time': []}}}",,,"[5463, 7970, 10]",22.8,,915813,7.0,2.0,mouselab-mdp,,18
"[5818, 44821, 52364]","[u'left', u'left', u'up']",,,"[23, 3, 0]","[u'1', 4, 8, 14]","{u'mouseover': {u'state': {u'target': [], u'time': []}, u'edge': {u'target': [], u'time': []}}, u'click': {u'state': {u'target': [u'13', u'15', u'17', u'10', u'14'], u'time': [1942, 3230, 4126, 4943, 43388]}, u'edge': {u'target': [], u'time': []}}, u'mouseout': {u'state': {u'target': [], u'time': []}, u'edge': {u'target': [], u'time': []}}}",,,"[5817, 3567, 1477]",-4.0,,1022093,8.0,6.0,mouselab-mdp,,18
"[6061, 51568, 59495]","[u'left', u'left', u'down']",,,"[28, 3, 0]","[u'1', 4, 8, 15]","{u'mouseover': {u'state': {u'target': [], u'time': []}, u'edge': {u'target': [], u'time': []}}, u'click': {u'state': {u'target': [u'10', u'15', u'17', u'12', u'8', u'4', u'14'], u'time': [1246, 2328, 3072, 3825, 4733, 5591, 51096]}, u'edge': {u'target': [], u'time': []}}, u'mouseout': {u'state': {u'target': [], u'time': []}, u'edge': {u'target': [], u'time': []}}}",,,"[6061, 2955, 2002]",20.4,,1117561,9.0,0.0,mouselab-mdp,,18
