action_times,actions,button_pressed,correct,delays,path,queries,questions,responses,rt,score,stimulus,time_elapsed,trial_index,trial_i,trial_type,view_history,pid
,,,"[True, True, True, True, True]",,,,"[""True or false: The hidden values will change each time I start a new round."",""How much does it cost to observe each hidden value?"",""How many hidden values am I allowed to observe in each round?"",""How is your bonus determined?"",""What does the feedback teach you?""]","[""True"",""$2.80"",""As many or as few as I wish"",""5% of my score on a random round"",""All of the above.""]",16909,,,86105,,,survey-multi-choice,,0
,,,"[True, True, True, True]",,,,"[""True or false: The hidden values will change each time I start a new round."",""How much does it cost to observe each hidden value?"",""How many hidden values am I allowed to observe in each round?"",""How is your bonus determined?""]","[""True"",""$0.01"",""As many or as few as I wish"",""5% of my score on a random round""]",20791,,,136996,,,survey-multi-choice,,1
,,,"[True, True, True, False]",,,,"[""True or false: The hidden values will change each time I start a new round."",""How much does it cost to observe each hidden value?"",""How many hidden values am I allowed to observe in each round?"",""How is your bonus determined?""]","[""True"",""$2.80"",""As many or as few as I wish"",""10% of my total score on all rounds""]",38185,,,194659,,,survey-multi-choice,,2
,,,"[True, True, False, False]",,,,"[""True or false: The hidden values will change each time I start a new round."",""How much does it cost to observe each hidden value?"",""How many hidden values am I allowed to observe in each round?"",""How is your bonus determined?""]","[""True"",""$2.80"",""At most 15"",""10% of my total score on all rounds""]",31400,,,371471,,,survey-multi-choice,,2
,,,"[True, True, True, False]",,,,"[""True or false: The hidden values will change each time I start a new round."",""How much does it cost to observe each hidden value?"",""How many hidden values am I allowed to observe in each round?"",""How is your bonus determined?""]","[""True"",""$2.80"",""As many or as few as I wish"",""10% of my best score on any round""]",17073,,,413708,,,survey-multi-choice,,2
,,,"[True, True, True, True]",,,,"[""True or false: The hidden values will change each time I start a new round."",""How much does it cost to observe each hidden value?"",""How many hidden values am I allowed to observe in each round?"",""How is your bonus determined?""]","[""True"",""$2.80"",""As many or as few as I wish"",""5% of my score on a random round""]",18544,,,453279,,,survey-multi-choice,,2
,,,"[True, False, True, True, True]",,,,"[""True or false: The hidden values will change each time I start a new round."",""How much does it cost to observe each hidden value?"",""How many hidden values am I allowed to observe in each round?"",""How is your bonus determined?"",""What does the feedback teach you?""]","[""True"",""$0.05"",""As many or as few as I wish"",""5% of my score on a random round"",""All of the above.""]",42892,,,182343,,,survey-multi-choice,,3
,,,"[True, False, True, True, True]",,,,"[""True or false: The hidden values will change each time I start a new round."",""How much does it cost to observe each hidden value?"",""How many hidden values am I allowed to observe in each round?"",""How is your bonus determined?"",""What does the feedback teach you?""]","[""True"",""$0.01"",""As many or as few as I wish"",""5% of my score on a random round"",""All of the above.""]",21976,,,324663,,,survey-multi-choice,,3
,,,"[True, True, True, True, True]",,,,"[""True or false: The hidden values will change each time I start a new round."",""How much does it cost to observe each hidden value?"",""How many hidden values am I allowed to observe in each round?"",""How is your bonus determined?"",""What does the feedback teach you?""]","[""True"",""$2.80"",""As many or as few as I wish"",""5% of my score on a random round"",""All of the above.""]",13951,,,377992,,,survey-multi-choice,,3
,,,"[True, True, True, True]",,,,"[""True or false: The hidden values will change each time I start a new round."",""How much does it cost to observe each hidden value?"",""How many hidden values am I allowed to observe in each round?"",""How is your bonus determined?""]","[""True"",""$2.80"",""As many or as few as I wish"",""5% of my score on a random round""]",15601,,,167596,,,survey-multi-choice,,4
,,,"[True, True, True, True]",,,,"[""True or false: The hidden values will change each time I start a new round."",""How much does it cost to observe each hidden value?"",""How many hidden values am I allowed to observe in each round?"",""How is your bonus determined?""]","[""True"",""$0.01"",""As many or as few as I wish"",""5% of my score on a random round""]",19804,,,350633,,,survey-multi-choice,,5
,,,"[True, True, True, True, True]",,,,"[""True or false: The hidden values will change each time I start a new round."",""How much does it cost to observe each hidden value?"",""How many hidden values am I allowed to observe in each round?"",""How is your bonus determined?"",""What does the feedback teach you?""]","[""True"",""$2.80"",""As many or as few as I wish"",""5% of my score on a random round"",""All of the above.""]",19808,,,140682,,,survey-multi-choice,,6
,,,"[True, True, True, False]",,,,"[""True or false: The hidden values will change each time I start a new round."",""How much does it cost to observe each hidden value?"",""How many hidden values am I allowed to observe in each round?"",""How is your bonus determined?""]","[""True"",""$0.01"",""As many or as few as I wish"",""5% of my best score on any round""]",10436,,,37941,,,survey-multi-choice,,7
,,,"[True, True, True, True]",,,,"[""True or false: The hidden values will change each time I start a new round."",""How much does it cost to observe each hidden value?"",""How many hidden values am I allowed to observe in each round?"",""How is your bonus determined?""]","[""True"",""$0.01"",""As many or as few as I wish"",""5% of my score on a random round""]",6574,,,53155,,,survey-multi-choice,,7
,,,"[True, True, True, True, True]",,,,"[""True or false: The hidden values will change each time I start a new round."",""How much does it cost to observe each hidden value?"",""How many hidden values am I allowed to observe in each round?"",""How is your bonus determined?"",""What does the feedback teach you?""]","[""True"",""$0.01"",""As many or as few as I wish"",""5% of my score on a random round"",""All of the above.""]",18165,,,94308,,,survey-multi-choice,,8
,,,"[True, True, False, True]",,,,"[""True or false: The hidden values will change each time I start a new round."",""How much does it cost to observe each hidden value?"",""How many hidden values am I allowed to observe in each round?"",""How is your bonus determined?""]","[""True"",""$2.80"",""At most 1"",""5% of my score on a random round""]",41022,,,210637,,,survey-multi-choice,,9
,,,"[True, True, False, True]",,,,"[""True or false: The hidden values will change each time I start a new round."",""How much does it cost to observe each hidden value?"",""How many hidden values am I allowed to observe in each round?"",""How is your bonus determined?""]","[""True"",""$2.80"",""At most 1"",""5% of my score on a random round""]",21784,,,297111,,,survey-multi-choice,,9
,,,"[True, True, True, True]",,,,"[""True or false: The hidden values will change each time I start a new round."",""How much does it cost to observe each hidden value?"",""How many hidden values am I allowed to observe in each round?"",""How is your bonus determined?""]","[""True"",""$2.80"",""As many or as few as I wish"",""5% of my score on a random round""]",19203,,,400768,,,survey-multi-choice,,9
,,,"[True, True, True, True]",,,,"[""True or false: The hidden values will change each time I start a new round."",""How much does it cost to observe each hidden value?"",""How many hidden values am I allowed to observe in each round?"",""How is your bonus determined?""]","[""True"",""$0.01"",""As many or as few as I wish"",""5% of my score on a random round""]",16031,,,119210,,,survey-multi-choice,,10
,,,"[True, True, True, True]",,,,"[""True or false: The hidden values will change each time I start a new round."",""How much does it cost to observe each hidden value?"",""How many hidden values am I allowed to observe in each round?"",""How is your bonus determined?""]","[""True"",""$0.01"",""As many or as few as I wish"",""5% of my score on a random round""]",136032,,,341198,,,survey-multi-choice,,11
,,,"[True, True, True, True, True]",,,,"[""True or false: The hidden values will change each time I start a new round."",""How much does it cost to observe each hidden value?"",""How many hidden values am I allowed to observe in each round?"",""How is your bonus determined?"",""What does the feedback teach you?""]","[""True"",""$0.01"",""As many or as few as I wish"",""5% of my score on a random round"",""All of the above.""]",109995,,,296575,,,survey-multi-choice,,12
,,,"[True, True, False, False, False]",,,,"[""True or false: The hidden values will change each time I start a new round."",""How much does it cost to observe each hidden value?"",""How many hidden values am I allowed to observe in each round?"",""How is your bonus determined?"",""What does the feedback teach you?""]","[""True"",""$0.01"",""At most 1"",""10% of my total score on all rounds"",""Whether I chose the move that was best according to the information I had.""]",30420,,,87264,,,survey-multi-choice,,13
,,,"[True, True, True, True, True]",,,,"[""True or false: The hidden values will change each time I start a new round."",""How much does it cost to observe each hidden value?"",""How many hidden values am I allowed to observe in each round?"",""How is your bonus determined?"",""What does the feedback teach you?""]","[""True"",""$0.01"",""As many or as few as I wish"",""5% of my score on a random round"",""All of the above.""]",92766,,,210683,,,survey-multi-choice,,13
,,,"[True, True, False, False]",,,,"[""True or false: The hidden values will change each time I start a new round."",""How much does it cost to observe each hidden value?"",""How many hidden values am I allowed to observe in each round?"",""How is your bonus determined?""]","[""True"",""$0.01"",""At most 1"",""10% of my best score on any round""]",14439,,,46047,,,survey-multi-choice,,14
,,,"[True, True, True, True]",,,,"[""True or false: The hidden values will change each time I start a new round."",""How much does it cost to observe each hidden value?"",""How many hidden values am I allowed to observe in each round?"",""How is your bonus determined?""]","[""True"",""$0.01"",""As many or as few as I wish"",""5% of my score on a random round""]",98585,,,190815,,,survey-multi-choice,,14
,,,"[True, True, True, False, True]",,,,"[""True or false: The hidden values will change each time I start a new round."",""How much does it cost to observe each hidden value?"",""How many hidden values am I allowed to observe in each round?"",""How is your bonus determined?"",""What does the feedback teach you?""]","[""True"",""$0.01"",""As many or as few as I wish"",""5% of my best score on any round"",""All of the above.""]",39192,,,215294,,,survey-multi-choice,,15
,,,"[True, True, True, True, True]",,,,"[""True or false: The hidden values will change each time I start a new round."",""How much does it cost to observe each hidden value?"",""How many hidden values am I allowed to observe in each round?"",""How is your bonus determined?"",""What does the feedback teach you?""]","[""True"",""$0.01"",""As many or as few as I wish"",""5% of my score on a random round"",""All of the above.""]",27861,,,312213,,,survey-multi-choice,,15
,,,"[True, True, False, False]",,,,"[""True or false: The hidden values will change each time I start a new round."",""How much does it cost to observe each hidden value?"",""How many hidden values am I allowed to observe in each round?"",""How is your bonus determined?""]","[""True"",""$2.80"",""At most 1"",""5% of my best score on any round""]",6528,,,26348,,,survey-multi-choice,,16
,,,"[True, True, True, True]",,,,"[""True or false: The hidden values will change each time I start a new round."",""How much does it cost to observe each hidden value?"",""How many hidden values am I allowed to observe in each round?"",""How is your bonus determined?""]","[""True"",""$2.80"",""As many or as few as I wish"",""5% of my score on a random round""]",7015,,,61304,,,survey-multi-choice,,16
,,,"[True, True, True, True]",,,,"[""True or false: The hidden values will change each time I start a new round."",""How much does it cost to observe each hidden value?"",""How many hidden values am I allowed to observe in each round?"",""How is your bonus determined?""]","[""True"",""$2.80"",""As many or as few as I wish"",""5% of my score on a random round""]",16136,,,126796,,,survey-multi-choice,,17
,,,"[True, False, True, True, False]",,,,"[""True or false: The hidden values will change each time I start a new round."",""How much does it cost to observe each hidden value?"",""How many hidden values am I allowed to observe in each round?"",""How is your bonus determined?"",""What does the feedback teach you?""]","[""True"",""$0.05"",""As many or as few as I wish"",""5% of my score on a random round"",""The length of the delay is based on how much more money I could have earned by planning and deciding better.""]",38349,,,110037,,,survey-multi-choice,,18
,,,"[True, True, True, True, False]",,,,"[""True or false: The hidden values will change each time I start a new round."",""How much does it cost to observe each hidden value?"",""How many hidden values am I allowed to observe in each round?"",""How is your bonus determined?"",""What does the feedback teach you?""]","[""True"",""$2.80"",""As many or as few as I wish"",""5% of my score on a random round"",""Whether I chose the move that was best according to the information I had.""]",17269,,,210381,,,survey-multi-choice,,18
,,,"[True, True, True, True, True]",,,,"[""True or false: The hidden values will change each time I start a new round."",""How much does it cost to observe each hidden value?"",""How many hidden values am I allowed to observe in each round?"",""How is your bonus determined?"",""What does the feedback teach you?""]","[""True"",""$2.80"",""As many or as few as I wish"",""5% of my score on a random round"",""All of the above.""]",20253,,,277097,,,survey-multi-choice,,18
,,,"[True, True, True, True]",,,,"[""True or false: The hidden values will change each time I start a new round."",""How much does it cost to observe each hidden value?"",""How many hidden values am I allowed to observe in each round?"",""How is your bonus determined?""]","[""True"",""$0.01"",""As many or as few as I wish"",""5% of my score on a random round""]",11615,,,107689,,,survey-multi-choice,,19
,,,"[True, True, True, True]",,,,"[""True or false: The hidden values will change each time I start a new round."",""How much does it cost to observe each hidden value?"",""How many hidden values am I allowed to observe in each round?"",""How is your bonus determined?""]","[""True"",""$0.01"",""As many or as few as I wish"",""5% of my score on a random round""]",21413,,,221353,,,survey-multi-choice,,20
,,,"[True, True, True, False, True]",,,,"[""True or false: The hidden values will change each time I start a new round."",""How much does it cost to observe each hidden value?"",""How many hidden values am I allowed to observe in each round?"",""How is your bonus determined?"",""What does the feedback teach you?""]","[""True"",""$0.01"",""As many or as few as I wish"",""5% of my best score on any round"",""All of the above.""]",18577,,,66486,,,survey-multi-choice,,21
,,,"[True, True, True, True, False]",,,,"[""True or false: The hidden values will change each time I start a new round."",""How much does it cost to observe each hidden value?"",""How many hidden values am I allowed to observe in each round?"",""How is your bonus determined?"",""What does the feedback teach you?""]","[""True"",""$0.01"",""As many or as few as I wish"",""5% of my score on a random round"",""The length of the delay is based on how much more money I could have earned by planning and deciding better.""]",18007,,,131448,,,survey-multi-choice,,21
,,,"[True, True, True, True, False]",,,,"[""True or false: The hidden values will change each time I start a new round."",""How much does it cost to observe each hidden value?"",""How many hidden values am I allowed to observe in each round?"",""How is your bonus determined?"",""What does the feedback teach you?""]","[""True"",""$0.01"",""As many or as few as I wish"",""5% of my score on a random round"",""Whether I observed the rewards of relevant locations.""]",16941,,,215332,,,survey-multi-choice,,21
,,,"[True, True, True, True, True]",,,,"[""True or false: The hidden values will change each time I start a new round."",""How much does it cost to observe each hidden value?"",""How many hidden values am I allowed to observe in each round?"",""How is your bonus determined?"",""What does the feedback teach you?""]","[""True"",""$0.01"",""As many or as few as I wish"",""5% of my score on a random round"",""All of the above.""]",14654,,,251406,,,survey-multi-choice,,21
,,,"[True, True, True, False, True]",,,,"[""True or false: The hidden values will change each time I start a new round."",""How much does it cost to observe each hidden value?"",""How many hidden values am I allowed to observe in each round?"",""How is your bonus determined?"",""What does the feedback teach you?""]","[""True"",""$0.01"",""As many or as few as I wish"",""5% of my best score on any round"",""All of the above.""]",29738,,,213165,,,survey-multi-choice,,22
,,,"[True, True, False, False, True]",,,,"[""True or false: The hidden values will change each time I start a new round."",""How much does it cost to observe each hidden value?"",""How many hidden values am I allowed to observe in each round?"",""How is your bonus determined?"",""What does the feedback teach you?""]","[""True"",""$0.01"",""At most 10"",""5% of my best score on any round"",""All of the above.""]",15903,,,297042,,,survey-multi-choice,,22
,,,"[True, True, True, True, True]",,,,"[""True or false: The hidden values will change each time I start a new round."",""How much does it cost to observe each hidden value?"",""How many hidden values am I allowed to observe in each round?"",""How is your bonus determined?"",""What does the feedback teach you?""]","[""True"",""$0.01"",""As many or as few as I wish"",""5% of my score on a random round"",""All of the above.""]",7658,,,328426,,,survey-multi-choice,,22
,,,"[True, True, True, True, False]",,,,"[""True or false: The hidden values will change each time I start a new round."",""How much does it cost to observe each hidden value?"",""How many hidden values am I allowed to observe in each round?"",""How is your bonus determined?"",""What does the feedback teach you?""]","[""True"",""$2.80"",""As many or as few as I wish"",""5% of my score on a random round"",""Whether I observed the rewards of relevant locations.""]",34308,,,178857,,,survey-multi-choice,,23
,,,"[True, True, False, True, True]",,,,"[""True or false: The hidden values will change each time I start a new round."",""How much does it cost to observe each hidden value?"",""How many hidden values am I allowed to observe in each round?"",""How is your bonus determined?"",""What does the feedback teach you?""]","[""True"",""$2.80"",""At most 5"",""5% of my score on a random round"",""All of the above.""]",27758,,,286013,,,survey-multi-choice,,23
,,,"[True, True, True, True, False]",,,,"[""True or false: The hidden values will change each time I start a new round."",""How much does it cost to observe each hidden value?"",""How many hidden values am I allowed to observe in each round?"",""How is your bonus determined?"",""What does the feedback teach you?""]","[""True"",""$2.80"",""As many or as few as I wish"",""5% of my score on a random round"",""Whether I chose the move that was best according to the information I had.""]",128042,,,512380,,,survey-multi-choice,,23
,,,"[True, True, True, False, False]",,,,"[""True or false: The hidden values will change each time I start a new round."",""How much does it cost to observe each hidden value?"",""How many hidden values am I allowed to observe in each round?"",""How is your bonus determined?"",""What does the feedback teach you?""]","[""True"",""$2.80"",""As many or as few as I wish"",""5% of my best score on any round"",""Whether I chose the move that was best according to the information I had.""]",31359,,,589364,,,survey-multi-choice,,23
,,,"[False, True, True, False, False]",,,,"[""True or false: The hidden values will change each time I start a new round."",""How much does it cost to observe each hidden value?"",""How many hidden values am I allowed to observe in each round?"",""How is your bonus determined?"",""What does the feedback teach you?""]","[""False"",""$2.80"",""As many or as few as I wish"",""5% of my best score on any round"",""Whether I chose the move that was best according to the information I had.""]",9262,,,606104,,,survey-multi-choice,,23
,,,"[True, True, True, False, True]",,,,"[""True or false: The hidden values will change each time I start a new round."",""How much does it cost to observe each hidden value?"",""How many hidden values am I allowed to observe in each round?"",""How is your bonus determined?"",""What does the feedback teach you?""]","[""True"",""$2.80"",""As many or as few as I wish"",""5% of my best score on any round"",""All of the above.""]",10544,,,626372,,,survey-multi-choice,,23
,,,"[True, True, True, True, True]",,,,"[""True or false: The hidden values will change each time I start a new round."",""How much does it cost to observe each hidden value?"",""How many hidden values am I allowed to observe in each round?"",""How is your bonus determined?"",""What does the feedback teach you?""]","[""True"",""$2.80"",""As many or as few as I wish"",""5% of my score on a random round"",""All of the above.""]",14421,,,647247,,,survey-multi-choice,,23
,,,"[True, True, True, True, True]",,,,"[""True or false: The hidden values will change each time I start a new round."",""How much does it cost to observe each hidden value?"",""How many hidden values am I allowed to observe in each round?"",""How is your bonus determined?"",""What does the feedback teach you?""]","[""True"",""$2.80"",""As many or as few as I wish"",""5% of my score on a random round"",""All of the above.""]",42043,,,297623,,,survey-multi-choice,,24
,,,"[True, True, True, True]",,,,"[""True or false: The hidden values will change each time I start a new round."",""How much does it cost to observe each hidden value?"",""How many hidden values am I allowed to observe in each round?"",""How is your bonus determined?""]","[""True"",""$0.01"",""As many or as few as I wish"",""5% of my score on a random round""]",18874,,,264523,,,survey-multi-choice,,25
,,,"[True, True, True, True]",,,,"[""True or false: The hidden values will change each time I start a new round."",""How much does it cost to observe each hidden value?"",""How many hidden values am I allowed to observe in each round?"",""How is your bonus determined?""]","[""True"",""$2.80"",""As many or as few as I wish"",""5% of my score on a random round""]",14293,,,89653,,,survey-multi-choice,,26
,,,"[True, True, True, True, True]",,,,"[""True or false: The hidden values will change each time I start a new round."",""How much does it cost to observe each hidden value?"",""How many hidden values am I allowed to observe in each round?"",""How is your bonus determined?"",""What does the feedback teach you?""]","[""True"",""$2.80"",""As many or as few as I wish"",""5% of my score on a random round"",""All of the above.""]",32775,,,121472,,,survey-multi-choice,,27
,,,"[True, True, True, True, True]",,,,"[""True or false: The hidden values will change each time I start a new round."",""How much does it cost to observe each hidden value?"",""How many hidden values am I allowed to observe in each round?"",""How is your bonus determined?"",""What does the feedback teach you?""]","[""True"",""$0.01"",""As many or as few as I wish"",""5% of my score on a random round"",""All of the above.""]",23280,,,326963,,,survey-multi-choice,,28
,,,"[True, True, True, True, True]",,,,"[""True or false: The hidden values will change each time I start a new round."",""How much does it cost to observe each hidden value?"",""How many hidden values am I allowed to observe in each round?"",""How is your bonus determined?"",""What does the feedback teach you?""]","[""True"",""$2.80"",""As many or as few as I wish"",""5% of my score on a random round"",""All of the above.""]",34255,,,250099,,,survey-multi-choice,,29
,,,"[True, True, True, True]",,,,"[""True or false: The hidden values will change each time I start a new round."",""How much does it cost to observe each hidden value?"",""How many hidden values am I allowed to observe in each round?"",""How is your bonus determined?""]","[""True"",""$0.01"",""As many or as few as I wish"",""5% of my score on a random round""]",29746,,,278498,,,survey-multi-choice,,30
,,,"[True, True, True, True, True]",,,,"[""True or false: The hidden values will change each time I start a new round."",""How much does it cost to observe each hidden value?"",""How many hidden values am I allowed to observe in each round?"",""How is your bonus determined?"",""What does the feedback teach you?""]","[""True"",""$2.80"",""As many or as few as I wish"",""5% of my score on a random round"",""All of the above.""]",37391,,,153709,,,survey-multi-choice,,31
,,,"[True, True, True, True, True]",,,,"[""True or false: The hidden values will change each time I start a new round."",""How much does it cost to observe each hidden value?"",""How many hidden values am I allowed to observe in each round?"",""How is your bonus determined?"",""What does the feedback teach you?""]","[""True"",""$2.80"",""As many or as few as I wish"",""5% of my score on a random round"",""All of the above.""]",38487,,,220208,,,survey-multi-choice,,32
,,,"[True, True, True, True, True]",,,,"[""True or false: The hidden values will change each time I start a new round."",""How much does it cost to observe each hidden value?"",""How many hidden values am I allowed to observe in each round?"",""How is your bonus determined?"",""What does the feedback teach you?""]","[""True"",""$2.80"",""As many or as few as I wish"",""5% of my score on a random round"",""All of the above.""]",11410,,,106659,,,survey-multi-choice,,33
,,,"[True, True, True, True, True]",,,,"[""True or false: The hidden values will change each time I start a new round."",""How much does it cost to observe each hidden value?"",""How many hidden values am I allowed to observe in each round?"",""How is your bonus determined?"",""What does the feedback teach you?""]","[""True"",""$0.01"",""As many or as few as I wish"",""5% of my score on a random round"",""All of the above.""]",28438,,,177513,,,survey-multi-choice,,34
,,,"[True, True, True, True, True]",,,,"[""True or false: The hidden values will change each time I start a new round."",""How much does it cost to observe each hidden value?"",""How many hidden values am I allowed to observe in each round?"",""How is your bonus determined?"",""What does the feedback teach you?""]","[""True"",""$2.80"",""As many or as few as I wish"",""5% of my score on a random round"",""All of the above.""]",28209,,,184256,,,survey-multi-choice,,35
,,,"[True, True, True, True, True]",,,,"[""True or false: The hidden values will change each time I start a new round."",""How much does it cost to observe each hidden value?"",""How many hidden values am I allowed to observe in each round?"",""How is your bonus determined?"",""What does the feedback teach you?""]","[""True"",""$2.80"",""As many or as few as I wish"",""5% of my score on a random round"",""All of the above.""]",26523,,,167059,,,survey-multi-choice,,36
,,,"[True, True, True, True, True]",,,,"[""True or false: The hidden values will change each time I start a new round."",""How much does it cost to observe each hidden value?"",""How many hidden values am I allowed to observe in each round?"",""How is your bonus determined?"",""What does the feedback teach you?""]","[""True"",""$0.01"",""As many or as few as I wish"",""5% of my score on a random round"",""All of the above.""]",28203,,,290419,,,survey-multi-choice,,37
,,,"[True, True, True, True, True]",,,,"[""True or false: The hidden values will change each time I start a new round."",""How much does it cost to observe each hidden value?"",""How many hidden values am I allowed to observe in each round?"",""How is your bonus determined?"",""What does the feedback teach you?""]","[""True"",""$0.01"",""As many or as few as I wish"",""5% of my score on a random round"",""All of the above.""]",56028,,,249072,,,survey-multi-choice,,38
,,,"[True, True, True, False]",,,,"[""True or false: The hidden values will change each time I start a new round."",""How much does it cost to observe each hidden value?"",""How many hidden values am I allowed to observe in each round?"",""How is your bonus determined?""]","[""True"",""$2.80"",""As many or as few as I wish"",""5% of my best score on any round""]",18840,,,113381,,,survey-multi-choice,,39
,,,"[True, True, True, True]",,,,"[""True or false: The hidden values will change each time I start a new round."",""How much does it cost to observe each hidden value?"",""How many hidden values am I allowed to observe in each round?"",""How is your bonus determined?""]","[""True"",""$2.80"",""As many or as few as I wish"",""5% of my score on a random round""]",9380,,,160063,,,survey-multi-choice,,39
,,,"[True, False, True, True, True]",,,,"[""True or false: The hidden values will change each time I start a new round."",""How much does it cost to observe each hidden value?"",""How many hidden values am I allowed to observe in each round?"",""How is your bonus determined?"",""What does the feedback teach you?""]","[""True"",""$0.05"",""As many or as few as I wish"",""5% of my score on a random round"",""All of the above.""]",47264,,,120792,,,survey-multi-choice,,40
,,,"[True, True, True, True, False]",,,,"[""True or false: The hidden values will change each time I start a new round."",""How much does it cost to observe each hidden value?"",""How many hidden values am I allowed to observe in each round?"",""How is your bonus determined?"",""What does the feedback teach you?""]","[""True"",""$0.01"",""As many or as few as I wish"",""5% of my score on a random round"",""Whether I chose the move that was best according to the information I had.""]",45422,,,257115,,,survey-multi-choice,,40
,,,"[True, True, True, True, True]",,,,"[""True or false: The hidden values will change each time I start a new round."",""How much does it cost to observe each hidden value?"",""How many hidden values am I allowed to observe in each round?"",""How is your bonus determined?"",""What does the feedback teach you?""]","[""True"",""$0.01"",""As many or as few as I wish"",""5% of my score on a random round"",""All of the above.""]",144761,,,468945,,,survey-multi-choice,,40
,,,"[True, True, True, True]",,,,"[""True or false: The hidden values will change each time I start a new round."",""How much does it cost to observe each hidden value?"",""How many hidden values am I allowed to observe in each round?"",""How is your bonus determined?""]","[""True"",""$2.80"",""As many or as few as I wish"",""5% of my score on a random round""]",11810,,,110419,,,survey-multi-choice,,41
,,,"[True, True, True, True, True]",,,,"[""True or false: The hidden values will change each time I start a new round."",""How much does it cost to observe each hidden value?"",""How many hidden values am I allowed to observe in each round?"",""How is your bonus determined?"",""What does the feedback teach you?""]","[""True"",""$2.80"",""As many or as few as I wish"",""5% of my score on a random round"",""All of the above.""]",18646,,,51898,,,survey-multi-choice,,42
,,,"[True, True, True, True, True]",,,,"[""True or false: The hidden values will change each time I start a new round."",""How much does it cost to observe each hidden value?"",""How many hidden values am I allowed to observe in each round?"",""How is your bonus determined?"",""What does the feedback teach you?""]","[""True"",""$2.80"",""As many or as few as I wish"",""5% of my score on a random round"",""All of the above.""]",24029,,,79647,,,survey-multi-choice,,43
,,,"[True, True, True, True, False]",,,,"[""True or false: The hidden values will change each time I start a new round."",""How much does it cost to observe each hidden value?"",""How many hidden values am I allowed to observe in each round?"",""How is your bonus determined?"",""What does the feedback teach you?""]","[""True"",""$0.01"",""As many or as few as I wish"",""5% of my score on a random round"",""The length of the delay is based on how much more money I could have earned by planning and deciding better.""]",22379,,,145065,,,survey-multi-choice,,44
,,,"[True, True, True, False, False]",,,,"[""True or false: The hidden values will change each time I start a new round."",""How much does it cost to observe each hidden value?"",""How many hidden values am I allowed to observe in each round?"",""How is your bonus determined?"",""What does the feedback teach you?""]","[""True"",""$0.01"",""As many or as few as I wish"",""5% of my best score on any round"",""The length of the delay is based on how much more money I could have earned by planning and deciding better.""]",27871,,,240116,,,survey-multi-choice,,44
,,,"[True, True, True, True, True]",,,,"[""True or false: The hidden values will change each time I start a new round."",""How much does it cost to observe each hidden value?"",""How many hidden values am I allowed to observe in each round?"",""How is your bonus determined?"",""What does the feedback teach you?""]","[""True"",""$0.01"",""As many or as few as I wish"",""5% of my score on a random round"",""All of the above.""]",33001,,,345384,,,survey-multi-choice,,44
,,,"[True, True, True, True, True]",,,,"[""True or false: The hidden values will change each time I start a new round."",""How much does it cost to observe each hidden value?"",""How many hidden values am I allowed to observe in each round?"",""How is your bonus determined?"",""What does the feedback teach you?""]","[""True"",""$2.80"",""As many or as few as I wish"",""5% of my score on a random round"",""All of the above.""]",25450,,,154539,,,survey-multi-choice,,45
,,,"[True, True, True, True, True]",,,,"[""True or false: The hidden values will change each time I start a new round."",""How much does it cost to observe each hidden value?"",""How many hidden values am I allowed to observe in each round?"",""How is your bonus determined?"",""What does the feedback teach you?""]","[""True"",""$2.80"",""As many or as few as I wish"",""5% of my score on a random round"",""All of the above.""]",23880,,,165371,,,survey-multi-choice,,46
,,,"[True, True, True, True, True]",,,,"[""True or false: The hidden values will change each time I start a new round."",""How much does it cost to observe each hidden value?"",""How many hidden values am I allowed to observe in each round?"",""How is your bonus determined?"",""What does the feedback teach you?""]","[""True"",""$0.01"",""As many or as few as I wish"",""5% of my score on a random round"",""All of the above.""]",79591,,,169284,,,survey-multi-choice,,47
,,,"[True, True, True, True]",,,,"[""True or false: The hidden values will change each time I start a new round."",""How much does it cost to observe each hidden value?"",""How many hidden values am I allowed to observe in each round?"",""How is your bonus determined?""]","[""True"",""$0.01"",""As many or as few as I wish"",""5% of my score on a random round""]",249836,,,352997,,,survey-multi-choice,,48
,,,"[True, True, True, True]",,,,"[""True or false: The hidden values will change each time I start a new round."",""How much does it cost to observe each hidden value?"",""How many hidden values am I allowed to observe in each round?"",""How is your bonus determined?""]","[""True"",""$2.80"",""As many or as few as I wish"",""5% of my score on a random round""]",32956,,,134713,,,survey-multi-choice,,49
,,,"[True, True, True, True]",,,,"[""True or false: The hidden values will change each time I start a new round."",""How much does it cost to observe each hidden value?"",""How many hidden values am I allowed to observe in each round?"",""How is your bonus determined?""]","[""True"",""$2.80"",""As many or as few as I wish"",""5% of my score on a random round""]",19215,,,205446,,,survey-multi-choice,,50
,,,"[True, True, True, True, True]",,,,"[""True or false: The hidden values will change each time I start a new round."",""How much does it cost to observe each hidden value?"",""How many hidden values am I allowed to observe in each round?"",""How is your bonus determined?"",""What does the feedback teach you?""]","[""True"",""$2.80"",""As many or as few as I wish"",""5% of my score on a random round"",""All of the above.""]",62170,,,269330,,,survey-multi-choice,,51
,,,"[True, True, True, True, True]",,,,"[""True or false: The hidden values will change each time I start a new round."",""How much does it cost to observe each hidden value?"",""How many hidden values am I allowed to observe in each round?"",""How is your bonus determined?"",""What does the feedback teach you?""]","[""True"",""$2.80"",""As many or as few as I wish"",""5% of my score on a random round"",""All of the above.""]",14737,,,24390,,,survey-multi-choice,,51
,,,"[True, True, True, True, False]",,,,"[""True or false: The hidden values will change each time I start a new round."",""How much does it cost to observe each hidden value?"",""How many hidden values am I allowed to observe in each round?"",""How is your bonus determined?"",""What does the feedback teach you?""]","[""True"",""$2.80"",""As many or as few as I wish"",""5% of my score on a random round"",""Whether I chose the move that was best according to the information I had.""]",24327,,,108190,,,survey-multi-choice,,52
,,,"[True, True, True, True, True]",,,,"[""True or false: The hidden values will change each time I start a new round."",""How much does it cost to observe each hidden value?"",""How many hidden values am I allowed to observe in each round?"",""How is your bonus determined?"",""What does the feedback teach you?""]","[""True"",""$2.80"",""As many or as few as I wish"",""5% of my score on a random round"",""All of the above.""]",8311,,,140275,,,survey-multi-choice,,52
,,,"[True, True, True, False]",,,,"[""True or false: The hidden values will change each time I start a new round."",""How much does it cost to observe each hidden value?"",""How many hidden values am I allowed to observe in each round?"",""How is your bonus determined?""]","[""True"",""$0.01"",""As many or as few as I wish"",""5% of my best score on any round""]",14150,,,140116,,,survey-multi-choice,,53
,,,"[True, True, True, True]",,,,"[""True or false: The hidden values will change each time I start a new round."",""How much does it cost to observe each hidden value?"",""How many hidden values am I allowed to observe in each round?"",""How is your bonus determined?""]","[""True"",""$0.01"",""As many or as few as I wish"",""5% of my score on a random round""]",7765,,,245123,,,survey-multi-choice,,53
,,,"[True, True, True, True, True]",,,,"[""True or false: The hidden values will change each time I start a new round."",""How much does it cost to observe each hidden value?"",""How many hidden values am I allowed to observe in each round?"",""How is your bonus determined?"",""What does the feedback teach you?""]","[""True"",""$2.80"",""As many or as few as I wish"",""5% of my score on a random round"",""All of the above.""]",26900,,,203767,,,survey-multi-choice,,54
,,,"[True, True, True, True, True]",,,,"[""True or false: The hidden values will change each time I start a new round."",""How much does it cost to observe each hidden value?"",""How many hidden values am I allowed to observe in each round?"",""How is your bonus determined?"",""What does the feedback teach you?""]","[""True"",""$0.01"",""As many or as few as I wish"",""5% of my score on a random round"",""All of the above.""]",31794,,,177268,,,survey-multi-choice,,55
,,,"[True, True, True, True, True]",,,,"[""True or false: The hidden values will change each time I start a new round."",""How much does it cost to observe each hidden value?"",""How many hidden values am I allowed to observe in each round?"",""How is your bonus determined?"",""What does the feedback teach you?""]","[""True"",""$0.01"",""As many or as few as I wish"",""5% of my score on a random round"",""All of the above.""]",168950,,,407412,,,survey-multi-choice,,56
,,,"[True, True, True, True, True]",,,,"[""True or false: The hidden values will change each time I start a new round."",""How much does it cost to observe each hidden value?"",""How many hidden values am I allowed to observe in each round?"",""How is your bonus determined?"",""What does the feedback teach you?""]","[""True"",""$2.80"",""As many or as few as I wish"",""5% of my score on a random round"",""All of the above.""]",47437,,,241450,,,survey-multi-choice,,57
,,,"[True, True, True, True, True]",,,,"[""True or false: The hidden values will change each time I start a new round."",""How much does it cost to observe each hidden value?"",""How many hidden values am I allowed to observe in each round?"",""How is your bonus determined?"",""What does the feedback teach you?""]","[""True"",""$0.01"",""As many or as few as I wish"",""5% of my score on a random round"",""All of the above.""]",33377,,,299391,,,survey-multi-choice,,58
,,,"[True, True, True, True, True]",,,,"[""True or false: The hidden values will change each time I start a new round."",""How much does it cost to observe each hidden value?"",""How many hidden values am I allowed to observe in each round?"",""How is your bonus determined?"",""What does the feedback teach you?""]","[""True"",""$2.80"",""As many or as few as I wish"",""5% of my score on a random round"",""All of the above.""]",32511,,,1414434,,,survey-multi-choice,,59
,,,"[False, False, False, False, True]",,,,"[""True or false: The hidden values will change each time I start a new round."",""How much does it cost to observe each hidden value?"",""How many hidden values am I allowed to observe in each round?"",""How is your bonus determined?"",""What does the feedback teach you?""]","[""False"",""$0.05"",""At most 1"",""10% of my best score on any round"",""All of the above.""]",45183,,,143369,,,survey-multi-choice,,60
,,,"[True, True, True, True, True]",,,,"[""True or false: The hidden values will change each time I start a new round."",""How much does it cost to observe each hidden value?"",""How many hidden values am I allowed to observe in each round?"",""How is your bonus determined?"",""What does the feedback teach you?""]","[""True"",""$2.80"",""As many or as few as I wish"",""5% of my score on a random round"",""All of the above.""]",14949,,,192958,,,survey-multi-choice,,60
,,,"[False, False, False, False, True]",,,,"[""True or false: The hidden values will change each time I start a new round."",""How much does it cost to observe each hidden value?"",""How many hidden values am I allowed to observe in each round?"",""How is your bonus determined?"",""What does the feedback teach you?""]","[""False"",""$1.60"",""At most 1"",""10% of my best score on any round"",""All of the above.""]",22764,,,36353,,,survey-multi-choice,,61
,,,"[False, False, True, False, True]",,,,"[""True or false: The hidden values will change each time I start a new round."",""How much does it cost to observe each hidden value?"",""How many hidden values am I allowed to observe in each round?"",""How is your bonus determined?"",""What does the feedback teach you?""]","[""False"",""$1.60"",""As many or as few as I wish"",""10% of my best score on any round"",""All of the above.""]",10951,,,71040,,,survey-multi-choice,,61
,,,"[True, False, True, False, True]",,,,"[""True or false: The hidden values will change each time I start a new round."",""How much does it cost to observe each hidden value?"",""How many hidden values am I allowed to observe in each round?"",""How is your bonus determined?"",""What does the feedback teach you?""]","[""True"",""$1.60"",""As many or as few as I wish"",""10% of my best score on any round"",""All of the above.""]",10266,,,115585,,,survey-multi-choice,,61
,,,"[True, False, False, False, False]",,,,"[""True or false: The hidden values will change each time I start a new round."",""How much does it cost to observe each hidden value?"",""How many hidden values am I allowed to observe in each round?"",""How is your bonus determined?"",""What does the feedback teach you?""]","[""True"",""$1.60"",""At most 1"",""10% of my best score on any round"",""Whether I observed the rewards of relevant locations.""]",134826,,,289604,,,survey-multi-choice,,61
,,,"[True, True, True, True, True]",,,,"[""True or false: The hidden values will change each time I start a new round."",""How much does it cost to observe each hidden value?"",""How many hidden values am I allowed to observe in each round?"",""How is your bonus determined?"",""What does the feedback teach you?""]","[""True"",""$2.80"",""As many or as few as I wish"",""5% of my score on a random round"",""All of the above.""]",34353,,,511407,,,survey-multi-choice,,61
,,,"[True, True, True, True, True]",,,,"[""True or false: The hidden values will change each time I start a new round."",""How much does it cost to observe each hidden value?"",""How many hidden values am I allowed to observe in each round?"",""How is your bonus determined?"",""What does the feedback teach you?""]","[""True"",""$0.01"",""As many or as few as I wish"",""5% of my score on a random round"",""All of the above.""]",26260,,,118606,,,survey-multi-choice,,62
,,,"[True, True, True, False, False]",,,,"[""True or false: The hidden values will change each time I start a new round."",""How much does it cost to observe each hidden value?"",""How many hidden values am I allowed to observe in each round?"",""How is your bonus determined?"",""What does the feedback teach you?""]","[""True"",""$0.01"",""As many or as few as I wish"",""5% of my best score on any round"",""Whether I chose the move that was best according to the information I had.""]",36631,,,180824,,,survey-multi-choice,,63
,,,"[True, True, True, True, True]",,,,"[""True or false: The hidden values will change each time I start a new round."",""How much does it cost to observe each hidden value?"",""How many hidden values am I allowed to observe in each round?"",""How is your bonus determined?"",""What does the feedback teach you?""]","[""True"",""$0.01"",""As many or as few as I wish"",""5% of my score on a random round"",""All of the above.""]",15784,,,234146,,,survey-multi-choice,,63
,,,"[True, True, True, True, False]",,,,"[""True or false: The hidden values will change each time I start a new round."",""How much does it cost to observe each hidden value?"",""How many hidden values am I allowed to observe in each round?"",""How is your bonus determined?"",""What does the feedback teach you?""]","[""True"",""$0.01"",""As many or as few as I wish"",""5% of my score on a random round"",""Whether I observed the rewards of relevant locations.""]",80525,,,237230,,,survey-multi-choice,,64
,,,"[True, True, True, True, True]",,,,"[""True or false: The hidden values will change each time I start a new round."",""How much does it cost to observe each hidden value?"",""How many hidden values am I allowed to observe in each round?"",""How is your bonus determined?"",""What does the feedback teach you?""]","[""True"",""$0.01"",""As many or as few as I wish"",""5% of my score on a random round"",""All of the above.""]",27570,,,322704,,,survey-multi-choice,,64
,,,"[True, True, False, True]",,,,"[""True or false: The hidden values will change each time I start a new round."",""How much does it cost to observe each hidden value?"",""How many hidden values am I allowed to observe in each round?"",""How is your bonus determined?""]","[""True"",""$2.80"",""At most 1"",""5% of my score on a random round""]",19465,,,165730,,,survey-multi-choice,,65
,,,"[True, True, True, True]",,,,"[""True or false: The hidden values will change each time I start a new round."",""How much does it cost to observe each hidden value?"",""How many hidden values am I allowed to observe in each round?"",""How is your bonus determined?""]","[""True"",""$2.80"",""As many or as few as I wish"",""5% of my score on a random round""]",17872,,,201745,,,survey-multi-choice,,65
,,,"[True, True, True, True, True]",,,,"[""True or false: The hidden values will change each time I start a new round."",""How much does it cost to observe each hidden value?"",""How many hidden values am I allowed to observe in each round?"",""How is your bonus determined?"",""What does the feedback teach you?""]","[""True"",""$0.01"",""As many or as few as I wish"",""5% of my score on a random round"",""All of the above.""]",17142,,,84824,,,survey-multi-choice,,66
,,,"[True, True, True, True]",,,,"[""True or false: The hidden values will change each time I start a new round."",""How much does it cost to observe each hidden value?"",""How many hidden values am I allowed to observe in each round?"",""How is your bonus determined?""]","[""True"",""$0.01"",""As many or as few as I wish"",""5% of my score on a random round""]",62624,,,232263,,,survey-multi-choice,,67
,,,"[True, True, True, True]",,,,"[""True or false: The hidden values will change each time I start a new round."",""How much does it cost to observe each hidden value?"",""How many hidden values am I allowed to observe in each round?"",""How is your bonus determined?""]","[""True"",""$0.01"",""As many or as few as I wish"",""5% of my score on a random round""]",21502,,,177012,,,survey-multi-choice,,68
,,,"[True, True, True, True]",,,,"[""True or false: The hidden values will change each time I start a new round."",""How much does it cost to observe each hidden value?"",""How many hidden values am I allowed to observe in each round?"",""How is your bonus determined?""]","[""True"",""$0.01"",""As many or as few as I wish"",""5% of my score on a random round""]",15261,,,112656,,,survey-multi-choice,,69
,,,"[True, True, True, True, True]",,,,"[""True or false: The hidden values will change each time I start a new round."",""How much does it cost to observe each hidden value?"",""How many hidden values am I allowed to observe in each round?"",""How is your bonus determined?"",""What does the feedback teach you?""]","[""True"",""$2.80"",""As many or as few as I wish"",""5% of my score on a random round"",""All of the above.""]",19783,,,116078,,,survey-multi-choice,,70
,,,"[True, True, True, True, True]",,,,"[""True or false: The hidden values will change each time I start a new round."",""How much does it cost to observe each hidden value?"",""How many hidden values am I allowed to observe in each round?"",""How is your bonus determined?"",""What does the feedback teach you?""]","[""True"",""$2.80"",""As many or as few as I wish"",""5% of my score on a random round"",""All of the above.""]",24535,,,112161,,,survey-multi-choice,,71
,,,"[True, True, True, True, True]",,,,"[""True or false: The hidden values will change each time I start a new round."",""How much does it cost to observe each hidden value?"",""How many hidden values am I allowed to observe in each round?"",""How is your bonus determined?"",""What does the feedback teach you?""]","[""True"",""$2.80"",""As many or as few as I wish"",""5% of my score on a random round"",""All of the above.""]",90168,,,117239,,,survey-multi-choice,,72
,,,"[True, False, False, True, True]",,,,"[""True or false: The hidden values will change each time I start a new round."",""How much does it cost to observe each hidden value?"",""How many hidden values am I allowed to observe in each round?"",""How is your bonus determined?"",""What does the feedback teach you?""]","[""True"",""$0.05"",""At most 5"",""5% of my score on a random round"",""All of the above.""]",35893,,,187197,,,survey-multi-choice,,73
,,,"[True, True, False, True, True]",,,,"[""True or false: The hidden values will change each time I start a new round."",""How much does it cost to observe each hidden value?"",""How many hidden values am I allowed to observe in each round?"",""How is your bonus determined?"",""What does the feedback teach you?""]","[""True"",""$0.01"",""At most 1"",""5% of my score on a random round"",""All of the above.""]",20902,,,251059,,,survey-multi-choice,,73
,,,"[True, True, False, True, True]",,,,"[""True or false: The hidden values will change each time I start a new round."",""How much does it cost to observe each hidden value?"",""How many hidden values am I allowed to observe in each round?"",""How is your bonus determined?"",""What does the feedback teach you?""]","[""True"",""$0.01"",""At most 5"",""5% of my score on a random round"",""All of the above.""]",11359,,,277241,,,survey-multi-choice,,73
,,,"[False, True, False, True, True]",,,,"[""True or false: The hidden values will change each time I start a new round."",""How much does it cost to observe each hidden value?"",""How many hidden values am I allowed to observe in each round?"",""How is your bonus determined?"",""What does the feedback teach you?""]","[""False"",""$0.01"",""At most 1"",""5% of my score on a random round"",""All of the above.""]",25560,,,313620,,,survey-multi-choice,,73
,,,"[True, True, True, True, True]",,,,"[""True or false: The hidden values will change each time I start a new round."",""How much does it cost to observe each hidden value?"",""How many hidden values am I allowed to observe in each round?"",""How is your bonus determined?"",""What does the feedback teach you?""]","[""True"",""$0.01"",""As many or as few as I wish"",""5% of my score on a random round"",""All of the above.""]",16819,,,386403,,,survey-multi-choice,,73
,,,"[True, True, True, True, True]",,,,"[""True or false: The hidden values will change each time I start a new round."",""How much does it cost to observe each hidden value?"",""How many hidden values am I allowed to observe in each round?"",""How is your bonus determined?"",""What does the feedback teach you?""]","[""True"",""$2.80"",""As many or as few as I wish"",""5% of my score on a random round"",""All of the above.""]",48239,,,304597,,,survey-multi-choice,,74
,,,"[True, True, True, True, False]",,,,"[""True or false: The hidden values will change each time I start a new round."",""How much does it cost to observe each hidden value?"",""How many hidden values am I allowed to observe in each round?"",""How is your bonus determined?"",""What does the feedback teach you?""]","[""True"",""$0.01"",""As many or as few as I wish"",""5% of my score on a random round"",""Whether I chose the move that was best according to the information I had.""]",60973,,,492284,,,survey-multi-choice,,75
,,,"[True, True, True, True, True]",,,,"[""True or false: The hidden values will change each time I start a new round."",""How much does it cost to observe each hidden value?"",""How many hidden values am I allowed to observe in each round?"",""How is your bonus determined?"",""What does the feedback teach you?""]","[""True"",""$0.01"",""As many or as few as I wish"",""5% of my score on a random round"",""All of the above.""]",11419,,,533354,,,survey-multi-choice,,75
,,,"[True, True, True, False, True]",,,,"[""True or false: The hidden values will change each time I start a new round."",""How much does it cost to observe each hidden value?"",""How many hidden values am I allowed to observe in each round?"",""How is your bonus determined?"",""What does the feedback teach you?""]","[""True"",""$2.80"",""As many or as few as I wish"",""10% of my best score on any round"",""All of the above.""]",35962,,,127349,,,survey-multi-choice,,76
,,,"[True, True, True, False, True]",,,,"[""True or false: The hidden values will change each time I start a new round."",""How much does it cost to observe each hidden value?"",""How many hidden values am I allowed to observe in each round?"",""How is your bonus determined?"",""What does the feedback teach you?""]","[""True"",""$2.80"",""As many or as few as I wish"",""5% of my best score on any round"",""All of the above.""]",13567,,,150083,,,survey-multi-choice,,76
,,,"[True, True, True, True, False]",,,,"[""True or false: The hidden values will change each time I start a new round."",""How much does it cost to observe each hidden value?"",""How many hidden values am I allowed to observe in each round?"",""How is your bonus determined?"",""What does the feedback teach you?""]","[""True"",""$2.80"",""As many or as few as I wish"",""5% of my score on a random round"",""Whether I observed the rewards of relevant locations.""]",29498,,,222292,,,survey-multi-choice,,76
,,,"[True, True, True, True, True]",,,,"[""True or false: The hidden values will change each time I start a new round."",""How much does it cost to observe each hidden value?"",""How many hidden values am I allowed to observe in each round?"",""How is your bonus determined?"",""What does the feedback teach you?""]","[""True"",""$2.80"",""As many or as few as I wish"",""5% of my score on a random round"",""All of the above.""]",7815,,,240236,,,survey-multi-choice,,76
,,,"[True, True, True, True, True]",,,,"[""True or false: The hidden values will change each time I start a new round."",""How much does it cost to observe each hidden value?"",""How many hidden values am I allowed to observe in each round?"",""How is your bonus determined?"",""What does the feedback teach you?""]","[""True"",""$2.80"",""As many or as few as I wish"",""5% of my score on a random round"",""All of the above.""]",30730,,,148301,,,survey-multi-choice,,77
,,,"[True, True, True, False, True]",,,,"[""True or false: The hidden values will change each time I start a new round."",""How much does it cost to observe each hidden value?"",""How many hidden values am I allowed to observe in each round?"",""How is your bonus determined?"",""What does the feedback teach you?""]","[""True"",""$0.01"",""As many or as few as I wish"",""5% of my best score on any round"",""All of the above.""]",53973,,,272315,,,survey-multi-choice,,78
,,,"[True, True, True, True, True]",,,,"[""True or false: The hidden values will change each time I start a new round."",""How much does it cost to observe each hidden value?"",""How many hidden values am I allowed to observe in each round?"",""How is your bonus determined?"",""What does the feedback teach you?""]","[""True"",""$0.01"",""As many or as few as I wish"",""5% of my score on a random round"",""All of the above.""]",19587,,,388142,,,survey-multi-choice,,78
,,,"[True, True, True, True]",,,,"[""True or false: The hidden values will change each time I start a new round."",""How much does it cost to observe each hidden value?"",""How many hidden values am I allowed to observe in each round?"",""How is your bonus determined?""]","[""True"",""$2.80"",""As many or as few as I wish"",""5% of my score on a random round""]",10886,,,88043,,,survey-multi-choice,,79
,,,"[True, True, True, True, True]",,,,"[""True or false: The hidden values will change each time I start a new round."",""How much does it cost to observe each hidden value?"",""How many hidden values am I allowed to observe in each round?"",""How is your bonus determined?"",""What does the feedback teach you?""]","[""True"",""$0.01"",""As many or as few as I wish"",""5% of my score on a random round"",""All of the above.""]",38392,,,380470,,,survey-multi-choice,,80
,,,"[True, True, False, True, True]",,,,"[""True or false: The hidden values will change each time I start a new round."",""How much does it cost to observe each hidden value?"",""How many hidden values am I allowed to observe in each round?"",""How is your bonus determined?"",""What does the feedback teach you?""]","[""True"",""$0.01"",""At most 5"",""5% of my score on a random round"",""All of the above.""]",20053,,,107693,,,survey-multi-choice,,81
,,,"[True, True, True, True, True]",,,,"[""True or false: The hidden values will change each time I start a new round."",""How much does it cost to observe each hidden value?"",""How many hidden values am I allowed to observe in each round?"",""How is your bonus determined?"",""What does the feedback teach you?""]","[""True"",""$0.01"",""As many or as few as I wish"",""5% of my score on a random round"",""All of the above.""]",15516,,,140165,,,survey-multi-choice,,81
,,,"[True, True, True, True, True]",,,,"[""True or false: The hidden values will change each time I start a new round."",""How much does it cost to observe each hidden value?"",""How many hidden values am I allowed to observe in each round?"",""How is your bonus determined?"",""What does the feedback teach you?""]","[""True"",""$0.01"",""As many or as few as I wish"",""5% of my score on a random round"",""All of the above.""]",31258,,,154739,,,survey-multi-choice,,82
,,,"[True, True, True, True, True]",,,,"[""True or false: The hidden values will change each time I start a new round."",""How much does it cost to observe each hidden value?"",""How many hidden values am I allowed to observe in each round?"",""How is your bonus determined?"",""What does the feedback teach you?""]","[""True"",""$2.80"",""As many or as few as I wish"",""5% of my score on a random round"",""All of the above.""]",69583,,,301409,,,survey-multi-choice,,83
,,,"[True, True, True, True, True]",,,,"[""True or false: The hidden values will change each time I start a new round."",""How much does it cost to observe each hidden value?"",""How many hidden values am I allowed to observe in each round?"",""How is your bonus determined?"",""What does the feedback teach you?""]","[""True"",""$2.80"",""As many or as few as I wish"",""5% of my score on a random round"",""All of the above.""]",34117,,,167320,,,survey-multi-choice,,84
,,,"[True, True, True, True]",,,,"[""True or false: The hidden values will change each time I start a new round."",""How much does it cost to observe each hidden value?"",""How many hidden values am I allowed to observe in each round?"",""How is your bonus determined?""]","[""True"",""$2.80"",""As many or as few as I wish"",""5% of my score on a random round""]",273459,,,891014,,,survey-multi-choice,,85
,,,"[True, True, True, True]",,,,"[""True or false: The hidden values will change each time I start a new round."",""How much does it cost to observe each hidden value?"",""How many hidden values am I allowed to observe in each round?"",""How is your bonus determined?""]","[""True"",""$0.01"",""As many or as few as I wish"",""5% of my score on a random round""]",17352,,,226126,,,survey-multi-choice,,86
,,,"[False, True, True, False]",,,,"[""True or false: The hidden values will change each time I start a new round."",""How much does it cost to observe each hidden value?"",""How many hidden values am I allowed to observe in each round?"",""How is your bonus determined?""]","[""False"",""$0.01"",""As many or as few as I wish"",""10% of my total score on all rounds""]",18938,,,123952,,,survey-multi-choice,,87
,,,"[False, True, True, False]",,,,"[""True or false: The hidden values will change each time I start a new round."",""How much does it cost to observe each hidden value?"",""How many hidden values am I allowed to observe in each round?"",""How is your bonus determined?""]","[""False"",""$0.01"",""As many or as few as I wish"",""5% of my best score on any round""]",13336,,,157154,,,survey-multi-choice,,87
,,,"[False, True, True, True]",,,,"[""True or false: The hidden values will change each time I start a new round."",""How much does it cost to observe each hidden value?"",""How many hidden values am I allowed to observe in each round?"",""How is your bonus determined?""]","[""False"",""$0.01"",""As many or as few as I wish"",""5% of my score on a random round""]",9828,,,180694,,,survey-multi-choice,,87
,,,"[True, True, True, True]",,,,"[""True or false: The hidden values will change each time I start a new round."",""How much does it cost to observe each hidden value?"",""How many hidden values am I allowed to observe in each round?"",""How is your bonus determined?""]","[""True"",""$0.01"",""As many or as few as I wish"",""5% of my score on a random round""]",14252,,,227984,,,survey-multi-choice,,87
,,,"[True, False, False, False, True]",,,,"[""True or false: The hidden values will change each time I start a new round."",""How much does it cost to observe each hidden value?"",""How many hidden values am I allowed to observe in each round?"",""How is your bonus determined?"",""What does the feedback teach you?""]","[""True"",""$0.05"",""At most 5"",""10% of my total score on all rounds"",""All of the above.""]",16878,,,37528,,,survey-multi-choice,,88
,,,"[True, True, True, True, True]",,,,"[""True or false: The hidden values will change each time I start a new round."",""How much does it cost to observe each hidden value?"",""How many hidden values am I allowed to observe in each round?"",""How is your bonus determined?"",""What does the feedback teach you?""]","[""True"",""$0.01"",""As many or as few as I wish"",""5% of my score on a random round"",""All of the above.""]",19851,,,100242,,,survey-multi-choice,,88
,,,"[True, True, True, True, True]",,,,"[""True or false: The hidden values will change each time I start a new round."",""How much does it cost to observe each hidden value?"",""How many hidden values am I allowed to observe in each round?"",""How is your bonus determined?"",""What does the feedback teach you?""]","[""True"",""$0.01"",""As many or as few as I wish"",""5% of my score on a random round"",""All of the above.""]",24975,,,160577,,,survey-multi-choice,,89
,,,"[True, True, True, True, False]",,,,"[""True or false: The hidden values will change each time I start a new round."",""How much does it cost to observe each hidden value?"",""How many hidden values am I allowed to observe in each round?"",""How is your bonus determined?"",""What does the feedback teach you?""]","[""True"",""$2.80"",""As many or as few as I wish"",""5% of my score on a random round"",""The length of the delay is based on how much more money I could have earned by planning and deciding better.""]",37652,,,384594,,,survey-multi-choice,,90
,,,"[True, True, True, True, True]",,,,"[""True or false: The hidden values will change each time I start a new round."",""How much does it cost to observe each hidden value?"",""How many hidden values am I allowed to observe in each round?"",""How is your bonus determined?"",""What does the feedback teach you?""]","[""True"",""$2.80"",""As many or as few as I wish"",""5% of my score on a random round"",""All of the above.""]",21292,,,427983,,,survey-multi-choice,,90
,,,"[True, True, True, True]",,,,"[""True or false: The hidden values will change each time I start a new round."",""How much does it cost to observe each hidden value?"",""How many hidden values am I allowed to observe in each round?"",""How is your bonus determined?""]","[""True"",""$0.01"",""As many or as few as I wish"",""5% of my score on a random round""]",19347,,,165416,,,survey-multi-choice,,91
,,,"[True, True, True, True, True]",,,,"[""True or false: The hidden values will change each time I start a new round."",""How much does it cost to observe each hidden value?"",""How many hidden values am I allowed to observe in each round?"",""How is your bonus determined?"",""What does the feedback teach you?""]","[""True"",""$0.01"",""As many or as few as I wish"",""5% of my score on a random round"",""All of the above.""]",20355,,,125485,,,survey-multi-choice,,92
,,,"[True, True, True, True]",,,,"[""True or false: The hidden values will change each time I start a new round."",""How much does it cost to observe each hidden value?"",""How many hidden values am I allowed to observe in each round?"",""How is your bonus determined?""]","[""True"",""$2.80"",""As many or as few as I wish"",""5% of my score on a random round""]",14852,,,149220,,,survey-multi-choice,,93
,,,"[True, True, True, True, True]",,,,"[""True or false: The hidden values will change each time I start a new round."",""How much does it cost to observe each hidden value?"",""How many hidden values am I allowed to observe in each round?"",""How is your bonus determined?"",""What does the feedback teach you?""]","[""True"",""$0.01"",""As many or as few as I wish"",""5% of my score on a random round"",""All of the above.""]",49744,,,209410,,,survey-multi-choice,,94
,,,"[True, True, True, False, True]",,,,"[""True or false: The hidden values will change each time I start a new round."",""How much does it cost to observe each hidden value?"",""How many hidden values am I allowed to observe in each round?"",""How is your bonus determined?"",""What does the feedback teach you?""]","[""True"",""$0.01"",""As many or as few as I wish"",""5% of my best score on any round"",""All of the above.""]",40878,,,189163,,,survey-multi-choice,,95
,,,"[True, True, True, False, False]",,,,"[""True or false: The hidden values will change each time I start a new round."",""How much does it cost to observe each hidden value?"",""How many hidden values am I allowed to observe in each round?"",""How is your bonus determined?"",""What does the feedback teach you?""]","[""True"",""$0.01"",""As many or as few as I wish"",""5% of my best score on any round"",""The length of the delay is based on how much more money I could have earned by planning and deciding better.""]",37122,,,325586,,,survey-multi-choice,,95
,,,"[True, True, True, True, False]",,,,"[""True or false: The hidden values will change each time I start a new round."",""How much does it cost to observe each hidden value?"",""How many hidden values am I allowed to observe in each round?"",""How is your bonus determined?"",""What does the feedback teach you?""]","[""True"",""$0.01"",""As many or as few as I wish"",""5% of my score on a random round"",""The length of the delay is based on how much more money I could have earned by planning and deciding better.""]",24402,,,476385,,,survey-multi-choice,,95
,,,"[True, True, True, True, True]",,,,"[""True or false: The hidden values will change each time I start a new round."",""How much does it cost to observe each hidden value?"",""How many hidden values am I allowed to observe in each round?"",""How is your bonus determined?"",""What does the feedback teach you?""]","[""True"",""$0.01"",""As many or as few as I wish"",""5% of my score on a random round"",""All of the above.""]",17088,,,503626,,,survey-multi-choice,,95
,,,"[True, False, True, False, True]",,,,"[""True or false: The hidden values will change each time I start a new round."",""How much does it cost to observe each hidden value?"",""How many hidden values am I allowed to observe in each round?"",""How is your bonus determined?"",""What does the feedback teach you?""]","[""True"",""$0.05"",""As many or as few as I wish"",""10% of my total score on all rounds"",""All of the above.""]",28186,,,72062,,,survey-multi-choice,,96
,,,"[True, False, True, True, True]",,,,"[""True or false: The hidden values will change each time I start a new round."",""How much does it cost to observe each hidden value?"",""How many hidden values am I allowed to observe in each round?"",""How is your bonus determined?"",""What does the feedback teach you?""]","[""True"",""$0.05"",""As many or as few as I wish"",""5% of my score on a random round"",""All of the above.""]",13771,,,124696,,,survey-multi-choice,,96
,,,"[True, True, True, True, True]",,,,"[""True or false: The hidden values will change each time I start a new round."",""How much does it cost to observe each hidden value?"",""How many hidden values am I allowed to observe in each round?"",""How is your bonus determined?"",""What does the feedback teach you?""]","[""True"",""$2.80"",""As many or as few as I wish"",""5% of my score on a random round"",""All of the above.""]",10955,,,172511,,,survey-multi-choice,,96
,,,"[True, True, True, True]",,,,"[""True or false: The hidden values will change each time I start a new round."",""How much does it cost to observe each hidden value?"",""How many hidden values am I allowed to observe in each round?"",""How is your bonus determined?""]","[""True"",""$0.01"",""As many or as few as I wish"",""5% of my score on a random round""]",32598,,,254894,,,survey-multi-choice,,97
,,,"[False, True, False, False]",,,,"[""True or false: The hidden values will change each time I start a new round."",""How much does it cost to observe each hidden value?"",""How many hidden values am I allowed to observe in each round?"",""How is your bonus determined?""]","[""False"",""$2.80"",""At most 5"",""5% of my best score on any round""]",14208,,,68565,,,survey-multi-choice,,98
,,,"[True, True, True, True]",,,,"[""True or false: The hidden values will change each time I start a new round."",""How much does it cost to observe each hidden value?"",""How many hidden values am I allowed to observe in each round?"",""How is your bonus determined?""]","[""True"",""$2.80"",""As many or as few as I wish"",""5% of my score on a random round""]",125284,,,272268,,,survey-multi-choice,,98
,,,"[True, True, True, True, False]",,,,"[""True or false: The hidden values will change each time I start a new round."",""How much does it cost to observe each hidden value?"",""How many hidden values am I allowed to observe in each round?"",""How is your bonus determined?"",""What does the feedback teach you?""]","[""True"",""$2.80"",""As many or as few as I wish"",""5% of my score on a random round"",""Whether I chose the move that was best according to the information I had.""]",65770,,,433270,,,survey-multi-choice,,99
,,,"[True, True, True, True, True]",,,,"[""True or false: The hidden values will change each time I start a new round."",""How much does it cost to observe each hidden value?"",""How many hidden values am I allowed to observe in each round?"",""How is your bonus determined?"",""What does the feedback teach you?""]","[""True"",""$2.80"",""As many or as few as I wish"",""5% of my score on a random round"",""All of the above.""]",11897,,,536761,,,survey-multi-choice,,99
,,,"[True, True, True, True]",,,,"[""True or false: The hidden values will change each time I start a new round."",""How much does it cost to observe each hidden value?"",""How many hidden values am I allowed to observe in each round?"",""How is your bonus determined?""]","[""True"",""$0.01"",""As many or as few as I wish"",""5% of my score on a random round""]",16651,,,88549,,,survey-multi-choice,,100
,,,"[True, True, True, True]",,,,"[""True or false: The hidden values will change each time I start a new round."",""How much does it cost to observe each hidden value?"",""How many hidden values am I allowed to observe in each round?"",""How is your bonus determined?""]","[""True"",""$0.01"",""As many or as few as I wish"",""5% of my score on a random round""]",21366,,,139494,,,survey-multi-choice,,101
,,,"[True, True, True, True]",,,,"[""True or false: The hidden values will change each time I start a new round."",""How much does it cost to observe each hidden value?"",""How many hidden values am I allowed to observe in each round?"",""How is your bonus determined?""]","[""True"",""$0.01"",""As many or as few as I wish"",""5% of my score on a random round""]",13053,,,93837,,,survey-multi-choice,,102
,,,"[True, False, True, True, False]",,,,"[""True or false: The hidden values will change each time I start a new round."",""How much does it cost to observe each hidden value?"",""How many hidden values am I allowed to observe in each round?"",""How is your bonus determined?"",""What does the feedback teach you?""]","[""True"",""$0.01"",""As many or as few as I wish"",""5% of my score on a random round"",""Whether I chose the move that was best according to the information I had.""]",35489,,,136232,,,survey-multi-choice,,103
,,,"[True, True, True, True, False]",,,,"[""True or false: The hidden values will change each time I start a new round."",""How much does it cost to observe each hidden value?"",""How many hidden values am I allowed to observe in each round?"",""How is your bonus determined?"",""What does the feedback teach you?""]","[""True"",""$2.80"",""As many or as few as I wish"",""5% of my score on a random round"",""Whether I chose the move that was best according to the information I had.""]",25590,,,239577,,,survey-multi-choice,,103
,,,"[True, True, True, True, False]",,,,"[""True or false: The hidden values will change each time I start a new round."",""How much does it cost to observe each hidden value?"",""How many hidden values am I allowed to observe in each round?"",""How is your bonus determined?"",""What does the feedback teach you?""]","[""True"",""$2.80"",""As many or as few as I wish"",""5% of my score on a random round"",""Whether I chose the move that was best according to the information I had.""]",20154,,,299994,,,survey-multi-choice,,103
,,,"[False, True, True, True, True]",,,,"[""True or false: The hidden values will change each time I start a new round."",""How much does it cost to observe each hidden value?"",""How many hidden values am I allowed to observe in each round?"",""How is your bonus determined?"",""What does the feedback teach you?""]","[""False"",""$2.80"",""As many or as few as I wish"",""5% of my score on a random round"",""All of the above.""]",15016,,,325136,,,survey-multi-choice,,103
,,,"[True, True, True, True, False]",,,,"[""True or false: The hidden values will change each time I start a new round."",""How much does it cost to observe each hidden value?"",""How many hidden values am I allowed to observe in each round?"",""How is your bonus determined?"",""What does the feedback teach you?""]","[""True"",""$2.80"",""As many or as few as I wish"",""5% of my score on a random round"",""The length of the delay is based on how much more money I could have earned by planning and deciding better.""]",10682,,,357570,,,survey-multi-choice,,103
,,,"[False, True, True, True, True]",,,,"[""True or false: The hidden values will change each time I start a new round."",""How much does it cost to observe each hidden value?"",""How many hidden values am I allowed to observe in each round?"",""How is your bonus determined?"",""What does the feedback teach you?""]","[""False"",""$2.80"",""As many or as few as I wish"",""5% of my score on a random round"",""All of the above.""]",15797,,,383274,,,survey-multi-choice,,103
,,,"[True, True, True, True, False]",,,,"[""True or false: The hidden values will change each time I start a new round."",""How much does it cost to observe each hidden value?"",""How many hidden values am I allowed to observe in each round?"",""How is your bonus determined?"",""What does the feedback teach you?""]","[""True"",""$2.80"",""As many or as few as I wish"",""5% of my score on a random round"",""Whether I chose the move that was best according to the information I had.""]",16372,,,425239,,,survey-multi-choice,,103
,,,"[True, True, True, True, False]",,,,"[""True or false: The hidden values will change each time I start a new round."",""How much does it cost to observe each hidden value?"",""How many hidden values am I allowed to observe in each round?"",""How is your bonus determined?"",""What does the feedback teach you?""]","[""True"",""$2.80"",""As many or as few as I wish"",""5% of my score on a random round"",""The length of the delay is based on how much more money I could have earned by planning and deciding better.""]",25870,,,461158,,,survey-multi-choice,,103
,,,"[True, True, True, True, False]",,,,"[""True or false: The hidden values will change each time I start a new round."",""How much does it cost to observe each hidden value?"",""How many hidden values am I allowed to observe in each round?"",""How is your bonus determined?"",""What does the feedback teach you?""]","[""True"",""$2.80"",""As many or as few as I wish"",""5% of my score on a random round"",""Whether I chose the move that was best according to the information I had.""]",26500,,,555482,,,survey-multi-choice,,103
,,,"[True, True, True, True, True]",,,,"[""True or false: The hidden values will change each time I start a new round."",""How much does it cost to observe each hidden value?"",""How many hidden values am I allowed to observe in each round?"",""How is your bonus determined?"",""What does the feedback teach you?""]","[""True"",""$2.80"",""As many or as few as I wish"",""5% of my score on a random round"",""All of the above.""]",10485,,,596409,,,survey-multi-choice,,103
,,,"[True, True, True, True, True]",,,,"[""True or false: The hidden values will change each time I start a new round."",""How much does it cost to observe each hidden value?"",""How many hidden values am I allowed to observe in each round?"",""How is your bonus determined?"",""What does the feedback teach you?""]","[""True"",""$0.01"",""As many or as few as I wish"",""5% of my score on a random round"",""All of the above.""]",28977,,,146408,,,survey-multi-choice,,104
,,,"[True, False, True, False]",,,,"[""True or false: The hidden values will change each time I start a new round."",""How much does it cost to observe each hidden value?"",""How many hidden values am I allowed to observe in each round?"",""How is your bonus determined?""]","[""True"",""$0.05"",""As many or as few as I wish"",""10% of my total score on all rounds""]",29186,,,84373,,,survey-multi-choice,,105
,,,"[True, True, True, True]",,,,"[""True or false: The hidden values will change each time I start a new round."",""How much does it cost to observe each hidden value?"",""How many hidden values am I allowed to observe in each round?"",""How is your bonus determined?""]","[""True"",""$2.80"",""As many or as few as I wish"",""5% of my score on a random round""]",17719,,,156069,,,survey-multi-choice,,105
,,,"[True, True, True, True, True]",,,,"[""True or false: The hidden values will change each time I start a new round."",""How much does it cost to observe each hidden value?"",""How many hidden values am I allowed to observe in each round?"",""How is your bonus determined?"",""What does the feedback teach you?""]","[""True"",""$2.80"",""As many or as few as I wish"",""5% of my score on a random round"",""All of the above.""]",29293,,,196755,,,survey-multi-choice,,106
,,,"[True, True, True, True, True]",,,,"[""True or false: The hidden values will change each time I start a new round."",""How much does it cost to observe each hidden value?"",""How many hidden values am I allowed to observe in each round?"",""How is your bonus determined?"",""What does the feedback teach you?""]","[""True"",""$0.01"",""As many or as few as I wish"",""5% of my score on a random round"",""All of the above.""]",66571,,,254181,,,survey-multi-choice,,107
,,,"[True, True, True, False]",,,,"[""True or false: The hidden values will change each time I start a new round."",""How much does it cost to observe each hidden value?"",""How many hidden values am I allowed to observe in each round?"",""How is your bonus determined?""]","[""True"",""$0.01"",""As many or as few as I wish"",""5% of my best score on any round""]",37346,,,164770,,,survey-multi-choice,,108
,,,"[True, True, True, True]",,,,"[""True or false: The hidden values will change each time I start a new round."",""How much does it cost to observe each hidden value?"",""How many hidden values am I allowed to observe in each round?"",""How is your bonus determined?""]","[""True"",""$0.01"",""As many or as few as I wish"",""5% of my score on a random round""]",28385,,,252598,,,survey-multi-choice,,108
,,,"[True, True, True, True, True]",,,,"[""True or false: The hidden values will change each time I start a new round."",""How much does it cost to observe each hidden value?"",""How many hidden values am I allowed to observe in each round?"",""How is your bonus determined?"",""What does the feedback teach you?""]","[""True"",""$0.01"",""As many or as few as I wish"",""5% of my score on a random round"",""All of the above.""]",26656,,,142288,,,survey-multi-choice,,109
,,,"[True, True, True, False, True]",,,,"[""True or false: The hidden values will change each time I start a new round."",""How much does it cost to observe each hidden value?"",""How many hidden values am I allowed to observe in each round?"",""How is your bonus determined?"",""What does the feedback teach you?""]","[""True"",""$0.01"",""As many or as few as I wish"",""5% of my best score on any round"",""All of the above.""]",18671,,,64483,,,survey-multi-choice,,110
,,,"[True, True, True, True, True]",,,,"[""True or false: The hidden values will change each time I start a new round."",""How much does it cost to observe each hidden value?"",""How many hidden values am I allowed to observe in each round?"",""How is your bonus determined?"",""What does the feedback teach you?""]","[""True"",""$0.01"",""As many or as few as I wish"",""5% of my score on a random round"",""All of the above.""]",9980,,,112028,,,survey-multi-choice,,110
,,,"[True, True, True, True, True]",,,,"[""True or false: The hidden values will change each time I start a new round."",""How much does it cost to observe each hidden value?"",""How many hidden values am I allowed to observe in each round?"",""How is your bonus determined?"",""What does the feedback teach you?""]","[""True"",""$0.01"",""As many or as few as I wish"",""5% of my score on a random round"",""All of the above.""]",20525,,,195006,,,survey-multi-choice,,111
,,,"[True, True, True, False, True]",,,,"[""True or false: The hidden values will change each time I start a new round."",""How much does it cost to observe each hidden value?"",""How many hidden values am I allowed to observe in each round?"",""How is your bonus determined?"",""What does the feedback teach you?""]","[""True"",""$2.80"",""As many or as few as I wish"",""5% of my best score on any round"",""All of the above.""]",25987,,,74171,,,survey-multi-choice,,112
,,,"[True, True, True, True, True]",,,,"[""True or false: The hidden values will change each time I start a new round."",""How much does it cost to observe each hidden value?"",""How many hidden values am I allowed to observe in each round?"",""How is your bonus determined?"",""What does the feedback teach you?""]","[""True"",""$2.80"",""As many or as few as I wish"",""5% of my score on a random round"",""All of the above.""]",24715,,,133624,,,survey-multi-choice,,112
,,,"[True, True, True, True, True]",,,,"[""True or false: The hidden values will change each time I start a new round."",""How much does it cost to observe each hidden value?"",""How many hidden values am I allowed to observe in each round?"",""How is your bonus determined?"",""What does the feedback teach you?""]","[""True"",""$0.01"",""As many or as few as I wish"",""5% of my score on a random round"",""All of the above.""]",36180,,,160347,,,survey-multi-choice,,113
,,,"[True, True, True, True]",,,,"[""True or false: The hidden values will change each time I start a new round."",""How much does it cost to observe each hidden value?"",""How many hidden values am I allowed to observe in each round?"",""How is your bonus determined?""]","[""True"",""$2.80"",""As many or as few as I wish"",""5% of my score on a random round""]",14808,,,189411,,,survey-multi-choice,,114
,,,"[True, True, True, True, True]",,,,"[""True or false: The hidden values will change each time I start a new round."",""How much does it cost to observe each hidden value?"",""How many hidden values am I allowed to observe in each round?"",""How is your bonus determined?"",""What does the feedback teach you?""]","[""True"",""$0.01"",""As many or as few as I wish"",""5% of my score on a random round"",""All of the above.""]",29877,,,170550,,,survey-multi-choice,,115
,,,"[False, True, False, True, True]",,,,"[""True or false: The hidden values will change each time I start a new round."",""How much does it cost to observe each hidden value?"",""How many hidden values am I allowed to observe in each round?"",""How is your bonus determined?"",""What does the feedback teach you?""]","[""False"",""$0.01"",""At most 15"",""5% of my score on a random round"",""All of the above.""]",48456,,,243798,,,survey-multi-choice,,116
,,,"[True, True, True, True, False]",,,,"[""True or false: The hidden values will change each time I start a new round."",""How much does it cost to observe each hidden value?"",""How many hidden values am I allowed to observe in each round?"",""How is your bonus determined?"",""What does the feedback teach you?""]","[""True"",""$0.01"",""As many or as few as I wish"",""5% of my score on a random round"",""The length of the delay is based on how much more money I could have earned by planning and deciding better.""]",22216,,,351668,,,survey-multi-choice,,116
,,,"[True, True, True, True, True]",,,,"[""True or false: The hidden values will change each time I start a new round."",""How much does it cost to observe each hidden value?"",""How many hidden values am I allowed to observe in each round?"",""How is your bonus determined?"",""What does the feedback teach you?""]","[""True"",""$0.01"",""As many or as few as I wish"",""5% of my score on a random round"",""All of the above.""]",36785,,,460509,,,survey-multi-choice,,116
,,,"[True, True, True, False, True]",,,,"[""True or false: The hidden values will change each time I start a new round."",""How much does it cost to observe each hidden value?"",""How many hidden values am I allowed to observe in each round?"",""How is your bonus determined?"",""What does the feedback teach you?""]","[""True"",""$2.80"",""As many or as few as I wish"",""5% of my best score on any round"",""All of the above.""]",33711,,,131273,,,survey-multi-choice,,117
,,,"[True, True, True, True, True]",,,,"[""True or false: The hidden values will change each time I start a new round."",""How much does it cost to observe each hidden value?"",""How many hidden values am I allowed to observe in each round?"",""How is your bonus determined?"",""What does the feedback teach you?""]","[""True"",""$2.80"",""As many or as few as I wish"",""5% of my score on a random round"",""All of the above.""]",10645,,,174120,,,survey-multi-choice,,117
,,,"[True, False, False, True, True]",,,,"[""True or false: The hidden values will change each time I start a new round."",""How much does it cost to observe each hidden value?"",""How many hidden values am I allowed to observe in each round?"",""How is your bonus determined?"",""What does the feedback teach you?""]","[""True"",""$0.05"",""At most 5"",""5% of my score on a random round"",""All of the above.""]",21992,,,92567,,,survey-multi-choice,,118
,,,"[True, True, False, True, True]",,,,"[""True or false: The hidden values will change each time I start a new round."",""How much does it cost to observe each hidden value?"",""How many hidden values am I allowed to observe in each round?"",""How is your bonus determined?"",""What does the feedback teach you?""]","[""True"",""$2.80"",""At most 5"",""5% of my score on a random round"",""All of the above.""]",11655,,,118546,,,survey-multi-choice,,118
,,,"[True, True, True, True, True]",,,,"[""True or false: The hidden values will change each time I start a new round."",""How much does it cost to observe each hidden value?"",""How many hidden values am I allowed to observe in each round?"",""How is your bonus determined?"",""What does the feedback teach you?""]","[""True"",""$2.80"",""As many or as few as I wish"",""5% of my score on a random round"",""All of the above.""]",17864,,,161004,,,survey-multi-choice,,118
,,,"[True, True, True, True, True]",,,,"[""True or false: The hidden values will change each time I start a new round."",""How much does it cost to observe each hidden value?"",""How many hidden values am I allowed to observe in each round?"",""How is your bonus determined?"",""What does the feedback teach you?""]","[""True"",""$0.01"",""As many or as few as I wish"",""5% of my score on a random round"",""All of the above.""]",21156,,,155262,,,survey-multi-choice,,119
,,,"[True, True, True, True]",,,,"[""True or false: The hidden values will change each time I start a new round."",""How much does it cost to observe each hidden value?"",""How many hidden values am I allowed to observe in each round?"",""How is your bonus determined?""]","[""True"",""$2.80"",""As many or as few as I wish"",""5% of my score on a random round""]",23269,,,76413,,,survey-multi-choice,,120
,,,"[True, True, True, False]",,,,"[""True or false: The hidden values will change each time I start a new round."",""How much does it cost to observe each hidden value?"",""How many hidden values am I allowed to observe in each round?"",""How is your bonus determined?""]","[""True"",""$2.80"",""As many or as few as I wish"",""10% of my best score on any round""]",21300,,,122687,,,survey-multi-choice,,121
,,,"[True, True, True, True]",,,,"[""True or false: The hidden values will change each time I start a new round."",""How much does it cost to observe each hidden value?"",""How many hidden values am I allowed to observe in each round?"",""How is your bonus determined?""]","[""True"",""$2.80"",""As many or as few as I wish"",""5% of my score on a random round""]",10962,,,190479,,,survey-multi-choice,,121
,,,"[True, True, True, True, True]",,,,"[""True or false: The hidden values will change each time I start a new round."",""How much does it cost to observe each hidden value?"",""How many hidden values am I allowed to observe in each round?"",""How is your bonus determined?"",""What does the feedback teach you?""]","[""True"",""$2.80"",""As many or as few as I wish"",""5% of my score on a random round"",""All of the above.""]",38398,,,255785,,,survey-multi-choice,,122
,,,"[True, True, True, True]",,,,"[""True or false: The hidden values will change each time I start a new round."",""How much does it cost to observe each hidden value?"",""How many hidden values am I allowed to observe in each round?"",""How is your bonus determined?""]","[""True"",""$2.80"",""As many or as few as I wish"",""5% of my score on a random round""]",18424,,,261645,,,survey-multi-choice,,123
,,,"[True, True, True, True, True]",,,,"[""True or false: The hidden values will change each time I start a new round."",""How much does it cost to observe each hidden value?"",""How many hidden values am I allowed to observe in each round?"",""How is your bonus determined?"",""What does the feedback teach you?""]","[""True"",""$2.80"",""As many or as few as I wish"",""5% of my score on a random round"",""All of the above.""]",45566,,,179342,,,survey-multi-choice,,124
,,,"[False, True, True, True, True]",,,,"[""True or false: The hidden values will change each time I start a new round."",""How much does it cost to observe each hidden value?"",""How many hidden values am I allowed to observe in each round?"",""How is your bonus determined?"",""What does the feedback teach you?""]","[""False"",""$0.01"",""As many or as few as I wish"",""5% of my score on a random round"",""All of the above.""]",24076,,,165738,,,survey-multi-choice,,125
,,,"[False, True, True, True, False]",,,,"[""True or false: The hidden values will change each time I start a new round."",""How much does it cost to observe each hidden value?"",""How many hidden values am I allowed to observe in each round?"",""How is your bonus determined?"",""What does the feedback teach you?""]","[""False"",""$0.01"",""As many or as few as I wish"",""5% of my score on a random round"",""The length of the delay is based on how much more money I could have earned by planning and deciding better.""]",19191,,,216918,,,survey-multi-choice,,125
,,,"[False, True, True, True, False]",,,,"[""True or false: The hidden values will change each time I start a new round."",""How much does it cost to observe each hidden value?"",""How many hidden values am I allowed to observe in each round?"",""How is your bonus determined?"",""What does the feedback teach you?""]","[""False"",""$0.01"",""As many or as few as I wish"",""5% of my score on a random round"",""Whether I observed the rewards of relevant locations.""]",8697,,,276012,,,survey-multi-choice,,125
,,,"[True, True, True, True, False]",,,,"[""True or false: The hidden values will change each time I start a new round."",""How much does it cost to observe each hidden value?"",""How many hidden values am I allowed to observe in each round?"",""How is your bonus determined?"",""What does the feedback teach you?""]","[""True"",""$0.01"",""As many or as few as I wish"",""5% of my score on a random round"",""Whether I chose the move that was best according to the information I had.""]",12695,,,318684,,,survey-multi-choice,,125
,,,"[True, True, True, True, False]",,,,"[""True or false: The hidden values will change each time I start a new round."",""How much does it cost to observe each hidden value?"",""How many hidden values am I allowed to observe in each round?"",""How is your bonus determined?"",""What does the feedback teach you?""]","[""True"",""$0.01"",""As many or as few as I wish"",""5% of my score on a random round"",""Whether I observed the rewards of relevant locations.""]",10514,,,374123,,,survey-multi-choice,,125
,,,"[True, True, True, True, False]",,,,"[""True or false: The hidden values will change each time I start a new round."",""How much does it cost to observe each hidden value?"",""How many hidden values am I allowed to observe in each round?"",""How is your bonus determined?"",""What does the feedback teach you?""]","[""True"",""$0.01"",""As many or as few as I wish"",""5% of my score on a random round"",""The length of the delay is based on how much more money I could have earned by planning and deciding better.""]",16849,,,423045,,,survey-multi-choice,,125
,,,"[True, True, True, True, True]",,,,"[""True or false: The hidden values will change each time I start a new round."",""How much does it cost to observe each hidden value?"",""How many hidden values am I allowed to observe in each round?"",""How is your bonus determined?"",""What does the feedback teach you?""]","[""True"",""$0.01"",""As many or as few as I wish"",""5% of my score on a random round"",""All of the above.""]",11176,,,477382,,,survey-multi-choice,,125
,,,"[True, True, True, True, True]",,,,"[""True or false: The hidden values will change each time I start a new round."",""How much does it cost to observe each hidden value?"",""How many hidden values am I allowed to observe in each round?"",""How is your bonus determined?"",""What does the feedback teach you?""]","[""True"",""$0.01"",""As many or as few as I wish"",""5% of my score on a random round"",""All of the above.""]",38141,,,145275,,,survey-multi-choice,,126
