action_times,actions,block,path,queries,rewards,rt,score,simulation_mode,state_rewards,time_elapsed,trial_index,trial_time,trial_id,trial_type,pid
"[1203, 7240, 9297, 11025, 12945]","[u'right', u'right', u'right', u'down', u'down']",pre_test,"[u'0', u'12', u'13', u'14', u'19', u'21']","{u'mouseover': {u'state': {u'target': [], u'time': []}, u'edge': {u'target': [], u'time': []}}, u'click': {u'state': {u'target': [], u'time': []}, u'edge': {u'target': [], u'time': []}}, u'mouseout': {u'state': {u'target': [], u'time': []}, u'edge': {u'target': [], u'time': []}}}","[0, -1, 1, 5, 22]","[1183, 5527, 1548, 1225, 1409]",27.0,"[None, None, None, None, None]","[u'', 1, 2, 2, 9, -14, -2, 43, 16, -53, 30, -40, 0, -1, 1, -2, 13, 21, -11, 5, -9, 22, 38, 0, 0, -7, -6, -20, -5, -45, -10, -2, 7, 32]",105225,0.0,15985.0,-6.28758616178e+18,mouselab-mdp,0
"[9192, 10215, 11192]","[u'left', u'left', u'down']",training,"[u'0', u'9', u'10', u'12']","{u'mouseover': {u'state': {u'target': [], u'time': []}, u'edge': {u'target': [], u'time': []}}, u'click': {u'state': {u'target': [u'5', u'6', u'9', u'10'], u'time': [1345, 2236, 3393, 4202]}, u'edge': {u'target': [], u'time': []}}, u'mouseout': {u'state': {u'target': [], u'time': []}, u'edge': {u'target': [], u'time': []}}}","[4, 8, 48]","[9187, 523, 465]",56.0,"[None, None, None]","[u'', 2, -8, -24, 48, -2, -4, -24, -24, 4, 8, 24, 48]",149522,1.0,13822.0,6.51676073779e+18,mouselab-mdp,0
"[10039, 10656, 11349]","[u'right', u'right', u'down']",training,"[u'0', u'5', u'6', u'8']","{u'mouseover': {u'state': {u'target': [], u'time': []}, u'edge': {u'target': [], u'time': []}}, u'click': {u'state': {u'target': [u'9', u'5', u'1', u'2', u'10', u'6', u'8'], u'time': [2456, 3290, 4105, 4950, 5825, 7900, 8945]}, u'edge': {u'target': [], u'time': []}}, u'mouseout': {u'state': {u'target': [], u'time': []}, u'edge': {u'target': [], u'time': []}}}","[-2, 8, 48]","[10032, 102, 169]",47.0,"[None, None, None]","[u'', 2, -4, 24, -24, -2, 8, 24, 48, 4, -4, 48, 48]",164275,2.0,13670.0,5.2467434854e+18,mouselab-mdp,0
"[8333, 9028, 9675]","[u'right', u'right', u'up']",training,"[u'0', u'5', u'6', u'7']","{u'mouseover': {u'state': {u'target': [], u'time': []}, u'edge': {u'target': [], u'time': []}}, u'click': {u'state': {u'target': [u'5', u'9', u'6', u'8', u'7'], u'time': [2801, 3952, 5024, 5749, 6933]}, u'edge': {u'target': [], u'time': []}}, u'mouseout': {u'state': {u'target': [], u'time': []}, u'edge': {u'target': [], u'time': []}}}","[4, 8, 24]","[8329, 188, 137]",31.0,"[None, None, None]","[u'', 4, -4, -48, -48, 4, 8, 24, -24, -2, 8, 48, -48]",176580,3.0,11229.0,-6.97855305918e+18,mouselab-mdp,0
"[10872, 11513, 12143]","[u'left', u'left', u'down']",training,"[u'0', u'9', u'10', u'12']","{u'mouseover': {u'state': {u'target': [], u'time': []}, u'edge': {u'target': [], u'time': []}}, u'click': {u'state': {u'target': [u'5', u'1', u'6', u'7', u'3', u'2', u'9', u'10', u'12'], u'time': [1174, 2177, 3450, 4328, 5515, 6115, 7829, 8553, 9244]}, u'edge': {u'target': [], u'time': []}}, u'mouseout': {u'state': {u'target': [], u'time': []}, u'edge': {u'target': [], u'time': []}}}","[-4, -4, 48]","[10869, 140, 122]",31.0,"[None, None, None]","[u'', 2, -4, -24, -24, 4, -8, -48, -48, -4, -4, 48, 48]",191428,4.0,13776.0,-7.91360722647e+18,mouselab-mdp,0
"[9811, 10433, 11114]","[u'left', u'left', u'down']",training,"[u'0', u'9', u'10', u'12']","{u'mouseover': {u'state': {u'target': [], u'time': []}, u'edge': {u'target': [], u'time': []}}, u'click': {u'state': {u'target': [u'5', u'6', u'8', u'7', u'9', u'10', u'12'], u'time': [2190, 2981, 3693, 4546, 6093, 6693, 7283]}, u'edge': {u'target': [], u'time': []}}, u'mouseout': {u'state': {u'target': [], u'time': []}, u'edge': {u'target': [], u'time': []}}}","[-2, -8, 48]","[9807, 118, 183]",31.0,"[None, None, None]","[u'', 4, -8, -48, -48, -4, 4, 24, 24, -2, -8, -24, 48]",205372,5.0,12866.0,-4.56949664606e+18,mouselab-mdp,0
"[6822, 7412, 8028]","[u'left', u'left', u'down']",training,"[u'0', u'9', u'10', u'12']","{u'mouseover': {u'state': {u'target': [], u'time': []}, u'edge': {u'target': [], u'time': []}}, u'click': {u'state': {u'target': [u'5', u'1', u'9', u'10', u'12'], u'time': [1637, 2380, 3144, 3941, 4920]}, u'edge': {u'target': [], u'time': []}}, u'mouseout': {u'state': {u'target': [], u'time': []}, u'edge': {u'target': [], u'time': []}}}","[2, 4, 24]","[6817, 98, 114]",25.0,"[None, None, None]","[u'', -2, -4, -48, -48, 2, -8, -24, -24, 2, 4, 24, 24]",216013,6.0,9557.0,-7.65696612779e+18,mouselab-mdp,0
"[10226, 10802, 11371]","[u'up', u'up', u'right']",training,"[u'0', u'1', u'2', u'3']","{u'mouseover': {u'state': {u'target': [], u'time': []}, u'edge': {u'target': [], u'time': []}}, u'click': {u'state': {u'target': [u'5', u'1', u'9', u'10', u'12', u'11', u'2', u'3', u'4'], u'time': [1009, 2200, 2899, 3714, 4431, 5391, 6922, 8011, 9019]}, u'edge': {u'target': [], u'time': []}}, u'mouseout': {u'state': {u'target': [], u'time': []}, u'edge': {u'target': [], u'time': []}}}","[2, -4, 24]","[10220, 78, 47]",13.0,"[None, None, None]","[u'', 2, -4, 24, -48, -4, 4, 48, 48, 4, 4, -48, -24]",230341,7.0,13243.0,1.70803683189e+18,mouselab-mdp,0
"[9406, 10022, 10701]","[u'up', u'up', u'right']",training,"[u'0', u'1', u'2', u'3']","{u'mouseover': {u'state': {u'target': [], u'time': []}, u'edge': {u'target': [], u'time': []}}, u'click': {u'state': {u'target': [u'5', u'9', u'6', u'8', u'7', u'1', u'3', u'2'], u'time': [1608, 2565, 3496, 4199, 5050, 6086, 7017, 8322]}, u'edge': {u'target': [], u'time': []}}, u'mouseout': {u'state': {u'target': [], u'time': []}, u'edge': {u'target': [], u'time': []}}}","[4, -4, 48]","[9400, 107, 171]",40.0,"[None, None, None]","[u'', 4, -4, 48, -48, -2, -8, 24, 24, -2, 4, 48, -48]",243485,8.0,12077.0,8.0458297312e+18,mouselab-mdp,0
"[11860, 12458, 12970]","[u'up', u'up', u'right']",training,"[u'0', u'1', u'2', u'3']","{u'mouseover': {u'state': {u'target': [], u'time': []}, u'edge': {u'target': [], u'time': []}}, u'click': {u'state': {u'target': [u'3', u'7', u'11', u'12', u'8', u'4', u'2', u'1'], u'time': [2667, 4117, 6055, 6907, 8293, 9404, 10367, 10905]}, u'edge': {u'target': [], u'time': []}}, u'mouseout': {u'state': {u'target': [], u'time': []}, u'edge': {u'target': [], u'time': []}}}","[2, -4, 24]","[11854, 89, 18]",14.0,"[None, None, None]","[u'', 2, -4, 24, 24, -4, 4, -24, -24, -2, 4, -24, -48]",259382,9.0,14811.0,7.86254308938e+18,mouselab-mdp,0
"[10084, 10651, 11227]","[u'left', u'left', u'down']",training,"[u'0', u'9', u'10', u'12']","{u'mouseover': {u'state': {u'target': [], u'time': []}, u'edge': {u'target': [], u'time': []}}, u'click': {u'state': {u'target': [u'7', u'5', u'1', u'4', u'3', u'12', u'10', u'9'], u'time': [2364, 3549, 4807, 5538, 6591, 7629, 8426, 8984]}, u'edge': {u'target': [], u'time': []}}, u'mouseout': {u'state': {u'target': [], u'time': []}, u'edge': {u'target': [], u'time': []}}}","[-4, 4, 48]","[10080, 67, 59]",40.0,"[None, None, None]","[u'', 2, -4, 24, -48, -4, -8, -48, -48, -4, 4, -48, 48]",275262,10.0,14787.0,2.1183359843e+18,mouselab-mdp,0
"[5565, 6172, 6916, 7796, 8460]","[u'right', u'right', u'right', u'up', u'up']",test,"[u'0', u'12', u'13', u'14', u'15', u'16']","{u'mouseover': {u'state': {u'target': [], u'time': []}, u'edge': {u'target': [], u'time': []}}, u'click': {u'state': {u'target': [u'16', u'15', u'14', u'13', u'12'], u'time': [1805, 2389, 3034, 3767, 4415]}, u'edge': {u'target': [], u'time': []}}, u'mouseout': {u'state': {u'target': [], u'time': []}, u'edge': {u'target': [], u'time': []}}}","[1, 3, 0, 8, 33]","[5553, 93, 222, 367, 165]",40.0,"[None, None, None, None, None]","[u'', 0, -1, 1, -14, 2, -15, 20, -14, -14, 53, -38, 1, 3, 0, 8, 33, 50, -12, -1, 26, -24, 2, -1, -5, 1, 14, -12, 3, -14, -6, 4, 34, 71]",311169,11.0,11068.0,-4.53999299154e+18,mouselab-mdp,0
"[6134, 6642, 7219, 7765, 8357]","[u'left', u'left', u'left', u'down', u'down']",test,"[u'0', u'23', u'24', u'25', u'30', u'32']","{u'mouseover': {u'state': {u'target': [], u'time': []}, u'edge': {u'target': [], u'time': []}}, u'click': {u'state': {u'target': [u'32', u'30', u'25', u'24', u'23'], u'time': [1906, 2611, 3366, 4065, 4757]}, u'edge': {u'target': [], u'time': []}}, u'mouseout': {u'state': {u'target': [], u'time': []}, u'edge': {u'target': [], u'time': []}}}","[2, 1, -4, 1, 25]","[6122, 2, 42, 27, 80]",20.0,"[None, None, None, None, None]","[u'', 0, 1, 7, -1, -39, -38, -21, -13, 26, -16, -10, 0, -3, -3, 5, 20, -14, 58, -10, -11, -7, -89, 2, 1, -4, 16, 19, 14, -19, 1, -49, 25, -12]",322673,12.0,10150.0,-2.39631317689e+18,mouselab-mdp,0
"[10780, 11811, 12402, 12970, 13546]","[u'left', u'left', u'left', u'down', u'down']",test,"[u'0', u'23', u'24', u'25', u'30', u'32']","{u'mouseover': {u'state': {u'target': [], u'time': []}, u'edge': {u'target': [], u'time': []}}, u'click': {u'state': {u'target': [u'6', u'4', u'3', u'32', u'30', u'25', u'24', u'23'], u'time': [2110, 3411, 5054, 6365, 7301, 8015, 8752, 9438]}, u'edge': {u'target': [], u'time': []}}, u'mouseout': {u'state': {u'target': [], u'time': []}, u'edge': {u'target': [], u'time': []}}}","[-1, 1, -2, 8, 28]","[10767, 522, 81, 63, 75]",26.0,"[None, None, None, None, None]","[u'', 0, -2, -2, -8, -65, 26, -5, -7, -42, -18, -40, 1, -4, -4, -7, 15, 8, -5, -1, 13, -25, 15, -1, 1, -2, 9, -39, -15, -26, 8, -45, 28, 15]",338945,13.0,14971.0,-3.54350647552e+18,mouselab-mdp,0
"[5436, 6411, 7083, 7691, 8235]","[u'right', u'right', u'right', u'down', u'down']",test,"[u'0', u'12', u'13', u'14', u'19', u'21']","{u'mouseover': {u'state': {u'target': [], u'time': []}, u'edge': {u'target': [], u'time': []}}, u'click': {u'state': {u'target': [u'21', u'19', u'14', u'13', u'12'], u'time': [1437, 2227, 2984, 3547, 4195]}, u'edge': {u'target': [], u'time': []}}, u'mouseout': {u'state': {u'target': [], u'time': []}, u'edge': {u'target': [], u'time': []}}}","[1, 1, 0, -4, 34]","[5426, 473, 157, 102, 42]",27.0,"[None, None, None, None, None]","[u'', 0, -6, 2, -12, 19, -31, -47, 4, -48, -14, 7, 1, 1, 0, -7, 62, -19, 58, -4, 37, 34, -33, 0, 2, 3, -2, 10, -13, -37, 8, -18, 44, 19]",349601,14.0,9395.0,-7.70136888106e+18,mouselab-mdp,0
"[5928, 6879, 7535, 8207, 8791]","[u'right', u'right', u'right', u'up', u'up']",test,"[u'0', u'12', u'13', u'14', u'15', u'16']","{u'mouseover': {u'state': {u'target': [], u'time': []}, u'edge': {u'target': [], u'time': []}}, u'click': {u'state': {u'target': [u'17', u'15', u'14', u'13', u'12'], u'time': [1793, 2777, 3366, 4110, 4734]}, u'edge': {u'target': [], u'time': []}}, u'mouseout': {u'state': {u'target': [], u'time': []}, u'edge': {u'target': [], u'time': []}}}","[-1, -3, 2, 2, 32]","[5915, 439, 139, 168, 68]",27.0,"[None, None, None, None, None]","[u'', 1, 1, -1, 6, -26, 7, 57, 12, -10, 31, -12, -1, -3, 2, 2, 32, 26, -10, 7, 60, 74, 25, 0, 1, 0, -5, 50, 24, 5, 12, 27, -40, 40]",363334,15.0,12411.0,4.93020834377e+18,mouselab-mdp,0
"[5024, 5542, 6207, 6806, 7415]","[u'right', u'right', u'right', u'up', u'up']",test,"[u'0', u'12', u'13', u'14', u'15', u'16']","{u'mouseover': {u'state': {u'target': [], u'time': []}, u'edge': {u'target': [], u'time': []}}, u'click': {u'state': {u'target': [u'16', u'15', u'14', u'13', u'12'], u'time': [929, 1745, 2443, 3217, 3923]}, u'edge': {u'target': [], u'time': []}}, u'mouseout': {u'state': {u'target': [], u'time': []}, u'edge': {u'target': [], u'time': []}}}","[1, -2, -6, 13, 36]","[5012, 17, 161, 89, 98]",37.0,"[None, None, None, None, None]","[u'', -1, 0, -2, 1, 18, 17, 42, 0, 31, 55, -39, 1, -2, -6, 13, 36, 17, -15, 12, -44, 2, 16, 1, -3, -12, 1, 10, 6, -28, 0, -49, 13, 29]",374442,16.0,9791.0,-5.25678087456e+18,mouselab-mdp,0
"[12742, 13316, 15933, 16613, 17316]","[u'up', u'up', u'up', u'right', u'up']",test,"[u'0', u'1', u'2', u'3', u'4', u'5']","{u'mouseover': {u'state': {u'target': [], u'time': []}, u'edge': {u'target': [], u'time': []}}, u'click': {u'state': {u'target': [u'32', u'21', u'16', u'27', u'6', u'5', u'4', u'7', u'2', u'1'], u'time': [1318, 2657, 3875, 5389, 6790, 8451, 9481, 10254, 11004, 11687]}, u'edge': {u'target': [], u'time': []}}, u'mouseout': {u'state': {u'target': [], u'time': []}, u'edge': {u'target': [], u'time': []}}}","[1, -3, 4, 7, 45]","[12731, 69, 2117, 182, 202]",44.0,"[None, None, None, None, None]","[u'', 1, -3, 4, 7, 45, -19, 6, 7, 10, -14, 10, 0, 2, -3, 3, 9, 24, -2, 1, -2, 1, 0, 0, 6, -3, -9, -25, -23, 0, 11, 54, 8, -80]",394675,17.0,18941.0,-8.90147560604e+18,mouselab-mdp,0
"[8527, 9159, 9871, 10486, 11126]","[u'up', u'up', u'up', u'left', u'up']",test,"[u'0', u'1', u'2', u'3', u'8', u'9']","{u'mouseover': {u'state': {u'target': [], u'time': []}, u'edge': {u'target': [], u'time': []}}, u'click': {u'state': {u'target': [u'5', u'9', u'8', u'3', u'2', u'1'], u'time': [1593, 2904, 3884, 4855, 5554, 6525]}, u'edge': {u'target': [], u'time': []}}, u'mouseout': {u'state': {u'target': [], u'time': []}, u'edge': {u'target': [], u'time': []}}}","[-1, 4, -2, -21, 87]","[8517, 127, 187, 105, 125]",61.0,"[None, None, None, None, None]","[u'', -1, 4, -2, 3, -37, 49, -18, -21, 87, -35, 42, 1, 1, -1, 2, 39, -10, 8, 7, 3, -14, 46, 0, 0, -3, -8, 29, 30, -69, -5, 31, 78, 69]",409108,18.0,13175.0,-1.55008755606e+18,mouselab-mdp,0
"[8120, 8636, 9303, 10327, 10943]","[u'up', u'up', u'up', u'left', u'up']",test,"[u'0', u'1', u'2', u'3', u'8', u'9']","{u'mouseover': {u'state': {u'target': [], u'time': []}, u'edge': {u'target': [], u'time': []}}, u'click': {u'state': {u'target': [u'5', u'9', u'3', u'8', u'2', u'1'], u'time': [1490, 2601, 3551, 4236, 5207, 6245]}, u'edge': {u'target': [], u'time': []}}, u'mouseout': {u'state': {u'target': [], u'time': []}, u'edge': {u'target': [], u'time': []}}}","[1, -2, -6, -6, 39]","[8111, 3, 112, 518, 115]",20.0,"[None, None, None, None, None]","[u'', 1, -2, -6, 10, 10, -20, -34, -6, 39, -1, -45, 1, 1, -1, 5, -26, 31, -46, -7, -44, -13, -24, 0, 0, 2, 1, 8, 51, -9, -12, 30, 59, 6]",423108,19.0,12719.0,-7.446303972e+18,mouselab-mdp,0
"[8515, 9083, 9699, 10235, 10827]","[u'up', u'up', u'up', u'left', u'left']",test,"[u'0', u'1', u'2', u'3', u'8', u'11']","{u'mouseover': {u'state': {u'target': [], u'time': []}, u'edge': {u'target': [], u'time': []}}, u'click': {u'state': {u'target': [u'17', u'16', u'11', u'8', u'3', u'2', u'1'], u'time': [1041, 2323, 3945, 4992, 6009, 6696, 7521]}, u'edge': {u'target': [], u'time': []}}, u'mouseout': {u'state': {u'target': [], u'time': []}, u'edge': {u'target': [], u'time': []}}}","[-1, 1, 4, 3, 10]","[8506, 62, 110, 22, 89]",10.0,"[None, None, None, None, None]","[u'', -1, 1, 4, 5, -1, -27, 3, 3, -11, 19, 10, 0, -4, 4, 14, -13, -47, 20, -4, -31, 39, -44, 1, -2, 6, 4, -8, 5, 19, 7, 26, 17, -15]",436580,20.0,12219.0,-3.07615105557e+17,mouselab-mdp,0
"[24326, 24894, 25542, 26182, 26926]","[u'right', u'right', u'right', u'up', u'left']",test,"[u'0', u'12', u'13', u'14', u'15', u'18']","{u'mouseover': {u'state': {u'target': [], u'time': []}, u'edge': {u'target': [], u'time': []}}, u'click': {u'state': {u'target': [u'5', u'9', u'7', u'2', u'3', u'16', u'21', u'32', u'27', u'29', u'28', u'4', u'18', u'15', u'14', u'13', u'12'], u'time': [1064, 2215, 3393, 4351, 4973, 6836, 8425, 9965, 11289, 12174, 13206, 16159, 20131, 21140, 21777, 22734, 23298]}, u'edge': {u'target': [], u'time': []}}, u'mouseout': {u'state': {u'target': [], u'time': []}, u'edge': {u'target': [], u'time': []}}}","[0, 1, -8, 2, 36]","[24317, 47, 128, 119, 212]",14.0,"[None, None, None, None, None]","[u'', 0, 2, -6, -8, 17, 48, 1, 2, -26, -1, -23, 0, 1, -8, 2, -26, -21, 36, 2, 30, -56, -13, 0, -1, 2, 7, -35, -31, -40, 9, -16, -3, -11]",466581,21.0,28742.0,5.46654630961e+18,mouselab-mdp,0
"[9391, 10005, 10814, 11598, 12366]","[u'right', u'right', u'right', u'down', u'right']",test,"[u'0', u'12', u'13', u'14', u'19', u'20']","{u'mouseover': {u'state': {u'target': [], u'time': []}, u'edge': {u'target': [], u'time': []}}, u'click': {u'state': {u'target': [u'5', u'9', u'18', u'17', u'20', u'19'], u'time': [1540, 2493, 4005, 5016, 6032, 8256]}, u'edge': {u'target': [], u'time': []}}, u'mouseout': {u'state': {u'target': [], u'time': []}, u'edge': {u'target': [], u'time': []}}}","[0, -2, 9, -7, 52]","[9377, 105, 301, 284, 268]",46.0,"[None, None, None, None, None]","[u'', 1, 3, -5, -4, -25, -34, 8, 4, -23, -16, 8, 0, -2, 9, -2, 3, -20, -8, -7, 52, -59, -6, 1, -3, 2, 11, 9, 0, -1, -2, 19, -28, 10]",481493,22.0,13573.0,-7.29297814771e+18,mouselab-mdp,0
"[8927, 9470, 10254, 10814, 11342]","[u'right', u'right', u'right', u'up', u'right']",test,"[u'0', u'12', u'13', u'14', u'15', u'17']","{u'mouseover': {u'state': {u'target': [], u'time': []}, u'edge': {u'target': [], u'time': []}}, u'click': {u'state': {u'target': [u'20', u'22', u'17', u'15', u'14', u'13'], u'time': [3535, 4638, 5802, 6666, 7260, 7949]}, u'edge': {u'target': [], u'time': []}}, u'mouseout': {u'state': {u'target': [], u'time': []}, u'edge': {u'target': [], u'time': []}}}","[-1, -1, 4, 9, 27]","[8920, 39, 256, 49, 5]",32.0,"[None, None, None, None, None]","[u'', 0, 1, -6, -9, 23, -1, -7, -1, 16, -19, 16, -1, -1, 4, 9, -35, 27, -33, 6, -61, -36, -16, 0, 3, 4, 13, 39, -9, -9, 9, 1, -5, -43]",495406,23.0,12686.0,6.02334654885e+18,mouselab-mdp,0
"[5043, 5568, 6153, 6673, 7233]","[u'up', u'up', u'up', u'left', u'up']",test,"[u'0', u'1', u'2', u'3', u'8', u'9']","{u'mouseover': {u'state': {u'target': [], u'time': []}, u'edge': {u'target': [], u'time': []}}, u'click': {u'state': {u'target': [u'9', u'3', u'8', u'2', u'1'], u'time': [890, 2299, 2848, 3638, 4184]}, u'edge': {u'target': [], u'time': []}}, u'mouseout': {u'state': {u'target': [], u'time': []}, u'edge': {u'target': [], u'time': []}}}","[0, 2, 1, 12, 24]","[5034, 29, 78, 15, 38]",34.0,"[None, None, None, None, None]","[u'', 0, 2, 1, 2, 9, -23, 27, 12, 24, 28, -28, -1, -3, 5, -2, 45, -25, -14, 1, 29, 2, 7, 0, 0, -4, 1, -6, -2, 16, -5, -3, -10, 13]",506206,24.0,9545.0,-7.36145656423e+18,mouselab-mdp,0
"[10580, 11099, 11862, 12540, 13157]","[u'right', u'right', u'right', u'up', u'up']",test,"[u'0', u'12', u'13', u'14', u'15', u'16']","{u'mouseover': {u'state': {u'target': [], u'time': []}, u'edge': {u'target': [], u'time': []}}, u'click': {u'state': {u'target': [u'6', u'9', u'11', u'7', u'10', u'18', u'16', u'15'], u'time': [1371, 2667, 3466, 4632, 5638, 7197, 8089, 9107]}, u'edge': {u'target': [], u'time': []}}, u'mouseout': {u'state': {u'target': [], u'time': []}, u'edge': {u'target': [], u'time': []}}}","[1, 0, -5, -7, 54]","[10573, 5, 219, 156, 112]",35.0,"[None, None, None, None, None]","[u'', -1, 2, 0, 0, 25, -13, -8, 9, -44, -28, -4, 1, 0, -5, -7, 54, 10, -20, -4, 120, 43, -52, 0, 1, -1, 9, 56, 0, 9, -1, 28, 48, 30]",521743,25.0,14285.0,6.33441295976e+18,mouselab-mdp,0
"[12082, 12705, 13433, 14097, 14696]","[u'left', u'left', u'left', u'up', u'up']",test,"[u'0', u'23', u'24', u'25', u'26', u'27']","{u'mouseover': {u'state': {u'target': [], u'time': []}, u'edge': {u'target': [], u'time': []}}, u'click': {u'state': {u'target': [u'17', u'20', u'22', u'31', u'33', u'32', u'30', u'25', u'26', u'27'], u'time': [1855, 3160, 4100, 5465, 6284, 6899, 7630, 8575, 10124, 10721]}, u'edge': {u'target': [], u'time': []}}, u'mouseout': {u'state': {u'target': [], u'time': []}, u'edge': {u'target': [], u'time': []}}}","[-1, 0, 5, -1, 18]","[12072, 119, 192, 142, 92]",11.0,"[None, None, None, None, None]","[u'', -1, 1, 4, 8, -97, -52, 64, -2, -5, 37, 6, -1, 0, 8, -11, 42, -10, -9, 15, -21, 27, -12, -1, 0, 5, -1, 18, 6, 1, -3, 4, -65, -14]",539479,26.0,16464.0,6.45819709428e+18,mouselab-mdp,0
"[9301, 9916, 10708, 11276, 11925]","[u'up', u'up', u'up', u'left', u'up']",test,"[u'0', u'1', u'2', u'3', u'8', u'9']","{u'mouseover': {u'state': {u'target': [], u'time': []}, u'edge': {u'target': [], u'time': []}}, u'click': {u'state': {u'target': [u'9', u'5', u'6', u'7', u'10', u'11', u'3', u'8'], u'time': [1388, 2356, 3199, 4063, 4924, 5695, 6319, 7853]}, u'edge': {u'target': [], u'time': []}}, u'mouseout': {u'state': {u'target': [], u'time': []}, u'edge': {u'target': [], u'time': []}}}","[1, -3, 4, 2, 5]","[9291, 107, 264, 47, 129]",1.0,"[None, None, None, None, None]","[u'', 1, -3, 4, 10, -9, 11, -18, 2, 5, -12, -1, -1, 1, -3, 3, 9, -25, -13, 3, 44, -20, -4, 0, -4, -1, 6, 25, -15, 17, -2, 11, 30, -21]",553768,27.0,13028.0,3.06682852711e+17,mouselab-mdp,0
"[4472, 5095, 5824, 6576, 7296]","[u'right', u'right', u'right', u'up', u'up']",test,"[u'0', u'12', u'13', u'14', u'15', u'16']","{u'mouseover': {u'state': {u'target': [], u'time': []}, u'edge': {u'target': [], u'time': []}}, u'click': {u'state': {u'target': [u'17', u'18', u'16'], u'time': [1261, 2019, 2629]}, u'edge': {u'target': [], u'time': []}}, u'mouseout': {u'state': {u'target': [], u'time': []}, u'edge': {u'target': [], u'time': []}}}","[0, -2, -1, 2, 47]","[4465, 117, 232, 251, 216]",43.0,"[None, None, None, None, None]","[u'', -1, 1, 4, -7, 8, 35, -12, -11, 2, 51, -29, 0, -2, -1, 2, 47, -23, -23, -7, -35, -49, -27, 0, 0, 5, -7, -25, -24, 6, -1, 25, -25, 29]",564449,28.0,9424.0,-6.34024467263e+18,mouselab-mdp,0
"[4161, 4768, 5481, 6048, 6632]","[u'right', u'right', u'right', u'down', u'down']",test,"[u'0', u'12', u'13', u'14', u'19', u'21']","{u'mouseover': {u'state': {u'target': [], u'time': []}, u'edge': {u'target': [], u'time': []}}, u'click': {u'state': {u'target': [u'21', u'19', u'14'], u'time': [1398, 2515, 3298]}, u'edge': {u'target': [], u'time': []}}, u'mouseout': {u'state': {u'target': [], u'time': []}, u'edge': {u'target': [], u'time': []}}}","[2, 0, 0, 5, 36]","[4152, 104, 179, 64, 70]",40.0,"[None, None, None, None, None]","[u'', -1, 1, 2, 3, -24, 1, 39, -1, 14, 53, 61, 2, 0, 0, -1, -16, -5, -45, 5, -9, 36, 34, 1, -2, -1, -6, -50, -21, -25, 9, -88, 16, -8]",575561,29.0,9873.0,-3.56832491871e+18,mouselab-mdp,0
"[5441, 6025, 6665, 7265, 7833]","[u'right', u'right', u'right', u'up', u'right']",test,"[u'0', u'12', u'13', u'14', u'15', u'17']","{u'mouseover': {u'state': {u'target': [], u'time': []}, u'edge': {u'target': [], u'time': []}}, u'click': {u'state': {u'target': [u'17', u'15', u'14', u'13', u'12'], u'time': [1255, 2258, 2798, 3960, 4571]}, u'edge': {u'target': [], u'time': []}}, u'mouseout': {u'state': {u'target': [], u'time': []}, u'edge': {u'target': [], u'time': []}}}","[-2, 1, -1, 7, 74]","[5434, 71, 123, 76, 46]",74.0,"[None, None, None, None, None]","[u'', 1, -1, 2, 14, -22, 8, -8, -9, -26, 17, -1, -2, 1, -1, 7, -21, 74, -30, 6, -34, 6, -37, 1, 0, 6, -1, -52, -27, -13, 11, 87, -4, 10]",586378,30.0,9562.0,2.57494434791e+18,mouselab-mdp,0
"[32544, 33953, 35165, 36067, 37899]","[u'left', u'left', u'left', u'down', u'right']",pre_test,"[u'0', u'23', u'24', u'25', u'30', u'31']","{u'mouseover': {u'state': {u'target': [], u'time': []}, u'edge': {u'target': [], u'time': []}}, u'click': {u'state': {u'target': [u'1', u'2', u'12', u'13', u'23', u'24', u'31', u'25', u'30', u'32', u'33', u'26', u'27', u'10', u'8', u'11', u'3', u'4'], u'time': [2811, 4460, 6190, 7372, 8697, 9974, 11240, 13358, 14818, 16121, 18291, 20495, 21837, 23386, 24348, 26559, 28991, 30869]}, u'edge': {u'target': [], u'time': []}}, u'mouseout': {u'state': {u'target': [], u'time': []}, u'edge': {u'target': [], u'time': []}}}","[1, 0, 0, 7, 22]","[32520, 862, 679, 369, 1304]",12.0,"[None, None, None, None, None]","[u'', -1, 4, 3, -5, 1, 10, -3, -8, 46, -38, 28, 0, -2, -1, -15, 9, 23, -17, 2, -80, -17, -43, 1, 0, 0, -2, -8, 25, -33, 7, 22, 33, -11]",99031,0.0,42406.0,4.29183515435e+18,mouselab-mdp,1
"[23969, 25000, 25788]","[u'up', u'up', u'right']",training,"[u'0', u'1', u'2', u'3']","{u'mouseover': {u'state': {u'target': [], u'time': []}, u'edge': {u'target': [], u'time': []}}, u'click': {u'state': {u'target': [u'9', u'1', u'7', u'8', u'3', u'4', u'2'], u'time': [6162, 11978, 15122, 19006, 19861, 21683, 23230]}, u'edge': {u'target': [], u'time': []}}, u'mouseout': {u'state': {u'target': [], u'time': []}, u'edge': {u'target': [], u'time': []}}}","[2, 8, 48]","[23959, 519, 287]",51.0,"[None, None, None]","[u'', 2, 8, 48, -24, -4, -4, -48, 24, -4, -8, -48, -24]",142925,1.0,27910.0,2.37271076103e+18,mouselab-mdp,1
"[16332, 17484, 18499]","[u'right', u'right', u'down']",training,"[u'0', u'5', u'6', u'8']","{u'mouseover': {u'state': {u'target': [], u'time': []}, u'edge': {u'target': [], u'time': []}}, u'click': {u'state': {u'target': [u'11', u'12', u'4', u'3', u'7', u'8'], u'time': [2970, 4537, 5924, 7160, 8141, 11010]}, u'edge': {u'target': [], u'time': []}}, u'mouseout': {u'state': {u'target': [], u'time': []}, u'edge': {u'target': [], u'time': []}}}","[4, 8, 24]","[16307, 639, 504]",30.0,"[None, None, None]","[u'', -2, -8, -24, -24, 4, 8, 48, 24, -2, 8, -24, -48]",166029,2.0,21873.0,4.07975241014e+18,mouselab-mdp,1
"[6444, 44919, 47248]","[u'right', u'right', u'up']",training,"[u'0', u'5', u'6', u'7']","{u'mouseover': {u'state': {u'target': [], u'time': []}, u'edge': {u'target': [], u'time': []}}, u'click': {u'state': {u'target': [u'11', u'4'], u'time': [1949, 3672]}, u'edge': {u'target': [], u'time': []}}, u'mouseout': {u'state': {u'target': [], u'time': []}, u'edge': {u'target': [], u'time': []}}}","[-2, 8, 48]","[6409, 946, 1824]",52.0,"[None, None, None]","[u'', 2, 8, -24, -48, -2, 8, 48, 24, 4, 8, -24, -48]",216550,3.0,49373.0,7.70857757142e+18,mouselab-mdp,1
"[13340, 14345, 15129]","[u'up', u'up', u'right']",training,"[u'0', u'1', u'2', u'3']","{u'mouseover': {u'state': {u'target': [], u'time': []}, u'edge': {u'target': [], u'time': []}}, u'click': {u'state': {u'target': [u'12', u'4', u'7', u'8', u'11', u'3'], u'time': [2900, 4650, 6679, 8255, 10219, 11687]}, u'edge': {u'target': [], u'time': []}}, u'mouseout': {u'state': {u'target': [], u'time': []}, u'edge': {u'target': [], u'time': []}}}","[-4, 4, 48]","[13329, 501, 284]",42.0,"[None, None, None]","[u'', -4, 4, 48, -48, -4, 4, -24, 24, -4, -8, 24, 24]",235133,4.0,17422.0,-5.99530113684e+18,mouselab-mdp,1
"[17323, 21324, 22318]","[u'left', u'left', u'down']",training,"[u'0', u'9', u'10', u'12']","{u'mouseover': {u'state': {u'target': [], u'time': []}, u'edge': {u'target': [], u'time': []}}, u'click': {u'state': {u'target': [u'12', u'11', u'4', u'3', u'7', u'8', u'6'], u'time': [1739, 3063, 4290, 8717, 9837, 14017, 15747]}, u'edge': {u'target': [], u'time': []}}, u'mouseout': {u'state': {u'target': [], u'time': []}, u'edge': {u'target': [], u'time': []}}}","[-4, -8, 48]","[17312, 1490, 486]",29.0,"[None, None, None]","[u'', -4, 4, 24, -24, -2, 4, 48, -24, -4, -8, -48, 48]",261013,5.0,24697.0,8.58865579534e+17,mouselab-mdp,1
"[11200, 11986, 12793]","[u'right', u'right', u'down']",training,"[u'0', u'5', u'6', u'8']","{u'mouseover': {u'state': {u'target': [], u'time': []}, u'edge': {u'target': [], u'time': []}}, u'click': {u'state': {u'target': [u'12', u'11', u'4', u'3', u'7', u'8'], u'time': [2776, 4273, 5553, 7170, 8091, 9605]}, u'edge': {u'target': [], u'time': []}}, u'mouseout': {u'state': {u'target': [], u'time': []}, u'edge': {u'target': [], u'time': []}}}","[-4, -8, 48]","[11189, 276, 300]",30.0,"[None, None, None]","[u'', 4, 8, -24, -24, -4, -8, -48, 48, 2, -8, -24, -48]",276661,6.0,14502.0,2.63044322054e+18,mouselab-mdp,1
"[8976, 9788, 11233]","[u'up', u'up', u'left']",training,"[u'0', u'1', u'2', u'4']","{u'mouseover': {u'state': {u'target': [], u'time': []}, u'edge': {u'target': [], u'time': []}}, u'click': {u'state': {u'target': [u'12', u'4', u'7'], u'time': [3242, 5153, 7158]}, u'edge': {u'target': [], u'time': []}}, u'mouseout': {u'state': {u'target': [], u'time': []}, u'edge': {u'target': [], u'time': []}}}","[-2, -8, 48]","[8957, 314, 941]",35.0,"[None, None, None]","[u'', -2, -8, 24, 48, -2, 8, -24, -24, -2, -4, 24, -24]",290781,7.0,12917.0,-3.60340228201e+18,mouselab-mdp,1
"[5907, 6622, 7588]","[u'left', u'left', u'down']",training,"[u'0', u'9', u'10', u'12']","{u'mouseover': {u'state': {u'target': [], u'time': []}, u'edge': {u'target': [], u'time': []}}, u'click': {u'state': {u'target': [u'12', u'11'], u'time': [2785, 4127]}, u'edge': {u'target': [], u'time': []}}, u'mouseout': {u'state': {u'target': [], u'time': []}, u'edge': {u'target': [], u'time': []}}}","[-4, -4, 48]","[5891, 213, 466]",38.0,"[None, None, None]","[u'', 2, -4, -24, -24, 4, -8, -48, -48, -4, -4, 48, 48]",303170,8.0,11201.0,-7.91360722647e+18,mouselab-mdp,1
"[15845, 18678, 19751]","[u'left', u'left', u'up']",training,"[u'0', u'9', u'10', u'11']","{u'mouseover': {u'state': {u'target': [], u'time': []}, u'edge': {u'target': [], u'time': []}}, u'click': {u'state': {u'target': [u'11', u'4', u'3', u'7', u'8', u'10'], u'time': [2113, 5714, 7337, 8588, 12639, 14829]}, u'edge': {u'target': [], u'time': []}}, u'mouseout': {u'state': {u'target': [], u'time': []}, u'edge': {u'target': [], u'time': []}}}","[4, 4, 48]","[15833, 319, 564]",50.0,"[None, None, None]","[u'', -4, -8, -48, -48, -4, -4, 48, 24, 4, 4, 48, -48]",325583,9.0,21268.0,-9.06308480017e+18,mouselab-mdp,1
"[13501, 14034, 14725]","[u'left', u'left', u'down']",training,"[u'0', u'9', u'10', u'12']","{u'mouseover': {u'state': {u'target': [], u'time': []}, u'edge': {u'target': [], u'time': []}}, u'click': {u'state': {u'target': [u'12', u'11', u'4', u'3', u'7', u'10'], u'time': [2143, 3429, 4304, 6071, 10254, 12743]}, u'edge': {u'target': [], u'time': []}}, u'mouseout': {u'state': {u'target': [], u'time': []}, u'edge': {u'target': [], u'time': []}}}","[4, 8, 48]","[13474, 23, 179]",54.0,"[None, None, None]","[u'', -2, -4, 48, -48, 2, 4, -48, 24, 4, 8, -48, 48]",343087,10.0,16324.0,-2.81709899867e+18,mouselab-mdp,1
"[19638, 20471, 21306, 22048, 23824]","[u'right', u'right', u'right', u'down', u'left']",test,"[u'0', u'12', u'13', u'14', u'19', u'22']","{u'mouseover': {u'state': {u'target': [], u'time': []}, u'edge': {u'target': [], u'time': []}}, u'click': {u'state': {u'target': [u'32', u'33', u'31', u'29', u'27', u'11', u'9', u'5', u'6', u'16', u'17', u'20', u'21', u'22'], u'time': [4034, 6028, 7053, 7867, 8608, 9646, 10388, 11152, 11791, 13264, 13982, 15913, 16854, 17988]}, u'edge': {u'target': [], u'time': []}}, u'mouseout': {u'state': {u'target': [], u'time': []}, u'edge': {u'target': [], u'time': []}}}","[0, 2, 0, 0, 52]","[19612, 295, 300, 206, 1209]",40.0,"[None, None, None, None, None]","[u'', 0, -3, -2, -9, 14, -20, 25, 4, -8, 3, 29, 0, 2, 0, 2, 26, 43, 17, 0, 23, -49, 52, -1, 2, -2, 4, -4, 10, -26, -17, 13, -19, -21]",384465,11.0,25843.0,-2.59993630193e+18,mouselab-mdp,1
"[10424, 11154, 11944, 12747, 13556]","[u'right', u'right', u'right', u'down', u'down']",test,"[u'0', u'12', u'13', u'14', u'19', u'21']","{u'mouseover': {u'state': {u'target': [], u'time': []}, u'edge': {u'target': [], u'time': []}}, u'click': {u'state': {u'target': [u'11', u'9', u'5', u'6', u'16', u'17', u'20', u'21'], u'time': [2453, 3173, 3974, 4686, 5383, 5896, 7690, 8567]}, u'edge': {u'target': [], u'time': []}}, u'mouseout': {u'state': {u'target': [], u'time': []}, u'edge': {u'target': [], u'time': []}}}","[0, 0, 2, -12, 73]","[10405, 191, 223, 251, 274]",55.0,"[None, None, None, None, None]","[u'', 0, 1, 2, 0, -19, 5, 18, 0, 4, -5, 29, 0, 0, 2, 6, 48, 22, 19, -12, 19, 73, -27, -1, 0, 4, 4, -15, -1, 33, 5, 78, 32, 11]",402376,12.0,16124.0,-3.59807723996e+18,mouselab-mdp,1
"[23609, 24433, 25502, 26625, 28391]","[u'up', u'up', u'up', u'left', u'up']",test,"[u'0', u'1', u'2', u'3', u'8', u'9']","{u'mouseover': {u'state': {u'target': [], u'time': []}, u'edge': {u'target': [], u'time': []}}, u'click': {u'state': {u'target': [u'27', u'29', u'11', u'9', u'5', u'6', u'17', u'16', u'20', u'32', u'33', u'31'], u'time': [5256, 5761, 7139, 7785, 11671, 12454, 13816, 15113, 15984, 16999, 17807, 18628]}, u'edge': {u'target': [], u'time': []}}, u'mouseout': {u'state': {u'target': [], u'time': []}, u'edge': {u'target': [], u'time': []}}}","[1, -2, 2, -2, 52]","[23586, 231, 545, 588, 1227]",39.0,"[None, None, None, None, None]","[u'', 1, -2, 2, 17, -47, -27, -28, -2, 52, 0, -22, 1, -1, 4, 2, 44, -21, 97, 7, 21, -2, -23, -1, 0, -3, 2, -26, 20, 31, -6, 38, -8, 37]",435895,13.0,31811.0,9.14948520283e+18,mouselab-mdp,1
"[8742, 9671, 10724, 11737, 12594]","[u'up', u'up', u'up', u'right', u'up']",test,"[u'0', u'1', u'2', u'3', u'4', u'5']","{u'mouseover': {u'state': {u'target': [], u'time': []}, u'edge': {u'target': [], u'time': []}}, u'click': {u'state': {u'target': [u'32', u'33', u'29', u'27', u'11', u'9', u'5', u'6'], u'time': [1261, 2057, 2758, 3497, 4327, 4955, 5632, 6277]}, u'edge': {u'target': [], u'time': []}}, u'mouseout': {u'state': {u'target': [], u'time': []}, u'edge': {u'target': [], u'time': []}}}","[0, 3, 2, -13, 127]","[8717, 402, 523, 450, 327]",111.0,"[None, None, None, None, None]","[u'', 0, 3, 2, -13, 127, 21, 3, -11, 3, -15, 21, 0, 4, 1, 4, 12, -5, -6, 9, 25, -20, -36, 0, 2, 0, 14, -25, 5, -81, -5, -10, 16, 55]",451934,14.0,14358.0,-7.72010987048e+18,mouselab-mdp,1
"[17781, 18806, 19904, 21628, 22856]","[u'left', u'left', u'left', u'up', u'up']",test,"[u'0', u'23', u'24', u'25', u'26', u'27']","{u'mouseover': {u'state': {u'target': [], u'time': []}, u'edge': {u'target': [], u'time': []}}, u'click': {u'state': {u'target': [u'33', u'29', u'27', u'11', u'9', u'5', u'6', u'16', u'17', u'20', u'21', u'22', u'31', u'32'], u'time': [2657, 3238, 3812, 4457, 4986, 5602, 6207, 7094, 7736, 8551, 9219, 9960, 11906, 12802]}, u'edge': {u'target': [], u'time': []}}, u'mouseout': {u'state': {u'target': [], u'time': []}, u'edge': {u'target': [], u'time': []}}}","[0, 1, 2, 9, 28]","[17754, 498, 528, 1186, 664]",26.0,"[None, None, None, None, None]","[u'', -2, -3, 2, -4, -10, -1, -63, 1, 0, -1, 11, -2, 4, -1, -11, 4, -41, 2, 4, -42, 27, 4, 0, 1, 2, 9, 28, 16, -24, 2, -18, -46, -1]",478224,15.0,24629.0,9.42220564742e+17,mouselab-mdp,1
"[14885, 15490, 16358, 17527, 18368]","[u'right', u'right', u'right', u'up', u'right']",test,"[u'0', u'12', u'13', u'14', u'15', u'17']","{u'mouseover': {u'state': {u'target': [], u'time': []}, u'edge': {u'target': [], u'time': []}}, u'click': {u'state': {u'target': [u'32', u'33', u'29', u'27', u'11', u'9', u'5', u'6', u'16', u'17', u'20', u'21', u'22'], u'time': [1233, 2974, 4026, 4471, 4976, 5523, 6220, 7476, 8129, 8749, 11953, 12715, 13769]}, u'edge': {u'target': [], u'time': []}}, u'mouseout': {u'state': {u'target': [], u'time': []}, u'edge': {u'target': [], u'time': []}}}","[-1, -2, 3, -2, 51]","[14868, 64, 331, 603, 311]",36.0,"[None, None, None, None, None]","[u'', 1, -5, -2, -2, -65, 14, 39, -16, -50, 30, 36, -1, -2, 3, -2, -17, 51, 10, -15, 8, -45, 24, 1, 1, 4, 16, 23, -12, -35, 2, -33, -46, -15]",500420,16.0,20481.0,-5.05047603298e+18,mouselab-mdp,1
"[15209, 15888, 16887, 18698, 21553]","[u'right', u'right', u'right', u'down', u'right']",test,"[u'0', u'12', u'13', u'14', u'19', u'20']","{u'mouseover': {u'state': {u'target': [], u'time': []}, u'edge': {u'target': [], u'time': []}}, u'click': {u'state': {u'target': [u'33', u'32', u'29', u'27', u'11', u'9', u'5', u'6', u'16', u'17', u'20', u'21', u'22', u'31'], u'time': [1758, 2333, 2830, 4041, 4509, 5728, 6393, 7001, 7955, 8547, 9169, 9950, 11194, 12275]}, u'edge': {u'target': [], u'time': []}}, u'mouseout': {u'state': {u'target': [], u'time': []}, u'edge': {u'target': [], u'time': []}}}","[-2, 1, -1, 4, 48]","[15183, 103, 458, 1278, 2326]",36.0,"[None, None, None, None, None]","[u'', 0, 0, 2, 6, 41, -4, -73, -1, 11, -6, -5, -2, 1, -1, -12, -28, -28, 19, 4, 48, 21, -43, -1, 2, 6, -2, 18, -48, -62, -9, -11, -17, -7]",525172,17.0,23025.0,9.05890752103e+18,mouselab-mdp,1
"[13631, 14358, 15151, 16809, 18768]","[u'up', u'up', u'up', u'right', u'up']",test,"[u'0', u'1', u'2', u'3', u'4', u'5']","{u'mouseover': {u'state': {u'target': [], u'time': []}, u'edge': {u'target': [], u'time': []}}, u'click': {u'state': {u'target': [u'32', u'33', u'29', u'27', u'11', u'9', u'5', u'6', u'16', u'17', u'20', u'21', u'22', u'31'], u'time': [1504, 1811, 2509, 3133, 3689, 4100, 4626, 5204, 5878, 7254, 7758, 8560, 9258, 10417]}, u'edge': {u'target': [], u'time': []}}, u'mouseout': {u'state': {u'target': [], u'time': []}, u'edge': {u'target': [], u'time': []}}}","[-1, -1, 4, -6, 37]","[13610, 190, 236, 1120, 1421]",19.0,"[None, None, None, None, None]","[u'', -1, -1, 4, -6, 37, 17, -50, 1, -47, 30, -54, -2, -2, -3, 11, -1, 9, 34, -6, -19, -27, 25, 2, 1, -2, -4, -36, 23, -34, -2, -37, -61, -81]",547528,18.0,20633.0,6.03787457509e+18,mouselab-mdp,1
"[12892, 14836, 15552, 16708, 18071]","[u'left', u'left', u'left', u'down', u'left']",test,"[u'0', u'23', u'24', u'25', u'30', u'33']","{u'mouseover': {u'state': {u'target': [], u'time': []}, u'edge': {u'target': [], u'time': []}}, u'click': {u'state': {u'target': [u'32', u'33', u'29', u'27', u'11', u'9', u'5', u'6', u'16', u'17', u'20', u'21', u'22'], u'time': [1708, 2195, 3069, 3858, 4495, 5013, 5588, 6552, 7184, 7692, 9065, 10603, 11283]}, u'edge': {u'target': [], u'time': []}}, u'mouseout': {u'state': {u'target': [], u'time': []}, u'edge': {u'target': [], u'time': []}}}","[0, -1, -8, -6, 48]","[12866, 1411, 177, 600, 822]",20.0,"[None, None, None, None, None]","[u'', 0, 4, 5, 13, -13, -29, -34, -1, -40, -20, -14, 1, -1, -6, -4, 6, 18, -29, 5, 44, 16, 8, 0, -1, -8, 5, -11, 5, 16, -6, 33, 4, 48]",569557,19.0,20350.0,-2.02927868974e+18,mouselab-mdp,1
"[9848, 10416, 11222, 12116, 13138]","[u'right', u'right', u'right', u'down', u'right']",test,"[u'0', u'12', u'13', u'14', u'19', u'20']","{u'mouseover': {u'state': {u'target': [], u'time': []}, u'edge': {u'target': [], u'time': []}}, u'click': {u'state': {u'target': [u'32', u'33', u'29', u'27', u'11', u'9', u'5', u'6', u'16', u'17', u'20', u'21'], u'time': [1364, 1733, 2367, 2812, 3338, 4437, 4993, 5747, 6339, 6763, 7601, 8684]}, u'edge': {u'target': [], u'time': []}}, u'mouseout': {u'state': {u'target': [], u'time': []}, u'edge': {u'target': [], u'time': []}}}","[-2, 2, 4, 7, 58]","[9830, 46, 250, 360, 461]",57.0,"[None, None, None, None, None]","[u'', -1, 0, -1, -7, 16, -15, 52, 7, -28, -1, -7, -2, 2, 4, 7, -15, 34, -7, 7, 58, 4, -45, 0, 1, 5, -9, -6, 7, 14, 7, -30, -14, 32]",586044,20.0,14796.0,-8.01578187763e+18,mouselab-mdp,1
"[13553, 14336, 15303, 16515, 17569]","[u'right', u'right', u'right', u'down', u'right']",test,"[u'0', u'12', u'13', u'14', u'19', u'20']","{u'mouseover': {u'state': {u'target': [], u'time': []}, u'edge': {u'target': [], u'time': []}}, u'click': {u'state': {u'target': [u'32', u'33', u'29', u'27', u'11', u'9', u'5', u'6', u'16', u'17', u'20', u'21', u'22'], u'time': [1466, 2530, 3791, 4160, 4730, 5173, 5782, 6320, 6854, 8095, 9385, 10036, 11130]}, u'edge': {u'target': [], u'time': []}}, u'mouseout': {u'state': {u'target': [], u'time': []}, u'edge': {u'target': [], u'time': []}}}","[-1, 2, 1, -1, 19]","[13533, 176, 432, 679, 494]",7.0,"[None, None, None, None, None]","[u'', 0, 1, -2, 6, -2, -22, 3, -12, -59, 11, -57, -1, 2, 1, -7, 0, -46, -36, -1, 19, -1, -3, -1, 0, 3, 9, 11, 4, 11, 4, -15, -12, -21]",606965,21.0,19228.0,1.58242239691e+18,mouselab-mdp,1
"[16238, 16924, 17868, 18805, 19570]","[u'left', u'left', u'left', u'down', u'left']",test,"[u'0', u'23', u'24', u'25', u'30', u'33']","{u'mouseover': {u'state': {u'target': [], u'time': []}, u'edge': {u'target': [], u'time': []}}, u'click': {u'state': {u'target': [u'32', u'33', u'29', u'27', u'11', u'9', u'5', u'6', u'16', u'17', u'20', u'21', u'22', u'18'], u'time': [1432, 2110, 2893, 4377, 4952, 5540, 6214, 6772, 7898, 9228, 10970, 11698, 12273, 13661]}, u'edge': {u'target': [], u'time': []}}, u'mouseout': {u'state': {u'target': [], u'time': []}, u'edge': {u'target': [], u'time': []}}}","[0, 1, 2, 6, 38]","[16217, 161, 399, 414, 241]",33.0,"[None, None, None, None, None]","[u'', 0, -3, 4, -12, -2, -6, 28, 14, -6, 0, -34, 1, 2, 5, -8, -28, 29, 30, -16, -26, -70, -6, 0, 1, 2, 5, -3, -48, 7, 6, -45, -31, 38]",630054,22.0,21350.0,-1.19874718799e+17,mouselab-mdp,1
"[19183, 20134, 21262, 22650, 24547]","[u'right', u'right', u'right', u'down', u'down']",test,"[u'0', u'12', u'13', u'14', u'19', u'21']","{u'mouseover': {u'state': {u'target': [], u'time': []}, u'edge': {u'target': [], u'time': []}}, u'click': {u'state': {u'target': [u'32', u'33', u'29', u'27', u'11', u'9', u'5', u'6', u'16', u'17', u'20', u'21', u'22', u'31', u'28', u'10', u'7'], u'time': [1376, 1855, 2382, 2887, 3441, 4750, 5736, 6258, 6931, 7481, 8142, 8734, 9185, 10877, 12491, 13798, 16129]}, u'edge': {u'target': [], u'time': []}}, u'mouseout': {u'state': {u'target': [], u'time': []}, u'edge': {u'target': [], u'time': []}}}","[1, -1, 1, 4, 32]","[19155, 412, 588, 790, 1355]",20.0,"[None, None, None, None, None]","[u'', 0, 2, -4, -1, 46, -20, -65, -16, -80, -68, -13, 1, -1, 1, -1, 0, -5, -6, 4, -38, 32, 29, 0, 2, -3, -4, 5, -6, -14, -5, -18, 30, -62]",658696,23.0,26891.0,-3.13580120687e+18,mouselab-mdp,1
"[8781, 9658, 10577, 11963, 12786]","[u'up', u'up', u'up', u'left', u'left']",test,"[u'0', u'1', u'2', u'3', u'8', u'11']","{u'mouseover': {u'state': {u'target': [], u'time': []}, u'edge': {u'target': [], u'time': []}}, u'click': {u'state': {u'target': [u'32', u'33', u'29', u'27', u'11', u'9', u'5'], u'time': [1202, 1628, 3146, 3711, 4500, 6198, 7138]}, u'edge': {u'target': [], u'time': []}}, u'mouseout': {u'state': {u'target': [], u'time': []}, u'edge': {u'target': [], u'time': []}}}","[0, -2, -6, 8, 65]","[8765, 336, 379, 852, 301]",58.0,"[None, None, None, None, None]","[u'', 0, -2, -6, -4, -2, 53, -45, 8, 7, 26, 65, 0, 0, -7, -5, 50, 65, 5, 0, 15, 10, 72, -1, -3, -3, -11, 4, 2, -48, 0, -9, 8, -21]",675376,24.0,14932.0,-5.12551101719e+18,mouselab-mdp,1
"[17775, 18438, 19442, 21579, 22375]","[u'up', u'up', u'up', u'right', u'right']",test,"[u'0', u'1', u'2', u'3', u'4', u'6']","{u'mouseover': {u'state': {u'target': [], u'time': []}, u'edge': {u'target': [], u'time': []}}, u'click': {u'state': {u'target': [u'32', u'33', u'29', u'27', u'11', u'9', u'5', u'6', u'16', u'17', u'20', u'21', u'22', u'31', u'28', u'10', u'7'], u'time': [1175, 1603, 2813, 3354, 4100, 4836, 5458, 6260, 7676, 8935, 10166, 10939, 11549, 12623, 13396, 15071, 16257]}, u'edge': {u'target': [], u'time': []}}, u'mouseout': {u'state': {u'target': [], u'time': []}, u'edge': {u'target': [], u'time': []}}}","[0, 2, 1, 5, 47]","[17750, 108, 478, 1583, 259]",38.0,"[None, None, None, None, None]","[u'', 0, 2, 1, 5, 2, 47, -64, 3, -10, -31, -26, -1, 1, -4, -1, 9, -37, 36, 19, -22, 29, -10, 1, 0, 9, -3, 25, 19, -35, -17, 19, 27, -17]",705300,25.0,28141.0,7.71696205605e+18,mouselab-mdp,1
"[13007, 13740, 14729, 17413, 18899]","[u'up', u'up', u'up', u'right', u'up']",test,"[u'0', u'1', u'2', u'3', u'4', u'5']","{u'mouseover': {u'state': {u'target': [], u'time': []}, u'edge': {u'target': [], u'time': []}}, u'click': {u'state': {u'target': [u'32', u'33', u'29', u'27', u'11', u'9', u'5', u'6', u'16', u'17', u'20', u'21', u'22'], u'time': [1623, 2074, 2743, 3304, 3969, 4502, 5118, 5606, 6513, 7623, 9564, 10771, 11490]}, u'edge': {u'target': [], u'time': []}}, u'mouseout': {u'state': {u'target': [], u'time': []}, u'edge': {u'target': [], u'time': []}}}","[1, -3, 4, 7, 45]","[12986, 201, 457, 2143, 924]",41.0,"[None, None, None, None, None]","[u'', 1, -3, 4, 7, 45, -19, 6, 7, 10, -14, 10, 0, 2, -3, 3, 9, 24, -2, 1, -2, 1, 0, 0, 6, -3, -9, -25, -23, 0, 11, 54, 8, -80]",727556,26.0,20532.0,-8.90147560604e+18,mouselab-mdp,1
"[13108, 14003, 15019, 16098, 17101]","[u'right', u'right', u'right', u'up', u'up']",test,"[u'0', u'12', u'13', u'14', u'15', u'16']","{u'mouseover': {u'state': {u'target': [], u'time': []}, u'edge': {u'target': [], u'time': []}}, u'click': {u'state': {u'target': [u'32', u'33', u'29', u'27', u'11', u'9', u'5', u'6', u'16', u'17', u'20', u'21', u'22'], u'time': [1270, 2340, 2898, 4203, 4723, 5256, 6621, 7754, 8462, 9056, 9935, 10634, 11111]}, u'edge': {u'target': [], u'time': []}}, u'mouseout': {u'state': {u'target': [], u'time': []}, u'edge': {u'target': [], u'time': []}}}","[0, 0, -1, -6, 59]","[13085, 356, 446, 523, 472]",39.0,"[None, None, None, None, None]","[u'', 0, 0, 4, -10, 35, -22, 23, -3, 26, 25, -47, 0, 0, -1, -6, 59, 7, 50, -5, -34, 4, -18, 2, 0, 5, -2, -10, -1, 11, 7, -4, -22, -34]",749515,27.0,20269.0,-5.49423358378e+18,mouselab-mdp,1
"[4763, 7450, 10516, 11544, 12704]","[u'up', u'up', u'up', u'left', u'left']",test,"[u'0', u'1', u'2', u'3', u'8', u'11']","{u'mouseover': {u'state': {u'target': [], u'time': []}, u'edge': {u'target': [], u'time': []}}, u'click': {u'state': {u'target': [u'32', u'33', u'29', u'27'], u'time': [1360, 1708, 2874, 3291]}, u'edge': {u'target': [], u'time': []}}, u'mouseout': {u'state': {u'target': [], u'time': []}, u'edge': {u'target': [], u'time': []}}}","[0, 3, 2, -1, 0]","[4742, 2126, 2530, 494, 607]",0.0,"[None, None, None, None, None]","[u'', 0, 3, 2, 2, -5, 6, -8, -1, -21, 8, 0, -1, 0, -3, -16, 15, 50, 76, 12, -28, 38, 36, -2, 2, 3, 1, 9, 2, 52, -3, -6, 0, 9]",766072,28.0,14647.0,-8.92779766291e+18,mouselab-mdp,1
"[14476, 15171, 15933, 16829, 17877]","[u'left', u'left', u'left', u'up', u'up']",test,"[u'0', u'23', u'24', u'25', u'26', u'27']","{u'mouseover': {u'state': {u'target': [], u'time': []}, u'edge': {u'target': [], u'time': []}}, u'click': {u'state': {u'target': [u'32', u'33', u'29', u'27', u'11', u'9', u'5', u'6', u'16', u'17', u'20', u'21', u'22'], u'time': [1892, 2987, 3382, 3941, 4528, 5568, 6151, 7340, 7852, 10257, 10709, 11448, 13356]}, u'edge': {u'target': [], u'time': []}}, u'mouseout': {u'state': {u'target': [], u'time': []}, u'edge': {u'target': [], u'time': []}}}","[-1, 3, 8, -15, 40]","[14455, 149, 232, 345, 509]",22.0,"[None, None, None, None, None]","[u'', 1, -1, 5, 3, 19, -35, 5, 6, -31, -9, 1, -1, 1, 3, -7, 11, -42, -1, -13, 36, 13, -1, -1, 3, 8, -15, 40, 52, 11, -10, 28, -6, -19]",787938,29.0,20172.0,-8.48289182564e+18,mouselab-mdp,1
"[13595, 14211, 14846, 15683, 16316]","[u'right', u'right', u'right', u'up', u'up']",test,"[u'0', u'12', u'13', u'14', u'15', u'16']","{u'mouseover': {u'state': {u'target': [], u'time': []}, u'edge': {u'target': [], u'time': []}}, u'click': {u'state': {u'target': [u'32', u'33', u'29', u'27', u'11', u'9', u'5', u'6', u'16', u'17', u'20', u'21'], u'time': [1402, 1815, 3825, 4835, 5704, 6148, 8165, 8780, 9531, 10763, 11544, 12333]}, u'edge': {u'target': [], u'time': []}}, u'mouseout': {u'state': {u'target': [], u'time': []}, u'edge': {u'target': [], u'time': []}}}","[0, 2, -7, 13, 45]","[13574, 62, 70, 304, 53]",41.0,"[None, None, None, None, None]","[u'', 1, -1, -4, 1, 16, -45, -17, -3, 9, -8, 14, 0, 2, -7, 13, 45, 2, 21, 5, -24, 5, 25, 0, 2, 0, 1, -25, -12, -15, 14, 8, -32, 13]",808567,30.0,18923.0,1.0491821684e+18,mouselab-mdp,1
"[3983, 6192, 7992, 9041, 10472]","[u'up', u'up', u'up', u'right', u'up']",pre_test,"[u'0', u'1', u'2', u'3', u'4', u'5']","{u'mouseover': {u'state': {u'target': [], u'time': []}, u'edge': {u'target': [], u'time': []}}, u'click': {u'state': {u'target': [], u'time': []}, u'edge': {u'target': [], u'time': []}}, u'mouseout': {u'state': {u'target': [], u'time': []}, u'edge': {u'target': [], u'time': []}}}","[-1, -1, 0, -9, 8]","[3975, 1710, 1294, 544, 926]",-3.0,"[None, None, None, None, None]","[u'', -1, -1, 0, -9, 8, 53, 24, -2, -28, -24, 54, 0, -1, 1, 17, 4, 20, 10, -3, -37, -11, -7, 1, 2, 4, 2, 28, -24, 40, 4, -10, 16, -2]",34440,0.0,13855.0,-8.14198867507e+18,mouselab-mdp,2
"[15322, 16361, 17153]","[u'up', u'up', u'left']",training,"[u'0', u'1', u'2', u'4']","{u'mouseover': {u'state': {u'target': [], u'time': []}, u'edge': {u'target': [], u'time': []}}, u'click': {u'state': {u'target': [u'9', u'11', u'4'], u'time': [6573, 10114, 10573]}, u'edge': {u'target': [], u'time': []}}, u'mouseout': {u'state': {u'target': [], u'time': []}, u'edge': {u'target': [], u'time': []}}}","[-2, -8, 48]","[15319, 535, 295]",35.0,"[None, None, None]","[u'', -2, -8, 24, 48, -2, 8, -24, -24, -2, -4, 24, -24]",57320,1.0,18432.0,-3.60340228201e+18,mouselab-mdp,2
"[16654, 17637, 18230]","[u'left', u'left', u'down']",training,"[u'0', u'9', u'10', u'12']","{u'mouseover': {u'state': {u'target': [], u'time': []}, u'edge': {u'target': [], u'time': []}}, u'click': {u'state': {u'target': [u'8', u'3', u'4', u'11', u'12', u'7', u'2', u'10', u'6', u'5', u'1', u'9'], u'time': [1972, 3814, 4655, 5314, 6075, 9678, 10019, 10999, 11800, 12742, 13883, 14582]}, u'edge': {u'target': [], u'time': []}}, u'mouseout': {u'state': {u'target': [], u'time': []}, u'edge': {u'target': [], u'time': []}}}","[4, 8, 48]","[16651, 486, 97]",48.0,"[None, None, None]","[u'', 2, -8, -24, 48, -2, -4, -24, -24, 4, 8, 24, 48]",77976,2.0,19597.0,6.51676073779e+18,mouselab-mdp,2
"[31337, 31954, 32545]","[u'left', u'left', u'up']",training,"[u'0', u'9', u'10', u'11']","{u'mouseover': {u'state': {u'target': [], u'time': []}, u'edge': {u'target': [], u'time': []}}, u'click': {u'state': {u'target': [u'5', u'11', u'10', u'12', u'7', u'8', u'6', u'3', u'4', u'9', u'1', u'2'], u'time': [5714, 8116, 9677, 13280, 13821, 15803, 19426, 19869, 20388, 21710, 22430, 23071]}, u'edge': {u'target': [], u'time': []}}, u'mouseout': {u'state': {u'target': [], u'time': []}, u'edge': {u'target': [], u'time': []}}}","[-2, -8, 48]","[31336, 113, 90]",26.0,"[None, None, None]","[u'', -2, 8, 24, -48, 2, 4, -24, 24, -2, -8, 48, -24]",113008,3.0,33985.0,6.28255860945e+18,mouselab-mdp,2
"[16417, 17290, 17993]","[u'left', u'left', u'down']",training,"[u'0', u'9', u'10', u'12']","{u'mouseover': {u'state': {u'target': [], u'time': []}, u'edge': {u'target': [], u'time': []}}, u'click': {u'state': {u'target': [u'12', u'11', u'10', u'9', u'8', u'7', u'6', u'5', u'3', u'4', u'2', u'1'], u'time': [2294, 3996, 4897, 5377, 6838, 7679, 8520, 8961, 10282, 11023, 11563, 11983]}, u'edge': {u'target': [], u'time': []}}, u'mouseout': {u'state': {u'target': [], u'time': []}, u'edge': {u'target': [], u'time': []}}}","[-4, 8, 48]","[16411, 383, 187]",40.0,"[None, None, None]","[u'', -4, 4, 24, 24, -2, -4, 48, -24, -4, 8, -48, 48]",133321,4.0,19265.0,-4.8746661358e+18,mouselab-mdp,2
"[18024, 18799, 19551]","[u'right', u'right', u'down']",training,"[u'0', u'5', u'6', u'8']","{u'mouseover': {u'state': {u'target': [], u'time': []}, u'edge': {u'target': [], u'time': []}}, u'click': {u'state': {u'target': [u'9', u'11', u'12', u'10', u'4', u'3', u'7', u'8', u'6', u'5'], u'time': [5105, 5422, 6762, 7524, 8925, 10045, 12009, 13932, 15835, 16454]}, u'edge': {u'target': [], u'time': []}}, u'mouseout': {u'state': {u'target': [], u'time': []}, u'edge': {u'target': [], u'time': []}}}","[-2, 8, 48]","[18023, 275, 244]",44.0,"[None, None, None]","[u'', 2, -4, 24, -24, -2, 8, 24, 48, 4, -4, 48, 48]",155080,5.0,20727.0,5.2467434854e+18,mouselab-mdp,2
"[20867, 21467, 22051]","[u'left', u'left', u'up']",training,"[u'0', u'9', u'10', u'11']","{u'mouseover': {u'state': {u'target': [], u'time': []}, u'edge': {u'target': [], u'time': []}}, u'click': {u'state': {u'target': [u'12', u'11', u'4', u'3', u'7', u'10', u'2', u'1', u'9', u'8', u'6', u'5'], u'time': [1582, 2683, 4304, 5626, 9711, 10610, 12293, 13052, 13734, 16196, 16877, 17317]}, u'edge': {u'target': [], u'time': []}}, u'mouseout': {u'state': {u'target': [], u'time': []}, u'edge': {u'target': [], u'time': []}}}","[4, 4, 48]","[20864, 106, 74]",44.0,"[None, None, None]","[u'', -4, 8, 48, -24, -2, -4, 24, -48, 4, 4, 48, -48]",179304,6.0,23171.0,7.26324481059e+18,mouselab-mdp,2
"[12180, 12884, 13476]","[u'left', u'left', u'down']",training,"[u'0', u'9', u'10', u'12']","{u'mouseover': {u'state': {u'target': [], u'time': []}, u'edge': {u'target': [], u'time': []}}, u'click': {u'state': {u'target': [u'11', u'12', u'10', u'9', u'4', u'3', u'7', u'8'], u'time': [1292, 2593, 3575, 4214, 6117, 6898, 8939, 9720]}, u'edge': {u'target': [], u'time': []}}, u'mouseout': {u'state': {u'target': [], u'time': []}, u'edge': {u'target': [], u'time': []}}}","[-4, 4, 48]","[12179, 205, 81]",40.0,"[None, None, None]","[u'', 2, -4, 24, -48, -4, -8, -48, -48, -4, 4, -48, 48]",195136,7.0,14788.0,2.1183359843e+18,mouselab-mdp,2
"[8599, 9230, 9798]","[u'left', u'left', u'up']",training,"[u'0', u'9', u'10', u'11']","{u'mouseover': {u'state': {u'target': [], u'time': []}, u'edge': {u'target': [], u'time': []}}, u'click': {u'state': {u'target': [u'7', u'8', u'3', u'4', u'11', u'12'], u'time': [2168, 3187, 4171, 4790, 6152, 7032]}, u'edge': {u'target': [], u'time': []}}, u'mouseout': {u'state': {u'target': [], u'time': []}, u'edge': {u'target': [], u'time': []}}}","[-2, 8, 48]","[8594, 141, 76]",48.0,"[None, None, None]","[u'', 4, -4, -48, -48, 4, 8, 24, -24, -2, 8, 48, -48]",207207,8.0,11037.0,-6.97855305918e+18,mouselab-mdp,2
"[9692, 10460, 11252]","[u'left', u'left', u'up']",training,"[u'0', u'9', u'10', u'11']","{u'mouseover': {u'state': {u'target': [], u'time': []}, u'edge': {u'target': [], u'time': []}}, u'click': {u'state': {u'target': [u'11', u'12', u'4', u'3', u'7', u'8'], u'time': [994, 1674, 3016, 5239, 6340, 7021]}, u'edge': {u'target': [], u'time': []}}, u'mouseout': {u'state': {u'target': [], u'time': []}, u'edge': {u'target': [], u'time': []}}}","[4, -4, 48]","[9690, 272, 279]",42.0,"[None, None, None]","[u'', -2, -8, -48, -48, -4, -8, 24, 24, 4, -4, 48, -24]",220512,9.0,12276.0,-3.02731726069e+18,mouselab-mdp,2
"[9761, 10464, 11089]","[u'left', u'left', u'up']",training,"[u'0', u'9', u'10', u'11']","{u'mouseover': {u'state': {u'target': [], u'time': []}, u'edge': {u'target': [], u'time': []}}, u'click': {u'state': {u'target': [u'4', u'3', u'11', u'7', u'8', u'12', u'10'], u'time': [743, 1584, 2785, 4487, 5368, 6309, 7068]}, u'edge': {u'target': [], u'time': []}}, u'mouseout': {u'state': {u'target': [], u'time': []}, u'edge': {u'target': [], u'time': []}}}","[4, -4, 24]","[9758, 199, 108]",17.0,"[None, None, None]","[u'', 2, 8, -48, -24, 2, 8, -24, -48, 4, -4, 24, -48]",233775,10.0,12232.0,4.95354184513e+17,mouselab-mdp,2
"[20103, 20781, 21437, 22101, 22790]","[u'left', u'left', u'left', u'down', u'right']",test,"[u'0', u'23', u'24', u'25', u'30', u'31']","{u'mouseover': {u'state': {u'target': [], u'time': []}, u'edge': {u'target': [], u'time': []}}, u'click': {u'state': {u'target': [u'27', u'29', u'11', u'17', u'16', u'32', u'33', u'31', u'21', u'22', u'6', u'5'], u'time': [4605, 6867, 7789, 9350, 9871, 11895, 12915, 13777, 15780, 16539, 17901, 18743]}, u'edge': {u'target': [], u'time': []}}, u'mouseout': {u'state': {u'target': [], u'time': []}, u'edge': {u'target': [], u'time': []}}}","[1, 1, -1, -3, 58]","[20076, 179, 152, 150, 171]",44.0,"[None, None, None, None, None]","[u'', -2, 3, 1, 5, 6, -6, -11, 1, 5, 37, 11, 0, 4, -5, -11, 11, -7, -57, -2, -23, 36, -20, 1, 1, -1, 0, 14, -74, 10, -3, 58, -22, 37]",267761,11.0,23887.0,3.27542502628e+18,mouselab-mdp,2
"[14237, 14900, 15749, 16597, 17444]","[u'left', u'left', u'left', u'up', u'right']",test,"[u'0', u'23', u'24', u'25', u'26', u'28']","{u'mouseover': {u'state': {u'target': [], u'time': []}, u'edge': {u'target': [], u'time': []}}, u'click': {u'state': {u'target': [u'9', u'10', u'11', u'28', u'32', u'31', u'20', u'22', u'21', u'16', u'6'], u'time': [1993, 3835, 4374, 5136, 7379, 7841, 9041, 9762, 10184, 11624, 12285]}, u'edge': {u'target': [], u'time': []}}, u'mouseout': {u'state': {u'target': [], u'time': []}, u'edge': {u'target': [], u'time': []}}}","[2, 1, 6, 1, 78]","[14227, 165, 332, 329, 326]",77.0,"[None, None, None, None, None]","[u'', 1, 2, -2, 7, -18, 63, -43, -14, -53, -28, -36, 2, -1, -5, 9, -19, -40, 28, 5, -14, 45, 4, 2, 1, 6, 1, -39, 78, -17, -2, -22, -7, 8]",287263,12.0,18372.0,6.04957788595e+18,mouselab-mdp,2
"[23298, 23993, 24864, 25792, 26736]","[u'left', u'left', u'left', u'down', u'down']",test,"[u'0', u'23', u'24', u'25', u'30', u'32']","{u'mouseover': {u'state': {u'target': [], u'time': []}, u'edge': {u'target': [], u'time': []}}, u'click': {u'state': {u'target': [u'27', u'28', u'9', u'10', u'7', u'18', u'20', u'32', u'33', u'31', u'22', u'21', u'16', u'17', u'5', u'6', u'11', u'29'], u'time': [1205, 1726, 2766, 3487, 4327, 5067, 6189, 7491, 8131, 8673, 9713, 10133, 11254, 11736, 12616, 13296, 14116, 15298]}, u'edge': {u'target': [], u'time': []}}, u'mouseout': {u'state': {u'target': [], u'time': []}, u'edge': {u'target': [], u'time': []}}}","[-1, 1, -2, 8, 28]","[23292, 192, 380, 410, 436]",16.0,"[None, None, None, None, None]","[u'', 0, -2, -2, -8, -65, 26, -5, -7, -42, -18, -40, 1, -4, -4, -7, 15, 8, -5, -1, 13, -25, 15, -1, 1, -2, 9, -39, -15, -26, 8, -45, 28, 15]",316215,13.0,27856.0,-3.54350647552e+18,mouselab-mdp,2
"[13884, 14476, 15539, 16292, 17188]","[u'right', u'right', u'right', u'up', u'up']",test,"[u'0', u'12', u'13', u'14', u'15', u'16']","{u'mouseover': {u'state': {u'target': [], u'time': []}, u'edge': {u'target': [], u'time': []}}, u'click': {u'state': {u'target': [u'27', u'30', u'32', u'33', u'31', u'29', u'5', u'6', u'9', u'11', u'16', u'17', u'20', u'21', u'22', u'18'], u'time': [1832, 3292, 3893, 4394, 5094, 5995, 7096, 7637, 8358, 8898, 10020, 10560, 11181, 11662, 12202, 12842]}, u'edge': {u'target': [], u'time': []}}, u'mouseout': {u'state': {u'target': [], u'time': []}, u'edge': {u'target': [], u'time': []}}}","[-1, -3, 5, -2, 45]","[13877, 75, 556, 257, 386]",28.0,"[None, None, None, None, None]","[u'', 0, 2, 1, 2, 9, -23, 27, 12, 24, 28, -28, -1, -3, 5, -2, 45, -25, -14, 1, 29, 2, 7, 0, 0, -4, 1, -6, -2, 16, -5, -3, -10, 13]",335463,14.0,18139.0,-7.36145656423e+18,mouselab-mdp,2
"[14155, 14666, 15698, 16394, 17178]","[u'right', u'right', u'right', u'up', u'left']",test,"[u'0', u'12', u'13', u'14', u'15', u'18']","{u'mouseover': {u'state': {u'target': [], u'time': []}, u'edge': {u'target': [], u'time': []}}, u'click': {u'state': {u'target': [u'27', u'9', u'17', u'18', u'16', u'6', u'5', u'7', u'32', u'33', u'31', u'29', u'28', u'20', u'22', u'21'], u'time': [1550, 2230, 3571, 4672, 5154, 6193, 6653, 7194, 8295, 8737, 9197, 9858, 10298, 11680, 12640, 13081]}, u'edge': {u'target': [], u'time': []}}, u'mouseout': {u'state': {u'target': [], u'time': []}, u'edge': {u'target': [], u'time': []}}}","[2, 1, 9, -6, 27]","[14148, 13, 529, 175, 293]",17.0,"[None, None, None, None, None]","[u'', 0, 0, 3, 4, -89, 19, 10, 0, -15, 27, -13, 2, 1, 9, -6, -56, 23, 27, 0, -49, -14, 20, 0, 0, -1, -7, -17, -46, 57, -4, 15, -33, 25]",354567,15.0,17962.0,-3.34502625076e+18,mouselab-mdp,2
"[4739, 5338, 5978, 6610, 7282]","[u'left', u'left', u'left', u'up', u'right']",test,"[u'0', u'23', u'24', u'25', u'26', u'28']","{u'mouseover': {u'state': {u'target': [], u'time': []}, u'edge': {u'target': [], u'time': []}}, u'click': {u'state': {u'target': [u'29', u'25', u'28', u'27'], u'time': [1793, 2413, 2974, 3574]}, u'edge': {u'target': [], u'time': []}}, u'mouseout': {u'state': {u'target': [], u'time': []}, u'edge': {u'target': [], u'time': []}}}","[0, -2, -4, -2, 67]","[4733, 109, 147, 131, 153]",55.0,"[None, None, None, None, None]","[u'', 1, 4, -1, 10, -14, -16, 14, -9, -42, 31, -63, 0, -1, -1, -11, -65, -21, -37, -3, 3, -24, -34, 0, -2, -4, -2, 9, 67, 52, -10, -42, 2, 18]",366583,16.0,10922.0,1.98041848243e+18,mouselab-mdp,2
"[13068, 14059, 14875, 15690, 16386]","[u'up', u'up', u'up', u'right', u'right']",test,"[u'0', u'1', u'2', u'3', u'4', u'6']","{u'mouseover': {u'state': {u'target': [], u'time': []}, u'edge': {u'target': [], u'time': []}}, u'click': {u'state': {u'target': [u'17', u'16', u'6', u'5', u'7', u'9', u'11', u'10', u'27', u'28', u'29', u'31', u'32', u'21', u'20', u'22'], u'time': [910, 1389, 2130, 2712, 3394, 4132, 4553, 5333, 6094, 6754, 8015, 9116, 9636, 10417, 10918, 11499]}, u'edge': {u'target': [], u'time': []}}, u'mouseout': {u'state': {u'target': [], u'time': []}, u'edge': {u'target': [], u'time': []}}}","[0, 2, -6, -8, 48]","[13063, 493, 311, 310, 189]",20.0,"[None, None, None, None, None]","[u'', 0, 2, -6, -8, 17, 48, 1, 2, -26, -1, -23, 0, 1, -8, 2, -26, -21, 36, 2, 30, -56, -13, 0, -1, 2, 7, -35, -31, -40, 9, -16, -3, -11]",385519,17.0,17843.0,5.46654630961e+18,mouselab-mdp,2
"[18715, 19283, 19915, 20539, 21227]","[u'left', u'left', u'left', u'up', u'right']",test,"[u'0', u'23', u'24', u'25', u'26', u'28']","{u'mouseover': {u'state': {u'target': [], u'time': []}, u'edge': {u'target': [], u'time': []}}, u'click': {u'state': {u'target': [u'17', u'16', u'6', u'7', u'5', u'27', u'29', u'32', u'33', u'21', u'20', u'22', u'11', u'9', u'10', u'28', u'31', u'18'], u'time': [1432, 2032, 2873, 3394, 4014, 5095, 5636, 6376, 6918, 7858, 8240, 8780, 10301, 10922, 11802, 12403, 13424, 14765]}, u'edge': {u'target': [], u'time': []}}, u'mouseout': {u'state': {u'target': [], u'time': []}, u'edge': {u'target': [], u'time': []}}}","[-1, 1, 6, -7, 25]","[18711, 72, 137, 126, 166]",6.0,"[None, None, None, None, None]","[u'', 1, -3, 5, 8, -51, -2, -40, -1, 18, -4, -44, 0, 1, 0, -8, -11, 9, -5, 17, 8, -7, 15, -1, 1, 6, -7, 10, 25, -54, 13, -33, -11, 12]",409720,18.0,23107.0,9.26522681452e+17,mouselab-mdp,2
"[8644, 9179, 9964, 10756, 14412]","[u'right', u'right', u'right', u'up', u'right']",test,"[u'0', u'12', u'13', u'14', u'15', u'17']","{u'mouseover': {u'state': {u'target': [], u'time': []}, u'edge': {u'target': [], u'time': []}}, u'click': {u'state': {u'target': [u'27', u'28', u'16', u'17', u'20', u'22', u'6', u'5', u'7'], u'time': [1559, 2300, 3619, 4200, 5122, 5781, 6664, 7163, 7764]}, u'edge': {u'target': [], u'time': []}}, u'mouseout': {u'state': {u'target': [], u'time': []}, u'edge': {u'target': [], u'time': []}}}","[-1, 0, -3, -16, 50]","[8639, 35, 287, 279, 3152]",21.0,"[None, None, None, None, None]","[u'', 0, 3, 2, 2, -5, 6, -8, -1, -21, 8, 0, -1, 0, -3, -16, 15, 50, 76, 12, -28, 38, 36, -2, 2, 3, 1, 9, 2, 52, -3, -6, 0, 9]",426518,19.0,15707.0,-8.92779766291e+18,mouselab-mdp,2
"[14974, 15965, 16757, 17605, 18509]","[u'left', u'left', u'left', u'up', u'up']",test,"[u'0', u'23', u'24', u'25', u'26', u'27']","{u'mouseover': {u'state': {u'target': [], u'time': []}, u'edge': {u'target': [], u'time': []}}, u'click': {u'state': {u'target': [u'9', u'11', u'28', u'33', u'17', u'16', u'18', u'31', u'32', u'21', u'5', u'6', u'7', u'10', u'27', u'29'], u'time': [938, 1679, 2540, 3642, 4923, 5543, 6346, 7105, 8027, 9148, 9947, 10449, 10829, 11509, 13392, 14013]}, u'edge': {u'target': [], u'time': []}}, u'mouseout': {u'state': {u'target': [], u'time': []}, u'edge': {u'target': [], u'time': []}}}","[0, 3, 4, 13, 39]","[14970, 483, 295, 327, 397]",43.0,"[None, None, None, None, None]","[u'', 0, 1, -6, -9, 23, -1, -7, -1, 16, -19, 16, -1, -1, 4, 9, -35, 27, -33, 6, -61, -36, -16, 0, 3, 4, 13, 39, -9, -9, 9, 1, -5, -43]",447142,20.0,19532.0,6.02334654885e+18,mouselab-mdp,2
"[12858, 13521, 14289, 14873, 15657]","[u'left', u'left', u'left', u'down', u'left']",test,"[u'0', u'23', u'24', u'25', u'30', u'33']","{u'mouseover': {u'state': {u'target': [], u'time': []}, u'edge': {u'target': [], u'time': []}}, u'click': {u'state': {u'target': [u'5', u'16', u'17', u'18', u'20', u'21', u'22', u'31', u'32', u'33', u'9', u'29', u'27', u'28', u'6'], u'time': [912, 1713, 2314, 3717, 4637, 5258, 5798, 6459, 7118, 7601, 8460, 9420, 9821, 11183, 12103]}, u'edge': {u'target': [], u'time': []}}, u'mouseout': {u'state': {u'target': [], u'time': []}, u'edge': {u'target': [], u'time': []}}}","[0, -1, -8, -6, 48]","[12853, 170, 271, 73, 274]",18.0,"[None, None, None, None, None]","[u'', 0, 4, 5, 13, -13, -29, -34, -1, -40, -20, -14, 1, -1, -6, -4, 6, 18, -29, 5, 44, 16, 8, 0, -1, -8, 5, -11, 5, 16, -6, 33, 4, 48]",465054,21.0,16817.0,-2.02927868974e+18,mouselab-mdp,2
"[12143, 12669, 13302, 13854, 14397]","[u'left', u'left', u'left', u'down', u'down']",test,"[u'0', u'23', u'24', u'25', u'30', u'32']","{u'mouseover': {u'state': {u'target': [], u'time': []}, u'edge': {u'target': [], u'time': []}}, u'click': {u'state': {u'target': [u'27', u'33', u'32', u'31', u'29', u'9', u'10', u'6', u'16', u'20', u'21', u'22'], u'time': [1485, 2606, 3128, 3626, 4308, 5329, 6110, 7591, 8191, 9013, 9733, 10173]}, u'edge': {u'target': [], u'time': []}}, u'mouseout': {u'state': {u'target': [], u'time': []}, u'edge': {u'target': [], u'time': []}}}","[1, -2, -3, 6, 45]","[12138, 26, 125, 43, 37]",35.0,"[None, None, None, None, None]","[u'', -1, 2, -2, 14, 15, 34, -1, 0, 14, -1, 51, -1, 1, -2, 7, -58, 41, -10, -10, 23, -6, 9, 1, -2, -3, 1, 18, -23, -25, 6, 31, 45, -9]",481477,22.0,15333.0,5.77090221347e+18,mouselab-mdp,2
"[9588, 10179, 10923, 11587, 12258]","[u'left', u'left', u'left', u'up', u'left']",test,"[u'0', u'23', u'24', u'25', u'26', u'29']","{u'mouseover': {u'state': {u'target': [], u'time': []}, u'edge': {u'target': [], u'time': []}}, u'click': {u'state': {u'target': [u'29', u'33', u'32', u'31', u'28', u'27', u'17', u'5', u'21', u'11'], u'time': [996, 1756, 2456, 3058, 3777, 4238, 5720, 6542, 7261, 8143]}, u'edge': {u'target': [], u'time': []}}, u'mouseout': {u'state': {u'target': [], u'time': []}, u'edge': {u'target': [], u'time': []}}}","[1, -2, 3, -5, 37]","[9582, 96, 242, 154, 160]",24.0,"[None, None, None, None, None]","[u'', 0, 3, 3, 8, -15, 44, -34, 4, -30, -17, -47, -1, 1, 0, -11, 47, 11, 32, 6, -21, -62, -29, 1, -2, 3, -5, 13, -58, 37, 0, 28, 6, 26]",495901,23.0,13330.0,-5.90859572675e+17,mouselab-mdp,2
"[8714, 9297, 9881, 10473, 11065]","[u'up', u'up', u'up', u'right', u'right']",test,"[u'0', u'1', u'2', u'3', u'4', u'6']","{u'mouseover': {u'state': {u'target': [], u'time': []}, u'edge': {u'target': [], u'time': []}}, u'click': {u'state': {u'target': [u'9', u'27', u'33', u'28', u'29', u'10', u'11', u'6', u'7', u'5'], u'time': [572, 1273, 2174, 3336, 4297, 5298, 5699, 6622, 7423, 7944]}, u'edge': {u'target': [], u'time': []}}, u'mouseout': {u'state': {u'target': [], u'time': []}, u'edge': {u'target': [], u'time': []}}}","[1, 1, 0, -1, 56]","[8710, 65, 83, 75, 84]",47.0,"[None, None, None, None, None]","[u'', 1, 1, 0, -1, 14, 56, 28, -4, 25, -4, -6, 2, -1, -2, -16, -45, 14, -22, 4, -36, -25, 22, 1, 1, 5, 14, 33, -29, -3, 5, -13, 14, -51]",509102,24.0,12113.0,-3.97653490919e+18,mouselab-mdp,2
"[10363, 10898, 11411, 12458, 13299]","[u'right', u'right', u'right', u'down', u'left']",test,"[u'0', u'12', u'13', u'14', u'19', u'22']","{u'mouseover': {u'state': {u'target': [], u'time': []}, u'edge': {u'target': [], u'time': []}}, u'click': {u'state': {u'target': [u'17', u'16', u'18', u'20', u'21', u'22', u'27', u'28', u'29', u'31'], u'time': [985, 2527, 3247, 3968, 4489, 5029, 6771, 7311, 7892, 8913]}, u'edge': {u'target': [], u'time': []}}, u'mouseout': {u'state': {u'target': [], u'time': []}, u'edge': {u'target': [], u'time': []}}}","[0, 2, 0, 0, 52]","[10359, 25, 3, 516, 342]",44.0,"[None, None, None, None, None]","[u'', 0, -3, -2, -9, 14, -20, 25, 4, -8, 3, 29, 0, 2, 0, 2, 26, 43, 17, 0, 23, -49, 52, -1, 2, -2, 4, -4, 10, -26, -17, 13, -19, -21]",524542,25.0,14347.0,-2.59993630193e+18,mouselab-mdp,2
"[9002, 9833, 10561, 11393, 12184]","[u'right', u'right', u'right', u'down', u'left']",test,"[u'0', u'12', u'13', u'14', u'19', u'22']","{u'mouseover': {u'state': {u'target': [], u'time': []}, u'edge': {u'target': [], u'time': []}}, u'click': {u'state': {u'target': [u'5', u'6', u'7', u'10', u'11', u'9', u'28', u'27', u'31', u'32', u'33', u'22', u'21'], u'time': [469, 1048, 1529, 2090, 2510, 2871, 4312, 4833, 5774, 6253, 6755, 7655, 8157]}, u'edge': {u'target': [], u'time': []}}, u'mouseout': {u'state': {u'target': [], u'time': []}, u'edge': {u'target': [], u'time': []}}}","[-1, 1, -1, -1, 51]","[9000, 310, 220, 319, 278]",36.0,"[None, None, None, None, None]","[u'', 0, 1, -1, 12, -67, -17, -10, -12, -25, -70, 6, -1, 1, -1, -7, -50, -22, 10, -1, 21, -25, 51, 0, -2, 5, 11, -3, -15, 29, -7, 30, -44, -3]",538741,26.0,13112.0,-7.79491914243e+18,mouselab-mdp,2
"[5936, 6448, 7023, 7680, 8439]","[u'left', u'left', u'left', u'down', u'left']",test,"[u'0', u'23', u'24', u'25', u'30', u'33']","{u'mouseover': {u'state': {u'target': [], u'time': []}, u'edge': {u'target': [], u'time': []}}, u'click': {u'state': {u'target': [u'5', u'6', u'7', u'31', u'32', u'33'], u'time': [1224, 1884, 2505, 3526, 3947, 4387]}, u'edge': {u'target': [], u'time': []}}, u'mouseout': {u'state': {u'target': [], u'time': []}, u'edge': {u'target': [], u'time': []}}}","[1, -2, -2, 5, 66]","[5930, 10, 50, 142, 250]",62.0,"[None, None, None, None, None]","[u'', -3, 1, 3, -12, 3, 9, 11, -4, 3, 19, -57, 1, -1, 3, -6, -55, 38, 53, -15, -41, 3, -34, 1, -2, -2, 2, -70, -10, 64, 5, -32, 33, 66]",549302,27.0,9472.0,-7.40831087289e+18,mouselab-mdp,2
"[13190, 14086, 14877, 15645, 16462]","[u'right', u'right', u'right', u'down', u'left']",test,"[u'0', u'12', u'13', u'14', u'19', u'22']","{u'mouseover': {u'state': {u'target': [], u'time': []}, u'edge': {u'target': [], u'time': []}}, u'click': {u'state': {u'target': [u'29', u'27', u'28', u'31', u'32', u'33', u'5', u'6', u'7', u'10', u'11', u'9', u'16', u'17', u'14', u'20', u'21', u'22'], u'time': [1045, 1444, 1905, 2567, 3026, 3728, 4667, 5248, 5668, 6470, 6830, 7250, 8653, 9093, 9513, 10235, 10834, 11435]}, u'edge': {u'target': [], u'time': []}}, u'mouseout': {u'state': {u'target': [], u'time': []}, u'edge': {u'target': [], u'time': []}}}","[-1, 2, -9, 4, 50]","[13184, 401, 276, 260, 293]",28.0,"[None, None, None, None, None]","[u'', -2, 1, 1, -6, 26, 13, 9, -3, 15, 34, -21, -1, 2, -9, -21, -58, 6, 5, 4, 2, 49, 50, 1, -2, 1, -7, -16, -33, 0, 4, 3, -38, -49]",568037,28.0,17653.0,-3.69733404644e+18,mouselab-mdp,2
"[12325, 12925, 13573, 14404, 15133]","[u'right', u'right', u'right', u'up', u'up']",test,"[u'0', u'12', u'13', u'14', u'15', u'16']","{u'mouseover': {u'state': {u'target': [], u'time': []}, u'edge': {u'target': [], u'time': []}}, u'click': {u'state': {u'target': [u'16', u'17', u'14', u'18', u'6', u'7', u'5', u'28', u'27', u'29', u'31', u'32', u'33', u'22', u'21', u'20'], u'time': [760, 1241, 1741, 2362, 3403, 4764, 5305, 6526, 7046, 7607, 8468, 8929, 9390, 10752, 11092, 11452]}, u'edge': {u'target': [], u'time': []}}, u'mouseout': {u'state': {u'target': [], u'time': []}, u'edge': {u'target': [], u'time': []}}}","[2, 1, 5, 4, 19]","[12322, 85, 134, 331, 208]",15.0,"[None, None, None, None, None]","[u'', 1, -1, -3, -3, -34, 1, -32, -7, 10, -18, -7, 2, 1, 5, 4, 19, -43, -18, -2, -14, -6, 5, 0, 1, -1, 9, 0, -19, -40, -6, -8, 38, -41]",585190,29.0,16061.0,5.01968822029e+18,mouselab-mdp,2
"[5434, 6033, 6665, 7449, 8257]","[u'left', u'left', u'left', u'up', u'left']",test,"[u'0', u'23', u'24', u'25', u'26', u'29']","{u'mouseover': {u'state': {u'target': [], u'time': []}, u'edge': {u'target': [], u'time': []}}, u'click': {u'state': {u'target': [u'9', u'11', u'10', u'28', u'27', u'29'], u'time': [817, 1466, 2106, 2786, 3225, 4227]}, u'edge': {u'target': [], u'time': []}}, u'mouseout': {u'state': {u'target': [], u'time': []}, u'edge': {u'target': [], u'time': []}}}","[-1, 6, 10, 6, 76]","[5426, 83, 115, 283, 291]",91.0,"[None, None, None, None, None]","[u'', 1, -1, -2, 1, -25, 64, 5, 6, -41, -56, 22, 1, -2, -2, -5, 7, 30, -49, 4, -28, -17, -5, -1, 6, 10, 6, 21, -33, 76, 0, -4, 39, 8]",596310,30.0,10025.0,-7.71104237718e+18,mouselab-mdp,2
"[14846, 20104, 22413, 23963, 25088]","[u'right', u'right', u'right', u'up', u'up']",pre_test,"[u'0', u'12', u'13', u'14', u'15', u'16']","{u'mouseover': {u'state': {u'target': [], u'time': []}, u'edge': {u'target': [], u'time': []}}, u'click': {u'state': {u'target': [u'12', u'23', u'1'], u'time': [8647, 11044, 12090]}, u'edge': {u'target': [], u'time': []}}, u'mouseout': {u'state': {u'target': [], u'time': []}, u'edge': {u'target': [], u'time': []}}}","[2, 1, 9, -6, -56]","[14836, 4740, 1767, 1034, 608]",-53.0,"[None, None, None, None, None]","[u'', 0, 0, 3, 4, -89, 19, 10, 0, -15, 27, -13, 2, 1, 9, -6, -56, 23, 27, 0, -49, -14, 20, 0, 0, -1, -7, -17, -46, 57, -4, 15, -33, 25]",87799,0.0,31249.0,-3.34502625076e+18,mouselab-mdp,3
"[34372, 35112, 37526]","[u'left', u'left', u'up']",training,"[u'0', u'9', u'10', u'11']","{u'mouseover': {u'state': {u'target': [], u'time': []}, u'edge': {u'target': [], u'time': []}}, u'click': {u'state': {u'target': [u'9', u'5', u'7', u'4', u'11'], u'time': [5626, 13832, 22180, 26713, 29714]}, u'edge': {u'target': [], u'time': []}}, u'mouseout': {u'state': {u'target': [], u'time': []}, u'edge': {u'target': [], u'time': []}}}","[2, -4, 24]","[34362, 214, 1879]",17.0,"[None, None, None]","[u'', 4, 8, -24, 48, 2, 8, -48, -48, 2, -4, 24, -48]",145772,1.0,39652.0,-6.66851853783e+18,mouselab-mdp,3
"[23216, 24057, 25071]","[u'right', u'right', u'up']",training,"[u'0', u'5', u'6', u'7']","{u'mouseover': {u'state': {u'target': [], u'time': []}, u'edge': {u'target': [], u'time': []}}, u'click': {u'state': {u'target': [u'7', u'11', u'6', u'5', u'9', u'12', u'3', u'4'], u'time': [4245, 6289, 10134, 12129, 13831, 15237, 17057, 19319]}, u'edge': {u'target': [], u'time': []}}, u'mouseout': {u'state': {u'target': [], u'time': []}, u'edge': {u'target': [], u'time': []}}}","[-4, 4, 48]","[23210, 323, 506]",40.0,"[None, None, None]","[u'', 2, -4, 24, -48, -4, 4, 48, 48, 4, 4, -48, -24]",173405,2.0,26536.0,1.70803683189e+18,mouselab-mdp,3
"[10530, 11117, 11720]","[u'right', u'right', u'up']",training,"[u'0', u'5', u'6', u'7']","{u'mouseover': {u'state': {u'target': [], u'time': []}, u'edge': {u'target': [], u'time': []}}, u'click': {u'state': {u'target': [u'7', u'11', u'3', u'5', u'6'], u'time': [3441, 4557, 6369, 8353, 9176]}, u'edge': {u'target': [], u'time': []}}, u'mouseout': {u'state': {u'target': [], u'time': []}, u'edge': {u'target': [], u'time': []}}}","[-4, 8, 48]","[10526, 77, 80]",47.0,"[None, None, None]","[u'', -2, 8, -24, 24, -4, 8, 48, 24, -2, -4, 24, -48]",187299,3.0,12806.0,2.56147591953e+18,mouselab-mdp,3
"[14256, 14964, 15595]","[u'right', u'right', u'down']",training,"[u'0', u'5', u'6', u'8']","{u'mouseover': {u'state': {u'target': [], u'time': []}, u'edge': {u'target': [], u'time': []}}, u'click': {u'state': {u'target': [u'7', u'12', u'11', u'8', u'6', u'5', u'3', u'4'], u'time': [1298, 2281, 3338, 5040, 6777, 10489, 11848, 12822]}, u'edge': {u'target': [], u'time': []}}, u'mouseout': {u'state': {u'target': [], u'time': []}, u'edge': {u'target': [], u'time': []}}}","[-2, -8, 48]","[14250, 189, 120]",30.0,"[None, None, None]","[u'', -4, -4, -48, -48, -2, -8, 24, 48, 2, 4, -24, -48]",205020,4.0,16632.0,-1.84824368346e+18,mouselab-mdp,3
"[26518, 27112, 27707]","[u'up', u'up', u'left']",training,"[u'0', u'1', u'2', u'4']","{u'mouseover': {u'state': {u'target': [], u'time': []}, u'edge': {u'target': [], u'time': []}}, u'click': {u'state': {u'target': [u'7', u'11', u'12', u'8', u'3', u'4', u'9', u'10', u'2', u'1', u'5'], u'time': [1366, 3640, 4771, 5818, 6822, 7678, 15357, 15948, 16929, 21447, 22780]}, u'edge': {u'target': [], u'time': []}}, u'mouseout': {u'state': {u'target': [], u'time': []}, u'edge': {u'target': [], u'time': []}}}","[4, 4, 48]","[26512, 81, 74]",45.0,"[None, None, None]","[u'', 4, 4, -48, 48, 4, 4, -24, -24, 2, -8, 48, -24]",234570,5.0,28458.0,3.80267392762e+18,mouselab-mdp,3
"[25389, 26208, 27205]","[u'up', u'up', u'right']",training,"[u'0', u'1', u'2', u'3']","{u'mouseover': {u'state': {u'target': [], u'time': []}, u'edge': {u'target': [], u'time': []}}, u'click': {u'state': {u'target': [u'4', u'3', u'7', u'8', u'12', u'11', u'2', u'10', u'1', u'6', u'5'], u'time': [1548, 2395, 3177, 4093, 4918, 5763, 9455, 10445, 11834, 15096, 15945]}, u'edge': {u'target': [], u'time': []}}, u'mouseout': {u'state': {u'target': [], u'time': []}, u'edge': {u'target': [], u'time': []}}}","[-4, 4, 48]","[25384, 289, 480]",37.0,"[None, None, None]","[u'', -4, 4, 48, -48, -4, 4, -24, 24, -4, -8, 24, 24]",263668,6.0,28017.0,-5.99530113684e+18,mouselab-mdp,3
"[20969, 21583, 22213]","[u'up', u'up', u'left']",training,"[u'0', u'1', u'2', u'4']","{u'mouseover': {u'state': {u'target': [], u'time': []}, u'edge': {u'target': [], u'time': []}}, u'click': {u'state': {u'target': [u'4', u'3', u'7', u'8', u'12', u'11', u'10', u'2', u'1', u'9'], u'time': [2995, 4128, 5211, 7803, 9062, 10189, 12752, 13826, 16772, 19621]}, u'edge': {u'target': [], u'time': []}}, u'mouseout': {u'state': {u'target': [], u'time': []}, u'edge': {u'target': [], u'time': []}}}","[-2, 4, 24]","[20964, 87, 117]",16.0,"[None, None, None]","[u'', -2, 4, -24, 24, -2, -4, -48, -48, 4, -8, 24, 24]",287818,7.0,23027.0,2.82020194745e+17,mouselab-mdp,3
"[13521, 14119, 14686]","[u'left', u'left', u'up']",training,"[u'0', u'9', u'10', u'11']","{u'mouseover': {u'state': {u'target': [], u'time': []}, u'edge': {u'target': [], u'time': []}}, u'click': {u'state': {u'target': [u'4', u'3', u'7', u'8', u'12', u'11', u'10', u'9'], u'time': [4191, 4857, 5809, 6688, 7500, 8370, 10335, 11072]}, u'edge': {u'target': [], u'time': []}}, u'mouseout': {u'state': {u'target': [], u'time': []}, u'edge': {u'target': [], u'time': []}}}","[-2, 8, 24]","[13513, 66, 48]",22.0,"[None, None, None]","[u'', 2, 4, -24, -48, -2, -4, -24, -24, -2, 8, 24, -24]",304650,8.0,15733.0,1.18238643611e+16,mouselab-mdp,3
"[12303, 12944, 14112]","[u'right', u'right', u'down']",training,"[u'0', u'5', u'6', u'8']","{u'mouseover': {u'state': {u'target': [], u'time': []}, u'edge': {u'target': [], u'time': []}}, u'click': {u'state': {u'target': [u'4', u'3', u'7', u'8', u'11', u'12', u'6', u'5'], u'time': [2224, 2893, 4070, 4896, 7669, 8401, 10611, 11402]}, u'edge': {u'target': [], u'time': []}}, u'mouseout': {u'state': {u'target': [], u'time': []}, u'edge': {u'target': [], u'time': []}}}","[-2, 8, 48]","[12298, 120, 639]",46.0,"[None, None, None]","[u'', -4, -8, 24, -24, -2, 8, 24, 48, 4, -4, 24, -48]",320980,9.0,15231.0,-1.10044903072e+18,mouselab-mdp,3
"[17638, 18186, 19109]","[u'left', u'left', u'up']",training,"[u'0', u'9', u'10', u'11']","{u'mouseover': {u'state': {u'target': [], u'time': []}, u'edge': {u'target': [], u'time': []}}, u'click': {u'state': {u'target': [u'4', u'3', u'7', u'8', u'12', u'11', u'6', u'5', u'10', u'9'], u'time': [1265, 1866, 2552, 3269, 4303, 6629, 8759, 9601, 11536, 13570]}, u'edge': {u'target': [], u'time': []}}, u'mouseout': {u'state': {u'target': [], u'time': []}, u'edge': {u'target': [], u'time': []}}}","[4, -4, 48]","[17633, 38, 415]",38.0,"[None, None, None]","[u'', -2, -8, -48, -48, -4, -8, 24, 24, 4, -4, 48, -24]",342147,10.0,20076.0,-3.02731726069e+18,mouselab-mdp,3
"[34975, 35980, 36986, 39626, 40892]","[u'right', u'right', u'right', u'up', u'left']",test,"[u'0', u'12', u'13', u'14', u'15', u'18']","{u'mouseover': {u'state': {u'target': [], u'time': []}, u'edge': {u'target': [], u'time': []}}, u'click': {u'state': {u'target': [u'9', u'5', u'16', u'21', u'32', u'27', u'14', u'15', u'17', u'18', u'22', u'20', u'6', u'11', u'3', u'8', u'29', u'33'], u'time': [1812, 3281, 5915, 7199, 8499, 9388, 14069, 15215, 16436, 17215, 20206, 21000, 23143, 24276, 26341, 27150, 29437, 31221]}, u'edge': {u'target': [], u'time': []}}, u'mouseout': {u'state': {u'target': [], u'time': []}, u'edge': {u'target': [], u'time': []}}}","[0, 0, 3, -13, 29]","[34968, 478, 466, 2107, 719]",1.0,"[None, None, None, None, None]","[u'', 0, 2, -7, 2, -4, 0, -28, -10, -15, -8, 47, 0, 0, 3, -13, 23, 29, 29, -3, -40, -32, 8, 1, 3, 6, 7, 1, 8, -8, 8, 19, 7, -40]",400420,11.0,42440.0,7.63808305668e+17,mouselab-mdp,3
"[16319, 17398, 18069, 18672, 19309]","[u'right', u'right', u'right', u'down', u'down']",test,"[u'0', u'12', u'13', u'14', u'19', u'21']","{u'mouseover': {u'state': {u'target': [], u'time': []}, u'edge': {u'target': [], u'time': []}}, u'click': {u'state': {u'target': [u'9', u'5', u'16', u'21', u'32', u'27', u'22', u'20', u'14', u'13', u'12', u'19'], u'time': [1125, 1757, 3728, 4660, 5755, 6728, 8373, 9974, 12337, 13370, 14137, 14959]}, u'edge': {u'target': [], u'time': []}}, u'mouseout': {u'state': {u'target': [], u'time': []}, u'edge': {u'target': [], u'time': []}}}","[1, -1, 1, 4, 32]","[16306, 555, 160, 78, 116]",25.0,"[None, None, None, None, None]","[u'', 0, 2, -4, -1, 46, -20, -65, -16, -80, -68, -13, 1, -1, 1, -1, 0, -5, -6, 4, -38, 32, 29, 0, 2, -3, -4, 5, -6, -14, -5, -18, 30, -62]",421874,12.0,20154.0,-3.13580120687e+18,mouselab-mdp,3
"[19993, 20588, 21187, 22289, 22820]","[u'up', u'up', u'up', u'right', u'right']",test,"[u'0', u'1', u'2', u'3', u'4', u'6']","{u'mouseover': {u'state': {u'target': [], u'time': []}, u'edge': {u'target': [], u'time': []}}, u'click': {u'state': {u'target': [u'5', u'9', u'27', u'25', u'26', u'32', u'21', u'16', u'11', u'6', u'3', u'4', u'2', u'1'], u'time': [1465, 2115, 2891, 4793, 6350, 8953, 10173, 11451, 13143, 13958, 16391, 17265, 18130, 18747]}, u'edge': {u'target': [], u'time': []}}, u'mouseout': {u'state': {u'target': [], u'time': []}, u'edge': {u'target': [], u'time': []}}}","[1, -4, 0, -9, 58]","[19985, 60, 63, 561, 7]",32.0,"[None, None, None, None, None]","[u'', 1, -4, 0, -9, 17, 58, -17, 12, -30, 70, -26, 0, 1, -6, 12, -34, 20, -41, 1, 0, -12, 16, -1, 3, 1, -22, 64, 14, 50, -1, -72, -13, -39]",447167,13.0,23981.0,4.95921045901e+18,mouselab-mdp,3
"[28108, 28623, 29157, 30305, 30824]","[u'right', u'right', u'right', u'up', u'up']",test,"[u'0', u'12', u'13', u'14', u'15', u'16']","{u'mouseover': {u'state': {u'target': [], u'time': []}, u'edge': {u'target': [], u'time': []}}, u'click': {u'state': {u'target': [u'9', u'5', u'16', u'3', u'4', u'18', u'15', u'14', u'27', u'32', u'25', u'29', u'33', u'13', u'12'], u'time': [1640, 2386, 3872, 8271, 10712, 13958, 15590, 17165, 18977, 19801, 21296, 22579, 23214, 26287, 27256]}, u'edge': {u'target': [], u'time': []}}, u'mouseout': {u'state': {u'target': [], u'time': []}, u'edge': {u'target': [], u'time': []}}}","[0, 1, 4, 1, 33]","[28102, 3, 3, 613, 2]",24.0,"[None, None, None, None, None]","[u'', 0, 3, -5, -9, 54, 19, -60, 4, 8, -69, -12, 0, 1, 4, 1, 33, -5, -27, -7, 17, -63, 22, -1, -1, 2, 10, -62, -26, 2, -5, 28, -67, 12]",480198,14.0,31777.0,-6.44000697273e+18,mouselab-mdp,3
"[15685, 17269, 18290, 19086, 19744]","[u'left', u'left', u'left', u'up', u'up']",test,"[u'0', u'23', u'24', u'25', u'26', u'27']","{u'mouseover': {u'state': {u'target': [], u'time': []}, u'edge': {u'target': [], u'time': []}}, u'click': {u'state': {u'target': [u'9', u'5', u'16', u'21', u'32', u'27', u'29', u'26', u'25'], u'time': [1212, 4471, 7192, 7916, 9362, 10295, 11290, 12367, 13457]}, u'edge': {u'target': [], u'time': []}}, u'mouseout': {u'state': {u'target': [], u'time': []}, u'edge': {u'target': [], u'time': []}}}","[0, 3, 4, 13, 39]","[15673, 1041, 485, 280, 139]",50.0,"[None, None, None, None, None]","[u'', 0, 1, -6, -9, 23, -1, -7, -1, 16, -19, 16, -1, -1, 4, 9, -35, 27, -33, 6, -61, -36, -16, 0, 3, 4, 13, 39, -9, -9, 9, 1, -5, -43]",502394,15.0,20911.0,6.02334654885e+18,mouselab-mdp,3
"[15949, 16784, 17501, 18631, 19200]","[u'right', u'right', u'right', u'up', u'up']",test,"[u'0', u'12', u'13', u'14', u'15', u'16']","{u'mouseover': {u'state': {u'target': [], u'time': []}, u'edge': {u'target': [], u'time': []}}, u'click': {u'state': {u'target': [u'9', u'5', u'16', u'21', u'32', u'27', u'18', u'17', u'15', u'14', u'13'], u'time': [1692, 2811, 4570, 5629, 6607, 7444, 9909, 10904, 11545, 12587, 14937]}, u'edge': {u'target': [], u'time': []}}, u'mouseout': {u'state': {u'target': [], u'time': []}, u'edge': {u'target': [], u'time': []}}}","[-1, 1, 0, -11, 47]","[15941, 306, 175, 588, 41]",25.0,"[None, None, None, None, None]","[u'', 0, 3, 3, 8, -15, 44, -34, 4, -30, -17, -47, -1, 1, 0, -11, 47, 11, 32, 6, -21, -62, -29, 1, -2, 3, -5, 13, -58, 37, 0, 28, 6, 26]",523776,16.0,20130.0,-5.90859572675e+17,mouselab-mdp,3
"[11854, 12838, 13493, 14441, 15203]","[u'up', u'up', u'up', u'left', u'up']",test,"[u'0', u'1', u'2', u'3', u'8', u'9']","{u'mouseover': {u'state': {u'target': [], u'time': []}, u'edge': {u'target': [], u'time': []}}, u'click': {u'state': {u'target': [u'9', u'5', u'11', u'10', u'27', u'32', u'21', u'16', u'3', u'8', u'2'], u'time': [950, 1738, 2936, 3747, 4689, 5440, 6450, 7198, 8611, 9707, 10787]}, u'edge': {u'target': [], u'time': []}}, u'mouseout': {u'state': {u'target': [], u'time': []}, u'edge': {u'target': [], u'time': []}}}","[-1, 0, -1, 2, 66]","[11845, 442, 126, 430, 243]",55.0,"[None, None, None, None, None]","[u'', -1, 0, -1, -2, -34, -30, -34, 2, 66, -4, -44, 1, -2, 2, -4, 3, 110, -24, -5, 12, -1, -13, -1, 1, 4, -8, -36, 59, -46, 6, 14, -35, 24]",541421,17.0,16381.0,8.1969743017e+18,mouselab-mdp,3
"[6141, 6945, 7679, 8705, 9378]","[u'right', u'right', u'right', u'up', u'up']",test,"[u'0', u'12', u'13', u'14', u'15', u'16']","{u'mouseover': {u'state': {u'target': [], u'time': []}, u'edge': {u'target': [], u'time': []}}, u'click': {u'state': {u'target': [u'9', u'5', u'16', u'14', u'15'], u'time': [600, 1207, 2190, 3701, 5060]}, u'edge': {u'target': [], u'time': []}}, u'mouseout': {u'state': {u'target': [], u'time': []}, u'edge': {u'target': [], u'time': []}}}","[1, 0, 3, 17, 64]","[6133, 267, 218, 510, 149]",80.0,"[None, None, None, None, None]","[u'', 1, -1, 1, 5, 12, -17, 52, 1, 30, 13, 28, 1, 0, 3, 17, 64, 24, 54, -10, 47, 2, -57, 0, 2, -3, 15, 43, -41, 32, 1, -18, -10, -14]",552775,18.0,10070.0,-8.09611612733e+18,mouselab-mdp,3
"[9056, 9703, 10409, 11398, 11996]","[u'right', u'right', u'right', u'up', u'up']",test,"[u'0', u'12', u'13', u'14', u'15', u'16']","{u'mouseover': {u'state': {u'target': [], u'time': []}, u'edge': {u'target': [], u'time': []}}, u'click': {u'state': {u'target': [u'9', u'5', u'29', u'33', u'21', u'17', u'16', u'18', u'15', u'14'], u'time': [788, 1475, 2402, 3181, 4315, 5055, 5766, 6489, 7212, 7777]}, u'edge': {u'target': [], u'time': []}}, u'mouseout': {u'state': {u'target': [], u'time': []}, u'edge': {u'target': [], u'time': []}}}","[0, -2, -1, 2, 47]","[9050, 116, 166, 476, 76]",36.0,"[None, None, None, None, None]","[u'', -1, 1, 4, -7, 8, 35, -12, -11, 2, 51, -29, 0, -2, -1, 2, 47, -23, -23, -7, -35, -49, -27, 0, 0, 5, -7, -25, -24, 6, -1, 25, -25, 29]",566810,19.0,12781.0,-6.34024467263e+18,mouselab-mdp,3
"[11561, 12172, 12787, 13491, 14138]","[u'right', u'right', u'right', u'up', u'up']",test,"[u'0', u'12', u'13', u'14', u'15', u'16']","{u'mouseover': {u'state': {u'target': [], u'time': []}, u'edge': {u'target': [], u'time': []}}, u'click': {u'state': {u'target': [u'9', u'5', u'17', u'16', u'21', u'27', u'15', u'14', u'13'], u'time': [1779, 2699, 3531, 4799, 6957, 8039, 9197, 9771, 10646]}, u'edge': {u'target': [], u'time': []}}, u'mouseout': {u'state': {u'target': [], u'time': []}, u'edge': {u'target': [], u'time': []}}}","[0, 0, -1, -6, 59]","[11554, 94, 75, 177, 126]",43.0,"[None, None, None, None, None]","[u'', 0, 0, 4, -10, 35, -22, 23, -3, 26, 25, -47, 0, 0, -1, -6, 59, 7, 50, -5, -34, 4, -18, 2, 0, 5, -2, -10, -1, 11, 7, -4, -22, -34]",582941,20.0,14854.0,-5.49423358378e+18,mouselab-mdp,3
"[18485, 19101, 19778, 20454, 21104]","[u'right', u'right', u'right', u'down', u'right']",test,"[u'0', u'12', u'13', u'14', u'19', u'20']","{u'mouseover': {u'state': {u'target': [], u'time': []}, u'edge': {u'target': [], u'time': []}}, u'click': {u'state': {u'target': [u'9', u'29', u'27', u'32', u'21', u'16', u'17', u'18', u'22', u'5', u'20', u'14', u'19'], u'time': [2331, 3302, 4581, 5428, 7098, 8273, 8921, 9760, 10580, 13915, 15213, 16737, 17335]}, u'edge': {u'target': [], u'time': []}}, u'mouseout': {u'state': {u'target': [], u'time': []}, u'edge': {u'target': [], u'time': []}}}","[-1, 1, -3, 3, 44]","[18476, 97, 140, 150, 116]",31.0,"[None, None, None, None, None]","[u'', 1, -3, 4, 10, -9, 11, -18, 2, 5, -12, -1, -1, 1, -3, 3, 9, -25, -13, 3, 44, -20, -4, 0, -4, -1, 6, 25, -15, 17, -2, 11, 30, -21]",606199,21.0,21975.0,3.06682852711e+17,mouselab-mdp,3
"[9699, 10293, 10937, 11647, 12244]","[u'right', u'right', u'right', u'up', u'up']",test,"[u'0', u'12', u'13', u'14', u'15', u'16']","{u'mouseover': {u'state': {u'target': [], u'time': []}, u'edge': {u'target': [], u'time': []}}, u'click': {u'state': {u'target': [u'9', u'29', u'27', u'32', u'21', u'16', u'14', u'15'], u'time': [1024, 1832, 2394, 3339, 5381, 6210, 7582, 8564]}, u'edge': {u'target': [], u'time': []}}, u'mouseout': {u'state': {u'target': [], u'time': []}, u'edge': {u'target': [], u'time': []}}}","[0, 2, -7, 13, 45]","[9690, 84, 123, 184, 83]",45.0,"[None, None, None, None, None]","[u'', 1, -1, -4, 1, 16, -45, -17, -3, 9, -8, 14, 0, 2, -7, 13, 45, 2, 21, 5, -24, 5, 25, 0, 2, 0, 1, -25, -12, -15, 14, 8, -32, 13]",620773,22.0,13306.0,1.0491821684e+18,mouselab-mdp,3
"[13490, 14067, 14645, 15300, 15887]","[u'right', u'right', u'right', u'up', u'up']",test,"[u'0', u'12', u'13', u'14', u'15', u'16']","{u'mouseover': {u'state': {u'target': [], u'time': []}, u'edge': {u'target': [], u'time': []}}, u'click': {u'state': {u'target': [u'9', u'5', u'17', u'16', u'18', u'21', u'27', u'32', u'33', u'29', u'15', u'14'], u'time': [1463, 2207, 3224, 3985, 4616, 5652, 7124, 8351, 9406, 10316, 11931, 12744]}, u'edge': {u'target': [], u'time': []}}, u'mouseout': {u'state': {u'target': [], u'time': []}, u'edge': {u'target': [], u'time': []}}}","[-1, -3, 5, -2, 45]","[13484, 28, 56, 114, 55]",32.0,"[None, None, None, None, None]","[u'', 0, 2, 1, 2, 9, -23, 27, 12, 24, 28, -28, -1, -3, 5, -2, 45, -25, -14, 1, 29, 2, 7, 0, 0, -4, 1, -6, -2, 16, -5, -3, -10, 13]",638938,23.0,16895.0,-7.36145656423e+18,mouselab-mdp,3
"[5973, 6569, 7186, 8099, 8725]","[u'right', u'right', u'right', u'up', u'right']",test,"[u'0', u'12', u'13', u'14', u'15', u'17']","{u'mouseover': {u'state': {u'target': [], u'time': []}, u'edge': {u'target': [], u'time': []}}, u'click': {u'state': {u'target': [u'9', u'5', u'17', u'14', u'15'], u'time': [842, 1619, 2633, 4372, 5034]}, u'edge': {u'target': [], u'time': []}}, u'mouseout': {u'state': {u'target': [], u'time': []}, u'edge': {u'target': [], u'time': []}}}","[0, 3, 2, -5, 51]","[5963, 74, 75, 383, 95]",46.0,"[None, None, None, None, None]","[u'', 0, 1, 0, 7, -3, 60, -35, 7, 32, 41, -4, 0, 3, 2, -5, 27, 51, 21, -6, 31, -49, 25, 1, 0, 1, 1, -17, -27, -9, -5, 48, -43, 58]",650944,24.0,10730.0,2.45129555479e+18,mouselab-mdp,3
"[16637, 17270, 17904, 18900, 19540]","[u'left', u'left', u'left', u'up', u'up']",test,"[u'0', u'23', u'24', u'25', u'26', u'27']","{u'mouseover': {u'state': {u'target': [], u'time': []}, u'edge': {u'target': [], u'time': []}}, u'click': {u'state': {u'target': [u'9', u'5', u'21', u'16', u'27', u'32', u'29', u'18', u'17', u'20', u'22', u'25', u'26'], u'time': [762, 1453, 2423, 3177, 4168, 5366, 7181, 8779, 9889, 10711, 11487, 14870, 15730]}, u'edge': {u'target': [], u'time': []}}, u'mouseout': {u'state': {u'target': [], u'time': []}, u'edge': {u'target': [], u'time': []}}}","[1, 1, 5, 14, 33]","[16632, 120, 104, 485, 125]",41.0,"[None, None, None, None, None]","[u'', 1, 1, 0, -1, 14, 56, 28, -4, 25, -4, -6, 2, -1, -2, -16, -45, 14, -22, 4, -36, -25, 22, 1, 1, 5, 14, 33, -29, -3, 5, -13, 14, -51]",673143,25.0,20886.0,-3.97653490919e+18,mouselab-mdp,3
"[9073, 9697, 10318, 11026, 11660]","[u'right', u'right', u'right', u'down', u'down']",test,"[u'0', u'12', u'13', u'14', u'19', u'21']","{u'mouseover': {u'state': {u'target': [], u'time': []}, u'edge': {u'target': [], u'time': []}}, u'click': {u'state': {u'target': [u'9', u'5', u'16', u'21', u'32', u'19', u'14'], u'time': [1845, 2906, 4349, 5697, 6707, 7541, 8272]}, u'edge': {u'target': [], u'time': []}}, u'mouseout': {u'state': {u'target': [], u'time': []}, u'edge': {u'target': [], u'time': []}}}","[-1, -3, 2, 7, 74]","[9067, 99, 100, 194, 108]",72.0,"[None, None, None, None, None]","[u'', 1, 1, -1, 6, -26, 7, 57, 12, -10, 31, -12, -1, -3, 2, 2, 32, 26, -10, 7, 60, 74, 25, 0, 1, 0, -5, 50, 24, 5, 12, 27, -40, 40]",687706,26.0,13267.0,4.93020834377e+18,mouselab-mdp,3
"[9353, 9951, 10544, 11173, 11727]","[u'right', u'right', u'right', u'up', u'up']",test,"[u'0', u'12', u'13', u'14', u'15', u'16']","{u'mouseover': {u'state': {u'target': [], u'time': []}, u'edge': {u'target': [], u'time': []}}, u'click': {u'state': {u'target': [u'9', u'5', u'27', u'32', u'21', u'16', u'14', u'15'], u'time': [674, 1358, 2921, 3912, 4846, 5818, 7784, 8353]}, u'edge': {u'target': [], u'time': []}}, u'mouseout': {u'state': {u'target': [], u'time': []}, u'edge': {u'target': [], u'time': []}}}","[1, 1, 0, -7, 62]","[9346, 71, 82, 111, 31]",49.0,"[None, None, None, None, None]","[u'', 0, -6, 2, -12, 19, -31, -47, 4, -48, -14, 7, 1, 1, 0, -7, 62, -19, 58, -4, 37, 34, -33, 0, 2, 3, -2, 10, -13, -37, 8, -18, 44, 19]",701974,27.0,13000.0,-7.70136888106e+18,mouselab-mdp,3
"[18038, 18612, 19224, 19776, 20434]","[u'right', u'right', u'right', u'up', u'right']",test,"[u'0', u'12', u'13', u'14', u'15', u'17']","{u'mouseover': {u'state': {u'target': [], u'time': []}, u'edge': {u'target': [], u'time': []}}, u'click': {u'state': {u'target': [u'9', u'5', u'27', u'29', u'33', u'32', u'21', u'16', u'18', u'17', u'15', u'14'], u'time': [917, 1848, 2977, 3784, 4632, 5279, 9114, 12955, 13949, 14592, 16076, 17234]}, u'edge': {u'target': [], u'time': []}}, u'mouseout': {u'state': {u'target': [], u'time': []}, u'edge': {u'target': [], u'time': []}}}","[-1, -2, 3, -2, 51]","[18032, 63, 87, 28, 120]",37.0,"[None, None, None, None, None]","[u'', 1, -5, -2, -2, -65, 14, 39, -16, -50, 30, 36, -1, -2, 3, -2, -17, 51, 10, -15, 8, -45, 24, 1, 1, 4, 16, 23, -12, -35, 2, -33, -46, -15]",724774,28.0,21518.0,-5.05047603298e+18,mouselab-mdp,3
"[9308, 10036, 10821, 11548, 12395]","[u'up', u'up', u'up', u'left', u'up']",test,"[u'0', u'1', u'2', u'3', u'8', u'9']","{u'mouseover': {u'state': {u'target': [], u'time': []}, u'edge': {u'target': [], u'time': []}}, u'click': {u'state': {u'target': [u'9', u'5', u'27', u'32', u'21', u'16', u'10', u'8', u'3'], u'time': [638, 1263, 2245, 2980, 3723, 4588, 6285, 7737, 8251]}, u'edge': {u'target': [], u'time': []}}, u'mouseout': {u'state': {u'target': [], u'time': []}, u'edge': {u'target': [], u'time': []}}}","[-1, -2, 6, 0, 31]","[9297, 192, 242, 205, 337]",25.0,"[None, None, None, None, None]","[u'', -1, -2, 6, 13, -11, 17, 0, 0, 31, 14, 11, 0, 2, -1, 0, 7, -38, -10, -3, 3, -36, -38, 2, 2, 4, 15, 13, -3, 15, -15, -35, 24, 1]",739637,29.0,13496.0,6.4481754097e+18,mouselab-mdp,3
"[3756, 4485, 5131, 5861, 6629]","[u'up', u'up', u'up', u'left', u'up']",test,"[u'0', u'1', u'2', u'3', u'8', u'9']","{u'mouseover': {u'state': {u'target': [], u'time': []}, u'edge': {u'target': [], u'time': []}}, u'click': {u'state': {u'target': [u'9', u'3'], u'time': [1079, 2525]}, u'edge': {u'target': [], u'time': []}}, u'mouseout': {u'state': {u'target': [], u'time': []}, u'edge': {u'target': [], u'time': []}}}","[-1, 4, 3, -8, 46]","[3746, 211, 129, 193, 246]",42.0,"[None, None, None, None, None]","[u'', -1, 4, 3, -5, 1, 10, -3, -8, 46, -38, 28, 0, -2, -1, -15, 9, 23, -17, 2, -80, -17, -43, 1, 0, 0, -2, -8, 25, -33, 7, 22, 33, -11]",754927,30.0,13945.0,4.29183515435e+18,mouselab-mdp,3
"[22643, 23314, 23937, 24537, 25128]","[u'up', u'up', u'up', u'left', u'up']",pre_test,"[u'0', u'1', u'2', u'3', u'8', u'9']","{u'mouseover': {u'state': {u'target': [], u'time': []}, u'edge': {u'target': [], u'time': []}}, u'click': {u'state': {u'target': [u'1', u'2', u'3', u'8', u'11', u'9', u'10', u'4', u'5', u'6', u'7'], u'time': [7176, 12510, 13637, 14380, 15483, 16436, 18231, 19180, 19661, 20175, 20614]}, u'edge': {u'target': [], u'time': []}}, u'mouseout': {u'state': {u'target': [], u'time': []}, u'edge': {u'target': [], u'time': []}}}","[1, -3, 5, -1, 18]","[22631, 166, 123, 107, 80]",9.0,"[None, None, None, None, None]","[u'', 1, -3, 5, 8, -51, -2, -40, -1, 18, -4, -44, 0, 1, 0, -8, -11, 9, -5, 17, 8, -7, 15, -1, 1, 6, -7, 10, 25, -54, 13, -33, -11, 12]",59502,0.0,27313.0,9.26522681452e+17,mouselab-mdp,4
"[14837, 15843, 16491]","[u'right', u'right', u'up']",training,"[u'0', u'5', u'6', u'7']","{u'mouseover': {u'state': {u'target': [], u'time': []}, u'edge': {u'target': [], u'time': []}}, u'click': {u'state': {u'target': [u'9', u'4', u'8', u'7', u'12', u'11'], u'time': [5978, 9764, 11110, 11878, 13030, 13557]}, u'edge': {u'target': [], u'time': []}}, u'mouseout': {u'state': {u'target': [], u'time': []}, u'edge': {u'target': [], u'time': []}}}","[4, 8, 48]","[14830, 500, 147]",54.0,"[None, None, None]","[u'', -2, -8, -24, -24, 4, 8, 48, 24, -2, 8, -24, -48]",83590,1.0,17731.0,4.07975241014e+18,mouselab-mdp,4
"[7005, 7587, 8171]","[u'right', u'right', u'up']",training,"[u'0', u'5', u'6', u'7']","{u'mouseover': {u'state': {u'target': [], u'time': []}, u'edge': {u'target': [], u'time': []}}, u'click': {u'state': {u'target': [u'11', u'12', u'4', u'3', u'7', u'8'], u'time': [2503, 3293, 3886, 4417, 4933, 5477]}, u'edge': {u'target': [], u'time': []}}, u'mouseout': {u'state': {u'target': [], u'time': []}, u'edge': {u'target': [], u'time': []}}}","[-4, 8, 48]","[7001, 76, 95]",46.0,"[None, None, None]","[u'', -2, 8, -24, 24, -4, 8, 48, 24, -2, -4, 24, -48]",94222,2.0,9563.0,2.56147591953e+18,mouselab-mdp,4
"[19015, 19669, 20213]","[u'up', u'up', u'right']",training,"[u'0', u'1', u'2', u'3']","{u'mouseover': {u'state': {u'target': [], u'time': []}, u'edge': {u'target': [], u'time': []}}, u'click': {u'state': {u'target': [u'11', u'12', u'4', u'3', u'7', u'6', u'2', u'10'], u'time': [2157, 2711, 3329, 3803, 7295, 15065, 15667, 16403]}, u'edge': {u'target': [], u'time': []}}, u'mouseout': {u'state': {u'target': [], u'time': []}, u'edge': {u'target': [], u'time': []}}}","[-4, 8, 48]","[19013, 156, 52]",44.0,"[None, None, None]","[u'', -4, 8, 48, -24, -2, -4, 24, -48, 4, 4, 48, -48]",117519,3.0,22230.0,7.26324481059e+18,mouselab-mdp,4
"[13105, 13655, 14256]","[u'right', u'right', u'down']",training,"[u'0', u'5', u'6', u'8']","{u'mouseover': {u'state': {u'target': [], u'time': []}, u'edge': {u'target': [], u'time': []}}, u'click': {u'state': {u'target': [u'11', u'10', u'12', u'3', u'7', u'8'], u'time': [2891, 5916, 9752, 10155, 10902, 11760]}, u'edge': {u'target': [], u'time': []}}, u'mouseout': {u'state': {u'target': [], u'time': []}, u'edge': {u'target': [], u'time': []}}}","[-4, 8, 48]","[13101, 53, 101]",46.0,"[None, None, None]","[u'', -4, 8, -24, -48, -4, 8, -48, 48, 4, -8, -24, 48]",134518,4.0,15936.0,-1.41484517897e+18,mouselab-mdp,4
"[5062, 6021, 6630]","[u'up', u'up', u'right']",training,"[u'0', u'1', u'2', u'3']","{u'mouseover': {u'state': {u'target': [], u'time': []}, u'edge': {u'target': [], u'time': []}}, u'click': {u'state': {u'target': [u'11', u'4', u'3', u'7'], u'time': [1478, 2400, 3060, 3690]}, u'edge': {u'target': [], u'time': []}}, u'mouseout': {u'state': {u'target': [], u'time': []}, u'edge': {u'target': [], u'time': []}}}","[2, 8, 48]","[5058, 455, 97]",54.0,"[None, None, None]","[u'', 2, 8, 48, -24, -4, -4, -48, 24, -4, -8, -48, -24]",144749,5.0,9164.0,2.37271076103e+18,mouselab-mdp,4
"[2528, 3112, 3655]","[u'up', u'up', u'left']",training,"[u'0', u'1', u'2', u'4']","{u'mouseover': {u'state': {u'target': [], u'time': []}, u'edge': {u'target': [], u'time': []}}, u'click': {u'state': {u'target': [u'4'], u'time': [1099]}, u'edge': {u'target': [], u'time': []}}, u'mouseout': {u'state': {u'target': [], u'time': []}, u'edge': {u'target': [], u'time': []}}}","[4, -8, 48]","[2525, 95, 37]",43.0,"[None, None, None]","[u'', 4, -8, 24, 48, 4, -8, -24, 48, -2, -8, 24, -24]",155887,6.0,10104.0,6.60860815513e+18,mouselab-mdp,4
"[4327, 5309, 5949]","[u'right', u'right', u'down']",training,"[u'0', u'5', u'6', u'8']","{u'mouseover': {u'state': {u'target': [], u'time': []}, u'edge': {u'target': [], u'time': []}}, u'click': {u'state': {u'target': [u'4', u'3', u'7', u'8'], u'time': [850, 1508, 2025, 2560]}, u'edge': {u'target': [], u'time': []}}, u'mouseout': {u'state': {u'target': [], u'time': []}, u'edge': {u'target': [], u'time': []}}}","[-2, 8, 48]","[4324, 495, 134]",50.0,"[None, None, None]","[u'', 2, -4, 24, -24, -2, 8, 24, 48, 4, -4, 48, 48]",165599,7.0,8662.0,5.2467434854e+18,mouselab-mdp,4
"[4595, 5139, 5707]","[u'right', u'right', u'up']",training,"[u'0', u'5', u'6', u'7']","{u'mouseover': {u'state': {u'target': [], u'time': []}, u'edge': {u'target': [], u'time': []}}, u'click': {u'state': {u'target': [u'12', u'11', u'4', u'3', u'7'], u'time': [1015, 1560, 2135, 2685, 3231]}, u'edge': {u'target': [], u'time': []}}, u'mouseout': {u'state': {u'target': [], u'time': []}, u'edge': {u'target': [], u'time': []}}}","[-4, 4, 48]","[4590, 55, 72]",43.0,"[None, None, None]","[u'', 2, -4, 24, -48, -4, 4, 48, 48, 4, 4, -48, -24]",176126,8.0,9459.0,1.70803683189e+18,mouselab-mdp,4
