action_times,actions,button_pressed,correct,delays,information_used_correctly,path,planned_too_little,planned_too_much,queries,questions,responses,rt,score,stimulus,time_elapsed,trial_index,trial_i,trial_type,view_history,pid
,,,,,,,,,,,,72005,,,72005,,,instructions,"[{""page_index"":0,""viewing_time"":21965},{""page_index"":1,""viewing_time"":37068},{""page_index"":2,""viewing_time"":12970}]",0
,,,,,,,,,,,,177651,,,177655,,,instructions,"[{""page_index"":0,""viewing_time"":45982},{""page_index"":1,""viewing_time"":58925},{""page_index"":2,""viewing_time"":72740}]",1
,,,,,,,,,,,,98916,,,98917,,,instructions,"[{""page_index"":0,""viewing_time"":45729},{""page_index"":1,""viewing_time"":35330},{""page_index"":2,""viewing_time"":17856}]",2
,,,,,,,,,,,,76461,,,76463,,,instructions,"[{""page_index"":0,""viewing_time"":41417},{""page_index"":1,""viewing_time"":20465},{""page_index"":2,""viewing_time"":14578}]",3
,,,,,,,,,,,,125909,,,125911,,,instructions,"[{""page_index"":0,""viewing_time"":35740},{""page_index"":1,""viewing_time"":56480},{""page_index"":2,""viewing_time"":33688}]",4
,,,,,,,,,,,,100216,,,100216,,,instructions,"[{""page_index"":0,""viewing_time"":40256},{""page_index"":1,""viewing_time"":27139},{""page_index"":2,""viewing_time"":32820}]",5
,,,,,,,,,,,,32266,,,32267,,,instructions,"[{""page_index"":0,""viewing_time"":11998},{""page_index"":1,""viewing_time"":8127},{""page_index"":2,""viewing_time"":12139}]",6
,,,,,,,,,,,,106694,,,180677,,,instructions,"[{""page_index"":0,""viewing_time"":66943},{""page_index"":1,""viewing_time"":24630},{""page_index"":2,""viewing_time"":15120}]",6
,,,,,,,,,,,,124952,,,124954,,,instructions,"[{""page_index"":0,""viewing_time"":57432},{""page_index"":1,""viewing_time"":41325},{""page_index"":2,""viewing_time"":26194}]",7
,,,,,,,,,,,,44769,,,44771,,,instructions,"[{""page_index"":0,""viewing_time"":17405},{""page_index"":1,""viewing_time"":13351},{""page_index"":2,""viewing_time"":14012}]",8
,,,,,,,,,,,,157236,,,157239,,,instructions,"[{""page_index"":0,""viewing_time"":53150},{""page_index"":1,""viewing_time"":64479},{""page_index"":2,""viewing_time"":39600}]",9
,,,,,,,,,,,,148464,,,148464,,,instructions,"[{""page_index"":0,""viewing_time"":76237},{""page_index"":1,""viewing_time"":54905},{""page_index"":2,""viewing_time"":17321}]",10
,,,,,,,,,,,,67262,,,67264,,,instructions,"[{""page_index"":0,""viewing_time"":21552},{""page_index"":1,""viewing_time"":31342},{""page_index"":2,""viewing_time"":14367}]",11
,,,,,,,,,,,,119338,,,119341,,,instructions,"[{""page_index"":0,""viewing_time"":62014},{""page_index"":1,""viewing_time"":11552},{""page_index"":2,""viewing_time"":31864},{""page_index"":1,""viewing_time"":12798},{""page_index"":2,""viewing_time"":1109}]",12
,,,,,,,,,,,,149374,,,347747,,,instructions,"[{""page_index"":0,""viewing_time"":61819},{""page_index"":1,""viewing_time"":46882},{""page_index"":2,""viewing_time"":40673}]",12
,,,,,,,,,,,,101474,,,101475,,,instructions,"[{""page_index"":0,""viewing_time"":37903},{""page_index"":1,""viewing_time"":37725},{""page_index"":2,""viewing_time"":25845}]",13
,,,,,,,,,,,,99198,,,99200,,,instructions,"[{""page_index"":0,""viewing_time"":34707},{""page_index"":1,""viewing_time"":24704},{""page_index"":2,""viewing_time"":25482},{""page_index"":1,""viewing_time"":700},{""page_index"":0,""viewing_time"":2006},{""page_index"":1,""viewing_time"":5656},{""page_index"":2,""viewing_time"":5943}]",14
,,,,,,,,,,,,72278,,,72278,,,instructions,"[{""page_index"":0,""viewing_time"":33054},{""page_index"":1,""viewing_time"":27127},{""page_index"":2,""viewing_time"":12096}]",15
,,,,,,,,,,,,54116,,,54119,,,instructions,"[{""page_index"":0,""viewing_time"":28921},{""page_index"":1,""viewing_time"":13656},{""page_index"":2,""viewing_time"":11536}]",16
,,,,,,,,,,,,81583,,,81583,,,instructions,"[{""page_index"":0,""viewing_time"":31694},{""page_index"":1,""viewing_time"":30696},{""page_index"":2,""viewing_time"":19192}]",17
,,,,,,,,,,,,599210,,,599212,,,instructions,"[{""page_index"":0,""viewing_time"":12487},{""page_index"":1,""viewing_time"":579627},{""page_index"":2,""viewing_time"":7095}]",18
,,,,,,,,,,,,21406,,,632915,,,instructions,"[{""page_index"":0,""viewing_time"":17278},{""page_index"":1,""viewing_time"":2760},{""page_index"":2,""viewing_time"":1368}]",18
,,,,,,,,,,,,272922,,,272925,,,instructions,"[{""page_index"":0,""viewing_time"":74768},{""page_index"":1,""viewing_time"":173875},{""page_index"":2,""viewing_time"":24277}]",19
,,,,,,,,,,,,60227,,,362779,,,instructions,"[{""page_index"":0,""viewing_time"":21137},{""page_index"":1,""viewing_time"":28523},{""page_index"":2,""viewing_time"":10565}]",19
,,,,,,,,,,,,4377,,,393142,,,instructions,"[{""page_index"":0,""viewing_time"":2342},{""page_index"":1,""viewing_time"":711},{""page_index"":2,""viewing_time"":1322}]",19
,,,,,,,,,,,,12629,,,435190,,,instructions,"[{""page_index"":0,""viewing_time"":10851},{""page_index"":1,""viewing_time"":752},{""page_index"":2,""viewing_time"":1025}]",19
,,,,,,,,,,,,83143,,,83145,,,instructions,"[{""page_index"":0,""viewing_time"":34325},{""page_index"":1,""viewing_time"":28676},{""page_index"":2,""viewing_time"":20141}]",20
,,,,,,,,,,,,131498,,,131498,,,instructions,"[{""page_index"":0,""viewing_time"":46758},{""page_index"":1,""viewing_time"":48968},{""page_index"":2,""viewing_time"":35771}]",21
,,,,,,,,,,,,82799,,,82802,,,instructions,"[{""page_index"":0,""viewing_time"":31371},{""page_index"":1,""viewing_time"":32625},{""page_index"":2,""viewing_time"":18800}]",22
,,,,,,,,,,,,102874,,,102875,,,instructions,"[{""page_index"":0,""viewing_time"":21545},{""page_index"":1,""viewing_time"":6540},{""page_index"":2,""viewing_time"":57916},{""page_index"":1,""viewing_time"":15006},{""page_index"":2,""viewing_time"":1866}]",23
,,,,,,,,,,,,115348,,,115349,,,instructions,"[{""page_index"":0,""viewing_time"":33691},{""page_index"":1,""viewing_time"":12831},{""page_index"":2,""viewing_time"":49456},{""page_index"":1,""viewing_time"":15953},{""page_index"":2,""viewing_time"":3416}]",24
,,,,,,,,,,,,113262,,,297636,,,instructions,"[{""page_index"":0,""viewing_time"":9358},{""page_index"":1,""viewing_time"":36272},{""page_index"":2,""viewing_time"":21672},{""page_index"":1,""viewing_time"":27128},{""page_index"":0,""viewing_time"":14495},{""page_index"":1,""viewing_time"":2416},{""page_index"":2,""viewing_time"":1920}]",24
,,,,,,,,,,,,87943,,,87944,,,instructions,"[{""page_index"":0,""viewing_time"":32765},{""page_index"":1,""viewing_time"":35999},{""page_index"":2,""viewing_time"":19178}]",25
,,,,,,,,,,,,46814,,,160818,,,instructions,"[{""page_index"":0,""viewing_time"":7179},{""page_index"":1,""viewing_time"":15474},{""page_index"":2,""viewing_time"":10366},{""page_index"":1,""viewing_time"":6333},{""page_index"":0,""viewing_time"":6004},{""page_index"":1,""viewing_time"":682},{""page_index"":2,""viewing_time"":775}]",25
,,,,,,,,,,,,131603,,,131603,,,instructions,"[{""page_index"":0,""viewing_time"":43190},{""page_index"":1,""viewing_time"":26423},{""page_index"":2,""viewing_time"":61988}]",26
,,,,,,,,,,,,68079,,,68080,,,instructions,"[{""page_index"":0,""viewing_time"":27015},{""page_index"":1,""viewing_time"":28182},{""page_index"":2,""viewing_time"":12881}]",27
,,,,,,,,,,,,82311,,,82311,,,instructions,"[{""page_index"":0,""viewing_time"":39295},{""page_index"":1,""viewing_time"":23878},{""page_index"":2,""viewing_time"":19137}]",28
,,,,,,,,,,,,98084,,,98085,,,instructions,"[{""page_index"":0,""viewing_time"":55027},{""page_index"":1,""viewing_time"":20609},{""page_index"":2,""viewing_time"":22447}]",29
,,,,,,,,,,,,171976,,,171977,,,instructions,"[{""page_index"":0,""viewing_time"":22759},{""page_index"":1,""viewing_time"":12998},{""page_index"":2,""viewing_time"":136218}]",30
,,,,,,,,,,,,11947,,,199604,,,instructions,"[{""page_index"":0,""viewing_time"":6456},{""page_index"":1,""viewing_time"":3969},{""page_index"":2,""viewing_time"":1522}]",30
,,,,,,,,,,,,48192,,,48192,,,instructions,"[{""page_index"":0,""viewing_time"":15632},{""page_index"":1,""viewing_time"":18126},{""page_index"":2,""viewing_time"":14433}]",31
,,,,,,,,,,,,113173,,,113173,,,instructions,"[{""page_index"":0,""viewing_time"":67691},{""page_index"":1,""viewing_time"":33001},{""page_index"":2,""viewing_time"":12480}]",32
,,,,,,,,,,,,77553,,,77556,,,instructions,"[{""page_index"":0,""viewing_time"":55990},{""page_index"":1,""viewing_time"":15998},{""page_index"":2,""viewing_time"":5561}]",33
,,,,,,,,,,,,79977,,,202510,,,instructions,"[{""page_index"":0,""viewing_time"":33112},{""page_index"":1,""viewing_time"":31120},{""page_index"":2,""viewing_time"":15744}]",33
,,,,,,,,,,,,240753,,,240757,,,instructions,"[{""page_index"":0,""viewing_time"":81230},{""page_index"":1,""viewing_time"":77731},{""page_index"":2,""viewing_time"":60108},{""page_index"":1,""viewing_time"":18313},{""page_index"":2,""viewing_time"":3369}]",34
,,,,,,,,,,,,266827,,,266830,,,instructions,"[{""page_index"":0,""viewing_time"":18566},{""page_index"":1,""viewing_time"":19523},{""page_index"":2,""viewing_time"":228735}]",35
,,,,,,,,,,,,34612,,,459019,,,instructions,"[{""page_index"":0,""viewing_time"":16510},{""page_index"":1,""viewing_time"":7836},{""page_index"":2,""viewing_time"":10266}]",35
,,,,,,,,,,,,3652,,,479820,,,instructions,"[{""page_index"":0,""viewing_time"":1820},{""page_index"":1,""viewing_time"":912},{""page_index"":2,""viewing_time"":919}]",35
,,,,,,,,,,,,3280,,,500578,,,instructions,"[{""page_index"":0,""viewing_time"":1377},{""page_index"":1,""viewing_time"":888},{""page_index"":2,""viewing_time"":1015}]",35
,,,,,,,,,,,,27061,,,542992,,,instructions,"[{""page_index"":0,""viewing_time"":8207},{""page_index"":1,""viewing_time"":12515},{""page_index"":2,""viewing_time"":6338}]",35
,,,,,,,,,,,,262014,,,262016,,,instructions,"[{""page_index"":0,""viewing_time"":106360},{""page_index"":1,""viewing_time"":47781},{""page_index"":2,""viewing_time"":56151},{""page_index"":1,""viewing_time"":24185},{""page_index"":0,""viewing_time"":24309},{""page_index"":1,""viewing_time"":1040},{""page_index"":2,""viewing_time"":2180}]",36
,,,,,,,,,,,,186133,,,186134,,,instructions,"[{""page_index"":0,""viewing_time"":68081},{""page_index"":1,""viewing_time"":58200},{""page_index"":2,""viewing_time"":59851}]",37
,,,,,,,,,,,,77357,,,77358,,,instructions,"[{""page_index"":0,""viewing_time"":27843},{""page_index"":1,""viewing_time"":20828},{""page_index"":0,""viewing_time"":8108},{""page_index"":1,""viewing_time"":4534},{""page_index"":2,""viewing_time"":16043}]",38
,,,,,,,,,,,,36310,,,131340,,,instructions,"[{""page_index"":0,""viewing_time"":9405},{""page_index"":1,""viewing_time"":18120},{""page_index"":2,""viewing_time"":8784}]",38
,,,,,,,,,,,,15813,,,164541,,,instructions,"[{""page_index"":0,""viewing_time"":5539},{""page_index"":1,""viewing_time"":8713},{""page_index"":2,""viewing_time"":1560}]",38
,,,,,,,,,,,,6271,,,182892,,,instructions,"[{""page_index"":0,""viewing_time"":4342},{""page_index"":1,""viewing_time"":1056},{""page_index"":2,""viewing_time"":872}]",38
,,,,,,,,,,,,62340,,,62341,,,instructions,"[{""page_index"":0,""viewing_time"":15241},{""page_index"":1,""viewing_time"":19337},{""page_index"":2,""viewing_time"":27761}]",39
,,,,,,,,,,,,222551,,,222551,,,instructions,"[{""page_index"":0,""viewing_time"":38996},{""page_index"":1,""viewing_time"":140124},{""page_index"":2,""viewing_time"":43430}]",40
,,,,,,,,,,,,99152,,,99154,,,instructions,"[{""page_index"":0,""viewing_time"":30583},{""page_index"":1,""viewing_time"":7121},{""page_index"":0,""viewing_time"":3072},{""page_index"":1,""viewing_time"":7661},{""page_index"":2,""viewing_time"":2080},{""page_index"":1,""viewing_time"":28081},{""page_index"":2,""viewing_time"":2093},{""page_index"":1,""viewing_time"":1440},{""page_index"":2,""viewing_time"":17021}]",41
,,,,,,,,,,,,56817,,,56817,,,instructions,"[{""page_index"":0,""viewing_time"":31553},{""page_index"":1,""viewing_time"":15399},{""page_index"":2,""viewing_time"":9864}]",42
,,,,,,,,,,,,90780,,,90782,,,instructions,"[{""page_index"":0,""viewing_time"":43422},{""page_index"":1,""viewing_time"":22489},{""page_index"":2,""viewing_time"":24868}]",43
,,,,,,,,,,,,166258,,,166260,,,instructions,"[{""page_index"":0,""viewing_time"":67150},{""page_index"":1,""viewing_time"":60426},{""page_index"":2,""viewing_time"":38681}]",44
