action_times,actions,button_pressed,correct,delays,information_used_correctly,path,planned_too_little,planned_too_much,queries,questions,responses,rt,score,stimulus,time_elapsed,trial_index,trial_i,trial_type,view_history,pid
"[2542, 13914, 17140]","[u'left', u'left', u'up']",,,"[None, None, None]","[True, True, True]","[u'1', 4, 8, 14]","[False, False, False]","[False, False, False]","{u'mouseover': {u'state': {u'target': [], u'time': []}, u'edge': {u'target': [], u'time': []}}, u'click': {u'state': {u'target': [], u'time': []}, u'edge': {u'target': [], u'time': []}}, u'mouseout': {u'state': {u'target': [], u'time': []}, u'edge': {u'target': [], u'time': []}}}",,,"[2542, 3, 2369]",15.0,,150399,1.0,4.0,mouselab-mdp,,0
"[4369, 15588, 45152]","[u'up', u'up', u'right']",,,"[None, None, None]","[True, True, True]","[u'1', 3, 7, 13]","[False, False, False]","[False, False, False]","{u'mouseover': {u'state': {u'target': [], u'time': []}, u'edge': {u'target': [], u'time': []}}, u'click': {u'state': {u'target': [], u'time': []}, u'edge': {u'target': [], u'time': []}}, u'mouseout': {u'state': {u'target': [], u'time': []}, u'edge': {u'target': [], u'time': []}}}",,,"[4369, 4, 28747]",12.0,,209197,2.0,5.0,mouselab-mdp,,0
"[2753, 13749, 15554]","[u'down', u'down', u'right']",,,"[None, None, None]","[True, True, True]","[u'1', 5, 9, 17]","[False, False, False]","[False, False, False]","{u'mouseover': {u'state': {u'target': [], u'time': []}, u'edge': {u'target': [], u'time': []}}, u'click': {u'state': {u'target': [], u'time': []}, u'edge': {u'target': [], u'time': []}}, u'mouseout': {u'state': {u'target': [], u'time': []}, u'edge': {u'target': [], u'time': []}}}",,,"[2753, 6, 995]",16.0,,304227,3.0,11.0,mouselab-mdp,,0
"[4117, 16597, 20917]","[u'right', u'right', u'up']",,,"[None, None, None]","[True, True, True]","[u'1', 2, 6, 10]","[False, False, False]","[False, False, False]","{u'mouseover': {u'state': {u'target': [], u'time': []}, u'edge': {u'target': [], u'time': []}}, u'click': {u'state': {u'target': [], u'time': []}, u'edge': {u'target': [], u'time': []}}, u'mouseout': {u'state': {u'target': [], u'time': []}, u'edge': {u'target': [], u'time': []}}}",,,"[4117, 2243, 3513]",15.0,,366917,4.0,1.0,mouselab-mdp,,0
"[20494, 33324, 37138]","[u'left', u'left', u'down']",,,"[None, None, None]","[True, True, True]","[u'1', 4, 8, 15]","[False, False, False]","[False, False, False]","{u'mouseover': {u'state': {u'target': [], u'time': []}, u'edge': {u'target': [], u'time': []}}, u'click': {u'state': {u'target': [], u'time': []}, u'edge': {u'target': [], u'time': []}}, u'mouseout': {u'state': {u'target': [], u'time': []}, u'edge': {u'target': [], u'time': []}}}",,,"[20494, 2253, 2987]",5.0,,425139,5.0,10.0,mouselab-mdp,,0
"[2578, 14698, 17513]","[u'down', u'down', u'right']",,,"[None, None, None]","[True, True, True]","[u'1', 5, 9, 17]","[False, False, False]","[False, False, False]","{u'mouseover': {u'state': {u'target': [], u'time': []}, u'edge': {u'target': [], u'time': []}}, u'click': {u'state': {u'target': [], u'time': []}, u'edge': {u'target': [], u'time': []}}, u'mouseout': {u'state': {u'target': [], u'time': []}, u'edge': {u'target': [], u'time': []}}}",,,"[2578, 1649, 2006]",14.0,,482633,6.0,2.0,mouselab-mdp,,0
"[3270, 15324, 18004]","[u'up', u'up', u'right']",,,"[None, None, None]","[True, True, True]","[u'1', 3, 7, 13]","[False, False, False]","[False, False, False]","{u'mouseover': {u'state': {u'target': [], u'time': []}, u'edge': {u'target': [], u'time': []}}, u'click': {u'state': {u'target': [], u'time': []}, u'edge': {u'target': [], u'time': []}}, u'mouseout': {u'state': {u'target': [], u'time': []}, u'edge': {u'target': [], u'time': []}}}",,,"[3269, 1877, 1868]",13.0,,552553,7.0,0.0,mouselab-mdp,,0
"[8167, 26757, 38052]","[u'left', u'left', u'down']",,,"[None, None, None]","[True, True, True]","[u'1', 4, 8, 15]","[False, False, False]","[False, False, False]","{u'mouseover': {u'state': {u'target': [], u'time': []}, u'edge': {u'target': [], u'time': []}}, u'click': {u'state': {u'target': [], u'time': []}, u'edge': {u'target': [], u'time': []}}, u'mouseout': {u'state': {u'target': [], u'time': []}, u'edge': {u'target': [], u'time': []}}}",,,"[8167, 8394, 10489]",6.0,,609069,8.0,14.0,mouselab-mdp,,0
"[2471, 14634, 23721]","[u'right', u'right', u'down']",,,"[None, None, None]","[True, True, True]","[u'1', 2, 6, 11]","[False, False, False]","[False, False, False]","{u'mouseover': {u'state': {u'target': [], u'time': []}, u'edge': {u'target': [], u'time': []}}, u'click': {u'state': {u'target': [], u'time': []}, u'edge': {u'target': [], u'time': []}}, u'mouseout': {u'state': {u'target': [], u'time': []}, u'edge': {u'target': [], u'time': []}}}",,,"[2471, 2092, 8284]",17.0,,668541,9.0,7.0,mouselab-mdp,,0
"[8359, 35924, 38214]","[u'down', u'down', u'left']",,,"[None, None, None]","[True, True, True]","[u'1', 5, 9, 16]","[False, False, False]","[False, False, False]","{u'mouseover': {u'state': {u'target': [], u'time': []}, u'edge': {u'target': [], u'time': []}}, u'click': {u'state': {u'target': [], u'time': []}, u'edge': {u'target': [], u'time': []}}, u'mouseout': {u'state': {u'target': [], u'time': []}, u'edge': {u'target': [], u'time': []}}}",,,"[8358, 17206, 1478]",14.0,,726623,10.0,12.0,mouselab-mdp,,0
"[3765, 7693, 9948]","[u'down', u'down', u'right']",,,[],[],"[u'1', 5, 9, 17]",[],[],"{u'mouseover': {u'state': {u'target': [], u'time': []}, u'edge': {u'target': [], u'time': []}}, u'click': {u'state': {u'target': [], u'time': []}, u'edge': {u'target': [], u'time': []}}, u'mouseout': {u'state': {u'target': [], u'time': []}, u'edge': {u'target': [], u'time': []}}}",,,"[3765, 3425, 1748]",14.0,,774119,11.0,13.0,mouselab-mdp,,0
"[3626, 5650, 8746]","[u'right', u'right', u'down']",,,[],[],"[u'1', 2, 6, 11]",[],[],"{u'mouseover': {u'state': {u'target': [], u'time': []}, u'edge': {u'target': [], u'time': []}}, u'click': {u'state': {u'target': [], u'time': []}, u'edge': {u'target': [], u'time': []}}, u'mouseout': {u'state': {u'target': [], u'time': []}, u'edge': {u'target': [], u'time': []}}}",,,"[3626, 1508, 2587]",11.0,,824739,12.0,6.0,mouselab-mdp,,0
"[2374, 4238, 6733]","[u'up', u'up', u'left']",,,[],[],"[u'1', 3, 7, 12]",[],[],"{u'mouseover': {u'state': {u'target': [], u'time': []}, u'edge': {u'target': [], u'time': []}}, u'click': {u'state': {u'target': [], u'time': []}, u'edge': {u'target': [], u'time': []}}, u'mouseout': {u'state': {u'target': [], u'time': []}, u'edge': {u'target': [], u'time': []}}}",,,"[2374, 1348, 1977]",9.0,,890958,13.0,9.0,mouselab-mdp,,0
"[4539, 5627, 21459]","[u'left', u'left', u'down']",,,[],[],"[u'1', 4, 8, 15]",[],[],"{u'mouseover': {u'state': {u'target': [], u'time': []}, u'edge': {u'target': [], u'time': []}}, u'click': {u'state': {u'target': [u'14', u'15'], u'time': [10271, 11706]}, u'edge': {u'target': [], u'time': []}}, u'mouseout': {u'state': {u'target': [], u'time': []}, u'edge': {u'target': [], u'time': []}}}",,,"[4539, 579, 15329]",14.0,,939804,14.0,15.0,mouselab-mdp,,0
"[1303, 2783, 8167]","[u'up', u'up', u'right']",,,[],[],"[u'1', 3, 7, 13]",[],[],"{u'mouseover': {u'state': {u'target': [], u'time': []}, u'edge': {u'target': [], u'time': []}}, u'click': {u'state': {u'target': [u'13', u'12'], u'time': [5838, 6804]}, u'edge': {u'target': [], u'time': []}}, u'mouseout': {u'state': {u'target': [], u'time': []}, u'edge': {u'target': [], u'time': []}}}",,,"[1303, 966, 4867]",13.0,,1004920,15.0,8.0,mouselab-mdp,,0
"[3747, 7147, 8595]","[u'right', u'right', u'down']",,,[],[],"[u'1', 2, 6, 11]",[],[],"{u'mouseover': {u'state': {u'target': [], u'time': []}, u'edge': {u'target': [], u'time': []}}, u'click': {u'state': {u'target': [], u'time': []}, u'edge': {u'target': [], u'time': []}}, u'mouseout': {u'state': {u'target': [], u'time': []}, u'edge': {u'target': [], u'time': []}}}",,,"[3747, 2891, 941]",14.0,,1052494,16.0,3.0,mouselab-mdp,,0
"[7105, 43715, 170545]","[u'right', u'right', u'down']",,,"[None, None, None]","[True, True, True]","[u'1', 2, 6, 11]","[False, False, False]","[False, False, False]","{u'mouseover': {u'state': {u'target': [], u'time': []}, u'edge': {u'target': [], u'time': []}}, u'click': {u'state': {u'target': [u'6', u'10', u'7', u'11'], u'time': [43822, 44005, 44151, 65284]}, u'edge': {u'target': [], u'time': []}}, u'mouseout': {u'state': {u'target': [], u'time': []}, u'edge': {u'target': [], u'time': []}}}",,,"[7103, 5, 121694]",11.0,,371311,1.0,11.0,mouselab-mdp,,1
"[10738, 62784, 2655273]","[u'down', u'down', u'right']",,,"[None, None, None]","[True, True, True]","[u'1', 5, 9, 17]","[False, False, False]","[False, False, False]","{u'mouseover': {u'state': {u'target': [], u'time': []}, u'edge': {u'target': [], u'time': []}}, u'click': {u'state': {u'target': [u'16', u'9', u'17'], u'time': [47780, 60737, 81696]}, u'edge': {u'target': [], u'time': []}}, u'mouseout': {u'state': {u'target': [], u'time': []}, u'edge': {u'target': [], u'time': []}}}",,,"[10738, 15077, 2588993]",12.0,,5121843,2.0,3.0,mouselab-mdp,,1
"[13660, 51684, 68129]","[u'up', u'up', u'right']",,,"[None, None, None]","[True, True, True]","[u'1', 3, 7, 13]","[False, False, False]","[True, False, True]","{u'mouseover': {u'state': {u'target': [], u'time': []}, u'edge': {u'target': [], u'time': []}}, u'click': {u'state': {u'target': [u'7', u'13', u'12'], u'time': [7118, 63096, 65541]}, u'edge': {u'target': [], u'time': []}}, u'mouseout': {u'state': {u'target': [], u'time': []}, u'edge': {u'target': [], u'time': []}}}",,,"[13660, 3, 8908]",7.0,,5229733,3.0,9.0,mouselab-mdp,,1
"[8511, 80356, 86767]","[u'right', u'right', u'down']",,,"[None, None, None]","[True, True, True]","[u'1', 2, 6, 11]","[False, False, False]","[True, False, False]","{u'mouseover': {u'state': {u'target': [], u'time': []}, u'edge': {u'target': [], u'time': []}}, u'click': {u'state': {u'target': [u'13', u'11', u'17', u'14'], u'time': [957, 2069, 4205, 6218]}, u'edge': {u'target': [], u'time': []}}, u'mouseout': {u'state': {u'target': [], u'time': []}, u'edge': {u'target': [], u'time': []}}}",,,"[8510, 29753, 4790]",11.0,,5390711,4.0,4.0,mouselab-mdp,,1
"[34523, 77004, 79627]","[u'left', u'left', u'up']",,,"[None, None, None]","[True, True, True]","[u'1', 4, 8, 14]","[False, False, False]","[True, False, False]","{u'mouseover': {u'state': {u'target': [], u'time': []}, u'edge': {u'target': [], u'time': []}}, u'click': {u'state': {u'target': [u'2', u'10', u'3', u'4', u'14', u'12', u'5', u'16', u'15'], u'time': [3197, 7735, 9809, 13416, 17349, 19892, 24698, 26802, 75336]}, u'edge': {u'target': [], u'time': []}}, u'mouseout': {u'state': {u'target': [], u'time': []}, u'edge': {u'target': [], u'time': []}}}",,,"[34523, 2772, 495]",7.0,,5480492,5.0,1.0,mouselab-mdp,,1
"[656, 49766, 60519]","[u'down', u'down', u'left']",,,"[None, None, None]","[True, True, True]","[u'1', 5, 9, 16]","[False, False, False]","[False, False, True]","{u'mouseover': {u'state': {u'target': [], u'time': []}, u'edge': {u'target': [], u'time': []}}, u'click': {u'state': {u'target': [u'16', u'17'], u'time': [37388, 59084]}, u'edge': {u'target': [], u'time': []}}, u'mouseout': {u'state': {u'target': [], u'time': []}, u'edge': {u'target': [], u'time': []}}}",,,"[655, 12447, 7978]",4.0,,5721297,6.0,10.0,mouselab-mdp,,1
"[38607, 82444, 84629]","[u'up', u'up', u'right']",,,"[None, None, None]","[True, True, True]","[u'1', 3, 7, 13]","[False, False, False]","[True, False, False]","{u'mouseover': {u'state': {u'target': [], u'time': []}, u'edge': {u'target': [], u'time': []}}, u'click': {u'state': {u'target': [u'7', u'3', u'12', u'8', u'6', u'2', u'10', u'9', u'5', u'17', u'16', u'13'], u'time': [3929, 4911, 6910, 12127, 14584, 15857, 19511, 25382, 26650, 27825, 34367, 81846]}, u'edge': {u'target': [], u'time': []}}, u'mouseout': {u'state': {u'target': [], u'time': []}, u'edge': {u'target': [], u'time': []}}}",,,"[38607, 2051, 518]",3.0,,5815516,7.0,8.0,mouselab-mdp,,1
"[15111, 56520, 154650]","[u'right', u'right', u'up']",,,"[None, None, None]","[True, True, True]","[u'1', 2, 6, 10]","[True, False, False]","[True, False, True]","{u'mouseover': {u'state': {u'target': [], u'time': []}, u'edge': {u'target': [], u'time': []}}, u'click': {u'state': {u'target': [u'7', u'6', u'5', u'4', u'14', u'15', u'3', u'13', u'2', u'10', u'11'], u'time': [645, 1448, 3023, 4165, 5775, 7249, 9380, 10789, 12822, 62817, 63965]}, u'edge': {u'target': [], u'time': []}}, u'mouseout': {u'state': {u'target': [], u'time': []}, u'edge': {u'target': [], u'time': []}}}",,,"[15111, 1884, 96519]",3.0,,5980077,8.0,12.0,mouselab-mdp,,1
"[6895, 49988, 66147]","[u'up', u'up', u'right']",,,"[None, None, None]","[True, True, True]","[u'1', 3, 7, 13]","[True, False, False]","[True, False, True]","{u'mouseover': {u'state': {u'target': [], u'time': []}, u'edge': {u'target': [], u'time': []}}, u'click': {u'state': {u'target': [u'3', u'7', u'13', u'12'], u'time': [2144, 47707, 54007, 55349]}, u'edge': {u'target': [], u'time': []}}, u'mouseout': {u'state': {u'target': [], u'time': []}, u'edge': {u'target': [], u'time': []}}}",,,"[6895, 4760, 13721]",12.0,,6100276,9.0,15.0,mouselab-mdp,,1
"[39049, 79159, 80861]","[u'right', u'right', u'up']",,,"[None, None, None]","[True, True, True]","[u'1', 2, 6, 10]","[False, False, False]","[True, False, False]","{u'mouseover': {u'state': {u'target': [], u'time': []}, u'edge': {u'target': [], u'time': []}}, u'click': {u'state': {u'target': [u'13', u'3', u'7', u'4', u'14', u'15', u'5', u'16', u'17', u'2', u'6', u'10'], u'time': [5009, 6724, 8693, 21349, 23366, 24635, 27115, 28227, 29682, 31659, 32891, 33736]}, u'edge': {u'target': [], u'time': []}}, u'mouseout': {u'state': {u'target': [], u'time': []}, u'edge': {u'target': [], u'time': []}}}",,,"[39049, 6, 41]",4.0,,6197689,10.0,7.0,mouselab-mdp,,1
"[8929, 17392, 20591]","[u'right', u'right', u'down']",,,[],[],"[u'1', 2, 6, 11]",[],[],"{u'mouseover': {u'state': {u'target': [], u'time': []}, u'edge': {u'target': [], u'time': []}}, u'click': {u'state': {u'target': [u'3', u'4', u'5', u'2', u'10', u'11'], u'time': [3114, 4284, 5648, 6578, 12100, 13353]}, u'edge': {u'target': [], u'time': []}}, u'mouseout': {u'state': {u'target': [], u'time': []}, u'edge': {u'target': [], u'time': []}}}",,,"[8929, 7867, 2594]",8.0,,6283486,11.0,13.0,mouselab-mdp,,1
"[17918, 19475, 55698]","[u'down', u'down', u'right']",,,[],[],"[u'1', 5, 9, 17]",[],[],"{u'mouseover': {u'state': {u'target': [], u'time': []}, u'edge': {u'target': [], u'time': []}}, u'click': {u'state': {u'target': [u'3', u'2', u'5', u'4', u'9', u'17', u'16'], u'time': [2331, 7928, 10043, 11262, 14569, 23361, 24820]}, u'edge': {u'target': [], u'time': []}}, u'mouseout': {u'state': {u'target': [], u'time': []}, u'edge': {u'target': [], u'time': []}}}",,,"[17917, 883, 35622]",5.0,,6345150,12.0,5.0,mouselab-mdp,,1
"[6465, 8729, 10257]","[u'up', u'up', u'left']",,,[],[],"[u'1', 3, 7, 12]",[],[],"{u'mouseover': {u'state': {u'target': [], u'time': []}, u'edge': {u'target': [], u'time': []}}, u'click': {u'state': {u'target': [u'12', u'15', u'16', u'11'], u'time': [1192, 2515, 3593, 4762]}, u'edge': {u'target': [], u'time': []}}, u'mouseout': {u'state': {u'target': [], u'time': []}, u'edge': {u'target': [], u'time': []}}}",,,"[6465, 1641, 945]",4.0,,6444503,13.0,14.0,mouselab-mdp,,1
"[8482, 11049, 12928]","[u'left', u'left', u'up']",,,[],[],"[u'1', 4, 8, 14]",[],[],"{u'mouseover': {u'state': {u'target': [], u'time': []}, u'edge': {u'target': [], u'time': []}}, u'click': {u'state': {u'target': [u'12', u'14', u'4'], u'time': [4376, 5359, 6842]}, u'edge': {u'target': [], u'time': []}}, u'mouseout': {u'state': {u'target': [], u'time': []}, u'edge': {u'target': [], u'time': []}}}",,,"[8482, 1847, 1234]",9.0,,6497397,14.0,0.0,mouselab-mdp,,1
"[8842, 18142, 23879]","[u'up', u'up', u'right']",,,"[None, None, None]","[True, True, True]","[u'1', 3, 7, 13]","[True, False, False]","[True, False, True]","{u'mouseover': {u'state': {u'target': [], u'time': []}, u'edge': {u'target': [], u'time': []}}, u'click': {u'state': {u'target': [u'2', u'3', u'7', u'12'], u'time': [2293, 6539, 16033, 21755]}, u'edge': {u'target': [], u'time': []}}, u'mouseout': {u'state': {u'target': [], u'time': []}, u'edge': {u'target': [], u'time': []}}}",,,"[8842, 2115, 4812]",6.0,,175920,1.0,6.0,mouselab-mdp,,2
"[8447, 15451, 20704]","[u'left', u'left', u'up']",,,"[None, None, None]","[False, True, True]","[u'1', 4, 8, 14]","[False, False, False]","[True, False, True]","{u'mouseover': {u'state': {u'target': [], u'time': []}, u'edge': {u'target': [], u'time': []}}, u'click': {u'state': {u'target': [u'4', u'5', u'8', u'15'], u'time': [3024, 7222, 15454, 19444]}, u'edge': {u'target': [], u'time': []}}, u'mouseout': {u'state': {u'target': [], u'time': []}, u'edge': {u'target': [], u'time': []}}}",,,"[8447, 3, 4354]",11.0,,239219,2.0,2.0,mouselab-mdp,,2
"[9185, 15997, 18441]","[u'left', u'left', u'up']",,,"[None, None, None]","[True, True, True]","[u'1', 4, 8, 14]","[False, False, False]","[True, False, False]","{u'mouseover': {u'state': {u'target': [], u'time': []}, u'edge': {u'target': [], u'time': []}}, u'click': {u'state': {u'target': [u'13', u'16', u'11', u'14'], u'time': [2593, 4460, 6439, 7921]}, u'edge': {u'target': [], u'time': []}}, u'mouseout': {u'state': {u'target': [], u'time': []}, u'edge': {u'target': [], u'time': []}}}",,,"[9185, 194, 1781]",11.0,,292393,3.0,3.0,mouselab-mdp,,2
"[12905, 19322, 22667]","[u'down', u'down', u'right']",,,"[None, None, None]","[True, True, True]","[u'1', 5, 9, 17]","[False, False, False]","[True, False, False]","{u'mouseover': {u'state': {u'target': [], u'time': []}, u'edge': {u'target': [], u'time': []}}, u'click': {u'state': {u'target': [u'14', u'11', u'13', u'17', u'9'], u'time': [1773, 4242, 5798, 7386, 8940]}, u'edge': {u'target': [], u'time': []}}, u'mouseout': {u'state': {u'target': [], u'time': []}, u'edge': {u'target': [], u'time': []}}}",,,"[12905, 3, 2552]",11.0,,347985,4.0,1.0,mouselab-mdp,,2
"[17401, 23850, 26814]","[u'left', u'left', u'up']",,,"[None, None, None]","[True, True, True]","[u'1', 4, 8, 14]","[True, False, False]","[True, False, False]","{u'mouseover': {u'state': {u'target': [], u'time': []}, u'edge': {u'target': [], u'time': []}}, u'click': {u'state': {u'target': [u'16', u'10', u'14'], u'time': [1790, 3197, 4130]}, u'edge': {u'target': [], u'time': []}}, u'mouseout': {u'state': {u'target': [], u'time': []}, u'edge': {u'target': [], u'time': []}}}",,,"[17401, 2, 2275]",9.0,,414385,5.0,0.0,mouselab-mdp,,2
"[21776, 28489, 29736]","[u'up', u'up', u'right']",,,"[None, None, None]","[False, True, True]","[u'1', 3, 7, 13]","[False, False, False]","[True, False, False]","{u'mouseover': {u'state': {u'target': [], u'time': []}, u'edge': {u'target': [], u'time': []}}, u'click': {u'state': {u'target': [u'15', u'13', u'3', u'7', u'11', u'17'], u'time': [2793, 4273, 5639, 6834, 15743, 18279]}, u'edge': {u'target': [], u'time': []}}, u'mouseout': {u'state': {u'target': [], u'time': []}, u'edge': {u'target': [], u'time': []}}}",,,"[21776, 7, 592]",6.0,,479524,6.0,5.0,mouselab-mdp,,2
"[12740, 20740, 22474]","[u'right', u'right', u'down']",,,"[None, None, None]","[True, True, True]","[u'1', 2, 6, 11]","[True, False, False]","[True, False, False]","{u'mouseover': {u'state': {u'target': [], u'time': []}, u'edge': {u'target': [], u'time': []}}, u'click': {u'state': {u'target': [u'13', u'16', u'11', u'6'], u'time': [4910, 6218, 7430, 9917]}, u'edge': {u'target': [], u'time': []}}, u'mouseout': {u'state': {u'target': [], u'time': []}, u'edge': {u'target': [], u'time': []}}}",,,"[12739, 1519, 1059]",1.0,,534930,7.0,10.0,mouselab-mdp,,2
"[17824, 25522, 26737]","[u'down', u'down', u'right']",,,"[None, None, None]","[False, True, True]","[u'1', 5, 9, 17]","[False, False, False]","[True, False, False]","{u'mouseover': {u'state': {u'target': [], u'time': []}, u'edge': {u'target': [], u'time': []}}, u'click': {u'state': {u'target': [u'2', u'3', u'13', u'12', u'5', u'17', u'9'], u'time': [1241, 3606, 5397, 8909, 13517, 14490, 15660]}, u'edge': {u'target': [], u'time': []}}, u'mouseout': {u'state': {u'target': [], u'time': []}, u'edge': {u'target': [], u'time': []}}}",,,"[17824, 609, 545]",10.0,,589179,8.0,15.0,mouselab-mdp,,2
"[11103, 18247, 20127]","[u'down', u'down', u'left']",,,"[None, None, None]","[False, True, True]","[u'1', 5, 9, 16]","[False, False, False]","[True, False, False]","{u'mouseover': {u'state': {u'target': [], u'time': []}, u'edge': {u'target': [], u'time': []}}, u'click': {u'state': {u'target': [u'4', u'15', u'11', u'13', u'16', u'5', u'9'], u'time': [1158, 2656, 3761, 4775, 6838, 8573, 9972]}, u'edge': {u'target': [], u'time': []}}, u'mouseout': {u'state': {u'target': [], u'time': []}, u'edge': {u'target': [], u'time': []}}}",,,"[11102, 10, 1197]",7.0,,652310,9.0,12.0,mouselab-mdp,,2
"[17441, 24952, 26917]","[u'right', u'right', u'down']",,,"[None, None, None]","[False, True, True]","[u'1', 2, 6, 11]","[False, False, False]","[True, False, False]","{u'mouseover': {u'state': {u'target': [], u'time': []}, u'edge': {u'target': [], u'time': []}}, u'click': {u'state': {u'target': [u'4', u'13', u'11', u'2', u'6'], u'time': [2661, 4420, 5443, 7881, 10943]}, u'edge': {u'target': [], u'time': []}}, u'mouseout': {u'state': {u'target': [], u'time': []}, u'edge': {u'target': [], u'time': []}}}",,,"[17441, 576, 1297]",5.0,,714639,10.0,9.0,mouselab-mdp,,2
"[16670, 19373, 21558]","[u'left', u'left', u'down']",,,[],[],"[u'1', 4, 8, 15]",[],[],"{u'mouseover': {u'state': {u'target': [], u'time': []}, u'edge': {u'target': [], u'time': []}}, u'click': {u'state': {u'target': [u'2', u'11', u'10', u'15', u'4'], u'time': [5627, 7377, 10790, 12336, 14816]}, u'edge': {u'target': [], u'time': []}}, u'mouseout': {u'state': {u'target': [], u'time': []}, u'edge': {u'target': [], u'time': []}}}",,,"[16670, 2166, 1667]",10.0,,764493,11.0,11.0,mouselab-mdp,,2
"[9456, 10582, 11671]","[u'left', u'left', u'down']",,,[],[],"[u'1', 4, 8, 15]",[],[],"{u'mouseover': {u'state': {u'target': [], u'time': []}, u'edge': {u'target': [], u'time': []}}, u'click': {u'state': {u'target': [u'11', u'10', u'15', u'4'], u'time': [3306, 4984, 6572, 8159]}, u'edge': {u'target': [], u'time': []}}, u'mouseout': {u'state': {u'target': [], u'time': []}, u'edge': {u'target': [], u'time': []}}}",,,"[9456, 576, 581]",10.0,,815139,12.0,8.0,mouselab-mdp,,2
"[7498, 8451, 9407]","[u'up', u'up', u'right']",,,[],[],"[u'1', 3, 7, 13]",[],[],"{u'mouseover': {u'state': {u'target': [], u'time': []}, u'edge': {u'target': [], u'time': []}}, u'click': {u'state': {u'target': [u'17', u'13', u'3'], u'time': [1758, 2994, 4213]}, u'edge': {u'target': [], u'time': []}}, u'mouseout': {u'state': {u'target': [], u'time': []}, u'edge': {u'target': [], u'time': []}}}",,,"[7498, 438, 445]",13.0,,868819,13.0,7.0,mouselab-mdp,,2
"[8797, 10386, 11842]","[u'right', u'right', u'down']",,,[],[],"[u'1', 2, 6, 11]",[],[],"{u'mouseover': {u'state': {u'target': [], u'time': []}, u'edge': {u'target': [], u'time': []}}, u'click': {u'state': {u'target': [u'13', u'3', u'15', u'11'], u'time': [1834, 2751, 5983, 7635]}, u'edge': {u'target': [], u'time': []}}, u'mouseout': {u'state': {u'target': [], u'time': []}, u'edge': {u'target': [], u'time': []}}}",,,"[8797, 1086, 940]",10.0,,917312,14.0,13.0,mouselab-mdp,,2
"[15939, 17733, 19646]","[u'down', u'down', u'left']",,,[],[],"[u'1', 5, 9, 16]",[],[],"{u'mouseover': {u'state': {u'target': [], u'time': []}, u'edge': {u'target': [], u'time': []}}, u'click': {u'state': {u'target': [u'13', u'3', u'7', u'16'], u'time': [2002, 2894, 9452, 13897]}, u'edge': {u'target': [], u'time': []}}, u'mouseout': {u'state': {u'target': [], u'time': []}, u'edge': {u'target': [], u'time': []}}}",,,"[15938, 1256, 1403]",3.0,,972985,15.0,14.0,mouselab-mdp,,2
"[11623, 13364, 14389]","[u'right', u'right', u'down']",,,[],[],"[u'1', 2, 6, 11]",[],[],"{u'mouseover': {u'state': {u'target': [], u'time': []}, u'edge': {u'target': [], u'time': []}}, u'click': {u'state': {u'target': [u'13', u'11', u'2', u'6'], u'time': [4965, 5954, 8319, 10635]}, u'edge': {u'target': [], u'time': []}}, u'mouseout': {u'state': {u'target': [], u'time': []}, u'edge': {u'target': [], u'time': []}}}",,,"[11623, 1207, 515]",11.0,,1020716,16.0,4.0,mouselab-mdp,,2
"[22124, 33281, 34251]","[u'left', u'left', u'up']",,,"[None, None, None]","[False, True, True]","[u'1', 4, 8, 14]","[False, False, False]","[True, False, False]","{u'mouseover': {u'state': {u'target': [], u'time': []}, u'edge': {u'target': [], u'time': []}}, u'click': {u'state': {u'target': [u'4', u'8', u'15', u'14', u'12', u'7', u'13', u'3', u'10', u'6', u'2', u'11', u'5', u'9', u'17', u'16'], u'time': [2150, 3505, 4120, 4900, 5439, 6108, 6598, 7292, 7798, 8300, 8672, 9178, 9763, 10223, 10746, 11423]}, u'edge': {u'target': [], u'time': []}}, u'mouseout': {u'state': {u'target': [], u'time': []}, u'edge': {u'target': [], u'time': []}}}",,,"[22123, 3, 448]",-5.0,,150274,1.0,6.0,mouselab-mdp,,3
"[14646, 26405, 27516]","[u'down', u'down', u'right']",,,"[None, None, None]","[True, True, True]","[u'1', 5, 9, 17]","[False, False, False]","[True, False, False]","{u'mouseover': {u'state': {u'target': [], u'time': []}, u'edge': {u'target': [], u'time': []}}, u'click': {u'state': {u'target': [u'2', u'3', u'7', u'13', u'12', u'4', u'5', u'9', u'17', u'16'], u'time': [2176, 3134, 4562, 5364, 6066, 7812, 8444, 9472, 10502, 11772]}, u'edge': {u'target': [], u'time': []}}, u'mouseout': {u'state': {u'target': [], u'time': []}, u'edge': {u'target': [], u'time': []}}}",,,"[14646, 4, 420]",7.0,,208077,2.0,15.0,mouselab-mdp,,3
"[6785, 18381, 19172]","[u'right', u'right', u'up']",,,"[None, None, None]","[False, True, True]","[u'1', 2, 6, 10]","[False, False, False]","[True, False, False]","{u'mouseover': {u'state': {u'target': [], u'time': []}, u'edge': {u'target': [], u'time': []}}, u'click': {u'state': {u'target': [u'3', u'2', u'6', u'10', u'11'], u'time': [1095, 2069, 3043, 3814, 4463]}, u'edge': {u'target': [], u'time': []}}, u'mouseout': {u'state': {u'target': [], u'time': []}, u'edge': {u'target': [], u'time': []}}}",,,"[6785, 4, 20]",10.0,,272371,3.0,8.0,mouselab-mdp,,3
"[33461, 44106, 45126]","[u'down', u'down', u'right']",,,"[None, None, None]","[False, True, True]","[u'1', 5, 9, 17]","[True, False, False]","[True, False, False]","{u'mouseover': {u'state': {u'target': [], u'time': []}, u'edge': {u'target': [], u'time': []}}, u'click': {u'state': {u'target': [u'4', u'8', u'14', u'15', u'5', u'9', u'16', u'17', u'2', u'6', u'10', u'11'], u'time': [1199, 2052, 2845, 3552, 5174, 6008, 6484, 8042, 10202, 11116, 11628, 12260]}, u'edge': {u'target': [], u'time': []}}, u'mouseout': {u'state': {u'target': [], u'time': []}, u'edge': {u'target': [], u'time': []}}}",,,"[33461, 3, 413]",2.0,,330242,4.0,13.0,mouselab-mdp,,3
"[36008, 48191, 48956]","[u'down', u'down', u'left']",,,"[None, None, None]","[True, True, True]","[u'1', 5, 9, 16]","[False, False, False]","[True, False, False]","{u'mouseover': {u'state': {u'target': [], u'time': []}, u'edge': {u'target': [], u'time': []}}, u'click': {u'state': {u'target': [u'3', u'4', u'2', u'5', u'9', u'17', u'16', u'6', u'10', u'11', u'8', u'14'], u'time': [1647, 2699, 4086, 4655, 5863, 6322, 7157, 7990, 8512, 10331, 12288, 12911]}, u'edge': {u'target': [], u'time': []}}, u'mouseout': {u'state': {u'target': [], u'time': []}, u'edge': {u'target': [], u'time': []}}}",,,"[36008, 3, 92]",1.0,,389091,5.0,0.0,mouselab-mdp,,3
"[13956, 26725, 27524]","[u'up', u'up', u'right']",,,"[None, None, None]","[False, True, True]","[u'1', 3, 7, 13]","[False, False, False]","[True, False, False]","{u'mouseover': {u'state': {u'target': [], u'time': []}, u'edge': {u'target': [], u'time': []}}, u'click': {u'state': {u'target': [u'4', u'8', u'14', u'15', u'2', u'6', u'10', u'5', u'9', u'17', u'3', u'7', u'13'], u'time': [613, 1432, 1938, 2726, 3848, 4720, 5298, 6164, 6654, 7020, 9633, 10186, 11192]}, u'edge': {u'target': [], u'time': []}}, u'mouseout': {u'state': {u'target': [], u'time': []}, u'edge': {u'target': [], u'time': []}}}",,,"[13956, 3, 60]",-5.0,,447648,6.0,14.0,mouselab-mdp,,3
"[849, 12894, 13821]","[u'down', u'down', u'left']",,,"[None, None, None]","[True, True, True]","[u'1', 5, 9, 16]","[False, False, False]","[False, False, False]","{u'mouseover': {u'state': {u'target': [], u'time': []}, u'edge': {u'target': [], u'time': []}}, u'click': {u'state': {u'target': [], u'time': []}, u'edge': {u'target': [], u'time': []}}, u'mouseout': {u'state': {u'target': [], u'time': []}, u'edge': {u'target': [], u'time': []}}}",,,"[849, 4, 77]",15.0,,506013,7.0,7.0,mouselab-mdp,,3
"[2615, 14500, 15361]","[u'left', u'left', u'up']",,,"[None, None, None]","[True, True, True]","[u'1', 4, 8, 14]","[False, False, False]","[False, False, False]","{u'mouseover': {u'state': {u'target': [], u'time': []}, u'edge': {u'target': [], u'time': []}}, u'click': {u'state': {u'target': [], u'time': []}, u'edge': {u'target': [], u'time': []}}, u'mouseout': {u'state': {u'target': [], u'time': []}, u'edge': {u'target': [], u'time': []}}}",,,"[2615, 3, 2]",15.0,,563884,8.0,2.0,mouselab-mdp,,3
"[1251, 13195, 14122]","[u'up', u'up', u'left']",,,"[None, None, None]","[True, True, True]","[u'1', 3, 7, 12]","[False, False, False]","[False, False, False]","{u'mouseover': {u'state': {u'target': [], u'time': []}, u'edge': {u'target': [], u'time': []}}, u'click': {u'state': {u'target': [], u'time': []}, u'edge': {u'target': [], u'time': []}}, u'mouseout': {u'state': {u'target': [], u'time': []}, u'edge': {u'target': [], u'time': []}}}",,,"[1251, 4, 84]",15.0,,623960,9.0,1.0,mouselab-mdp,,3
"[1429, 13321, 15267]","[u'right', u'right', u'up']",,,"[None, None, None]","[True, True, True]","[u'1', 2, 6, 10]","[False, False, False]","[False, False, False]","{u'mouseover': {u'state': {u'target': [], u'time': []}, u'edge': {u'target': [], u'time': []}}, u'click': {u'state': {u'target': [], u'time': []}, u'edge': {u'target': [], u'time': []}}, u'mouseout': {u'state': {u'target': [], u'time': []}, u'edge': {u'target': [], u'time': []}}}",,,"[1429, 4, 1088]",14.0,,682854,10.0,12.0,mouselab-mdp,,3
"[3798, 5632, 7263]","[u'right', u'right', u'up']",,,[],[],"[u'1', 2, 6, 10]",[],[],"{u'mouseover': {u'state': {u'target': [], u'time': []}, u'edge': {u'target': [], u'time': []}}, u'click': {u'state': {u'target': [], u'time': []}, u'edge': {u'target': [], u'time': []}}, u'mouseout': {u'state': {u'target': [], u'time': []}, u'edge': {u'target': [], u'time': []}}}",,,"[3798, 1342, 1133]",10.0,,730633,11.0,9.0,mouselab-mdp,,3
"[1243, 2627, 4359]","[u'left', u'left', u'down']",,,[],[],"[u'1', 4, 8, 15]",[],[],"{u'mouseover': {u'state': {u'target': [], u'time': []}, u'edge': {u'target': [], u'time': []}}, u'click': {u'state': {u'target': [], u'time': []}, u'edge': {u'target': [], u'time': []}}, u'mouseout': {u'state': {u'target': [], u'time': []}, u'edge': {u'target': [], u'time': []}}}",,,"[1243, 894, 1238]",15.0,,789291,12.0,4.0,mouselab-mdp,,3
"[496, 1688, 3309]","[u'down', u'down', u'right']",,,[],[],"[u'1', 5, 9, 17]",[],[],"{u'mouseover': {u'state': {u'target': [], u'time': []}, u'edge': {u'target': [], u'time': []}}, u'click': {u'state': {u'target': [], u'time': []}, u'edge': {u'target': [], u'time': []}}, u'mouseout': {u'state': {u'target': [], u'time': []}, u'edge': {u'target': [], u'time': []}}}",,,"[496, 690, 1125]",5.0,,844191,13.0,10.0,mouselab-mdp,,3
"[1970, 2937, 4130]","[u'left', u'left', u'down']",,,[],[],"[u'1', 4, 8, 15]",[],[],"{u'mouseover': {u'state': {u'target': [], u'time': []}, u'edge': {u'target': [], u'time': []}}, u'click': {u'state': {u'target': [], u'time': []}, u'edge': {u'target': [], u'time': []}}, u'mouseout': {u'state': {u'target': [], u'time': []}, u'edge': {u'target': [], u'time': []}}}",,,"[1970, 473, 696]",15.0,,891948,14.0,11.0,mouselab-mdp,,3
"[1595, 2685, 4249]","[u'down', u'down', u'right']",,,[],[],"[u'1', 5, 9, 17]",[],[],"{u'mouseover': {u'state': {u'target': [], u'time': []}, u'edge': {u'target': [], u'time': []}}, u'click': {u'state': {u'target': [], u'time': []}, u'edge': {u'target': [], u'time': []}}, u'mouseout': {u'state': {u'target': [], u'time': []}, u'edge': {u'target': [], u'time': []}}}",,,"[1595, 597, 1075]",15.0,,939514,15.0,3.0,mouselab-mdp,,3
"[2241, 3411, 4615]","[u'up', u'up', u'right']",,,[],[],"[u'1', 3, 7, 13]",[],[],"{u'mouseover': {u'state': {u'target': [], u'time': []}, u'edge': {u'target': [], u'time': []}}, u'click': {u'state': {u'target': [], u'time': []}, u'edge': {u'target': [], u'time': []}}, u'mouseout': {u'state': {u'target': [], u'time': []}, u'edge': {u'target': [], u'time': []}}}",,,"[2241, 668, 701]",12.0,,986483,16.0,5.0,mouselab-mdp,,3
"[17406, 22907, 27328]","[u'right', u'right', u'up']",,,"[None, None, None]","[False, True, True]","[u'1', 2, 6, 10]","[False, False, False]","[True, False, False]","{u'mouseover': {u'state': {u'target': [], u'time': []}, u'edge': {u'target': [], u'time': []}}, u'click': {u'state': {u'target': [u'6', u'13'], u'time': [4887, 11265]}, u'edge': {u'target': [], u'time': []}}, u'mouseout': {u'state': {u'target': [], u'time': []}, u'edge': {u'target': [], u'time': []}}}",,,"[17406, 10, 3752]",13.0,,205673,1.0,2.0,mouselab-mdp,,4
"[814, 6398, 8412]","[u'left', u'left', u'down']",,,"[None, None, None]","[True, True, True]","[u'1', 4, 8, 15]","[False, False, False]","[False, False, False]","{u'mouseover': {u'state': {u'target': [], u'time': []}, u'edge': {u'target': [], u'time': []}}, u'click': {u'state': {u'target': [], u'time': []}, u'edge': {u'target': [], u'time': []}}, u'mouseout': {u'state': {u'target': [], u'time': []}, u'edge': {u'target': [], u'time': []}}}",,,"[814, 4, 1341]",11.0,,259137,2.0,0.0,mouselab-mdp,,4
"[1274, 6862, 8336]","[u'down', u'down', u'left']",,,"[None, None, None]","[True, True, True]","[u'1', 5, 9, 16]","[False, False, False]","[False, False, False]","{u'mouseover': {u'state': {u'target': [], u'time': []}, u'edge': {u'target': [], u'time': []}}, u'click': {u'state': {u'target': [], u'time': []}, u'edge': {u'target': [], u'time': []}}, u'mouseout': {u'state': {u'target': [], u'time': []}, u'edge': {u'target': [], u'time': []}}}",,,"[1273, 3, 798]",16.0,,317165,3.0,15.0,mouselab-mdp,,4
"[2890, 8567, 55407]","[u'down', u'down', u'right']",,,"[None, None, None]","[True, True, True]","[u'1', 5, 9, 17]","[False, False, False]","[False, False, False]","{u'mouseover': {u'state': {u'target': [], u'time': []}, u'edge': {u'target': [], u'time': []}}, u'click': {u'state': {u'target': [], u'time': []}, u'edge': {u'target': [], u'time': []}}, u'mouseout': {u'state': {u'target': [], u'time': []}, u'edge': {u'target': [], u'time': []}}}",,,"[2890, 3, 46145]",15.0,,379601,4.0,7.0,mouselab-mdp,,4
"[2235, 7930, 9418]","[u'down', u'down', u'left']",,,"[None, None, None]","[True, True, True]","[u'1', 5, 9, 16]","[False, False, False]","[False, False, False]","{u'mouseover': {u'state': {u'target': [], u'time': []}, u'edge': {u'target': [], u'time': []}}, u'click': {u'state': {u'target': [], u'time': []}, u'edge': {u'target': [], u'time': []}}, u'mouseout': {u'state': {u'target': [], u'time': []}, u'edge': {u'target': [], u'time': []}}}",,,"[2235, 3, 803]",16.0,,434729,5.0,1.0,mouselab-mdp,,4
"[2238, 7996, 9856]","[u'up', u'up', u'right']",,,"[None, None, None]","[True, True, True]","[u'1', 3, 7, 13]","[False, False, False]","[False, False, False]","{u'mouseover': {u'state': {u'target': [], u'time': []}, u'edge': {u'target': [], u'time': []}}, u'click': {u'state': {u'target': [], u'time': []}, u'edge': {u'target': [], u'time': []}}, u'mouseout': {u'state': {u'target': [], u'time': []}, u'edge': {u'target': [], u'time': []}}}",,,"[2238, 3, 1178]",14.0,,488690,6.0,12.0,mouselab-mdp,,4
"[735, 6507, 9624]","[u'down', u'down', u'right']",,,"[None, None, None]","[True, True, True]","[u'1', 5, 9, 17]","[False, False, False]","[False, False, False]","{u'mouseover': {u'state': {u'target': [], u'time': []}, u'edge': {u'target': [], u'time': []}}, u'click': {u'state': {u'target': [], u'time': []}, u'edge': {u'target': [], u'time': []}}, u'mouseout': {u'state': {u'target': [], u'time': []}, u'edge': {u'target': [], u'time': []}}}",,,"[735, 4, 2428]",15.0,,548836,7.0,4.0,mouselab-mdp,,4
"[9844, 17851, 20275]","[u'up', u'up', u'right']",,,"[None, None, None]","[True, True, True]","[u'1', 3, 7, 13]","[True, False, False]","[True, False, False]","{u'mouseover': {u'state': {u'target': [], u'time': []}, u'edge': {u'target': [], u'time': []}}, u'click': {u'state': {u'target': [u'3'], u'time': [4752]}, u'edge': {u'target': [], u'time': []}}, u'mouseout': {u'state': {u'target': [], u'time': []}, u'edge': {u'target': [], u'time': []}}}",,,"[9844, 3, 1696]",14.0,,171370,1.0,11.0,mouselab-mdp,,5
"[763, 8512, 9884]","[u'up', u'up', u'left']",,,"[None, None, None]","[True, True, True]","[u'1', 3, 7, 12]","[False, False, False]","[False, False, False]","{u'mouseover': {u'state': {u'target': [], u'time': []}, u'edge': {u'target': [], u'time': []}}, u'click': {u'state': {u'target': [], u'time': []}, u'edge': {u'target': [], u'time': []}}, u'mouseout': {u'state': {u'target': [], u'time': []}, u'edge': {u'target': [], u'time': []}}}",,,"[763, 1, 647]",15.0,,226058,2.0,7.0,mouselab-mdp,,5
"[678, 8408, 9335]","[u'left', u'left', u'up']",,,"[None, None, None]","[True, True, True]","[u'1', 4, 8, 14]","[False, False, False]","[False, False, False]","{u'mouseover': {u'state': {u'target': [], u'time': []}, u'edge': {u'target': [], u'time': []}}, u'click': {u'state': {u'target': [], u'time': []}, u'edge': {u'target': [], u'time': []}}, u'mouseout': {u'state': {u'target': [], u'time': []}, u'edge': {u'target': [], u'time': []}}}",,,"[678, 2, 204]",14.0,,289786,3.0,13.0,mouselab-mdp,,5
"[430, 8182, 9006]","[u'right', u'right', u'down']",,,"[None, None, None]","[True, True, True]","[u'1', 2, 6, 11]","[False, False, False]","[False, False, False]","{u'mouseover': {u'state': {u'target': [], u'time': []}, u'edge': {u'target': [], u'time': []}}, u'click': {u'state': {u'target': [], u'time': []}, u'edge': {u'target': [], u'time': []}}, u'mouseout': {u'state': {u'target': [], u'time': []}, u'edge': {u'target': [], u'time': []}}}",,,"[430, 2, 108]",11.0,,345666,4.0,6.0,mouselab-mdp,,5
"[1486, 9184, 9910]","[u'down', u'down', u'left']",,,"[None, None, None]","[True, True, True]","[u'1', 5, 9, 16]","[False, False, False]","[False, False, False]","{u'mouseover': {u'state': {u'target': [], u'time': []}, u'edge': {u'target': [], u'time': []}}, u'click': {u'state': {u'target': [], u'time': []}, u'edge': {u'target': [], u'time': []}}, u'mouseout': {u'state': {u'target': [], u'time': []}, u'edge': {u'target': [], u'time': []}}}",,,"[1486, 1, 1]",15.0,,399243,5.0,2.0,mouselab-mdp,,5
"[2123, 9853, 11612]","[u'up', u'up', u'right']",,,"[None, None, None]","[True, True, True]","[u'1', 3, 7, 13]","[False, False, False]","[False, False, False]","{u'mouseover': {u'state': {u'target': [], u'time': []}, u'edge': {u'target': [], u'time': []}}, u'click': {u'state': {u'target': [], u'time': []}, u'edge': {u'target': [], u'time': []}}, u'mouseout': {u'state': {u'target': [], u'time': []}, u'edge': {u'target': [], u'time': []}}}",,,"[2123, 1, 1036]",16.0,,453018,6.0,15.0,mouselab-mdp,,5
"[1880, 9540, 10617]","[u'left', u'left', u'up']",,,"[None, None, None]","[True, True, True]","[u'1', 4, 8, 14]","[False, False, False]","[False, False, False]","{u'mouseover': {u'state': {u'target': [], u'time': []}, u'edge': {u'target': [], u'time': []}}, u'click': {u'state': {u'target': [], u'time': []}, u'edge': {u'target': [], u'time': []}}, u'mouseout': {u'state': {u'target': [], u'time': []}, u'edge': {u'target': [], u'time': []}}}",,,"[1880, 1, 358]",6.0,,507514,7.0,10.0,mouselab-mdp,,5
"[2195, 9883, 10609]","[u'right', u'right', u'up']",,,"[None, None, None]","[True, True, True]","[u'1', 2, 6, 10]","[False, False, False]","[False, False, False]","{u'mouseover': {u'state': {u'target': [], u'time': []}, u'edge': {u'target': [], u'time': []}}, u'click': {u'state': {u'target': [], u'time': []}, u'edge': {u'target': [], u'time': []}}, u'mouseout': {u'state': {u'target': [], u'time': []}, u'edge': {u'target': [], u'time': []}}}",,,"[2195, 1, 2]",10.0,,569106,8.0,9.0,mouselab-mdp,,5
"[2893, 10560, 11275]","[u'down', u'down', u'left']",,,"[None, None, None]","[True, True, True]","[u'1', 5, 9, 16]","[False, False, False]","[False, False, False]","{u'mouseover': {u'state': {u'target': [], u'time': []}, u'edge': {u'target': [], u'time': []}}, u'click': {u'state': {u'target': [], u'time': []}, u'edge': {u'target': [], u'time': []}}, u'mouseout': {u'state': {u'target': [], u'time': []}, u'edge': {u'target': [], u'time': []}}}",,,"[2893, 2, 1]",15.0,,625930,9.0,8.0,mouselab-mdp,,5
"[1324, 9013, 9721]","[u'up', u'up', u'left']",,,"[None, None, None]","[True, True, True]","[u'1', 3, 7, 12]","[False, False, False]","[False, False, False]","{u'mouseover': {u'state': {u'target': [], u'time': []}, u'edge': {u'target': [], u'time': []}}, u'click': {u'state': {u'target': [], u'time': []}, u'edge': {u'target': [], u'time': []}}, u'mouseout': {u'state': {u'target': [], u'time': []}, u'edge': {u'target': [], u'time': []}}}",,,"[1324, 2, 1]",14.0,,680250,10.0,3.0,mouselab-mdp,,5
"[3377, 4009, 4553]","[u'left', u'left', u'down']",,,[],[],"[u'1', 4, 8, 15]",[],[],"{u'mouseover': {u'state': {u'target': [], u'time': []}, u'edge': {u'target': [], u'time': []}}, u'click': {u'state': {u'target': [], u'time': []}, u'edge': {u'target': [], u'time': []}}, u'mouseout': {u'state': {u'target': [], u'time': []}, u'edge': {u'target': [], u'time': []}}}",,,"[3377, 135, 28]",14.0,,727194,11.0,12.0,mouselab-mdp,,5
"[450, 3785, 5193]","[u'right', u'right', u'up']",,,[],[],"[u'1', 2, 6, 10]",[],[],"{u'mouseover': {u'state': {u'target': [], u'time': []}, u'edge': {u'target': [], u'time': []}}, u'click': {u'state': {u'target': [], u'time': []}, u'edge': {u'target': [], u'time': []}}, u'mouseout': {u'state': {u'target': [], u'time': []}, u'edge': {u'target': [], u'time': []}}}",,,"[449, 2838, 912]",7.0,,773554,12.0,14.0,mouselab-mdp,,5
"[270, 1118, 1766]","[u'down', u'down', u'right']",,,[],[],"[u'1', 5, 9, 17]",[],[],"{u'mouseover': {u'state': {u'target': [], u'time': []}, u'edge': {u'target': [], u'time': []}}, u'click': {u'state': {u'target': [], u'time': []}, u'edge': {u'target': [], u'time': []}}, u'mouseout': {u'state': {u'target': [], u'time': []}, u'edge': {u'target': [], u'time': []}}}",,,"[270, 344, 158]",16.0,,823955,13.0,1.0,mouselab-mdp,,5
"[500, 1067, 1828]","[u'up', u'up', u'right']",,,[],[],"[u'1', 3, 7, 13]",[],[],"{u'mouseover': {u'state': {u'target': [], u'time': []}, u'edge': {u'target': [], u'time': []}}, u'click': {u'state': {u'target': [], u'time': []}, u'edge': {u'target': [], u'time': []}}, u'mouseout': {u'state': {u'target': [], u'time': []}, u'edge': {u'target': [], u'time': []}}}",,,"[500, 61, 271]",15.0,,870778,14.0,4.0,mouselab-mdp,,5
"[532, 1196, 1796]","[u'down', u'down', u'left']",,,[],[],"[u'1', 5, 9, 16]",[],[],"{u'mouseover': {u'state': {u'target': [], u'time': []}, u'edge': {u'target': [], u'time': []}}, u'click': {u'state': {u'target': [], u'time': []}, u'edge': {u'target': [], u'time': []}}, u'mouseout': {u'state': {u'target': [], u'time': []}, u'edge': {u'target': [], u'time': []}}}",,,"[532, 163, 113]",12.0,,917698,15.0,5.0,mouselab-mdp,,5
"[316, 948, 1612]","[u'left', u'left', u'down']",,,[],[],"[u'1', 4, 8, 15]",[],[],"{u'mouseover': {u'state': {u'target': [], u'time': []}, u'edge': {u'target': [], u'time': []}}, u'click': {u'state': {u'target': [], u'time': []}, u'edge': {u'target': [], u'time': []}}, u'mouseout': {u'state': {u'target': [], u'time': []}, u'edge': {u'target': [], u'time': []}}}",,,"[316, 135, 165]",11.0,,965155,16.0,0.0,mouselab-mdp,,5
"[62835, 72729, 90281]","[u'left', u'left', u'down']",,,"[None, None, None]","[False, True, False]","[u'1', 4, 8, 15]","[False, False, False]","[True, False, False]","{u'mouseover': {u'state': {u'target': [], u'time': []}, u'edge': {u'target': [], u'time': []}}, u'click': {u'state': {u'target': [u'3', u'2', u'5', u'6', u'10', u'11', u'4', u'8', u'14', u'15', u'9', u'16', u'17', u'7', u'13', u'12'], u'time': [3224, 6801, 11995, 13992, 14985, 15784, 17859, 20139, 22015, 23163, 25497, 27219, 29947, 32374, 34203, 35332]}, u'edge': {u'target': [], u'time': []}}, u'mouseout': {u'state': {u'target': [], u'time': []}, u'edge': {u'target': [], u'time': []}}}",,,"[62835, 5, 17042]",-10.0,,336748,1.0,14.0,mouselab-mdp,,6
"[21456, 31682, 33516]","[u'right', u'right', u'down']",,,"[None, None, None]","[True, True, True]","[u'1', 2, 6, 11]","[True, False, False]","[True, False, False]","{u'mouseover': {u'state': {u'target': [], u'time': []}, u'edge': {u'target': [], u'time': []}}, u'click': {u'state': {u'target': [u'2'], u'time': [3199]}, u'edge': {u'target': [], u'time': []}}, u'mouseout': {u'state': {u'target': [], u'time': []}, u'edge': {u'target': [], u'time': []}}}",,,"[21455, 2, 1021]",11.0,,426389,2.0,0.0,mouselab-mdp,,6
"[10951, 20946, 21836]","[u'up', u'up', u'left']",,,"[None, None, None]","[True, True, True]","[u'1', 3, 7, 12]","[False, False, False]","[False, False, False]","{u'mouseover': {u'state': {u'target': [], u'time': []}, u'edge': {u'target': [], u'time': []}}, u'click': {u'state': {u'target': [], u'time': []}, u'edge': {u'target': [], u'time': []}}, u'mouseout': {u'state': {u'target': [], u'time': []}, u'edge': {u'target': [], u'time': []}}}",,,"[10951, 2, 79]",16.0,,567251,3.0,15.0,mouselab-mdp,,6
"[5864, 15918, 17168]","[u'left', u'left', u'down']",,,"[None, None, None]","[True, True, True]","[u'1', 4, 8, 15]","[False, False, False]","[False, False, False]","{u'mouseover': {u'state': {u'target': [], u'time': []}, u'edge': {u'target': [], u'time': []}}, u'click': {u'state': {u'target': [], u'time': []}, u'edge': {u'target': [], u'time': []}}, u'mouseout': {u'state': {u'target': [], u'time': []}, u'edge': {u'target': [], u'time': []}}}",,,"[5864, 3, 445]",9.0,,660382,4.0,9.0,mouselab-mdp,,6
"[1043, 10881, 11976]","[u'down', u'down', u'right']",,,"[None, None, None]","[True, True, True]","[u'1', 5, 9, 17]","[False, False, False]","[False, False, False]","{u'mouseover': {u'state': {u'target': [], u'time': []}, u'edge': {u'target': [], u'time': []}}, u'click': {u'state': {u'target': [], u'time': []}, u'edge': {u'target': [], u'time': []}}, u'mouseout': {u'state': {u'target': [], u'time': []}, u'edge': {u'target': [], u'time': []}}}",,,"[1043, 2, 296]",14.0,,761155,5.0,13.0,mouselab-mdp,,6
"[1911, 11788, 12982]","[u'down', u'down', u'left']",,,"[None, None, None]","[True, True, True]","[u'1', 5, 9, 16]","[False, False, False]","[False, False, False]","{u'mouseover': {u'state': {u'target': [], u'time': []}, u'edge': {u'target': [], u'time': []}}, u'click': {u'state': {u'target': [], u'time': []}, u'edge': {u'target': [], u'time': []}}, u'mouseout': {u'state': {u'target': [], u'time': []}, u'edge': {u'target': [], u'time': []}}}",,,"[1911, 3, 402]",12.0,,815782,6.0,5.0,mouselab-mdp,,6
"[1434, 11238, 12190]","[u'left', u'left', u'down']",,,"[None, None, None]","[True, True, True]","[u'1', 4, 8, 15]","[False, False, False]","[False, False, False]","{u'mouseover': {u'state': {u'target': [], u'time': []}, u'edge': {u'target': [], u'time': []}}, u'click': {u'state': {u'target': [], u'time': []}, u'edge': {u'target': [], u'time': []}}, u'mouseout': {u'state': {u'target': [], u'time': []}, u'edge': {u'target': [], u'time': []}}}",,,"[1434, 3, 137]",16.0,,878075,7.0,7.0,mouselab-mdp,,6
"[642, 10485, 11299]","[u'down', u'down', u'left']",,,"[None, None, None]","[True, True, True]","[u'1', 5, 9, 16]","[False, False, False]","[False, False, False]","{u'mouseover': {u'state': {u'target': [], u'time': []}, u'edge': {u'target': [], u'time': []}}, u'click': {u'state': {u'target': [], u'time': []}, u'edge': {u'target': [], u'time': []}}, u'mouseout': {u'state': {u'target': [], u'time': []}, u'edge': {u'target': [], u'time': []}}}",,,"[642, 3, 2]",15.0,,1013590,8.0,2.0,mouselab-mdp,,6
"[767, 10788, 30623]","[u'down', u'down', u'right']",,,"[None, None, None]","[True, True, True]","[u'1', 5, 9, 17]","[False, False, False]","[False, False, False]","{u'mouseover': {u'state': {u'target': [], u'time': []}, u'edge': {u'target': [], u'time': []}}, u'click': {u'state': {u'target': [], u'time': []}, u'edge': {u'target': [], u'time': []}}, u'mouseout': {u'state': {u'target': [], u'time': []}, u'edge': {u'target': [], u'time': []}}}",,,"[767, 2, 19021]",15.0,,1073165,9.0,3.0,mouselab-mdp,,6
"[615, 10550, 12528]","[u'up', u'up', u'right']",,,"[None, None, None]","[True, True, True]","[u'1', 3, 7, 13]","[False, False, False]","[False, False, False]","{u'mouseover': {u'state': {u'target': [], u'time': []}, u'edge': {u'target': [], u'time': []}}, u'click': {u'state': {u'target': [u'7'], u'time': [10562]}, u'edge': {u'target': [], u'time': []}}, u'mouseout': {u'state': {u'target': [], u'time': []}, u'edge': {u'target': [], u'time': []}}}",,,"[615, 2, 950]",13.0,,1135534,10.0,12.0,mouselab-mdp,,6
"[4251, 5155, 6547]","[u'right', u'right', u'up']",,,[],[],"[u'1', 2, 6, 10]",[],[],"{u'mouseover': {u'state': {u'target': [], u'time': []}, u'edge': {u'target': [], u'time': []}}, u'click': {u'state': {u'target': [], u'time': []}, u'edge': {u'target': [], u'time': []}}, u'mouseout': {u'state': {u'target': [], u'time': []}, u'edge': {u'target': [], u'time': []}}}",,,"[4251, 413, 888]",6.0,,1188907,11.0,10.0,mouselab-mdp,,6
"[1021, 1701, 2340]","[u'down', u'down', u'left']",,,[],[],"[u'1', 5, 9, 16]",[],[],"{u'mouseover': {u'state': {u'target': [], u'time': []}, u'edge': {u'target': [], u'time': []}}, u'click': {u'state': {u'target': [], u'time': []}, u'edge': {u'target': [], u'time': []}}, u'mouseout': {u'state': {u'target': [], u'time': []}, u'edge': {u'target': [], u'time': []}}}",,,"[1021, 179, 151]",16.0,,1245848,12.0,1.0,mouselab-mdp,,6
"[583, 1296, 1959]","[u'left', u'left', u'up']",,,[],[],"[u'1', 4, 8, 14]",[],[],"{u'mouseover': {u'state': {u'target': [], u'time': []}, u'edge': {u'target': [], u'time': []}}, u'click': {u'state': {u'target': [], u'time': []}, u'edge': {u'target': [], u'time': []}}, u'mouseout': {u'state': {u'target': [], u'time': []}, u'edge': {u'target': [], u'time': []}}}",,,"[583, 216, 144]",15.0,,1318696,13.0,11.0,mouselab-mdp,,6
"[656, 1207, 1815]","[u'left', u'left', u'up']",,,[],[],"[u'1', 4, 8, 14]",[],[],"{u'mouseover': {u'state': {u'target': [], u'time': []}, u'edge': {u'target': [], u'time': []}}, u'click': {u'state': {u'target': [], u'time': []}, u'edge': {u'target': [], u'time': []}}, u'mouseout': {u'state': {u'target': [], u'time': []}, u'edge': {u'target': [], u'time': []}}}",,,"[656, 49, 106]",15.0,,1414170,14.0,8.0,mouselab-mdp,,6
"[593, 1281, 1845]","[u'left', u'left', u'down']",,,[],[],"[u'1', 4, 8, 15]",[],[],"{u'mouseover': {u'state': {u'target': [], u'time': []}, u'edge': {u'target': [], u'time': []}}, u'click': {u'state': {u'target': [], u'time': []}, u'edge': {u'target': [], u'time': []}}, u'mouseout': {u'state': {u'target': [], u'time': []}, u'edge': {u'target': [], u'time': []}}}",,,"[593, 189, 70]",15.0,,1494793,15.0,4.0,mouselab-mdp,,6
"[806, 1341, 1926]","[u'left', u'left', u'down']",,,[],[],"[u'1', 4, 8, 15]",[],[],"{u'mouseover': {u'state': {u'target': [], u'time': []}, u'edge': {u'target': [], u'time': []}}, u'click': {u'state': {u'target': [], u'time': []}, u'edge': {u'target': [], u'time': []}}, u'mouseout': {u'state': {u'target': [], u'time': []}, u'edge': {u'target': [], u'time': []}}}",,,"[806, 48, 84]",11.0,,1542289,16.0,6.0,mouselab-mdp,,6
"[16917, 51500, 54990]","[u'right', u'right', u'down']",,,"[None, None, None]","[True, True, True]","[u'1', 2, 6, 11]","[True, False, False]","[True, False, False]","{u'mouseover': {u'state': {u'target': [], u'time': []}, u'edge': {u'target': [], u'time': []}}, u'click': {u'state': {u'target': [u'2', u'5', u'4', u'3', u'7', u'6', u'10'], u'time': [6245, 8621, 9223, 9769, 12531, 14109, 51510]}, u'edge': {u'target': [], u'time': []}}, u'mouseout': {u'state': {u'target': [], u'time': []}, u'edge': {u'target': [], u'time': []}}}",,,"[16916, 9, 757]",8.0,,233459,1.0,11.0,mouselab-mdp,,7
"[12233, 46679, 51765]","[u'down', u'down', u'left']",,,"[None, None, None]","[True, True, True]","[u'1', 5, 9, 16]","[True, False, False]","[True, False, True]","{u'mouseover': {u'state': {u'target': [], u'time': []}, u'edge': {u'target': [], u'time': []}}, u'click': {u'state': {u'target': [u'4', u'3', u'2', u'5', u'9', u'8', u'6', u'16', u'17'], u'time': [1807, 2408, 2901, 3276, 6045, 7001, 9915, 50167, 50700]}, u'edge': {u'target': [], u'time': []}}, u'mouseout': {u'state': {u'target': [], u'time': []}, u'edge': {u'target': [], u'time': []}}}",,,"[12233, 8, 3625]",4.0,,319970,2.0,0.0,mouselab-mdp,,7
"[9788, 44031, 51146]","[u'down', u'down', u'right']",,,"[None, None, None]","[True, True, True]","[u'1', 5, 9, 17]","[True, False, False]","[True, False, True]","{u'mouseover': {u'state': {u'target': [], u'time': []}, u'edge': {u'target': [], u'time': []}}, u'click': {u'state': {u'target': [u'4', u'5', u'3', u'2', u'9', u'6', u'16', u'17'], u'time': [3108, 3520, 4269, 4759, 7255, 7919, 46253, 46767]}, u'edge': {u'target': [], u'time': []}}, u'mouseout': {u'state': {u'target': [], u'time': []}, u'edge': {u'target': [], u'time': []}}}",,,"[9788, 8, 5693]",4.0,,422512,3.0,5.0,mouselab-mdp,,7
"[14242, 54769, 56577]","[u'left', u'left', u'down']",,,"[None, None, None]","[False, True, True]","[u'1', 4, 8, 15]","[True, False, False]","[True, False, False]","{u'mouseover': {u'state': {u'target': [], u'time': []}, u'edge': {u'target': [], u'time': []}}, u'click': {u'state': {u'target': [u'4', u'3', u'2', u'5', u'6', u'8', u'7', u'9', u'16', u'17', u'15', u'14'], u'time': [2633, 3102, 3512, 3884, 4881, 5458, 6059, 6747, 8480, 8902, 9541, 9869]}, u'edge': {u'target': [], u'time': []}}, u'mouseout': {u'state': {u'target': [], u'time': []}, u'edge': {u'target': [], u'time': []}}}",,,"[14242, 6276, 805]",-1.0,,505929,4.0,6.0,mouselab-mdp,,7
"[39121, 70691, 72729]","[u'left', u'left', u'up']",,,"[None, None, None]","[True, True, True]","[u'1', 4, 8, 14]","[False, False, False]","[True, False, False]","{u'mouseover': {u'state': {u'target': [], u'time': []}, u'edge': {u'target': [], u'time': []}}, u'click': {u'state': {u'target': [u'4', u'3', u'2', u'5', u'9', u'16', u'17', u'12', u'13', u'7', u'6', u'11', u'10', u'8', u'15', u'14'], u'time': [1932, 2372, 2766, 3097, 4626, 5986, 6403, 7893, 8336, 8779, 9985, 10389, 10963, 12997, 13247, 13529]}, u'edge': {u'target': [], u'time': []}}, u'mouseout': {u'state': {u'target': [], u'time': []}, u'edge': {u'target': [], u'time': []}}}",,,"[39121, 7, 1509]",-1.0,,594505,5.0,3.0,mouselab-mdp,,7
"[6484, 66288, 70001]","[u'right', u'right', u'down']",,,"[None, None, None]","[True, True, True]","[u'1', 2, 6, 11]","[True, False, False]","[True, False, False]","{u'mouseover': {u'state': {u'target': [], u'time': []}, u'edge': {u'target': [], u'time': []}}, u'click': {u'state': {u'target': [u'3', u'2', u'5', u'4', u'10', u'11'], u'time': [3717, 4094, 4432, 4874, 61079, 64913]}, u'edge': {u'target': [], u'time': []}}, u'mouseout': {u'state': {u'target': [], u'time': []}, u'edge': {u'target': [], u'time': []}}}",,,"[6484, 5221, 5]",4.0,,742256,6.0,9.0,mouselab-mdp,,7
"[14338, 63926, 67453]","[u'up', u'up', u'left']",,,"[None, None, None]","[True, True, True]","[u'1', 3, 7, 12]","[True, False, False]","[True, False, False]","{u'mouseover': {u'state': {u'target': [], u'time': []}, u'edge': {u'target': [], u'time': []}}, u'click': {u'state': {u'target': [u'4', u'3', u'2', u'5', u'12', u'13', u'7'], u'time': [10047, 10410, 10748, 11032, 61365, 61771, 62793]}, u'edge': {u'target': [], u'time': []}}, u'mouseout': {u'state': {u'target': [], u'time': []}, u'edge': {u'target': [], u'time': []}}}",,,"[14338, 13317, 69]",9.0,,842364,7.0,15.0,mouselab-mdp,,7
"[28409, 66184, 102290]","[u'left', u'left', u'down']",,,"[None, None, None]","[True, True, True]","[u'1', 4, 8, 15]","[True, False, False]","[True, False, False]","{u'mouseover': {u'state': {u'target': [], u'time': []}, u'edge': {u'target': [], u'time': []}}, u'click': {u'state': {u'target': [u'4', u'3', u'2', u'5', u'10', u'11', u'6', u'16', u'17'], u'time': [18886, 19232, 19618, 19885, 20987, 21326, 21712, 26156, 26935]}, u'edge': {u'target': [], u'time': []}}, u'mouseout': {u'state': {u'target': [], u'time': []}, u'edge': {u'target': [], u'time': []}}}",,,"[28409, 10, 34716]",5.0,,954244,8.0,12.0,mouselab-mdp,,7
"[7926, 56889, 59127]","[u'right', u'right', u'down']",,,"[None, None, None]","[True, True, True]","[u'1', 2, 6, 11]","[False, False, False]","[True, False, False]","{u'mouseover': {u'state': {u'target': [], u'time': []}, u'edge': {u'target': [], u'time': []}}, u'click': {u'state': {u'target': [u'4', u'3', u'2', u'5', u'11', u'10'], u'time': [3995, 4332, 4703, 4992, 6041, 6603]}, u'edge': {u'target': [], u'time': []}}, u'mouseout': {u'state': {u'target': [], u'time': []}, u'edge': {u'target': [], u'time': []}}}",,,"[7910, 12754, 889]",8.0,,1067194,9.0,13.0,mouselab-mdp,,7
"[7802, 60776, 65556]","[u'left', u'left', u'down']",,,"[None, None, None]","[False, True, True]","[u'1', 4, 8, 15]","[False, False, False]","[True, False, True]","{u'mouseover': {u'state': {u'target': [], u'time': []}, u'edge': {u'target': [], u'time': []}}, u'click': {u'state': {u'target': [u'4', u'3', u'2', u'5', u'16', u'15', u'14'], u'time': [2679, 2924, 3272, 3577, 4768, 6062, 64657]}, u'edge': {u'target': [], u'time': []}}, u'mouseout': {u'state': {u'target': [], u'time': []}, u'edge': {u'target': [], u'time': []}}}",,,"[7802, 8, 3350]",9.0,,1211837,10.0,7.0,mouselab-mdp,,7
"[9359, 12965, 14473]","[u'left', u'left', u'up']",,,[],[],"[u'1', 4, 8, 14]",[],[],"{u'mouseover': {u'state': {u'target': [], u'time': []}, u'edge': {u'target': [], u'time': []}}, u'click': {u'state': {u'target': [u'4', u'3', u'2', u'5', u'12', u'14'], u'time': [1424, 1680, 2018, 2309, 6723, 7910]}, u'edge': {u'target': [], u'time': []}}, u'mouseout': {u'state': {u'target': [], u'time': []}, u'edge': {u'target': [], u'time': []}}}",,,"[9359, 3097, 988]",10.0,,1390405,11.0,1.0,mouselab-mdp,,7
"[13266, 14541, 15330]","[u'down', u'down', u'left']",,,[],[],"[u'1', 5, 9, 16]",[],[],"{u'mouseover': {u'state': {u'target': [], u'time': []}, u'edge': {u'target': [], u'time': []}}, u'click': {u'state': {u'target': [u'4', u'2', u'5', u'3', u'12', u'15', u'11', u'16'], u'time': [1876, 2878, 3330, 3845, 4995, 5757, 7830, 12151]}, u'edge': {u'target': [], u'time': []}}, u'mouseout': {u'state': {u'target': [], u'time': []}, u'edge': {u'target': [], u'time': []}}}",,,"[13266, 756, 281]",-1.0,,1551791,12.0,14.0,mouselab-mdp,,7
"[6184, 7464, 8480]","[u'left', u'left', u'down']",,,[],[],"[u'1', 4, 8, 15]",[],[],"{u'mouseover': {u'state': {u'target': [], u'time': []}, u'edge': {u'target': [], u'time': []}}, u'click': {u'state': {u'target': [u'4', u'5', u'2', u'3', u'15'], u'time': [2520, 2918, 3290, 3818, 4645]}, u'edge': {u'target': [], u'time': []}}, u'mouseout': {u'state': {u'target': [], u'time': []}, u'edge': {u'target': [], u'time': []}}}",,,"[6184, 762, 512]",9.0,,1721925,13.0,8.0,mouselab-mdp,,7
"[7575, 8760, 9829]","[u'up', u'up', u'left']",,,[],[],"[u'1', 3, 7, 12]",[],[],"{u'mouseover': {u'state': {u'target': [], u'time': []}, u'edge': {u'target': [], u'time': []}}, u'click': {u'state': {u'target': [u'4', u'2', u'15', u'3', u'12'], u'time': [2157, 2923, 3446, 5586, 6359]}, u'edge': {u'target': [], u'time': []}}, u'mouseout': {u'state': {u'target': [], u'time': []}, u'edge': {u'target': [], u'time': []}}}",,,"[7575, 679, 564]",11.0,,1783698,14.0,4.0,mouselab-mdp,,7
"[9603, 10641, 11583]","[u'up', u'up', u'left']",,,[],[],"[u'1', 3, 7, 12]",[],[],"{u'mouseover': {u'state': {u'target': [], u'time': []}, u'edge': {u'target': [], u'time': []}}, u'click': {u'state': {u'target': [u'4', u'5', u'15', u'12', u'3'], u'time': [2872, 3770, 4422, 5669, 7410]}, u'edge': {u'target': [], u'time': []}}, u'mouseout': {u'state': {u'target': [], u'time': []}, u'edge': {u'target': [], u'time': []}}}",,,"[9603, 520, 431]",0.0,,1859920,15.0,10.0,mouselab-mdp,,7
"[7893, 8994, 10124]","[u'up', u'up', u'left']",,,[],[],"[u'1', 3, 7, 12]",[],[],"{u'mouseover': {u'state': {u'target': [], u'time': []}, u'edge': {u'target': [], u'time': []}}, u'click': {u'state': {u'target': [u'4', u'3', u'2', u'5', u'11', u'12'], u'time': [1465, 1770, 2054, 2337, 4372, 6939]}, u'edge': {u'target': [], u'time': []}}, u'mouseout': {u'state': {u'target': [], u'time': []}, u'edge': {u'target': [], u'time': []}}}",,,"[7893, 580, 624]",8.0,,1929717,16.0,2.0,mouselab-mdp,,7
"[1749, 12578, 15059]","[u'down', u'down', u'left']",,,"[None, None, None]","[True, True, True]","[u'1', 5, 9, 16]","[False, False, False]","[False, False, False]","{u'mouseover': {u'state': {u'target': [], u'time': []}, u'edge': {u'target': [], u'time': []}}, u'click': {u'state': {u'target': [], u'time': []}, u'edge': {u'target': [], u'time': []}}, u'mouseout': {u'state': {u'target': [], u'time': []}, u'edge': {u'target': [], u'time': []}}}",,,"[1749, 5, 1659]",16.0,,117822,1.0,1.0,mouselab-mdp,,8
"[3323, 14579, 15850]","[u'left', u'left', u'up']",,,"[None, None, None]","[True, True, True]","[u'1', 4, 8, 14]","[False, False, False]","[False, False, False]","{u'mouseover': {u'state': {u'target': [], u'time': []}, u'edge': {u'target': [], u'time': []}}, u'click': {u'state': {u'target': [], u'time': []}, u'edge': {u'target': [], u'time': []}}, u'mouseout': {u'state': {u'target': [], u'time': []}, u'edge': {u'target': [], u'time': []}}}",,,"[3323, 894, 471]",15.0,,190278,2.0,4.0,mouselab-mdp,,8
"[3348, 16124, 20132]","[u'right', u'right', u'down']",,,"[None, None, None]","[True, True, True]","[u'1', 2, 6, 11]","[False, False, False]","[False, False, False]","{u'mouseover': {u'state': {u'target': [], u'time': []}, u'edge': {u'target': [], u'time': []}}, u'click': {u'state': {u'target': [], u'time': []}, u'edge': {u'target': [], u'time': []}}, u'mouseout': {u'state': {u'target': [], u'time': []}, u'edge': {u'target': [], u'time': []}}}",,,"[3348, 2308, 3198]",14.0,,248206,3.0,2.0,mouselab-mdp,,8
"[3647, 14536, 18943]","[u'up', u'up', u'right']",,,"[None, None, None]","[True, True, True]","[u'1', 3, 7, 13]","[False, False, False]","[False, False, False]","{u'mouseover': {u'state': {u'target': [], u'time': []}, u'edge': {u'target': [], u'time': []}}, u'click': {u'state': {u'target': [], u'time': []}, u'edge': {u'target': [], u'time': []}}, u'mouseout': {u'state': {u'target': [], u'time': []}, u'edge': {u'target': [], u'time': []}}}",,,"[3647, 539, 3606]",16.0,,308646,4.0,15.0,mouselab-mdp,,8
"[4835, 16731, 18675]","[u'left', u'left', u'up']",,,"[None, None, None]","[True, True, True]","[u'1', 4, 8, 14]","[False, False, False]","[False, False, False]","{u'mouseover': {u'state': {u'target': [], u'time': []}, u'edge': {u'target': [], u'time': []}}, u'click': {u'state': {u'target': [], u'time': []}, u'edge': {u'target': [], u'time': []}}, u'mouseout': {u'state': {u'target': [], u'time': []}, u'edge': {u'target': [], u'time': []}}}",,,"[4835, 1153, 1127]",11.0,,366221,5.0,5.0,mouselab-mdp,,8
"[2185, 13595, 15729]","[u'left', u'left', u'up']",,,"[None, None, None]","[True, True, True]","[u'1', 4, 8, 14]","[False, False, False]","[False, False, False]","{u'mouseover': {u'state': {u'target': [], u'time': []}, u'edge': {u'target': [], u'time': []}}, u'click': {u'state': {u'target': [], u'time': []}, u'edge': {u'target': [], u'time': []}}, u'mouseout': {u'state': {u'target': [], u'time': []}, u'edge': {u'target': [], u'time': []}}}",,,"[2185, 787, 1329]",14.0,,426597,6.0,13.0,mouselab-mdp,,8
"[1622, 12670, 14862]","[u'down', u'down', u'right']",,,"[None, None, None]","[True, True, True]","[u'1', 5, 9, 17]","[False, False, False]","[False, False, False]","{u'mouseover': {u'state': {u'target': [], u'time': []}, u'edge': {u'target': [], u'time': []}}, u'click': {u'state': {u'target': [], u'time': []}, u'edge': {u'target': [], u'time': []}}, u'mouseout': {u'state': {u'target': [], u'time': []}, u'edge': {u'target': [], u'time': []}}}",,,"[1622, 639, 1359]",5.0,,481518,7.0,10.0,mouselab-mdp,,8
"[608, 11400, 63432]","[u'down', u'down', u'left']",,,"[None, None, None]","[True, True, True]","[u'1', 5, 9, 16]","[False, False, False]","[False, False, True]","{u'mouseover': {u'state': {u'target': [], u'time': []}, u'edge': {u'target': [], u'time': []}}, u'click': {u'state': {u'target': [u'16', u'17'], u'time': [18197, 19720]}, u'edge': {u'target': [], u'time': []}}, u'mouseout': {u'state': {u'target': [], u'time': []}, u'edge': {u'target': [], u'time': []}}}",,,"[608, 563, 51213]",13.0,,550733,8.0,3.0,mouselab-mdp,,8
"[2131, 12947, 14363]","[u'down', u'down', u'left']",,,"[None, None, None]","[True, True, True]","[u'1', 5, 9, 16]","[False, False, False]","[False, False, False]","{u'mouseover': {u'state': {u'target': [], u'time': []}, u'edge': {u'target': [], u'time': []}}, u'click': {u'state': {u'target': [], u'time': []}, u'edge': {u'target': [], u'time': []}}, u'mouseout': {u'state': {u'target': [], u'time': []}, u'edge': {u'target': [], u'time': []}}}",,,"[2131, 565, 618]",10.0,,614303,9.0,9.0,mouselab-mdp,,8
"[5064, 16136, 21536]","[u'down', u'down', u'left']",,,"[None, None, None]","[True, True, True]","[u'1', 5, 9, 16]","[False, False, False]","[False, False, True]","{u'mouseover': {u'state': {u'target': [], u'time': []}, u'edge': {u'target': [], u'time': []}}, u'click': {u'state': {u'target': [u'17', u'16'], u'time': [19259, 19901]}, u'edge': {u'target': [], u'time': []}}, u'mouseout': {u'state': {u'target': [], u'time': []}, u'edge': {u'target': [], u'time': []}}}",,,"[5064, 562, 4590]",8.0,,670790,10.0,6.0,mouselab-mdp,,8
"[4454, 5910, 7046]","[u'up', u'up', u'left']",,,[],[],"[u'1', 3, 7, 12]",[],[],"{u'mouseover': {u'state': {u'target': [], u'time': []}, u'edge': {u'target': [], u'time': []}}, u'click': {u'state': {u'target': [], u'time': []}, u'edge': {u'target': [], u'time': []}}, u'mouseout': {u'state': {u'target': [], u'time': []}, u'edge': {u'target': [], u'time': []}}}",,,"[4454, 946, 632]",13.0,,717934,11.0,0.0,mouselab-mdp,,8
"[1104, 2584, 4296]","[u'right', u'right', u'up']",,,[],[],"[u'1', 2, 6, 10]",[],[],"{u'mouseover': {u'state': {u'target': [], u'time': []}, u'edge': {u'target': [], u'time': []}}, u'click': {u'state': {u'target': [], u'time': []}, u'edge': {u'target': [], u'time': []}}, u'mouseout': {u'state': {u'target': [], u'time': []}, u'edge': {u'target': [], u'time': []}}}",,,"[1103, 970, 1198]",7.0,,765006,12.0,14.0,mouselab-mdp,,8
"[747, 1803, 2811]","[u'right', u'right', u'up']",,,[],[],"[u'1', 2, 6, 10]",[],[],"{u'mouseover': {u'state': {u'target': [], u'time': []}, u'edge': {u'target': [], u'time': []}}, u'click': {u'state': {u'target': [], u'time': []}, u'edge': {u'target': [], u'time': []}}, u'mouseout': {u'state': {u'target': [], u'time': []}, u'edge': {u'target': [], u'time': []}}}",,,"[747, 542, 500]",14.0,,812008,13.0,12.0,mouselab-mdp,,8
"[664, 1976, 8024]","[u'down', u'down', u'right']",,,[],[],"[u'1', 5, 9, 17]",[],[],"{u'mouseover': {u'state': {u'target': [], u'time': []}, u'edge': {u'target': [], u'time': []}}, u'click': {u'state': {u'target': [u'17', u'16'], u'time': [5861, 6918]}, u'edge': {u'target': [], u'time': []}}, u'mouseout': {u'state': {u'target': [], u'time': []}, u'edge': {u'target': [], u'time': []}}}",,,"[664, 809, 5541]",14.0,,860518,14.0,11.0,mouselab-mdp,,8
"[1619, 3011, 4619]","[u'left', u'left', u'up']",,,[],[],"[u'1', 4, 8, 14]",[],[],"{u'mouseover': {u'state': {u'target': [], u'time': []}, u'edge': {u'target': [], u'time': []}}, u'click': {u'state': {u'target': [], u'time': []}, u'edge': {u'target': [], u'time': []}}, u'mouseout': {u'state': {u'target': [], u'time': []}, u'edge': {u'target': [], u'time': []}}}",,,"[1618, 881, 1106]",15.0,,908710,15.0,8.0,mouselab-mdp,,8
"[1643, 2715, 7563]","[u'down', u'down', u'left']",,,[],[],"[u'1', 5, 9, 16]",[],[],"{u'mouseover': {u'state': {u'target': [], u'time': []}, u'edge': {u'target': [], u'time': []}}, u'click': {u'state': {u'target': [u'17', u'16'], u'time': [5728, 6410]}, u'edge': {u'target': [], u'time': []}}, u'mouseout': {u'state': {u'target': [], u'time': []}, u'edge': {u'target': [], u'time': []}}}",,,"[1643, 559, 4340]",13.0,,960838,16.0,7.0,mouselab-mdp,,8
"[4292, 50688, 60485]","[u'right', u'right', u'up']",,,"[None, None, None]","[True, True, True]","[u'1', 2, 6, 10]","[False, False, False]","[False, False, False]","{u'mouseover': {u'state': {u'target': [], u'time': []}, u'edge': {u'target': [], u'time': []}}, u'click': {u'state': {u'target': [u'6', u'10', u'2', u'7'], u'time': [43769, 43797, 43865, 43990]}, u'edge': {u'target': [], u'time': []}}, u'mouseout': {u'state': {u'target': [], u'time': []}, u'edge': {u'target': [], u'time': []}}}",,,"[4290, 6953, 4233]",11.0,,270608,1.0,4.0,mouselab-mdp,,9
"[9021, 50938, 59426]","[u'left', u'left', u'up']",,,"[None, None, None]","[True, True, True]","[u'1', 4, 8, 14]","[True, False, False]","[True, False, False]","{u'mouseover': {u'state': {u'target': [], u'time': []}, u'edge': {u'target': [], u'time': []}}, u'click': {u'state': {u'target': [u'5', u'3', u'2', u'4', u'8'], u'time': [3996, 5341, 6646, 7617, 50873]}, u'edge': {u'target': [], u'time': []}}, u'mouseout': {u'state': {u'target': [], u'time': []}, u'edge': {u'target': [], u'time': []}}}",,,"[9020, 101, 5334]",11.0,,375911,2.0,1.0,mouselab-mdp,,9
"[5843, 59047, 62499]","[u'up', u'up', u'left']",,,"[None, None, None]","[True, True, True]","[u'1', 3, 7, 12]","[True, False, False]","[True, False, False]","{u'mouseover': {u'state': {u'target': [], u'time': []}, u'edge': {u'target': [], u'time': []}}, u'click': {u'state': {u'target': [u'3', u'7', u'12'], u'time': [4588, 47649, 57786]}, u'edge': {u'target': [], u'time': []}}, u'mouseout': {u'state': {u'target': [], u'time': []}, u'edge': {u'target': [], u'time': []}}}",,,"[5842, 11432, 12]",11.0,,478984,3.0,2.0,mouselab-mdp,,9
"[24512, 50891, 64711]","[u'up', u'up', u'left']",,,"[None, None, None]","[True, True, True]","[u'1', 3, 7, 12]","[True, False, False]","[True, False, True]","{u'mouseover': {u'state': {u'target': [], u'time': []}, u'edge': {u'target': [], u'time': []}}, u'click': {u'state': {u'target': [u'2', u'3', u'4', u'5', u'7', u'13', u'12'], u'time': [18646, 20614, 22292, 22982, 50885, 58923, 60449]}, u'edge': {u'target': [], u'time': []}}, u'mouseout': {u'state': {u'target': [], u'time': []}, u'edge': {u'target': [], u'time': []}}}",,,"[24511, 22, 12145]",9.0,,156812,1.0,4.0,mouselab-mdp,,11
"[8221, 54574, 58111]","[u'down', u'down', u'left']",,,"[None, None, None]","[True, True, True]","[u'1', 5, 9, 16]","[True, False, False]","[True, False, False]","{u'mouseover': {u'state': {u'target': [], u'time': []}, u'edge': {u'target': [], u'time': []}}, u'click': {u'state': {u'target': [u'3', u'4', u'5', u'2', u'6', u'9', u'16', u'17', u'11', u'10', u'14', u'8', u'15', u'12', u'7', u'13'], u'time': [1569, 2729, 3681, 5121, 31931, 39270, 40200, 40847, 41704, 42320, 43239, 43678, 44232, 45529, 45871, 46400]}, u'edge': {u'target': [], u'time': []}}, u'mouseout': {u'state': {u'target': [], u'time': []}, u'edge': {u'target': [], u'time': []}}}",,,"[8221, 22653, 18]",-3.0,,234275,2.0,0.0,mouselab-mdp,,11
"[19541, 38401, 106221]","[u'down', u'down', u'right']",,,"[None, None, None]","[True, True, True]","[u'1', 5, 9, 17]","[False, False, False]","[True, False, False]","{u'mouseover': {u'state': {u'target': [], u'time': []}, u'edge': {u'target': [], u'time': []}}, u'click': {u'state': {u'target': [u'14', u'8', u'15', u'16', u'9', u'17', u'11', u'6', u'10', u'13', u'7', u'12', u'3', u'4', u'2', u'5'], u'time': [1891, 2770, 3363, 4155, 4650, 5106, 6034, 6451, 6811, 7650, 8035, 8428, 9523, 10018, 10651, 11114]}, u'edge': {u'target': [], u'time': []}}, u'mouseout': {u'state': {u'target': [], u'time': []}, u'edge': {u'target': [], u'time': []}}}",,,"[19541, 53, 67307]",-4.0,,346364,3.0,5.0,mouselab-mdp,,11
"[51564, 68678, 76688]","[u'left', u'left', u'down']",,,"[None, None, None]","[True, True, True]","[u'1', 4, 8, 15]","[False, False, False]","[True, False, False]","{u'mouseover': {u'state': {u'target': [], u'time': []}, u'edge': {u'target': [], u'time': []}}, u'click': {u'state': {u'target': [u'5', u'9', u'16', u'17', u'2', u'6', u'11', u'10', u'4', u'8', u'15', u'14', u'3', u'7', u'12', u'13'], u'time': [1698, 2161, 2601, 3322, 3851, 4721, 5121, 5545, 7529, 7946, 8305, 8817, 9689, 9960, 10257, 10600]}, u'edge': {u'target': [], u'time': []}}, u'mouseout': {u'state': {u'target': [], u'time': []}, u'edge': {u'target': [], u'time': []}}}",,,"[51564, 28, 7499]",-2.0,,428261,4.0,13.0,mouselab-mdp,,11
"[33635, 52296, 53559]","[u'left', u'left', u'up']",,,"[None, None, None]","[False, True, True]","[u'1', 4, 8, 14]","[False, False, False]","[True, False, False]","{u'mouseover': {u'state': {u'target': [], u'time': []}, u'edge': {u'target': [], u'time': []}}, u'click': {u'state': {u'target': [u'5', u'9', u'16', u'17', u'2', u'6', u'11', u'10', u'3', u'7', u'13', u'12', u'4', u'8', u'14', u'15'], u'time': [1360, 1855, 2311, 2863, 4744, 5306, 5863, 6498, 12231, 12663, 13207, 14095, 18080, 18574, 19647, 21942]}, u'edge': {u'target': [], u'time': []}}, u'mouseout': {u'state': {u'target': [], u'time': []}, u'edge': {u'target': [], u'time': []}}}",,,"[33635, 17, 734]",-5.0,,513920,5.0,6.0,mouselab-mdp,,11
"[9570, 27809, 34493]","[u'down', u'down', u'right']",,,"[None, None, None]","[False, True, True]","[u'1', 5, 9, 17]","[False, False, False]","[True, False, False]","{u'mouseover': {u'state': {u'target': [], u'time': []}, u'edge': {u'target': [], u'time': []}}, u'click': {u'state': {u'target': [u'5', u'9', u'16', u'17'], u'time': [3058, 3999, 4807, 5491]}, u'edge': {u'target': [], u'time': []}}, u'mouseout': {u'state': {u'target': [], u'time': []}, u'edge': {u'target': [], u'time': []}}}",,,"[9570, 30, 5806]",13.0,,609485,6.0,15.0,mouselab-mdp,,11
"[30359, 51572, 81215]","[u'up', u'up', u'right']",,,"[None, None, None]","[True, True, True]","[u'1', 3, 7, 13]","[False, False, False]","[True, False, False]","{u'mouseover': {u'state': {u'target': [], u'time': []}, u'edge': {u'target': [], u'time': []}}, u'click': {u'state': {u'target': [u'5', u'9', u'17', u'16', u'2', u'6', u'11', u'10', u'4', u'8', u'15', u'14', u'3', u'7', u'12', u'13'], u'time': [2065, 3200, 3609, 4187, 8825, 9625, 10232, 11179, 14792, 15271, 15831, 16479, 20176, 20796, 21375, 22463]}, u'edge': {u'target': [], u'time': []}}, u'mouseout': {u'state': {u'target': [], u'time': []}, u'edge': {u'target': [], u'time': []}}}",,,"[30359, 23, 29061]",-8.0,,697945,7.0,14.0,mouselab-mdp,,11
"[17044, 33731, 41381]","[u'down', u'down', u'right']",,,"[None, None, None]","[False, True, True]","[u'1', 5, 9, 17]","[False, False, False]","[True, False, False]","{u'mouseover': {u'state': {u'target': [], u'time': []}, u'edge': {u'target': [], u'time': []}}, u'click': {u'state': {u'target': [u'5', u'9', u'17', u'16', u'2', u'6', u'11', u'10'], u'time': [2651, 3329, 4245, 5106, 9097, 9721, 10235, 11146]}, u'edge': {u'target': [], u'time': []}}, u'mouseout': {u'state': {u'target': [], u'time': []}, u'edge': {u'target': [], u'time': []}}}",,,"[17044, 31, 6897]",7.0,,781334,8.0,8.0,mouselab-mdp,,11
"[18730, 36536, 46133]","[u'down', u'down', u'right']",,,"[None, None, None]","[False, True, True]","[u'1', 5, 9, 17]","[False, False, False]","[True, False, False]","{u'mouseover': {u'state': {u'target': [], u'time': []}, u'edge': {u'target': [], u'time': []}}, u'click': {u'state': {u'target': [u'5', u'9', u'16', u'17', u'2', u'6', u'11'], u'time': [3951, 4566, 5094, 5974, 10198, 10710, 11190]}, u'edge': {u'target': [], u'time': []}}, u'mouseout': {u'state': {u'target': [], u'time': []}, u'edge': {u'target': [], u'time': []}}}",,,"[18730, 39, 8569]",3.0,,857392,9.0,9.0,mouselab-mdp,,11
"[14368, 39665, 114597]","[u'down', u'down', u'right']",,,"[None, None, None]","[False, True, True]","[u'1', 5, 9, 17]","[False, False, False]","[True, False, False]","{u'mouseover': {u'state': {u'target': [], u'time': []}, u'edge': {u'target': [], u'time': []}}, u'click': {u'state': {u'target': [u'5', u'9', u'17', u'16'], u'time': [2280, 3015, 3495, 4031]}, u'edge': {u'target': [], u'time': []}}, u'mouseout': {u'state': {u'target': [], u'time': []}, u'edge': {u'target': [], u'time': []}}}",,,"[14368, 44, 74064]",12.0,,983809,10.0,11.0,mouselab-mdp,,11
"[13568, 14506, 15325]","[u'down', u'down', u'right']",,,[],[],"[u'1', 5, 9, 17]",[],[],"{u'mouseover': {u'state': {u'target': [], u'time': []}, u'edge': {u'target': [], u'time': []}}, u'click': {u'state': {u'target': [u'5', u'9', u'17', u'16'], u'time': [1773, 2261, 2733, 3381]}, u'edge': {u'target': [], u'time': []}}, u'mouseout': {u'state': {u'target': [], u'time': []}, u'edge': {u'target': [], u'time': []}}}",,,"[13568, 409, 310]",11.0,,1070879,11.0,7.0,mouselab-mdp,,11
"[30856, 31596, 32320]","[u'up', u'up', u'right']",,,[],[],"[u'1', 3, 7, 13]",[],[],"{u'mouseover': {u'state': {u'target': [], u'time': []}, u'edge': {u'target': [], u'time': []}}, u'click': {u'state': {u'target': [u'5', u'9', u'17', u'16', u'2', u'6', u'11', u'10', u'4', u'8', u'15', u'14', u'3', u'12', u'7', u'13'], u'time': [2189, 2773, 3130, 4045, 12190, 12549, 12965, 15757, 19485, 20021, 20445, 23533, 24940, 25357, 25625, 25916]}, u'edge': {u'target': [], u'time': []}}, u'mouseout': {u'state': {u'target': [], u'time': []}, u'edge': {u'target': [], u'time': []}}}",,,"[30856, 230, 220]",-2.0,,1148742,12.0,12.0,mouselab-mdp,,11
"[4127, 4842, 5425]","[u'down', u'down', u'right']",,,[],[],"[u'1', 5, 9, 17]",[],[],"{u'mouseover': {u'state': {u'target': [], u'time': []}, u'edge': {u'target': [], u'time': []}}, u'click': {u'state': {u'target': [u'5', u'9', u'16', u'17'], u'time': [1915, 2251, 2659, 3243]}, u'edge': {u'target': [], u'time': []}}, u'mouseout': {u'state': {u'target': [], u'time': []}, u'edge': {u'target': [], u'time': []}}}",,,"[4127, 204, 70]",11.0,,1198687,13.0,3.0,mouselab-mdp,,11
"[963, 1695, 2581]","[u'down', u'down', u'right']",,,[],[],"[u'1', 5, 9, 17]",[],[],"{u'mouseover': {u'state': {u'target': [], u'time': []}, u'edge': {u'target': [], u'time': []}}, u'click': {u'state': {u'target': [], u'time': []}, u'edge': {u'target': [], u'time': []}}, u'mouseout': {u'state': {u'target': [], u'time': []}, u'edge': {u'target': [], u'time': []}}}",,,"[962, 189, 380]",14.0,,1253599,14.0,2.0,mouselab-mdp,,11
"[505, 1304, 1977]","[u'down', u'down', u'right']",,,[],[],"[u'1', 5, 9, 17]",[],[],"{u'mouseover': {u'state': {u'target': [], u'time': []}, u'edge': {u'target': [], u'time': []}}, u'click': {u'state': {u'target': [], u'time': []}, u'edge': {u'target': [], u'time': []}}, u'mouseout': {u'state': {u'target': [], u'time': []}, u'edge': {u'target': [], u'time': []}}}",,,"[505, 281, 153]",16.0,,1319003,15.0,1.0,mouselab-mdp,,11
"[1200, 1877, 2497]","[u'down', u'down', u'right']",,,[],[],"[u'1', 5, 9, 17]",[],[],"{u'mouseover': {u'state': {u'target': [], u'time': []}, u'edge': {u'target': [], u'time': []}}, u'click': {u'state': {u'target': [], u'time': []}, u'edge': {u'target': [], u'time': []}}, u'mouseout': {u'state': {u'target': [], u'time': []}, u'edge': {u'target': [], u'time': []}}}",,,"[1199, 166, 101]",5.0,,1378267,16.0,10.0,mouselab-mdp,,11
"[5490, 15929, 20447]","[u'left', u'left', u'down']",,,"[None, None, None]","[True, True, True]","[u'1', 4, 8, 15]","[False, False, False]","[False, False, False]","{u'mouseover': {u'state': {u'target': [], u'time': []}, u'edge': {u'target': [], u'time': []}}, u'click': {u'state': {u'target': [], u'time': []}, u'edge': {u'target': [], u'time': []}}, u'mouseout': {u'state': {u'target': [], u'time': []}, u'edge': {u'target': [], u'time': []}}}",,,"[5489, 3, 3670]",14.0,,433267,1.0,8.0,mouselab-mdp,,12
"[18418, 29380, 63387]","[u'up', u'up', u'right']",,,"[None, None, None]","[True, True, True]","[u'1', 3, 7, 13]","[True, False, False]","[True, False, True]","{u'mouseover': {u'state': {u'target': [], u'time': []}, u'edge': {u'target': [], u'time': []}}, u'click': {u'state': {u'target': [u'3', u'13', u'12'], u'time': [13215, 34774, 35901]}, u'edge': {u'target': [], u'time': []}}, u'mouseout': {u'state': {u'target': [], u'time': []}, u'edge': {u'target': [], u'time': []}}}",,,"[18418, 3, 33149]",11.0,,510019,2.0,3.0,mouselab-mdp,,12
"[22526, 33916, 40007]","[u'right', u'right', u'down']",,,"[None, None, None]","[True, True, True]","[u'1', 2, 6, 11]","[True, False, False]","[True, False, True]","{u'mouseover': {u'state': {u'target': [], u'time': []}, u'edge': {u'target': [], u'time': []}}, u'click': {u'state': {u'target': [u'5', u'4', u'2', u'10', u'11'], u'time': [1465, 3479, 12737, 36813, 37598]}, u'edge': {u'target': [], u'time': []}}, u'mouseout': {u'state': {u'target': [], u'time': []}, u'edge': {u'target': [], u'time': []}}}",,,"[22526, 4, 5230]",9.0,,569371,3.0,13.0,mouselab-mdp,,12
"[4344, 15180, 24220]","[u'up', u'up', u'right']",,,"[None, None, None]","[True, True, True]","[u'1', 3, 7, 13]","[True, False, False]","[True, False, True]","{u'mouseover': {u'state': {u'target': [], u'time': []}, u'edge': {u'target': [], u'time': []}}, u'click': {u'state': {u'target': [u'3', u'13', u'12'], u'time': [1253, 19866, 21730]}, u'edge': {u'target': [], u'time': []}}, u'mouseout': {u'state': {u'target': [], u'time': []}, u'edge': {u'target': [], u'time': []}}}",,,"[4344, 3, 8065]",2.0,,629974,4.0,10.0,mouselab-mdp,,12
"[5351, 16215, 22938]","[u'left', u'left', u'up']",,,"[None, None, None]","[True, True, True]","[u'1', 4, 8, 14]","[True, False, False]","[True, False, True]","{u'mouseover': {u'state': {u'target': [], u'time': []}, u'edge': {u'target': [], u'time': []}}, u'click': {u'state': {u'target': [u'4', u'14', u'15'], u'time': [2484, 20219, 20979]}, u'edge': {u'target': [], u'time': []}}, u'mouseout': {u'state': {u'target': [], u'time': []}, u'edge': {u'target': [], u'time': []}}}",,,"[5351, 2, 5779]",4.0,,693488,5.0,14.0,mouselab-mdp,,12
"[9301, 27547, 33206]","[u'left', u'left', u'down']",,,"[None, None, None]","[True, True, True]","[u'1', 4, 8, 15]","[True, False, False]","[True, False, True]","{u'mouseover': {u'state': {u'target': [], u'time': []}, u'edge': {u'target': [], u'time': []}}, u'click': {u'state': {u'target': [u'5', u'3', u'4', u'2', u'14', u'15'], u'time': [1188, 2657, 4044, 5045, 30624, 31292]}, u'edge': {u'target': [], u'time': []}}, u'mouseout': {u'state': {u'target': [], u'time': []}, u'edge': {u'target': [], u'time': []}}}",,,"[9301, 6620, 4676]",10.0,,755935,6.0,1.0,mouselab-mdp,,12
"[12339, 23556, 30998]","[u'left', u'left', u'down']",,,"[None, None, None]","[False, True, True]","[u'1', 4, 8, 15]","[False, False, False]","[True, False, True]","{u'mouseover': {u'state': {u'target': [], u'time': []}, u'edge': {u'target': [], u'time': []}}, u'click': {u'state': {u'target': [u'3', u'2', u'5', u'4', u'14', u'15'], u'time': [5841, 6928, 8174, 9455, 28433, 29265]}, u'edge': {u'target': [], u'time': []}}, u'mouseout': {u'state': {u'target': [], u'time': []}, u'edge': {u'target': [], u'time': []}}}",,,"[12339, 3, 6613]",6.0,,816744,7.0,5.0,mouselab-mdp,,12
"[8144, 19687, 25781]","[u'down', u'down', u'left']",,,"[None, None, None]","[True, True, True]","[u'1', 5, 9, 16]","[True, False, False]","[True, False, True]","{u'mouseover': {u'state': {u'target': [], u'time': []}, u'edge': {u'target': [], u'time': []}}, u'click': {u'state': {u'target': [u'2', u'3', u'5', u'4', u'17', u'16'], u'time': [1184, 3087, 4480, 6367, 22915, 23794]}, u'edge': {u'target': [], u'time': []}}, u'mouseout': {u'state': {u'target': [], u'time': []}, u'edge': {u'target': [], u'time': []}}}",,,"[8144, 2, 5247]",7.0,,877601,8.0,0.0,mouselab-mdp,,12
"[4761, 15546, 21679]","[u'up', u'up', u'right']",,,"[None, None, None]","[True, True, False]","[u'1', 3, 7, 13]","[True, False, False]","[True, False, True]","{u'mouseover': {u'state': {u'target': [], u'time': []}, u'edge': {u'target': [], u'time': []}}, u'click': {u'state': {u'target': [u'3', u'13'], u'time': [1997, 18514]}, u'edge': {u'target': [], u'time': []}}, u'mouseout': {u'state': {u'target': [], u'time': []}, u'edge': {u'target': [], u'time': []}}}",,,"[4761, 2, 5279]",13.0,,939355,9.0,4.0,mouselab-mdp,,12
"[6966, 18104, 27148]","[u'right', u'right', u'up']",,,"[None, None, None]","[True, True, True]","[u'1', 2, 6, 10]","[True, False, False]","[True, False, True]","{u'mouseover': {u'state': {u'target': [], u'time': []}, u'edge': {u'target': [], u'time': []}}, u'click': {u'state': {u'target': [u'5', u'2', u'10'], u'time': [2857, 5255, 22136]}, u'edge': {u'target': [], u'time': []}}, u'mouseout': {u'state': {u'target': [], u'time': []}, u'edge': {u'target': [], u'time': []}}}",,,"[6966, 2, 8184]",7.0,,999971,10.0,9.0,mouselab-mdp,,12
"[9260, 13119, 19923]","[u'down', u'down', u'right']",,,[],[],"[u'1', 5, 9, 17]",[],[],"{u'mouseover': {u'state': {u'target': [], u'time': []}, u'edge': {u'target': [], u'time': []}}, u'click': {u'state': {u'target': [u'2', u'3', u'5', u'16', u'17'], u'time': [4806, 6396, 7321, 16759, 17672]}, u'edge': {u'target': [], u'time': []}}, u'mouseout': {u'state': {u'target': [], u'time': []}, u'edge': {u'target': [], u'time': []}}}",,,"[9260, 3346, 6289]",10.0,,1053600,11.0,7.0,mouselab-mdp,,12
"[4671, 8210, 14668]","[u'up', u'up', u'left']",,,[],[],"[u'1', 3, 7, 12]",[],[],"{u'mouseover': {u'state': {u'target': [], u'time': []}, u'edge': {u'target': [], u'time': []}}, u'click': {u'state': {u'target': [u'3', u'12'], u'time': [2394, 12435]}, u'edge': {u'target': [], u'time': []}}, u'mouseout': {u'state': {u'target': [], u'time': []}, u'edge': {u'target': [], u'time': []}}}",,,"[4671, 3028, 5953]",12.0,,1104788,12.0,11.0,mouselab-mdp,,12
"[9573, 13807, 24087]","[u'right', u'right', u'up']",,,[],[],"[u'1', 2, 6, 10]",[],[],"{u'mouseover': {u'state': {u'target': [], u'time': []}, u'edge': {u'target': [], u'time': []}}, u'click': {u'state': {u'target': [u'4', u'5', u'3', u'2', u'10'], u'time': [1497, 3060, 4300, 5891, 17623]}, u'edge': {u'target': [], u'time': []}}, u'mouseout': {u'state': {u'target': [], u'time': []}, u'edge': {u'target': [], u'time': []}}}",,,"[9573, 3723, 9770]",7.0,,1178820,13.0,6.0,mouselab-mdp,,12
"[5374, 7665, 13862]","[u'left', u'left', u'down']",,,[],[],"[u'1', 4, 8, 15]",[],[],"{u'mouseover': {u'state': {u'target': [], u'time': []}, u'edge': {u'target': [], u'time': []}}, u'click': {u'state': {u'target': [u'4', u'14', u'15'], u'time': [2137, 10930, 11962]}, u'edge': {u'target': [], u'time': []}}, u'mouseout': {u'state': {u'target': [], u'time': []}, u'edge': {u'target': [], u'time': []}}}",,,"[5374, 1784, 5681]",11.0,,1227515,14.0,12.0,mouselab-mdp,,12
"[8075, 9492, 14146]","[u'down', u'down', u'right']",,,[],[],"[u'1', 5, 9, 17]",[],[],"{u'mouseover': {u'state': {u'target': [], u'time': []}, u'edge': {u'target': [], u'time': []}}, u'click': {u'state': {u'target': [u'5', u'17'], u'time': [5146, 12124]}, u'edge': {u'target': [], u'time': []}}, u'mouseout': {u'state': {u'target': [], u'time': []}, u'edge': {u'target': [], u'time': []}}}",,,"[8075, 912, 4151]",15.0,,1277097,15.0,15.0,mouselab-mdp,,12
"[52020, 53027, 56639]","[u'left', u'left', u'down']",,,[],[],"[u'1', 4, 8, 15]",[],[],"{u'mouseover': {u'state': {u'target': [], u'time': []}, u'edge': {u'target': [], u'time': []}}, u'click': {u'state': {u'target': [u'4', u'5', u'3', u'2', u'6', u'10', u'11', u'7', u'8', u'14', u'15'], u'time': [3114, 4122, 5193, 7017, 8065, 14741, 15888, 21092, 25894, 29250, 55179]}, u'edge': {u'target': [], u'time': []}}, u'mouseout': {u'state': {u'target': [], u'time': []}, u'edge': {u'target': [], u'time': []}}}",,,"[52020, 485, 3115]",4.0,,1340175,16.0,2.0,mouselab-mdp,,12
"[6481, 15384, 17947]","[u'up', u'up', u'left']",,,"[None, None, None]","[True, True, True]","[u'1', 3, 7, 12]","[False, False, False]","[False, False, False]","{u'mouseover': {u'state': {u'target': [], u'time': []}, u'edge': {u'target': [], u'time': []}}, u'click': {u'state': {u'target': [], u'time': []}, u'edge': {u'target': [], u'time': []}}, u'mouseout': {u'state': {u'target': [], u'time': []}, u'edge': {u'target': [], u'time': []}}}",,,"[6480, 3, 1770]",8.0,,204939,1.0,14.0,mouselab-mdp,,13
"[6641, 15445, 19108]","[u'down', u'down', u'left']",,,"[None, None, None]","[True, True, True]","[u'1', 5, 9, 16]","[False, False, False]","[False, False, False]","{u'mouseover': {u'state': {u'target': [], u'time': []}, u'edge': {u'target': [], u'time': []}}, u'click': {u'state': {u'target': [u'9'], u'time': [15454]}, u'edge': {u'target': [], u'time': []}}, u'mouseout': {u'state': {u'target': [], u'time': []}, u'edge': {u'target': [], u'time': []}}}",,,"[6641, 2, 2723]",15.0,,268038,2.0,1.0,mouselab-mdp,,13
"[2722, 11764, 18099]","[u'up', u'up', u'right']",,,"[None, None, None]","[True, True, True]","[u'1', 3, 7, 13]","[False, False, False]","[False, False, False]","{u'mouseover': {u'state': {u'target': [], u'time': []}, u'edge': {u'target': [], u'time': []}}, u'click': {u'state': {u'target': [], u'time': []}, u'edge': {u'target': [], u'time': []}}, u'mouseout': {u'state': {u'target': [], u'time': []}, u'edge': {u'target': [], u'time': []}}}",,,"[2722, 4, 5566]",15.0,,323896,3.0,8.0,mouselab-mdp,,13
"[4345, 13171, 18021]","[u'left', u'left', u'down']",,,"[None, None, None]","[True, True, True]","[u'1', 4, 8, 15]","[False, False, False]","[False, False, False]","{u'mouseover': {u'state': {u'target': [], u'time': []}, u'edge': {u'target': [], u'time': []}}, u'click': {u'state': {u'target': [], u'time': []}, u'edge': {u'target': [], u'time': []}}, u'mouseout': {u'state': {u'target': [], u'time': []}, u'edge': {u'target': [], u'time': []}}}",,,"[4345, 1, 4083]",15.0,,378844,4.0,11.0,mouselab-mdp,,13
"[4467, 13091, 15776]","[u'up', u'up', u'right']",,,"[None, None, None]","[True, True, True]","[u'1', 3, 7, 13]","[False, False, False]","[False, False, False]","{u'mouseover': {u'state': {u'target': [], u'time': []}, u'edge': {u'target': [], u'time': []}}, u'click': {u'state': {u'target': [], u'time': []}, u'edge': {u'target': [], u'time': []}}, u'mouseout': {u'state': {u'target': [], u'time': []}, u'edge': {u'target': [], u'time': []}}}",,,"[4467, 14, 1927]",15.0,,436637,5.0,4.0,mouselab-mdp,,13
"[15997, 24750, 32924]","[u'down', u'down', u'left']",,,"[None, None, None]","[True, True, True]","[u'1', 5, 9, 16]","[False, False, False]","[False, False, False]","{u'mouseover': {u'state': {u'target': [], u'time': []}, u'edge': {u'target': [], u'time': []}}, u'click': {u'state': {u'target': [], u'time': []}, u'edge': {u'target': [], u'time': []}}, u'mouseout': {u'state': {u'target': [], u'time': []}, u'edge': {u'target': [], u'time': []}}}",,,"[15996, 16, 7439]",13.0,,491715,6.0,13.0,mouselab-mdp,,13
"[21650, 30009, 32900]","[u'up', u'up', u'left']",,,"[None, None, None]","[True, True, True]","[u'1', 3, 7, 12]","[False, False, False]","[True, False, False]","{u'mouseover': {u'state': {u'target': [], u'time': []}, u'edge': {u'target': [], u'time': []}}, u'click': {u'state': {u'target': [u'6', u'10', u'11', u'14', u'15'], u'time': [7279, 8206, 9315, 15839, 16938]}, u'edge': {u'target': [], u'time': []}}, u'mouseout': {u'state': {u'target': [], u'time': []}, u'edge': {u'target': [], u'time': []}}}",,,"[21650, 2, 2161]",9.0,,546107,7.0,2.0,mouselab-mdp,,13
"[2958, 11652, 12641]","[u'down', u'down', u'right']",,,"[None, None, None]","[True, True, True]","[u'1', 5, 9, 17]","[False, False, False]","[False, False, False]","{u'mouseover': {u'state': {u'target': [], u'time': []}, u'edge': {u'target': [], u'time': []}}, u'click': {u'state': {u'target': [], u'time': []}, u'edge': {u'target': [], u'time': []}}, u'mouseout': {u'state': {u'target': [], u'time': []}, u'edge': {u'target': [], u'time': []}}}",,,"[2958, 14, 226]",14.0,,606869,8.0,12.0,mouselab-mdp,,13
"[4916, 13451, 18951]","[u'down', u'down', u'left']",,,"[None, None, None]","[True, True, True]","[u'1', 5, 9, 16]","[False, False, False]","[False, False, False]","{u'mouseover': {u'state': {u'target': [], u'time': []}, u'edge': {u'target': [], u'time': []}}, u'click': {u'state': {u'target': [], u'time': []}, u'edge': {u'target': [], u'time': []}}, u'mouseout': {u'state': {u'target': [], u'time': []}, u'edge': {u'target': [], u'time': []}}}",,,"[4916, 18, 4759]",16.0,,673210,9.0,15.0,mouselab-mdp,,13
"[4105, 13006, 17114]","[u'right', u'right', u'down']",,,"[None, None, None]","[True, True, True]","[u'1', 2, 6, 11]","[False, False, False]","[False, False, False]","{u'mouseover': {u'state': {u'target': [], u'time': []}, u'edge': {u'target': [], u'time': []}}, u'click': {u'state': {u'target': [], u'time': []}, u'edge': {u'target': [], u'time': []}}, u'mouseout': {u'state': {u'target': [], u'time': []}, u'edge': {u'target': [], u'time': []}}}",,,"[4105, 15, 3351]",5.0,,731355,10.0,10.0,mouselab-mdp,,13
"[4498, 11017, 13853]","[u'up', u'up', u'right']",,,[],[],"[u'1', 3, 7, 13]",[],[],"{u'mouseover': {u'state': {u'target': [], u'time': []}, u'edge': {u'target': [], u'time': []}}, u'click': {u'state': {u'target': [], u'time': []}, u'edge': {u'target': [], u'time': []}}, u'mouseout': {u'state': {u'target': [], u'time': []}, u'edge': {u'target': [], u'time': []}}}",,,"[4498, 6009, 2317]",10.0,,778698,11.0,6.0,mouselab-mdp,,13
"[5121, 6498, 8868]","[u'up', u'up', u'left']",,,[],[],"[u'1', 3, 7, 12]",[],[],"{u'mouseover': {u'state': {u'target': [], u'time': []}, u'edge': {u'target': [], u'time': []}}, u'click': {u'state': {u'target': [], u'time': []}, u'edge': {u'target': [], u'time': []}}, u'mouseout': {u'state': {u'target': [], u'time': []}, u'edge': {u'target': [], u'time': []}}}",,,"[5121, 862, 1847]",14.0,,828478,12.0,3.0,mouselab-mdp,,13
"[1210, 2275, 7453]","[u'down', u'down', u'left']",,,[],[],"[u'1', 5, 9, 16]",[],[],"{u'mouseover': {u'state': {u'target': [], u'time': []}, u'edge': {u'target': [], u'time': []}}, u'click': {u'state': {u'target': [u'17', u'16'], u'time': [4815, 5912]}, u'edge': {u'target': [], u'time': []}}, u'mouseout': {u'state': {u'target': [], u'time': []}, u'edge': {u'target': [], u'time': []}}}",,,"[1209, 553, 4664]",10.0,,876128,13.0,5.0,mouselab-mdp,,13
"[4340, 6086, 11350]","[u'up', u'up', u'left']",,,[],[],"[u'1', 3, 7, 12]",[],[],"{u'mouseover': {u'state': {u'target': [], u'time': []}, u'edge': {u'target': [], u'time': []}}, u'click': {u'state': {u'target': [u'12', u'13'], u'time': [9201, 10294]}, u'edge': {u'target': [], u'time': []}}, u'mouseout': {u'state': {u'target': [], u'time': []}, u'edge': {u'target': [], u'time': []}}}",,,"[4340, 1227, 4759]",11.0,,924640,14.0,0.0,mouselab-mdp,,13
"[1615, 2736, 8456]","[u'left', u'left', u'up']",,,[],[],"[u'1', 4, 8, 14]",[],[],"{u'mouseover': {u'state': {u'target': [], u'time': []}, u'edge': {u'target': [], u'time': []}}, u'click': {u'state': {u'target': [u'14', u'15'], u'time': [6097, 7107]}, u'edge': {u'target': [], u'time': []}}, u'mouseout': {u'state': {u'target': [], u'time': []}, u'edge': {u'target': [], u'time': []}}}",,,"[1615, 606, 5209]",14.0,,972223,15.0,7.0,mouselab-mdp,,13
"[2205, 3449, 9764]","[u'right', u'right', u'up']",,,[],[],"[u'1', 2, 6, 10]",[],[],"{u'mouseover': {u'state': {u'target': [], u'time': []}, u'edge': {u'target': [], u'time': []}}, u'click': {u'state': {u'target': [u'10', u'11'], u'time': [7159, 8690]}, u'edge': {u'target': [], u'time': []}}, u'mouseout': {u'state': {u'target': [], u'time': []}, u'edge': {u'target': [], u'time': []}}}",,,"[2205, 718, 5799]",8.0,,1020735,16.0,9.0,mouselab-mdp,,13
"[8725, 23430, 26719]","[u'right', u'right', u'up']",,,"[None, None, None]","[True, True, True]","[u'1', 2, 6, 10]","[True, False, False]","[True, False, False]","{u'mouseover': {u'state': {u'target': [], u'time': []}, u'edge': {u'target': [], u'time': []}}, u'click': {u'state': {u'target': [u'2'], u'time': [2459]}, u'edge': {u'target': [], u'time': []}}, u'mouseout': {u'state': {u'target': [], u'time': []}, u'edge': {u'target': [], u'time': []}}}",,,"[8725, 3, 2298]",9.0,,254183,1.0,9.0,mouselab-mdp,,14
"[20630, 32621, 39676]","[u'left', u'left', u'down']",,,"[None, None, None]","[True, True, True]","[u'1', 4, 8, 15]","[False, False, False]","[True, False, False]","{u'mouseover': {u'state': {u'target': [], u'time': []}, u'edge': {u'target': [], u'time': []}}, u'click': {u'state': {u'target': [u'3', u'7', u'13', u'12', u'5', u'9', u'17', u'16'], u'time': [2209, 3162, 3796, 4701, 14201, 14707, 15269, 15975]}, u'edge': {u'target': [], u'time': []}}, u'mouseout': {u'state': {u'target': [], u'time': []}, u'edge': {u'target': [], u'time': []}}}",,,"[20630, 664, 6418]",3.0,,313483,2.0,6.0,mouselab-mdp,,14
"[2370, 15244, 17696]","[u'up', u'up', u'right']",,,"[None, None, None]","[True, True, True]","[u'1', 3, 7, 13]","[False, False, False]","[False, False, False]","{u'mouseover': {u'state': {u'target': [], u'time': []}, u'edge': {u'target': [], u'time': []}}, u'click': {u'state': {u'target': [], u'time': []}, u'edge': {u'target': [], u'time': []}}, u'mouseout': {u'state': {u'target': [], u'time': []}, u'edge': {u'target': [], u'time': []}}}",,,"[2370, 2135, 1663]",5.0,,444301,3.0,10.0,mouselab-mdp,,14
"[1998, 14919, 16660]","[u'down', u'down', u'left']",,,"[None, None, None]","[True, True, True]","[u'1', 5, 9, 16]","[False, False, False]","[False, False, False]","{u'mouseover': {u'state': {u'target': [], u'time': []}, u'edge': {u'target': [], u'time': []}}, u'click': {u'state': {u'target': [], u'time': []}, u'edge': {u'target': [], u'time': []}}, u'mouseout': {u'state': {u'target': [], u'time': []}, u'edge': {u'target': [], u'time': []}}}",,,"[1998, 2004, 898]",15.0,,551208,4.0,7.0,mouselab-mdp,,14
"[15099, 24419, 26604]","[u'up', u'up', u'right']",,,"[None, None, None]","[True, True, True]","[u'1', 3, 7, 13]","[False, False, False]","[True, False, False]","{u'mouseover': {u'state': {u'target': [], u'time': []}, u'edge': {u'target': [], u'time': []}}, u'click': {u'state': {u'target': [u'16', u'17', u'11', u'10', u'13', u'12', u'14', u'15'], u'time': [3786, 6926, 10115, 10899, 11817, 12472, 13147, 14000]}, u'edge': {u'target': [], u'time': []}}, u'mouseout': {u'state': {u'target': [], u'time': []}, u'edge': {u'target': [], u'time': []}}}",,,"[15099, 45, 1187]",4.0,,641041,5.0,5.0,mouselab-mdp,,14
"[17911, 28269, 30582]","[u'up', u'up', u'right']",,,"[None, None, None]","[False, True, True]","[u'1', 3, 7, 13]","[False, False, False]","[True, False, False]","{u'mouseover': {u'state': {u'target': [], u'time': []}, u'edge': {u'target': [], u'time': []}}, u'click': {u'state': {u'target': [u'15', u'14', u'12', u'13', u'10', u'11', u'17', u'16'], u'time': [6851, 7663, 8355, 9662, 10408, 11275, 12000, 12698]}, u'edge': {u'target': [], u'time': []}}, u'mouseout': {u'state': {u'target': [], u'time': []}, u'edge': {u'target': [], u'time': []}}}",,,"[17911, 1003, 1669]",6.0,,710860,6.0,13.0,mouselab-mdp,,14
"[31960, 44243, 45858]","[u'right', u'right', u'down']",,,"[None, None, None]","[True, True, True]","[u'1', 2, 6, 11]","[False, False, False]","[True, False, False]","{u'mouseover': {u'state': {u'target': [], u'time': []}, u'edge': {u'target': [], u'time': []}}, u'click': {u'state': {u'target': [u'16', u'13', u'11', u'15'], u'time': [25904, 27910, 28946, 30034]}, u'edge': {u'target': [], u'time': []}}, u'mouseout': {u'state': {u'target': [], u'time': []}, u'edge': {u'target': [], u'time': []}}}",,,"[31960, 1195, 849]",12.0,,769263,7.0,15.0,mouselab-mdp,,14
"[11203, 28828, 30253]","[u'left', u'left', u'up']",,,"[None, None, None]","[True, True, True]","[u'1', 4, 8, 14]","[False, False, False]","[True, False, False]","{u'mouseover': {u'state': {u'target': [], u'time': []}, u'edge': {u'target': [], u'time': []}}, u'click': {u'state': {u'target': [u'11', u'17', u'15', u'12', u'14', u'16', u'10', u'13'], u'time': [1692, 2553, 3450, 4183, 6277, 8078, 8895, 9513]}, u'edge': {u'target': [], u'time': []}}, u'mouseout': {u'state': {u'target': [], u'time': []}, u'edge': {u'target': [], u'time': []}}}",,,"[11203, 8100, 705]",7.0,,825903,8.0,8.0,mouselab-mdp,,14
