action_times,actions,button_pressed,correct,delays,information_used_correctly,path,planned_too_little,planned_too_much,queries,questions,responses,rt,score,stimulus,time_elapsed,trial_index,trial_i,trial_type,view_history,pid
,,,"[True, True, True, True]",,,,,,,"[""True or false: The hidden values will change each time I start a new round."",""How much does it cost to observe each hidden value?"",""How many hidden values am I allowed to observe in each round?"",""How is your bonus determined?""]","[""True"",""$1.00"",""As many or as few as I wish"",""5 cents for every $10 I earn in each round""]",18247,,,91292,,,survey-multi-choice,,0
,,,"[True, True, True, True]",,,,,,,"[""True or false: The hidden values will change each time I start a new round."",""How much does it cost to observe each hidden value?"",""How many hidden values am I allowed to observe in each round?"",""How is your bonus determined?""]","[""True"",""$1.00"",""As many or as few as I wish"",""5 cents for every $10 I earn in each round""]",13705,,,192444,,,survey-multi-choice,,1
,,,"[True, True, True, True]",,,,,,,"[""True or false: The hidden values will change each time I start a new round."",""How much does it cost to observe each hidden value?"",""How many hidden values am I allowed to observe in each round?"",""How is your bonus determined?""]","[""True"",""$1.00"",""As many or as few as I wish"",""5 cents for every $10 I earn in each round""]",15765,,,115698,,,survey-multi-choice,,2
,,,"[True, True, True, True]",,,,,,,"[""True or false: The hidden values will change each time I start a new round."",""How much does it cost to observe each hidden value?"",""How many hidden values am I allowed to observe in each round?"",""How is your bonus determined?""]","[""True"",""$1.00"",""As many or as few as I wish"",""5 cents for every $10 I earn in each round""]",14434,,,91916,,,survey-multi-choice,,3
,,,"[True, True, True, True]",,,,,,,"[""True or false: The hidden values will change each time I start a new round."",""How much does it cost to observe each hidden value?"",""How many hidden values am I allowed to observe in each round?"",""How is your bonus determined?""]","[""True"",""$1.00"",""As many or as few as I wish"",""5 cents for every $10 I earn in each round""]",23730,,,150661,,,survey-multi-choice,,4
,,,"[True, True, True, True]",,,,,,,"[""True or false: The hidden values will change each time I start a new round."",""How much does it cost to observe each hidden value?"",""How many hidden values am I allowed to observe in each round?"",""How is your bonus determined?""]","[""True"",""$1.00"",""As many or as few as I wish"",""5 cents for every $10 I earn in each round""]",16146,,,117374,,,survey-multi-choice,,5
,,,"[True, True, True, False]",,,,,,,"[""True or false: The hidden values will change each time I start a new round."",""How much does it cost to observe each hidden value?"",""How many hidden values am I allowed to observe in each round?"",""How is your bonus determined?""]","[""True"",""$1.00"",""As many or as few as I wish"",""10% of my best score on any round""]",34689,,,72980,,,survey-multi-choice,,6
,,,"[True, True, True, True]",,,,,,,"[""True or false: The hidden values will change each time I start a new round."",""How much does it cost to observe each hidden value?"",""How many hidden values am I allowed to observe in each round?"",""How is your bonus determined?""]","[""True"",""$1.00"",""As many or as few as I wish"",""5 cents for every $10 I earn in each round""]",59536,,,241227,,,survey-multi-choice,,6
,,,"[True, True, True, True]",,,,,,,"[""True or false: The hidden values will change each time I start a new round."",""How much does it cost to observe each hidden value?"",""How many hidden values am I allowed to observe in each round?"",""How is your bonus determined?""]","[""True"",""$1.00"",""As many or as few as I wish"",""5 cents for every $10 I earn in each round""]",17509,,,143517,,,survey-multi-choice,,7
,,,"[True, True, True, True]",,,,,,,"[""True or false: The hidden values will change each time I start a new round."",""How much does it cost to observe each hidden value?"",""How many hidden values am I allowed to observe in each round?"",""How is your bonus determined?""]","[""True"",""$1.00"",""As many or as few as I wish"",""5 cents for every $10 I earn in each round""]",13300,,,59103,,,survey-multi-choice,,8
,,,"[True, True, True, True]",,,,,,,"[""True or false: The hidden values will change each time I start a new round."",""How much does it cost to observe each hidden value?"",""How many hidden values am I allowed to observe in each round?"",""How is your bonus determined?""]","[""True"",""$1.00"",""As many or as few as I wish"",""5 cents for every $10 I earn in each round""]",18540,,,176861,,,survey-multi-choice,,9
,,,"[True, True, True, True]",,,,,,,"[""True or false: The hidden values will change each time I start a new round."",""How much does it cost to observe each hidden value?"",""How many hidden values am I allowed to observe in each round?"",""How is your bonus determined?""]","[""True"",""$1.00"",""As many or as few as I wish"",""5 cents for every $10 I earn in each round""]",31372,,,180880,,,survey-multi-choice,,10
,,,"[True, True, True, True]",,,,,,,"[""True or false: The hidden values will change each time I start a new round."",""How much does it cost to observe each hidden value?"",""How many hidden values am I allowed to observe in each round?"",""How is your bonus determined?""]","[""True"",""$1.00"",""As many or as few as I wish"",""5 cents for every $10 I earn in each round""]",13553,,,81846,,,survey-multi-choice,,11
,,,"[False, False, True, False]",,,,,,,"[""True or false: The hidden values will change each time I start a new round."",""How much does it cost to observe each hidden value?"",""How many hidden values am I allowed to observe in each round?"",""How is your bonus determined?""]","[""False"",""$0.01"",""As many or as few as I wish"",""10% of my best score on any round""]",69975,,,197367,,,survey-multi-choice,,12
,,,"[True, True, True, True]",,,,,,,"[""True or false: The hidden values will change each time I start a new round."",""How much does it cost to observe each hidden value?"",""How many hidden values am I allowed to observe in each round?"",""How is your bonus determined?""]","[""True"",""$1.00"",""As many or as few as I wish"",""5 cents for every $10 I earn in each round""]",23424,,,372189,,,survey-multi-choice,,12
,,,"[True, True, True, True]",,,,,,,"[""True or false: The hidden values will change each time I start a new round."",""How much does it cost to observe each hidden value?"",""How many hidden values am I allowed to observe in each round?"",""How is your bonus determined?""]","[""True"",""$1.00"",""As many or as few as I wish"",""5 cents for every $10 I earn in each round""]",46366,,,148856,,,survey-multi-choice,,13
,,,"[True, True, True, True]",,,,,,,"[""True or false: The hidden values will change each time I start a new round."",""How much does it cost to observe each hidden value?"",""How many hidden values am I allowed to observe in each round?"",""How is your bonus determined?""]","[""True"",""$1.00"",""As many or as few as I wish"",""5 cents for every $10 I earn in each round""]",17296,,,117525,,,survey-multi-choice,,14
,,,"[True, True, True, True]",,,,,,,"[""True or false: The hidden values will change each time I start a new round."",""How much does it cost to observe each hidden value?"",""How many hidden values am I allowed to observe in each round?"",""How is your bonus determined?""]","[""True"",""$1.00"",""As many or as few as I wish"",""5 cents for every $10 I earn in each round""]",11628,,,84920,,,survey-multi-choice,,15
,,,"[True, True, True, True]",,,,,,,"[""True or false: The hidden values will change each time I start a new round."",""How much does it cost to observe each hidden value?"",""How many hidden values am I allowed to observe in each round?"",""How is your bonus determined?""]","[""True"",""$1.00"",""As many or as few as I wish"",""5 cents for every $10 I earn in each round""]",17602,,,72780,,,survey-multi-choice,,16
,,,"[True, True, True, True]",,,,,,,"[""True or false: The hidden values will change each time I start a new round."",""How much does it cost to observe each hidden value?"",""How many hidden values am I allowed to observe in each round?"",""How is your bonus determined?""]","[""True"",""$1.00"",""As many or as few as I wish"",""5 cents for every $10 I earn in each round""]",13625,,,96241,,,survey-multi-choice,,17
,,,"[True, True, False, True]",,,,,,,"[""True or false: The hidden values will change each time I start a new round."",""How much does it cost to observe each hidden value?"",""How many hidden values am I allowed to observe in each round?"",""How is your bonus determined?""]","[""True"",""$1.00"",""At most 1"",""5 cents for every $10 I earn in each round""]",8915,,,610507,,,survey-multi-choice,,18
,,,"[True, True, True, True]",,,,,,,"[""True or false: The hidden values will change each time I start a new round."",""How much does it cost to observe each hidden value?"",""How many hidden values am I allowed to observe in each round?"",""How is your bonus determined?""]","[""True"",""$1.00"",""As many or as few as I wish"",""5 cents for every $10 I earn in each round""]",8579,,,642500,,,survey-multi-choice,,18
,,,"[True, False, True, True]",,,,,,,"[""True or false: The hidden values will change each time I start a new round."",""How much does it cost to observe each hidden value?"",""How many hidden values am I allowed to observe in each round?"",""How is your bonus determined?""]","[""True"",""$0.05"",""As many or as few as I wish"",""5 cents for every $10 I earn in each round""]",22296,,,301537,,,survey-multi-choice,,19
,,,"[True, False, False, True]",,,,,,,"[""True or false: The hidden values will change each time I start a new round."",""How much does it cost to observe each hidden value?"",""How many hidden values am I allowed to observe in each round?"",""How is your bonus determined?""]","[""True"",""$0.05"",""At most 1"",""5 cents for every $10 I earn in each round""]",17419,,,387760,,,survey-multi-choice,,19
,,,"[True, True, False, True]",,,,,,,"[""True or false: The hidden values will change each time I start a new round."",""How much does it cost to observe each hidden value?"",""How many hidden values am I allowed to observe in each round?"",""How is your bonus determined?""]","[""True"",""$1.00"",""At most 1"",""5 cents for every $10 I earn in each round""]",19161,,,421546,,,survey-multi-choice,,19
,,,"[True, True, True, True]",,,,,,,"[""True or false: The hidden values will change each time I start a new round."",""How much does it cost to observe each hidden value?"",""How many hidden values am I allowed to observe in each round?"",""How is your bonus determined?""]","[""True"",""$1.00"",""As many or as few as I wish"",""5 cents for every $10 I earn in each round""]",11126,,,447346,,,survey-multi-choice,,19
,,,"[True, True, True, True]",,,,,,,"[""True or false: The hidden values will change each time I start a new round."",""How much does it cost to observe each hidden value?"",""How many hidden values am I allowed to observe in each round?"",""How is your bonus determined?""]","[""True"",""$1.00"",""As many or as few as I wish"",""5 cents for every $10 I earn in each round""]",13976,,,98144,,,survey-multi-choice,,20
,,,"[True, True, True, True]",,,,,,,"[""True or false: The hidden values will change each time I start a new round."",""How much does it cost to observe each hidden value?"",""How many hidden values am I allowed to observe in each round?"",""How is your bonus determined?""]","[""True"",""$1.00"",""As many or as few as I wish"",""5 cents for every $10 I earn in each round""]",36151,,,168662,,,survey-multi-choice,,21
,,,"[True, True, True, True]",,,,,,,"[""True or false: The hidden values will change each time I start a new round."",""How much does it cost to observe each hidden value?"",""How many hidden values am I allowed to observe in each round?"",""How is your bonus determined?""]","[""True"",""$1.00"",""As many or as few as I wish"",""5 cents for every $10 I earn in each round""]",17269,,,101149,,,survey-multi-choice,,22
,,,"[True, True, True, True]",,,,,,,"[""True or false: The hidden values will change each time I start a new round."",""How much does it cost to observe each hidden value?"",""How many hidden values am I allowed to observe in each round?"",""How is your bonus determined?""]","[""True"",""$1.00"",""As many or as few as I wish"",""5 cents for every $10 I earn in each round""]",12551,,,116445,,,survey-multi-choice,,23
,,,"[False, True, False, True]",,,,,,,"[""True or false: The hidden values will change each time I start a new round."",""How much does it cost to observe each hidden value?"",""How many hidden values am I allowed to observe in each round?"",""How is your bonus determined?""]","[""False"",""$1.00"",""At most 5"",""5 cents for every $10 I earn in each round""]",61818,,,183372,,,survey-multi-choice,,24
,,,"[True, True, True, True]",,,,,,,"[""True or false: The hidden values will change each time I start a new round."",""How much does it cost to observe each hidden value?"",""How many hidden values am I allowed to observe in each round?"",""How is your bonus determined?""]","[""True"",""$1.00"",""As many or as few as I wish"",""5 cents for every $10 I earn in each round""]",17237,,,315884,,,survey-multi-choice,,24
,,,"[False, True, True, True]",,,,,,,"[""True or false: The hidden values will change each time I start a new round."",""How much does it cost to observe each hidden value?"",""How many hidden values am I allowed to observe in each round?"",""How is your bonus determined?""]","[""False"",""$1.00"",""As many or as few as I wish"",""5 cents for every $10 I earn in each round""]",21345,,,113002,,,survey-multi-choice,,25
,,,"[True, True, True, True]",,,,,,,"[""True or false: The hidden values will change each time I start a new round."",""How much does it cost to observe each hidden value?"",""How many hidden values am I allowed to observe in each round?"",""How is your bonus determined?""]","[""True"",""$1.00"",""As many or as few as I wish"",""5 cents for every $10 I earn in each round""]",17539,,,179381,,,survey-multi-choice,,25
,,,"[True, True, True, True]",,,,,,,"[""True or false: The hidden values will change each time I start a new round."",""How much does it cost to observe each hidden value?"",""How many hidden values am I allowed to observe in each round?"",""How is your bonus determined?""]","[""True"",""$1.00"",""As many or as few as I wish"",""5 cents for every $10 I earn in each round""]",9944,,,142567,,,survey-multi-choice,,26
,,,"[True, True, True, True]",,,,,,,"[""True or false: The hidden values will change each time I start a new round."",""How much does it cost to observe each hidden value?"",""How many hidden values am I allowed to observe in each round?"",""How is your bonus determined?""]","[""True"",""$1.00"",""As many or as few as I wish"",""5 cents for every $10 I earn in each round""]",24036,,,93149,,,survey-multi-choice,,27
,,,"[True, True, True, True]",,,,,,,"[""True or false: The hidden values will change each time I start a new round."",""How much does it cost to observe each hidden value?"",""How many hidden values am I allowed to observe in each round?"",""How is your bonus determined?""]","[""True"",""$1.00"",""As many or as few as I wish"",""5 cents for every $10 I earn in each round""]",13707,,,97038,,,survey-multi-choice,,28
,,,"[True, True, True, True]",,,,,,,"[""True or false: The hidden values will change each time I start a new round."",""How much does it cost to observe each hidden value?"",""How many hidden values am I allowed to observe in each round?"",""How is your bonus determined?""]","[""True"",""$1.00"",""As many or as few as I wish"",""5 cents for every $10 I earn in each round""]",18222,,,117327,,,survey-multi-choice,,29
,,,"[True, False, True, True]",,,,,,,"[""True or false: The hidden values will change each time I start a new round."",""How much does it cost to observe each hidden value?"",""How many hidden values am I allowed to observe in each round?"",""How is your bonus determined?""]","[""True"",""$0.01"",""As many or as few as I wish"",""5 cents for every $10 I earn in each round""]",12284,,,186656,,,survey-multi-choice,,30
,,,"[True, True, True, True]",,,,,,,"[""True or false: The hidden values will change each time I start a new round."",""How much does it cost to observe each hidden value?"",""How many hidden values am I allowed to observe in each round?"",""How is your bonus determined?""]","[""True"",""$1.00"",""As many or as few as I wish"",""5 cents for every $10 I earn in each round""]",8573,,,209186,,,survey-multi-choice,,30
,,,"[True, True, True, True]",,,,,,,"[""True or false: The hidden values will change each time I start a new round."",""How much does it cost to observe each hidden value?"",""How many hidden values am I allowed to observe in each round?"",""How is your bonus determined?""]","[""True"",""$1.00"",""As many or as few as I wish"",""5 cents for every $10 I earn in each round""]",17227,,,66448,,,survey-multi-choice,,31
,,,"[True, True, True, True]",,,,,,,"[""True or false: The hidden values will change each time I start a new round."",""How much does it cost to observe each hidden value?"",""How many hidden values am I allowed to observe in each round?"",""How is your bonus determined?""]","[""True"",""$1.00"",""As many or as few as I wish"",""5 cents for every $10 I earn in each round""]",25387,,,139583,,,survey-multi-choice,,32
,,,"[True, False, True, True]",,,,,,,"[""True or false: The hidden values will change each time I start a new round."",""How much does it cost to observe each hidden value?"",""How many hidden values am I allowed to observe in each round?"",""How is your bonus determined?""]","[""True"",""$0.05"",""As many or as few as I wish"",""5 cents for every $10 I earn in each round""]",40959,,,121518,,,survey-multi-choice,,33
,,,"[True, True, True, True]",,,,,,,"[""True or false: The hidden values will change each time I start a new round."",""How much does it cost to observe each hidden value?"",""How many hidden values am I allowed to observe in each round?"",""How is your bonus determined?""]","[""True"",""$1.00"",""As many or as few as I wish"",""5 cents for every $10 I earn in each round""]",18826,,,222361,,,survey-multi-choice,,33
,,,"[True, True, True, True]",,,,,,,"[""True or false: The hidden values will change each time I start a new round."",""How much does it cost to observe each hidden value?"",""How many hidden values am I allowed to observe in each round?"",""How is your bonus determined?""]","[""True"",""$1.00"",""As many or as few as I wish"",""5 cents for every $10 I earn in each round""]",76964,,,318776,,,survey-multi-choice,,34
,,,"[True, True, True, False]",,,,,,,"[""True or false: The hidden values will change each time I start a new round."",""How much does it cost to observe each hidden value?"",""How many hidden values am I allowed to observe in each round?"",""How is your bonus determined?""]","[""True"",""$1.00"",""As many or as few as I wish"",""10% of my best score on any round""]",154006,,,423394,,,survey-multi-choice,,35
,,,"[True, True, True, False]",,,,,,,"[""True or false: The hidden values will change each time I start a new round."",""How much does it cost to observe each hidden value?"",""How many hidden values am I allowed to observe in each round?"",""How is your bonus determined?""]","[""True"",""$1.00"",""As many or as few as I wish"",""10% of my best score on any round""]",13702,,,475164,,,survey-multi-choice,,35
,,,"[True, True, True, False]",,,,,,,"[""True or false: The hidden values will change each time I start a new round."",""How much does it cost to observe each hidden value?"",""How many hidden values am I allowed to observe in each round?"",""How is your bonus determined?""]","[""True"",""$1.00"",""As many or as few as I wish"",""10% of my score on a random round""]",14007,,,496295,,,survey-multi-choice,,35
,,,"[False, True, True, True]",,,,,,,"[""True or false: The hidden values will change each time I start a new round."",""How much does it cost to observe each hidden value?"",""How many hidden values am I allowed to observe in each round?"",""How is your bonus determined?""]","[""False"",""$1.00"",""As many or as few as I wish"",""5 cents for every $10 I earn in each round""]",12196,,,514926,,,survey-multi-choice,,35
,,,"[True, True, True, True]",,,,,,,"[""True or false: The hidden values will change each time I start a new round."",""How much does it cost to observe each hidden value?"",""How many hidden values am I allowed to observe in each round?"",""How is your bonus determined?""]","[""True"",""$1.00"",""As many or as few as I wish"",""5 cents for every $10 I earn in each round""]",6274,,,550327,,,survey-multi-choice,,35
,,,"[True, True, True, True]",,,,,,,"[""True or false: The hidden values will change each time I start a new round."",""How much does it cost to observe each hidden value?"",""How many hidden values am I allowed to observe in each round?"",""How is your bonus determined?""]","[""True"",""$1.00"",""As many or as few as I wish"",""5 cents for every $10 I earn in each round""]",19572,,,282633,,,survey-multi-choice,,36
,,,"[True, True, True, True]",,,,,,,"[""True or false: The hidden values will change each time I start a new round."",""How much does it cost to observe each hidden value?"",""How many hidden values am I allowed to observe in each round?"",""How is your bonus determined?""]","[""True"",""$1.00"",""As many or as few as I wish"",""5 cents for every $10 I earn in each round""]",19256,,,206449,,,survey-multi-choice,,37
,,,"[False, False, True, True]",,,,,,,"[""True or false: The hidden values will change each time I start a new round."",""How much does it cost to observe each hidden value?"",""How many hidden values am I allowed to observe in each round?"",""How is your bonus determined?""]","[""False"",""$0.05"",""As many or as few as I wish"",""5 cents for every $10 I earn in each round""]",13546,,,94029,,,survey-multi-choice,,38
,,,"[False, False, True, True]",,,,,,,"[""True or false: The hidden values will change each time I start a new round."",""How much does it cost to observe each hidden value?"",""How many hidden values am I allowed to observe in each round?"",""How is your bonus determined?""]","[""False"",""$0.05"",""As many or as few as I wish"",""5 cents for every $10 I earn in each round""]",13525,,,147724,,,survey-multi-choice,,38
,,,"[False, True, True, True]",,,,,,,"[""True or false: The hidden values will change each time I start a new round."",""How much does it cost to observe each hidden value?"",""How many hidden values am I allowed to observe in each round?"",""How is your bonus determined?""]","[""False"",""$1.00"",""As many or as few as I wish"",""5 cents for every $10 I earn in each round""]",8091,,,175619,,,survey-multi-choice,,38
,,,"[True, True, True, True]",,,,,,,"[""True or false: The hidden values will change each time I start a new round."",""How much does it cost to observe each hidden value?"",""How many hidden values am I allowed to observe in each round?"",""How is your bonus determined?""]","[""True"",""$1.00"",""As many or as few as I wish"",""5 cents for every $10 I earn in each round""]",7590,,,191501,,,survey-multi-choice,,38
,,,"[True, True, True, True]",,,,,,,"[""True or false: The hidden values will change each time I start a new round."",""How much does it cost to observe each hidden value?"",""How many hidden values am I allowed to observe in each round?"",""How is your bonus determined?""]","[""True"",""$1.00"",""As many or as few as I wish"",""5 cents for every $10 I earn in each round""]",24878,,,88243,,,survey-multi-choice,,39
,,,"[True, True, True, True]",,,,,,,"[""True or false: The hidden values will change each time I start a new round."",""How much does it cost to observe each hidden value?"",""How many hidden values am I allowed to observe in each round?"",""How is your bonus determined?""]","[""True"",""$1.00"",""As many or as few as I wish"",""5 cents for every $10 I earn in each round""]",22623,,,246189,,,survey-multi-choice,,40
,,,"[True, True, True, True]",,,,,,,"[""True or false: The hidden values will change each time I start a new round."",""How much does it cost to observe each hidden value?"",""How many hidden values am I allowed to observe in each round?"",""How is your bonus determined?""]","[""True"",""$1.00"",""As many or as few as I wish"",""5 cents for every $10 I earn in each round""]",13431,,,113601,,,survey-multi-choice,,41
,,,"[True, True, True, True]",,,,,,,"[""True or false: The hidden values will change each time I start a new round."",""How much does it cost to observe each hidden value?"",""How many hidden values am I allowed to observe in each round?"",""How is your bonus determined?""]","[""True"",""$1.00"",""As many or as few as I wish"",""5 cents for every $10 I earn in each round""]",10415,,,68252,,,survey-multi-choice,,42
,,,"[True, True, True, True]",,,,,,,"[""True or false: The hidden values will change each time I start a new round."",""How much does it cost to observe each hidden value?"",""How many hidden values am I allowed to observe in each round?"",""How is your bonus determined?""]","[""True"",""$1.00"",""As many or as few as I wish"",""5 cents for every $10 I earn in each round""]",15842,,,107647,,,survey-multi-choice,,43
,,,"[True, True, True, True]",,,,,,,"[""True or false: The hidden values will change each time I start a new round."",""How much does it cost to observe each hidden value?"",""How many hidden values am I allowed to observe in each round?"",""How is your bonus determined?""]","[""True"",""$1.00"",""As many or as few as I wish"",""5 cents for every $10 I earn in each round""]",19916,,,187232,,,survey-multi-choice,,44
