action_times,actions,button_pressed,correct,delays,key_press,path,queries,questions,responses,rt,score,stimulus,time_elapsed,trial_index,trial_i,trial_type,view_history,pid
,,0.0,,,,,,,,7075,,"<h1 id=""youvecompletedthehit"">You've completed the HIT</h1>

<p>Thanks again for participating. We hope you had fun!</p>

<p>Based on your performance, you will be
awarded a bonus of <strong>$1.15</strong>.</p>",844887,,,button-response,,0
<<<<<<< HEAD
=======
,,0.0,,,,,,,,2855,,"<h1 id=""youvecompletedthehit"">You've completed the HIT</h1>

<p>Thanks again for participating. We hope you had fun!</p>

<p>Based on your performance, you will be
awarded a bonus of <strong>$1.95</strong>.</p>",873313,,,button-response,,2
>>>>>>> 36e8165b01c8dffc2c69f4aa8ff1e8a2035c2961
,,0.0,,,,,,,,3155,,"<h1 id=""youvecompletedthehit"">You've completed the HIT</h1>

<p>Thanks again for participating. We hope you had fun!</p>

<p>Based on your performance, you will be
<<<<<<< HEAD
awarded a bonus of <strong>$1.70</strong>.</p>",827847,,,button-response,,2
=======
awarded a bonus of <strong>$1.70</strong>.</p>",827847,,,button-response,,3
>>>>>>> 36e8165b01c8dffc2c69f4aa8ff1e8a2035c2961
,,0.0,,,,,,,,8412,,"<h1 id=""youvecompletedthehit"">You've completed the HIT</h1>

<p>Thanks again for participating. We hope you had fun!</p>

<p>Based on your performance, you will be
<<<<<<< HEAD
awarded a bonus of <strong>$1.80</strong>.</p>",968063,,,button-response,,3
=======
awarded a bonus of <strong>$1.80</strong>.</p>",968063,,,button-response,,4
>>>>>>> 36e8165b01c8dffc2c69f4aa8ff1e8a2035c2961
,,0.0,,,,,,,,9045,,"<h1 id=""youvecompletedthehit"">You've completed the HIT</h1>

<p>Thanks again for participating. We hope you had fun!</p>

<p>Based on your performance, you will be
<<<<<<< HEAD
awarded a bonus of <strong>$0.65</strong>.</p>",1796094,,,button-response,,4
=======
awarded a bonus of <strong>$0.65</strong>.</p>",1796094,,,button-response,,5
>>>>>>> 36e8165b01c8dffc2c69f4aa8ff1e8a2035c2961
,,0.0,,,,,,,,3010,,"<h1 id=""youvecompletedthehit"">You've completed the HIT</h1>

<p>Thanks again for participating. We hope you had fun!</p>

<p>Based on your performance, you will be
<<<<<<< HEAD
awarded a bonus of <strong>$1.70</strong>.</p>",1203904,,,button-response,,5
=======
awarded a bonus of <strong>$1.70</strong>.</p>",1203904,,,button-response,,6
>>>>>>> 36e8165b01c8dffc2c69f4aa8ff1e8a2035c2961
,,0.0,,,,,,,,4917,,"<h1 id=""youvecompletedthehit"">You've completed the HIT</h1>

<p>Thanks again for participating. We hope you had fun!</p>

<p>Based on your performance, you will be
<<<<<<< HEAD
awarded a bonus of <strong>$2.25</strong>.</p>",766635,,,button-response,,6
=======
awarded a bonus of <strong>$2.25</strong>.</p>",766635,,,button-response,,7
>>>>>>> 36e8165b01c8dffc2c69f4aa8ff1e8a2035c2961
,,0.0,,,,,,,,4545,,"<h1 id=""youvecompletedthehit"">You've completed the HIT</h1>

<p>Thanks again for participating. We hope you had fun!</p>

<p>Based on your performance, you will be
<<<<<<< HEAD
awarded a bonus of <strong>$2.50</strong>.</p>",1115087,,,button-response,,7
=======
awarded a bonus of <strong>$2.50</strong>.</p>",1115087,,,button-response,,8
>>>>>>> 36e8165b01c8dffc2c69f4aa8ff1e8a2035c2961
,,0.0,,,,,,,,6325,,"<h1 id=""youvecompletedthehit"">You've completed the HIT</h1>

<p>Thanks again for participating. We hope you had fun!</p>

<p>Based on your performance, you will be
<<<<<<< HEAD
awarded a bonus of <strong>$1.10</strong>.</p>",995947,,,button-response,,9
=======
awarded a bonus of <strong>$1.10</strong>.</p>",995947,,,button-response,,10
>>>>>>> 36e8165b01c8dffc2c69f4aa8ff1e8a2035c2961
,,0.0,,,,,,,,4039,,"<h1 id=""youvecompletedthehit"">You've completed the HIT</h1>

<p>Thanks again for participating. We hope you had fun!</p>

<p>Based on your performance, you will be
<<<<<<< HEAD
awarded a bonus of <strong>$1.70</strong>.</p>",977794,,,button-response,,10
=======
awarded a bonus of <strong>$1.70</strong>.</p>",977794,,,button-response,,11
>>>>>>> 36e8165b01c8dffc2c69f4aa8ff1e8a2035c2961
,,0.0,,,,,,,,9551,,"<h1 id=""youvecompletedthehit"">You've completed the HIT</h1>

<p>Thanks again for participating. We hope you had fun!</p>

<p>Based on your performance, you will be
<<<<<<< HEAD
awarded a bonus of <strong>$0.15</strong>.</p>",1698143,,,button-response,,11
=======
awarded a bonus of <strong>$0.15</strong>.</p>",1698143,,,button-response,,12
>>>>>>> 36e8165b01c8dffc2c69f4aa8ff1e8a2035c2961
,,0.0,,,,,,,,7578,,"<h1 id=""youvecompletedthehit"">You've completed the HIT</h1>

<p>Thanks again for participating. We hope you had fun!</p>

<p>Based on your performance, you will be
<<<<<<< HEAD
awarded a bonus of <strong>$1.50</strong>.</p>",910644,,,button-response,,12
=======
awarded a bonus of <strong>$1.50</strong>.</p>",910644,,,button-response,,13
>>>>>>> 36e8165b01c8dffc2c69f4aa8ff1e8a2035c2961
,,0.0,,,,,,,,3288,,"<h1 id=""youvecompletedthehit"">You've completed the HIT</h1>

<p>Thanks again for participating. We hope you had fun!</p>

<p>Based on your performance, you will be
<<<<<<< HEAD
awarded a bonus of <strong>$1.70</strong>.</p>",968667,,,button-response,,13
=======
awarded a bonus of <strong>$1.70</strong>.</p>",968667,,,button-response,,14
>>>>>>> 36e8165b01c8dffc2c69f4aa8ff1e8a2035c2961
,,0.0,,,,,,,,2569,,"<h1 id=""youvecompletedthehit"">You've completed the HIT</h1>

<p>Thanks again for participating. We hope you had fun!</p>

<p>Based on your performance, you will be
<<<<<<< HEAD
awarded a bonus of <strong>$0.00</strong>.</p>",782882,,,button-response,,14
=======
awarded a bonus of <strong>$0.00</strong>.</p>",782882,,,button-response,,15
>>>>>>> 36e8165b01c8dffc2c69f4aa8ff1e8a2035c2961
,,0.0,,,,,,,,28084,,"<h1 id=""youvecompletedthehit"">You've completed the HIT</h1>

<p>Thanks again for participating. We hope you had fun!</p>

<p>Based on your performance, you will be
<<<<<<< HEAD
awarded a bonus of <strong>$1.20</strong>.</p>",1036096,,,button-response,,15
=======
awarded a bonus of <strong>$1.20</strong>.</p>",1036096,,,button-response,,16
>>>>>>> 36e8165b01c8dffc2c69f4aa8ff1e8a2035c2961
,,0.0,,,,,,,,2699,,"<h1 id=""youvecompletedthehit"">You've completed the HIT</h1>

<p>Thanks again for participating. We hope you had fun!</p>

<p>Based on your performance, you will be
<<<<<<< HEAD
awarded a bonus of <strong>$1.40</strong>.</p>",803731,,,button-response,,16
=======
awarded a bonus of <strong>$1.40</strong>.</p>",803731,,,button-response,,17
>>>>>>> 36e8165b01c8dffc2c69f4aa8ff1e8a2035c2961
,,0.0,,,,,,,,6218,,"<h1 id=""youvecompletedthehit"">You've completed the HIT</h1>

<p>Thanks again for participating. We hope you had fun!</p>

<p>Based on your performance, you will be
<<<<<<< HEAD
awarded a bonus of <strong>$0.00</strong>.</p>",844204,,,button-response,,17
=======
awarded a bonus of <strong>$0.00</strong>.</p>",844204,,,button-response,,18
>>>>>>> 36e8165b01c8dffc2c69f4aa8ff1e8a2035c2961
,,0.0,,,,,,,,5007,,"<h1 id=""youvecompletedthehit"">You've completed the HIT</h1>

<p>Thanks again for participating. We hope you had fun!</p>

<p>Based on your performance, you will be
<<<<<<< HEAD
awarded a bonus of <strong>$1.05</strong>.</p>",963586,,,button-response,,18
=======
awarded a bonus of <strong>$1.05</strong>.</p>",963586,,,button-response,,19
>>>>>>> 36e8165b01c8dffc2c69f4aa8ff1e8a2035c2961
,,0.0,,,,,,,,11300,,"<h1 id=""youvecompletedthehit"">You've completed the HIT</h1>

<p>Thanks again for participating. We hope you had fun!</p>

<p>Based on your performance, you will be
<<<<<<< HEAD
awarded a bonus of <strong>$0.00</strong>.</p>",1242486,,,button-response,,19
=======
awarded a bonus of <strong>$0.00</strong>.</p>",1242486,,,button-response,,20
>>>>>>> 36e8165b01c8dffc2c69f4aa8ff1e8a2035c2961
,,0.0,,,,,,,,2994,,"<h1 id=""youvecompletedthehit"">You've completed the HIT</h1>

<p>Thanks again for participating. We hope you had fun!</p>

<p>Based on your performance, you will be
<<<<<<< HEAD
awarded a bonus of <strong>$1.70</strong>.</p>",715503,,,button-response,,20
=======
awarded a bonus of <strong>$1.70</strong>.</p>",715503,,,button-response,,21
>>>>>>> 36e8165b01c8dffc2c69f4aa8ff1e8a2035c2961
,,0.0,,,,,,,,2076,,"<h1 id=""youvecompletedthehit"">You've completed the HIT</h1>

<p>Thanks again for participating. We hope you had fun!</p>

<p>Based on your performance, you will be
<<<<<<< HEAD
awarded a bonus of <strong>$0.15</strong>.</p>",1095592,,,button-response,,21
=======
awarded a bonus of <strong>$0.15</strong>.</p>",1095592,,,button-response,,22
>>>>>>> 36e8165b01c8dffc2c69f4aa8ff1e8a2035c2961
,,0.0,,,,,,,,9973,,"<h1 id=""youvecompletedthehit"">You've completed the HIT</h1>

<p>Thanks again for participating. We hope you had fun!</p>

<p>Based on your performance, you will be
<<<<<<< HEAD
awarded a bonus of <strong>$2.25</strong>.</p>",890136,,,button-response,,22
=======
awarded a bonus of <strong>$2.25</strong>.</p>",890136,,,button-response,,23
>>>>>>> 36e8165b01c8dffc2c69f4aa8ff1e8a2035c2961
,,0.0,,,,,,,,4447,,"<h1 id=""youvecompletedthehit"">You've completed the HIT</h1>

<p>Thanks again for participating. We hope you had fun!</p>

<p>Based on your performance, you will be
<<<<<<< HEAD
awarded a bonus of <strong>$1.70</strong>.</p>",958195,,,button-response,,23
=======
awarded a bonus of <strong>$1.70</strong>.</p>",958195,,,button-response,,24
>>>>>>> 36e8165b01c8dffc2c69f4aa8ff1e8a2035c2961
,,0.0,,,,,,,,4102,,"<h1 id=""youvecompletedthehit"">You've completed the HIT</h1>

<p>Thanks again for participating. We hope you had fun!</p>

<p>Based on your performance, you will be
<<<<<<< HEAD
awarded a bonus of <strong>$0.90</strong>.</p>",1030609,,,button-response,,24
=======
awarded a bonus of <strong>$0.90</strong>.</p>",1030609,,,button-response,,25
>>>>>>> 36e8165b01c8dffc2c69f4aa8ff1e8a2035c2961
,,0.0,,,,,,,,3847,,"<h1 id=""youvecompletedthehit"">You've completed the HIT</h1>

<p>Thanks again for participating. We hope you had fun!</p>

<p>Based on your performance, you will be
<<<<<<< HEAD
awarded a bonus of <strong>$2.20</strong>.</p>",2454591,,,button-response,,25
=======
awarded a bonus of <strong>$2.20</strong>.</p>",2454591,,,button-response,,26
>>>>>>> 36e8165b01c8dffc2c69f4aa8ff1e8a2035c2961
,,0.0,,,,,,,,5899,,"<h1 id=""youvecompletedthehit"">You've completed the HIT</h1>

<p>Thanks again for participating. We hope you had fun!</p>

<p>Based on your performance, you will be
<<<<<<< HEAD
awarded a bonus of <strong>$0.40</strong>.</p>",1096328,,,button-response,,26
=======
awarded a bonus of <strong>$0.40</strong>.</p>",1096328,,,button-response,,27
>>>>>>> 36e8165b01c8dffc2c69f4aa8ff1e8a2035c2961
,,0.0,,,,,,,,8880,,"<h1 id=""youvecompletedthehit"">You've completed the HIT</h1>

<p>Thanks again for participating. We hope you had fun!</p>

<p>Based on your performance, you will be
<<<<<<< HEAD
awarded a bonus of <strong>$1.40</strong>.</p>",834629,,,button-response,,27
=======
awarded a bonus of <strong>$1.40</strong>.</p>",834629,,,button-response,,28
>>>>>>> 36e8165b01c8dffc2c69f4aa8ff1e8a2035c2961
,,0.0,,,,,,,,3100,,"<h1 id=""youvecompletedthehit"">You've completed the HIT</h1>

<p>Thanks again for participating. We hope you had fun!</p>

<p>Based on your performance, you will be
<<<<<<< HEAD
awarded a bonus of <strong>$1.70</strong>.</p>",1058358,,,button-response,,28
=======
awarded a bonus of <strong>$1.70</strong>.</p>",1058358,,,button-response,,29
>>>>>>> 36e8165b01c8dffc2c69f4aa8ff1e8a2035c2961
,,0.0,,,,,,,,3411,,"<h1 id=""youvecompletedthehit"">You've completed the HIT</h1>

<p>Thanks again for participating. We hope you had fun!</p>

<p>Based on your performance, you will be
<<<<<<< HEAD
awarded a bonus of <strong>$2.05</strong>.</p>",823471,,,button-response,,29
=======
awarded a bonus of <strong>$2.05</strong>.</p>",823471,,,button-response,,30
>>>>>>> 36e8165b01c8dffc2c69f4aa8ff1e8a2035c2961
,,0.0,,,,,,,,5806,,"<h1 id=""youvecompletedthehit"">You've completed the HIT</h1>

<p>Thanks again for participating. We hope you had fun!</p>

<p>Based on your performance, you will be
<<<<<<< HEAD
awarded a bonus of <strong>$0.50</strong>.</p>",1104484,,,button-response,,30
=======
awarded a bonus of <strong>$0.50</strong>.</p>",1104484,,,button-response,,31
>>>>>>> 36e8165b01c8dffc2c69f4aa8ff1e8a2035c2961
,,0.0,,,,,,,,3821,,"<h1 id=""youvecompletedthehit"">You've completed the HIT</h1>

<p>Thanks again for participating. We hope you had fun!</p>

<p>Based on your performance, you will be
<<<<<<< HEAD
awarded a bonus of <strong>$1.60</strong>.</p>",1007508,,,button-response,,31
=======
awarded a bonus of <strong>$1.60</strong>.</p>",1007508,,,button-response,,32
>>>>>>> 36e8165b01c8dffc2c69f4aa8ff1e8a2035c2961
,,0.0,,,,,,,,3864,,"<h1 id=""youvecompletedthehit"">You've completed the HIT</h1>

<p>Thanks again for participating. We hope you had fun!</p>

<p>Based on your performance, you will be
<<<<<<< HEAD
awarded a bonus of <strong>$1.85</strong>.</p>",1084450,,,button-response,,32
=======
awarded a bonus of <strong>$1.85</strong>.</p>",1084450,,,button-response,,33
>>>>>>> 36e8165b01c8dffc2c69f4aa8ff1e8a2035c2961
,,0.0,,,,,,,,3050,,"<h1 id=""youvecompletedthehit"">You've completed the HIT</h1>

<p>Thanks again for participating. We hope you had fun!</p>

<p>Based on your performance, you will be
<<<<<<< HEAD
awarded a bonus of <strong>$2.65</strong>.</p>",1138580,,,button-response,,33
=======
awarded a bonus of <strong>$2.65</strong>.</p>",1138580,,,button-response,,34
>>>>>>> 36e8165b01c8dffc2c69f4aa8ff1e8a2035c2961
,,0.0,,,,,,,,6394,,"<h1 id=""youvecompletedthehit"">You've completed the HIT</h1>

<p>Thanks again for participating. We hope you had fun!</p>

<p>Based on your performance, you will be
<<<<<<< HEAD
awarded a bonus of <strong>$1.10</strong>.</p>",763271,,,button-response,,35
=======
awarded a bonus of <strong>$1.10</strong>.</p>",763271,,,button-response,,36
>>>>>>> 36e8165b01c8dffc2c69f4aa8ff1e8a2035c2961
,,0.0,,,,,,,,3110,,"<h1 id=""youvecompletedthehit"">You've completed the HIT</h1>

<p>Thanks again for participating. We hope you had fun!</p>

<p>Based on your performance, you will be
<<<<<<< HEAD
awarded a bonus of <strong>$0.60</strong>.</p>",1291531,,,button-response,,36
=======
awarded a bonus of <strong>$0.60</strong>.</p>",1291531,,,button-response,,37
>>>>>>> 36e8165b01c8dffc2c69f4aa8ff1e8a2035c2961
,,0.0,,,,,,,,32840,,"<h1 id=""youvecompletedthehit"">You've completed the HIT</h1>

<p>Thanks again for participating. We hope you had fun!</p>

<p>Based on your performance, you will be
<<<<<<< HEAD
awarded a bonus of <strong>$0.90</strong>.</p>",932895,,,button-response,,37
=======
awarded a bonus of <strong>$0.90</strong>.</p>",932895,,,button-response,,38
>>>>>>> 36e8165b01c8dffc2c69f4aa8ff1e8a2035c2961
,,0.0,,,,,,,,5099,,"<h1 id=""youvecompletedthehit"">You've completed the HIT</h1>

<p>Thanks again for participating. We hope you had fun!</p>

<p>Based on your performance, you will be
<<<<<<< HEAD
awarded a bonus of <strong>$0.70</strong>.</p>",868373,,,button-response,,38
=======
awarded a bonus of <strong>$0.70</strong>.</p>",868373,,,button-response,,39
>>>>>>> 36e8165b01c8dffc2c69f4aa8ff1e8a2035c2961
,,0.0,,,,,,,,3608,,"<h1 id=""youvecompletedthehit"">You've completed the HIT</h1>

<p>Thanks again for participating. We hope you had fun!</p>

<p>Based on your performance, you will be
<<<<<<< HEAD
awarded a bonus of <strong>$1.70</strong>.</p>",1180347,,,button-response,,39
=======
awarded a bonus of <strong>$1.70</strong>.</p>",1180347,,,button-response,,40
>>>>>>> 36e8165b01c8dffc2c69f4aa8ff1e8a2035c2961
,,0.0,,,,,,,,2890,,"<h1 id=""youvecompletedthehit"">You've completed the HIT</h1>

<p>Thanks again for participating. We hope you had fun!</p>

<p>Based on your performance, you will be
<<<<<<< HEAD
awarded a bonus of <strong>$1.70</strong>.</p>",929534,,,button-response,,40
=======
awarded a bonus of <strong>$1.70</strong>.</p>",929534,,,button-response,,41
>>>>>>> 36e8165b01c8dffc2c69f4aa8ff1e8a2035c2961
,,0.0,,,,,,,,11764,,"<h1 id=""youvecompletedthehit"">You've completed the HIT</h1>

<p>Thanks again for participating. We hope you had fun!</p>

<p>Based on your performance, you will be
<<<<<<< HEAD
awarded a bonus of <strong>$2.55</strong>.</p>",989124,,,button-response,,41
=======
awarded a bonus of <strong>$2.55</strong>.</p>",989124,,,button-response,,42
>>>>>>> 36e8165b01c8dffc2c69f4aa8ff1e8a2035c2961
,,0.0,,,,,,,,4651,,"<h1 id=""youvecompletedthehit"">You've completed the HIT</h1>

<p>Thanks again for participating. We hope you had fun!</p>

<p>Based on your performance, you will be
<<<<<<< HEAD
awarded a bonus of <strong>$0.00</strong>.</p>",714726,,,button-response,,42
=======
awarded a bonus of <strong>$0.00</strong>.</p>",714726,,,button-response,,43
>>>>>>> 36e8165b01c8dffc2c69f4aa8ff1e8a2035c2961
,,0.0,,,,,,,,5292,,"<h1 id=""youvecompletedthehit"">You've completed the HIT</h1>

<p>Thanks again for participating. We hope you had fun!</p>

<p>Based on your performance, you will be
<<<<<<< HEAD
awarded a bonus of <strong>$0.30</strong>.</p>",949952,,,button-response,,43
=======
awarded a bonus of <strong>$0.30</strong>.</p>",949952,,,button-response,,44
>>>>>>> 36e8165b01c8dffc2c69f4aa8ff1e8a2035c2961
,,0.0,,,,,,,,6515,,"<h1 id=""youvecompletedthehit"">You've completed the HIT</h1>

<p>Thanks again for participating. We hope you had fun!</p>

<p>Based on your performance, you will be
<<<<<<< HEAD
awarded a bonus of <strong>$1.40</strong>.</p>",1490941,,,button-response,,44
=======
awarded a bonus of <strong>$1.40</strong>.</p>",1490941,,,button-response,,45
>>>>>>> 36e8165b01c8dffc2c69f4aa8ff1e8a2035c2961
,,0.0,,,,,,,,7850,,"<h1 id=""youvecompletedthehit"">You've completed the HIT</h1>

<p>Thanks again for participating. We hope you had fun!</p>

<p>Based on your performance, you will be
<<<<<<< HEAD
awarded a bonus of <strong>$0.00</strong>.</p>",1015127,,,button-response,,45
=======
awarded a bonus of <strong>$0.00</strong>.</p>",1015127,,,button-response,,46
>>>>>>> 36e8165b01c8dffc2c69f4aa8ff1e8a2035c2961
,,0.0,,,,,,,,6298,,"<h1 id=""youvecompletedthehit"">You've completed the HIT</h1>

<p>Thanks again for participating. We hope you had fun!</p>

<p>Based on your performance, you will be
<<<<<<< HEAD
awarded a bonus of <strong>$1.80</strong>.</p>",867128,,,button-response,,46
=======
awarded a bonus of <strong>$1.80</strong>.</p>",867128,,,button-response,,47
>>>>>>> 36e8165b01c8dffc2c69f4aa8ff1e8a2035c2961
,,0.0,,,,,,,,1943,,"<h1 id=""youvecompletedthehit"">You've completed the HIT</h1>

<p>Thanks again for participating. We hope you had fun!</p>

<p>Based on your performance, you will be
<<<<<<< HEAD
awarded a bonus of <strong>$2.40</strong>.</p>",1145589,,,button-response,,47
=======
awarded a bonus of <strong>$2.40</strong>.</p>",1145589,,,button-response,,48
>>>>>>> 36e8165b01c8dffc2c69f4aa8ff1e8a2035c2961
,,0.0,,,,,,,,6035,,"<h1 id=""youvecompletedthehit"">You've completed the HIT</h1>

<p>Thanks again for participating. We hope you had fun!</p>

<p>Based on your performance, you will be
<<<<<<< HEAD
awarded a bonus of <strong>$0.45</strong>.</p>",1132684,,,button-response,,48
=======
awarded a bonus of <strong>$0.45</strong>.</p>",1132684,,,button-response,,49
>>>>>>> 36e8165b01c8dffc2c69f4aa8ff1e8a2035c2961
,,0.0,,,,,,,,4363,,"<h1 id=""youvecompletedthehit"">You've completed the HIT</h1>

<p>Thanks again for participating. We hope you had fun!</p>

<p>Based on your performance, you will be
<<<<<<< HEAD
awarded a bonus of <strong>$0.00</strong>.</p>",865978,,,button-response,,49
=======
awarded a bonus of <strong>$0.00</strong>.</p>",865978,,,button-response,,50
>>>>>>> 36e8165b01c8dffc2c69f4aa8ff1e8a2035c2961
,,0.0,,,,,,,,4984,,"<h1 id=""youvecompletedthehit"">You've completed the HIT</h1>

<p>Thanks again for participating. We hope you had fun!</p>

<p>Based on your performance, you will be
<<<<<<< HEAD
awarded a bonus of <strong>$0.00</strong>.</p>",1224306,,,button-response,,50
=======
awarded a bonus of <strong>$0.00</strong>.</p>",1224306,,,button-response,,51
>>>>>>> 36e8165b01c8dffc2c69f4aa8ff1e8a2035c2961
,,0.0,,,,,,,,5583,,"<h1 id=""youvecompletedthehit"">You've completed the HIT</h1>

<p>Thanks again for participating. We hope you had fun!</p>

<p>Based on your performance, you will be
<<<<<<< HEAD
awarded a bonus of <strong>$1.55</strong>.</p>",1243377,,,button-response,,51
=======
awarded a bonus of <strong>$1.55</strong>.</p>",1243377,,,button-response,,52
>>>>>>> 36e8165b01c8dffc2c69f4aa8ff1e8a2035c2961
,,0.0,,,,,,,,11630,,"<h1 id=""youvecompletedthehit"">You've completed the HIT</h1>

<p>Thanks again for participating. We hope you had fun!</p>

<p>Based on your performance, you will be
<<<<<<< HEAD
awarded a bonus of <strong>$2.00</strong>.</p>",1092060,,,button-response,,52
=======
awarded a bonus of <strong>$2.00</strong>.</p>",1092060,,,button-response,,53
>>>>>>> 36e8165b01c8dffc2c69f4aa8ff1e8a2035c2961
,,0.0,,,,,,,,8800,,"<h1 id=""youvecompletedthehit"">You've completed the HIT</h1>

<p>Thanks again for participating. We hope you had fun!</p>

<p>Based on your performance, you will be
<<<<<<< HEAD
awarded a bonus of <strong>$0.45</strong>.</p>",1494728,,,button-response,,53
=======
awarded a bonus of <strong>$0.45</strong>.</p>",1494728,,,button-response,,54
>>>>>>> 36e8165b01c8dffc2c69f4aa8ff1e8a2035c2961
,,0.0,,,,,,,,6158,,"<h1 id=""youvecompletedthehit"">You've completed the HIT</h1>

<p>Thanks again for participating. We hope you had fun!</p>

<p>Based on your performance, you will be
<<<<<<< HEAD
awarded a bonus of <strong>$1.60</strong>.</p>",821786,,,button-response,,54
=======
awarded a bonus of <strong>$1.60</strong>.</p>",821786,,,button-response,,55
>>>>>>> 36e8165b01c8dffc2c69f4aa8ff1e8a2035c2961
,,0.0,,,,,,,,3012,,"<h1 id=""youvecompletedthehit"">You've completed the HIT</h1>

<p>Thanks again for participating. We hope you had fun!</p>

<p>Based on your performance, you will be
<<<<<<< HEAD
awarded a bonus of <strong>$0.25</strong>.</p>",1698420,,,button-response,,55
=======
awarded a bonus of <strong>$0.25</strong>.</p>",1698420,,,button-response,,56
>>>>>>> 36e8165b01c8dffc2c69f4aa8ff1e8a2035c2961
,,0.0,,,,,,,,5581,,"<h1 id=""youvecompletedthehit"">You've completed the HIT</h1>

<p>Thanks again for participating. We hope you had fun!</p>

<p>Based on your performance, you will be
<<<<<<< HEAD
awarded a bonus of <strong>$0.75</strong>.</p>",926964,,,button-response,,56
=======
awarded a bonus of <strong>$0.75</strong>.</p>",926964,,,button-response,,57
>>>>>>> 36e8165b01c8dffc2c69f4aa8ff1e8a2035c2961
,,0.0,,,,,,,,6866,,"<h1 id=""youvecompletedthehit"">You've completed the HIT</h1>

<p>Thanks again for participating. We hope you had fun!</p>

<p>Based on your performance, you will be
<<<<<<< HEAD
awarded a bonus of <strong>$2.40</strong>.</p>",970203,,,button-response,,57
=======
awarded a bonus of <strong>$2.40</strong>.</p>",970203,,,button-response,,58
>>>>>>> 36e8165b01c8dffc2c69f4aa8ff1e8a2035c2961
,,0.0,,,,,,,,14986,,"<h1 id=""youvecompletedthehit"">You've completed the HIT</h1>

<p>Thanks again for participating. We hope you had fun!</p>

<p>Based on your performance, you will be
<<<<<<< HEAD
awarded a bonus of <strong>$1.85</strong>.</p>",1226202,,,button-response,,58
=======
awarded a bonus of <strong>$1.85</strong>.</p>",1226202,,,button-response,,59
>>>>>>> 36e8165b01c8dffc2c69f4aa8ff1e8a2035c2961
,,0.0,,,,,,,,3701,,"<h1 id=""youvecompletedthehit"">You've completed the HIT</h1>

<p>Thanks again for participating. We hope you had fun!</p>

<p>Based on your performance, you will be
<<<<<<< HEAD
awarded a bonus of <strong>$1.30</strong>.</p>",899200,,,button-response,,59
=======
awarded a bonus of <strong>$1.30</strong>.</p>",899200,,,button-response,,60
>>>>>>> 36e8165b01c8dffc2c69f4aa8ff1e8a2035c2961
,,0.0,,,,,,,,4194,,"<h1 id=""youvecompletedthehit"">You've completed the HIT</h1>

<p>Thanks again for participating. We hope you had fun!</p>

<p>Based on your performance, you will be
<<<<<<< HEAD
awarded a bonus of <strong>$2.20</strong>.</p>",785118,,,button-response,,60
=======
awarded a bonus of <strong>$2.20</strong>.</p>",785118,,,button-response,,61
>>>>>>> 36e8165b01c8dffc2c69f4aa8ff1e8a2035c2961
,,0.0,,,,,,,,15019,,"<h1 id=""youvecompletedthehit"">You've completed the HIT</h1>

<p>Thanks again for participating. We hope you had fun!</p>

<p>Based on your performance, you will be
<<<<<<< HEAD
awarded a bonus of <strong>$2.55</strong>.</p>",941490,,,button-response,,61
=======
awarded a bonus of <strong>$2.55</strong>.</p>",941490,,,button-response,,62
>>>>>>> 36e8165b01c8dffc2c69f4aa8ff1e8a2035c2961
,,0.0,,,,,,,,7345,,"<h1 id=""youvecompletedthehit"">You've completed the HIT</h1>

<p>Thanks again for participating. We hope you had fun!</p>

<p>Based on your performance, you will be
<<<<<<< HEAD
awarded a bonus of <strong>$1.90</strong>.</p>",1050818,,,button-response,,62
=======
awarded a bonus of <strong>$1.90</strong>.</p>",1050818,,,button-response,,63
>>>>>>> 36e8165b01c8dffc2c69f4aa8ff1e8a2035c2961
,,0.0,,,,,,,,7689,,"<h1 id=""youvecompletedthehit"">You've completed the HIT</h1>

<p>Thanks again for participating. We hope you had fun!</p>

<p>Based on your performance, you will be
<<<<<<< HEAD
awarded a bonus of <strong>$0.00</strong>.</p>",896929,,,button-response,,63
=======
awarded a bonus of <strong>$0.00</strong>.</p>",896929,,,button-response,,64
>>>>>>> 36e8165b01c8dffc2c69f4aa8ff1e8a2035c2961
,,0.0,,,,,,,,3608,,"<h1 id=""youvecompletedthehit"">You've completed the HIT</h1>

<p>Thanks again for participating. We hope you had fun!</p>

<p>Based on your performance, you will be
<<<<<<< HEAD
awarded a bonus of <strong>$1.45</strong>.</p>",1196377,,,button-response,,64
=======
awarded a bonus of <strong>$1.45</strong>.</p>",1196377,,,button-response,,65
>>>>>>> 36e8165b01c8dffc2c69f4aa8ff1e8a2035c2961
,,0.0,,,,,,,,5624,,"<h1 id=""youvecompletedthehit"">You've completed the HIT</h1>

<p>Thanks again for participating. We hope you had fun!</p>

<p>Based on your performance, you will be
<<<<<<< HEAD
awarded a bonus of <strong>$1.95</strong>.</p>",853825,,,button-response,,66
=======
awarded a bonus of <strong>$1.95</strong>.</p>",853825,,,button-response,,67
>>>>>>> 36e8165b01c8dffc2c69f4aa8ff1e8a2035c2961
,,0.0,,,,,,,,8190,,"<h1 id=""youvecompletedthehit"">You've completed the HIT</h1>

<p>Thanks again for participating. We hope you had fun!</p>

<p>Based on your performance, you will be
<<<<<<< HEAD
awarded a bonus of <strong>$0.30</strong>.</p>",1032294,,,button-response,,67
=======
awarded a bonus of <strong>$0.30</strong>.</p>",1032294,,,button-response,,68
>>>>>>> 36e8165b01c8dffc2c69f4aa8ff1e8a2035c2961
,,0.0,,,,,,,,4749,,"<h1 id=""youvecompletedthehit"">You've completed the HIT</h1>

<p>Thanks again for participating. We hope you had fun!</p>

<p>Based on your performance, you will be
<<<<<<< HEAD
awarded a bonus of <strong>$1.65</strong>.</p>",1074339,,,button-response,,68
=======
awarded a bonus of <strong>$1.65</strong>.</p>",1074339,,,button-response,,69
>>>>>>> 36e8165b01c8dffc2c69f4aa8ff1e8a2035c2961
,,0.0,,,,,,,,5053,,"<h1 id=""youvecompletedthehit"">You've completed the HIT</h1>

<p>Thanks again for participating. We hope you had fun!</p>

<p>Based on your performance, you will be
<<<<<<< HEAD
awarded a bonus of <strong>$2.15</strong>.</p>",984775,,,button-response,,69
=======
awarded a bonus of <strong>$2.15</strong>.</p>",984775,,,button-response,,70
>>>>>>> 36e8165b01c8dffc2c69f4aa8ff1e8a2035c2961
,,0.0,,,,,,,,6912,,"<h1 id=""youvecompletedthehit"">You've completed the HIT</h1>

<p>Thanks again for participating. We hope you had fun!</p>

<p>Based on your performance, you will be
<<<<<<< HEAD
awarded a bonus of <strong>$2.45</strong>.</p>",769248,,,button-response,,70
=======
awarded a bonus of <strong>$2.45</strong>.</p>",769248,,,button-response,,71
>>>>>>> 36e8165b01c8dffc2c69f4aa8ff1e8a2035c2961
,,0.0,,,,,,,,5025,,"<h1 id=""youvecompletedthehit"">You've completed the HIT</h1>

<p>Thanks again for participating. We hope you had fun!</p>

<p>Based on your performance, you will be
<<<<<<< HEAD
awarded a bonus of <strong>$1.10</strong>.</p>",918422,,,button-response,,71
=======
awarded a bonus of <strong>$1.10</strong>.</p>",918422,,,button-response,,72
,,0.0,,,,,,,,7311,,"<h1 id=""youvecompletedthehit"">You've completed the HIT</h1>

<p>Thanks again for participating. We hope you had fun!</p>

<p>Based on your performance, you will be
awarded a bonus of <strong>$2.50</strong>.</p>",842772,,,button-response,,73
>>>>>>> 36e8165b01c8dffc2c69f4aa8ff1e8a2035c2961
,,0.0,,,,,,,,4973,,"<h1 id=""youvecompletedthehit"">You've completed the HIT</h1>

<p>Thanks again for participating. We hope you had fun!</p>

<p>Based on your performance, you will be
<<<<<<< HEAD
awarded a bonus of <strong>$1.25</strong>.</p>",808347,,,button-response,,72
=======
awarded a bonus of <strong>$1.25</strong>.</p>",808347,,,button-response,,74
>>>>>>> 36e8165b01c8dffc2c69f4aa8ff1e8a2035c2961
,,0.0,,,,,,,,7395,,"<h1 id=""youvecompletedthehit"">You've completed the HIT</h1>

<p>Thanks again for participating. We hope you had fun!</p>

<p>Based on your performance, you will be
<<<<<<< HEAD
awarded a bonus of <strong>$1.55</strong>.</p>",950474,,,button-response,,73
=======
awarded a bonus of <strong>$1.55</strong>.</p>",950474,,,button-response,,75
>>>>>>> 36e8165b01c8dffc2c69f4aa8ff1e8a2035c2961
,,0.0,,,,,,,,4097,,"<h1 id=""youvecompletedthehit"">You've completed the HIT</h1>

<p>Thanks again for participating. We hope you had fun!</p>

<p>Based on your performance, you will be
<<<<<<< HEAD
awarded a bonus of <strong>$0.00</strong>.</p>",752701,,,button-response,,74
=======
awarded a bonus of <strong>$0.00</strong>.</p>",752701,,,button-response,,76
>>>>>>> 36e8165b01c8dffc2c69f4aa8ff1e8a2035c2961
,,0.0,,,,,,,,3684,,"<h1 id=""youvecompletedthehit"">You've completed the HIT</h1>

<p>Thanks again for participating. We hope you had fun!</p>

<p>Based on your performance, you will be
<<<<<<< HEAD
awarded a bonus of <strong>$0.70</strong>.</p>",974666,,,button-response,,76
=======
awarded a bonus of <strong>$0.70</strong>.</p>",974666,,,button-response,,78
>>>>>>> 36e8165b01c8dffc2c69f4aa8ff1e8a2035c2961
,,0.0,,,,,,,,3986,,"<h1 id=""youvecompletedthehit"">You've completed the HIT</h1>

<p>Thanks again for participating. We hope you had fun!</p>

<p>Based on your performance, you will be
<<<<<<< HEAD
awarded a bonus of <strong>$2.30</strong>.</p>",878288,,,button-response,,77
=======
awarded a bonus of <strong>$2.30</strong>.</p>",878288,,,button-response,,79
>>>>>>> 36e8165b01c8dffc2c69f4aa8ff1e8a2035c2961
,,0.0,,,,,,,,4061,,"<h1 id=""youvecompletedthehit"">You've completed the HIT</h1>

<p>Thanks again for participating. We hope you had fun!</p>

<p>Based on your performance, you will be
<<<<<<< HEAD
awarded a bonus of <strong>$0.30</strong>.</p>",974506,,,button-response,,80
=======
awarded a bonus of <strong>$0.30</strong>.</p>",974506,,,button-response,,82
>>>>>>> 36e8165b01c8dffc2c69f4aa8ff1e8a2035c2961
,,0.0,,,,,,,,4395,,"<h1 id=""youvecompletedthehit"">You've completed the HIT</h1>

<p>Thanks again for participating. We hope you had fun!</p>

<p>Based on your performance, you will be
<<<<<<< HEAD
awarded a bonus of <strong>$0.70</strong>.</p>",961586,,,button-response,,82
=======
awarded a bonus of <strong>$0.70</strong>.</p>",961586,,,button-response,,84
>>>>>>> 36e8165b01c8dffc2c69f4aa8ff1e8a2035c2961
,,0.0,,,,,,,,3842,,"<h1 id=""youvecompletedthehit"">You've completed the HIT</h1>

<p>Thanks again for participating. We hope you had fun!</p>

<p>Based on your performance, you will be
<<<<<<< HEAD
awarded a bonus of <strong>$1.80</strong>.</p>",868510,,,button-response,,83
=======
awarded a bonus of <strong>$1.80</strong>.</p>",868510,,,button-response,,85
>>>>>>> 36e8165b01c8dffc2c69f4aa8ff1e8a2035c2961
,,0.0,,,,,,,,5822,,"<h1 id=""youvecompletedthehit"">You've completed the HIT</h1>

<p>Thanks again for participating. We hope you had fun!</p>

<p>Based on your performance, you will be
<<<<<<< HEAD
awarded a bonus of <strong>$2.35</strong>.</p>",866309,,,button-response,,84
=======
awarded a bonus of <strong>$2.35</strong>.</p>",866309,,,button-response,,86
>>>>>>> 36e8165b01c8dffc2c69f4aa8ff1e8a2035c2961
,,0.0,,,,,,,,12286,,"<h1 id=""youvecompletedthehit"">You've completed the HIT</h1>

<p>Thanks again for participating. We hope you had fun!</p>

<p>Based on your performance, you will be
<<<<<<< HEAD
awarded a bonus of <strong>$1.80</strong>.</p>",1388748,,,button-response,,85
=======
awarded a bonus of <strong>$1.80</strong>.</p>",1388748,,,button-response,,87
>>>>>>> 36e8165b01c8dffc2c69f4aa8ff1e8a2035c2961
,,0.0,,,,,,,,2110,,"<h1 id=""youvecompletedthehit"">You've completed the HIT</h1>

<p>Thanks again for participating. We hope you had fun!</p>

<p>Based on your performance, you will be
<<<<<<< HEAD
awarded a bonus of <strong>$0.40</strong>.</p>",849360,,,button-response,,86
=======
awarded a bonus of <strong>$0.40</strong>.</p>",849360,,,button-response,,88
>>>>>>> 36e8165b01c8dffc2c69f4aa8ff1e8a2035c2961
,,0.0,,,,,,,,8873,,"<h1 id=""youvecompletedthehit"">You've completed the HIT</h1>

<p>Thanks again for participating. We hope you had fun!</p>

<p>Based on your performance, you will be
<<<<<<< HEAD
awarded a bonus of <strong>$2.55</strong>.</p>",924821,,,button-response,,87
=======
awarded a bonus of <strong>$2.55</strong>.</p>",924821,,,button-response,,89
>>>>>>> 36e8165b01c8dffc2c69f4aa8ff1e8a2035c2961
,,0.0,,,,,,,,5690,,"<h1 id=""youvecompletedthehit"">You've completed the HIT</h1>

<p>Thanks again for participating. We hope you had fun!</p>

<p>Based on your performance, you will be
<<<<<<< HEAD
awarded a bonus of <strong>$0.00</strong>.</p>",904882,,,button-response,,88
=======
awarded a bonus of <strong>$0.00</strong>.</p>",904882,,,button-response,,90
>>>>>>> 36e8165b01c8dffc2c69f4aa8ff1e8a2035c2961
,,0.0,,,,,,,,8532,,"<h1 id=""youvecompletedthehit"">You've completed the HIT</h1>

<p>Thanks again for participating. We hope you had fun!</p>

<p>Based on your performance, you will be
<<<<<<< HEAD
awarded a bonus of <strong>$2.35</strong>.</p>",865852,,,button-response,,89
=======
awarded a bonus of <strong>$2.35</strong>.</p>",865852,,,button-response,,91
>>>>>>> 36e8165b01c8dffc2c69f4aa8ff1e8a2035c2961
,,0.0,,,,,,,,3516,,"<h1 id=""youvecompletedthehit"">You've completed the HIT</h1>

<p>Thanks again for participating. We hope you had fun!</p>

<p>Based on your performance, you will be
<<<<<<< HEAD
awarded a bonus of <strong>$1.80</strong>.</p>",740806,,,button-response,,90
=======
awarded a bonus of <strong>$1.80</strong>.</p>",740806,,,button-response,,92
>>>>>>> 36e8165b01c8dffc2c69f4aa8ff1e8a2035c2961
,,0.0,,,,,,,,4077,,"<h1 id=""youvecompletedthehit"">You've completed the HIT</h1>

<p>Thanks again for participating. We hope you had fun!</p>

<p>Based on your performance, you will be
<<<<<<< HEAD
awarded a bonus of <strong>$0.60</strong>.</p>",1084571,,,button-response,,92
=======
awarded a bonus of <strong>$0.60</strong>.</p>",1084571,,,button-response,,94
>>>>>>> 36e8165b01c8dffc2c69f4aa8ff1e8a2035c2961
,,0.0,,,,,,,,4066,,"<h1 id=""youvecompletedthehit"">You've completed the HIT</h1>

<p>Thanks again for participating. We hope you had fun!</p>

<p>Based on your performance, you will be
<<<<<<< HEAD
awarded a bonus of <strong>$1.35</strong>.</p>",972877,,,button-response,,93
=======
awarded a bonus of <strong>$1.35</strong>.</p>",972877,,,button-response,,95
>>>>>>> 36e8165b01c8dffc2c69f4aa8ff1e8a2035c2961
,,0.0,,,,,,,,4553,,"<h1 id=""youvecompletedthehit"">You've completed the HIT</h1>

<p>Thanks again for participating. We hope you had fun!</p>

<p>Based on your performance, you will be
<<<<<<< HEAD
awarded a bonus of <strong>$0.00</strong>.</p>",1573609,,,button-response,,94
=======
awarded a bonus of <strong>$0.00</strong>.</p>",1573609,,,button-response,,96
>>>>>>> 36e8165b01c8dffc2c69f4aa8ff1e8a2035c2961
,,0.0,,,,,,,,5777,,"<h1 id=""youvecompletedthehit"">You've completed the HIT</h1>

<p>Thanks again for participating. We hope you had fun!</p>

<p>Based on your performance, you will be
<<<<<<< HEAD
awarded a bonus of <strong>$2.15</strong>.</p>",763791,,,button-response,,97
=======
awarded a bonus of <strong>$2.15</strong>.</p>",763791,,,button-response,,99
>>>>>>> 36e8165b01c8dffc2c69f4aa8ff1e8a2035c2961
,,0.0,,,,,,,,7164,,"<h1 id=""youvecompletedthehit"">You've completed the HIT</h1>

<p>Thanks again for participating. We hope you had fun!</p>

<p>Based on your performance, you will be
<<<<<<< HEAD
awarded a bonus of <strong>$0.00</strong>.</p>",1389352,,,button-response,,98
=======
awarded a bonus of <strong>$0.00</strong>.</p>",1389352,,,button-response,,100
>>>>>>> 36e8165b01c8dffc2c69f4aa8ff1e8a2035c2961
,,0.0,,,,,,,,3486,,"<h1 id=""youvecompletedthehit"">You've completed the HIT</h1>

<p>Thanks again for participating. We hope you had fun!</p>

<p>Based on your performance, you will be
<<<<<<< HEAD
awarded a bonus of <strong>$0.20</strong>.</p>",937005,,,button-response,,100
=======
awarded a bonus of <strong>$0.20</strong>.</p>",937005,,,button-response,,102
>>>>>>> 36e8165b01c8dffc2c69f4aa8ff1e8a2035c2961
,,0.0,,,,,,,,4736,,"<h1 id=""youvecompletedthehit"">You've completed the HIT</h1>

<p>Thanks again for participating. We hope you had fun!</p>

<p>Based on your performance, you will be
<<<<<<< HEAD
awarded a bonus of <strong>$0.00</strong>.</p>",839664,,,button-response,,101
=======
awarded a bonus of <strong>$0.00</strong>.</p>",839664,,,button-response,,103
>>>>>>> 36e8165b01c8dffc2c69f4aa8ff1e8a2035c2961
,,0.0,,,,,,,,4202,,"<h1 id=""youvecompletedthehit"">You've completed the HIT</h1>

<p>Thanks again for participating. We hope you had fun!</p>

<p>Based on your performance, you will be
<<<<<<< HEAD
awarded a bonus of <strong>$0.00</strong>.</p>",877270,,,button-response,,102
=======
awarded a bonus of <strong>$0.00</strong>.</p>",877270,,,button-response,,104
>>>>>>> 36e8165b01c8dffc2c69f4aa8ff1e8a2035c2961
,,0.0,,,,,,,,7234,,"<h1 id=""youvecompletedthehit"">You've completed the HIT</h1>

<p>Thanks again for participating. We hope you had fun!</p>

<p>Based on your performance, you will be
<<<<<<< HEAD
awarded a bonus of <strong>$1.55</strong>.</p>",813228,,,button-response,,103
=======
awarded a bonus of <strong>$1.55</strong>.</p>",813228,,,button-response,,105
>>>>>>> 36e8165b01c8dffc2c69f4aa8ff1e8a2035c2961
,,0.0,,,,,,,,4831,,"<h1 id=""youvecompletedthehit"">You've completed the HIT</h1>

<p>Thanks again for participating. We hope you had fun!</p>

<p>Based on your performance, you will be
<<<<<<< HEAD
awarded a bonus of <strong>$0.95</strong>.</p>",1304782,,,button-response,,104
=======
awarded a bonus of <strong>$0.95</strong>.</p>",1304782,,,button-response,,106
>>>>>>> 36e8165b01c8dffc2c69f4aa8ff1e8a2035c2961
,,0.0,,,,,,,,8883,,"<h1 id=""youvecompletedthehit"">You've completed the HIT</h1>

<p>Thanks again for participating. We hope you had fun!</p>

<p>Based on your performance, you will be
<<<<<<< HEAD
awarded a bonus of <strong>$0.25</strong>.</p>",1278731,,,button-response,,105
=======
awarded a bonus of <strong>$0.25</strong>.</p>",1278731,,,button-response,,107
>>>>>>> 36e8165b01c8dffc2c69f4aa8ff1e8a2035c2961
,,0.0,,,,,,,,6846,,"<h1 id=""youvecompletedthehit"">You've completed the HIT</h1>

<p>Thanks again for participating. We hope you had fun!</p>

<p>Based on your performance, you will be
<<<<<<< HEAD
awarded a bonus of <strong>$1.50</strong>.</p>",860018,,,button-response,,106
=======
awarded a bonus of <strong>$1.50</strong>.</p>",860018,,,button-response,,108
>>>>>>> 36e8165b01c8dffc2c69f4aa8ff1e8a2035c2961
,,0.0,,,,,,,,5810,,"<h1 id=""youvecompletedthehit"">You've completed the HIT</h1>

<p>Thanks again for participating. We hope you had fun!</p>

<p>Based on your performance, you will be
<<<<<<< HEAD
awarded a bonus of <strong>$1.35</strong>.</p>",912563,,,button-response,,107
=======
awarded a bonus of <strong>$1.35</strong>.</p>",912563,,,button-response,,109
>>>>>>> 36e8165b01c8dffc2c69f4aa8ff1e8a2035c2961
,,0.0,,,,,,,,3755,,"<h1 id=""youvecompletedthehit"">You've completed the HIT</h1>

<p>Thanks again for participating. We hope you had fun!</p>

<p>Based on your performance, you will be
<<<<<<< HEAD
awarded a bonus of <strong>$1.70</strong>.</p>",752810,,,button-response,,108
=======
awarded a bonus of <strong>$1.70</strong>.</p>",752810,,,button-response,,110
>>>>>>> 36e8165b01c8dffc2c69f4aa8ff1e8a2035c2961
,,0.0,,,,,,,,2616,,"<h1 id=""youvecompletedthehit"">You've completed the HIT</h1>

<p>Thanks again for participating. We hope you had fun!</p>

<p>Based on your performance, you will be
<<<<<<< HEAD
awarded a bonus of <strong>$1.30</strong>.</p>",746310,,,button-response,,109
=======
awarded a bonus of <strong>$1.30</strong>.</p>",746310,,,button-response,,111
>>>>>>> 36e8165b01c8dffc2c69f4aa8ff1e8a2035c2961
,,0.0,,,,,,,,4399,,"<h1 id=""youvecompletedthehit"">You've completed the HIT</h1>

<p>Thanks again for participating. We hope you had fun!</p>

<p>Based on your performance, you will be
<<<<<<< HEAD
awarded a bonus of <strong>$2.65</strong>.</p>",823876,,,button-response,,111
=======
awarded a bonus of <strong>$2.65</strong>.</p>",823876,,,button-response,,113
,,0.0,,,,,,,,13362,,"<h1 id=""youvecompletedthehit"">You've completed the HIT</h1>

<p>Thanks again for participating. We hope you had fun!</p>

<p>Based on your performance, you will be
awarded a bonus of <strong>$0.00</strong>.</p>",1793950,,,button-response,,114
>>>>>>> 36e8165b01c8dffc2c69f4aa8ff1e8a2035c2961
,,0.0,,,,,,,,6301,,"<h1 id=""youvecompletedthehit"">You've completed the HIT</h1>

<p>Thanks again for participating. We hope you had fun!</p>

<p>Based on your performance, you will be
<<<<<<< HEAD
awarded a bonus of <strong>$1.75</strong>.</p>",937607,,,button-response,,112
=======
awarded a bonus of <strong>$1.75</strong>.</p>",937607,,,button-response,,115
>>>>>>> 36e8165b01c8dffc2c69f4aa8ff1e8a2035c2961
,,0.0,,,,,,,,7184,,"<h1 id=""youvecompletedthehit"">You've completed the HIT</h1>

<p>Thanks again for participating. We hope you had fun!</p>

<p>Based on your performance, you will be
<<<<<<< HEAD
awarded a bonus of <strong>$1.15</strong>.</p>",872713,,,button-response,,113
=======
awarded a bonus of <strong>$1.15</strong>.</p>",872713,,,button-response,,116
>>>>>>> 36e8165b01c8dffc2c69f4aa8ff1e8a2035c2961
,,0.0,,,,,,,,3598,,"<h1 id=""youvecompletedthehit"">You've completed the HIT</h1>

<p>Thanks again for participating. We hope you had fun!</p>

<p>Based on your performance, you will be
<<<<<<< HEAD
awarded a bonus of <strong>$1.55</strong>.</p>",1000408,,,button-response,,114
=======
awarded a bonus of <strong>$1.55</strong>.</p>",1000408,,,button-response,,117
>>>>>>> 36e8165b01c8dffc2c69f4aa8ff1e8a2035c2961
,,0.0,,,,,,,,6682,,"<h1 id=""youvecompletedthehit"">You've completed the HIT</h1>

<p>Thanks again for participating. We hope you had fun!</p>

<p>Based on your performance, you will be
<<<<<<< HEAD
awarded a bonus of <strong>$0.00</strong>.</p>",827471,,,button-response,,115
=======
awarded a bonus of <strong>$0.00</strong>.</p>",827471,,,button-response,,118
>>>>>>> 36e8165b01c8dffc2c69f4aa8ff1e8a2035c2961
,,0.0,,,,,,,,10590,,"<h1 id=""youvecompletedthehit"">You've completed the HIT</h1>

<p>Thanks again for participating. We hope you had fun!</p>

<p>Based on your performance, you will be
<<<<<<< HEAD
awarded a bonus of <strong>$2.30</strong>.</p>",1324250,,,button-response,,116
=======
awarded a bonus of <strong>$2.30</strong>.</p>",1324250,,,button-response,,119
>>>>>>> 36e8165b01c8dffc2c69f4aa8ff1e8a2035c2961
,,0.0,,,,,,,,4146,,"<h1 id=""youvecompletedthehit"">You've completed the HIT</h1>

<p>Thanks again for participating. We hope you had fun!</p>

<p>Based on your performance, you will be
<<<<<<< HEAD
awarded a bonus of <strong>$2.35</strong>.</p>",1156381,,,button-response,,117
=======
awarded a bonus of <strong>$2.35</strong>.</p>",1156381,,,button-response,,120
>>>>>>> 36e8165b01c8dffc2c69f4aa8ff1e8a2035c2961
,,0.0,,,,,,,,3869,,"<h1 id=""youvecompletedthehit"">You've completed the HIT</h1>

<p>Thanks again for participating. We hope you had fun!</p>

<p>Based on your performance, you will be
<<<<<<< HEAD
awarded a bonus of <strong>$0.20</strong>.</p>",898545,,,button-response,,118
=======
awarded a bonus of <strong>$0.20</strong>.</p>",898545,,,button-response,,121
,,0.0,,,,,,,,8038,,"<h1 id=""youvecompletedthehit"">You've completed the HIT</h1>

<p>Thanks again for participating. We hope you had fun!</p>

<p>Based on your performance, you will be
awarded a bonus of <strong>$1.60</strong>.</p>",917345,,,button-response,,123
>>>>>>> 36e8165b01c8dffc2c69f4aa8ff1e8a2035c2961
,,0.0,,,,,,,,4852,,"<h1 id=""youvecompletedthehit"">You've completed the HIT</h1>

<p>Thanks again for participating. We hope you had fun!</p>

<p>Based on your performance, you will be
<<<<<<< HEAD
awarded a bonus of <strong>$1.35</strong>.</p>",794168,,,button-response,,120
=======
awarded a bonus of <strong>$1.35</strong>.</p>",794168,,,button-response,,124
>>>>>>> 36e8165b01c8dffc2c69f4aa8ff1e8a2035c2961
,,0.0,,,,,,,,5037,,"<h1 id=""youvecompletedthehit"">You've completed the HIT</h1>

<p>Thanks again for participating. We hope you had fun!</p>

<p>Based on your performance, you will be
<<<<<<< HEAD
awarded a bonus of <strong>$1.95</strong>.</p>",822828,,,button-response,,121
=======
awarded a bonus of <strong>$1.95</strong>.</p>",822828,,,button-response,,125
>>>>>>> 36e8165b01c8dffc2c69f4aa8ff1e8a2035c2961
,,0.0,,,,,,,,7763,,"<h1 id=""youvecompletedthehit"">You've completed the HIT</h1>

<p>Thanks again for participating. We hope you had fun!</p>

<p>Based on your performance, you will be
<<<<<<< HEAD
awarded a bonus of <strong>$1.35</strong>.</p>",843397,,,button-response,,122
=======
awarded a bonus of <strong>$1.35</strong>.</p>",843397,,,button-response,,126
>>>>>>> 36e8165b01c8dffc2c69f4aa8ff1e8a2035c2961
,,0.0,,,,,,,,4452,,"<h1 id=""youvecompletedthehit"">You've completed the HIT</h1>

<p>Thanks again for participating. We hope you had fun!</p>

<p>Based on your performance, you will be
<<<<<<< HEAD
awarded a bonus of <strong>$1.35</strong>.</p>",1074597,,,button-response,,123
=======
awarded a bonus of <strong>$1.35</strong>.</p>",1074597,,,button-response,,127
>>>>>>> 36e8165b01c8dffc2c69f4aa8ff1e8a2035c2961
,,0.0,,,,,,,,6961,,"<h1 id=""youvecompletedthehit"">You've completed the HIT</h1>

<p>Thanks again for participating. We hope you had fun!</p>

<p>Based on your performance, you will be
<<<<<<< HEAD
awarded a bonus of <strong>$0.00</strong>.</p>",914229,,,button-response,,124
=======
awarded a bonus of <strong>$0.00</strong>.</p>",914229,,,button-response,,128
>>>>>>> 36e8165b01c8dffc2c69f4aa8ff1e8a2035c2961
,,0.0,,,,,,,,3366,,"<h1 id=""youvecompletedthehit"">You've completed the HIT</h1>

<p>Thanks again for participating. We hope you had fun!</p>

<p>Based on your performance, you will be
<<<<<<< HEAD
awarded a bonus of <strong>$1.50</strong>.</p>",804614,,,button-response,,125
=======
awarded a bonus of <strong>$1.50</strong>.</p>",804614,,,button-response,,129
>>>>>>> 36e8165b01c8dffc2c69f4aa8ff1e8a2035c2961
,,0.0,,,,,,,,1918,,"<h1 id=""youvecompletedthehit"">You've completed the HIT</h1>

<p>Thanks again for participating. We hope you had fun!</p>

<p>Based on your performance, you will be
<<<<<<< HEAD
awarded a bonus of <strong>$1.35</strong>.</p>",759899,,,button-response,,126
=======
awarded a bonus of <strong>$1.35</strong>.</p>",759899,,,button-response,,130
>>>>>>> 36e8165b01c8dffc2c69f4aa8ff1e8a2035c2961
,,0.0,,,,,,,,6997,,"<h1 id=""youvecompletedthehit"">You've completed the HIT</h1>

<p>Thanks again for participating. We hope you had fun!</p>

<p>Based on your performance, you will be
<<<<<<< HEAD
awarded a bonus of <strong>$0.65</strong>.</p>",910533,,,button-response,,127
=======
awarded a bonus of <strong>$0.65</strong>.</p>",910533,,,button-response,,131
>>>>>>> 36e8165b01c8dffc2c69f4aa8ff1e8a2035c2961
,,0.0,,,,,,,,5064,,"<h1 id=""youvecompletedthehit"">You've completed the HIT</h1>

<p>Thanks again for participating. We hope you had fun!</p>

<p>Based on your performance, you will be
<<<<<<< HEAD
awarded a bonus of <strong>$0.00</strong>.</p>",1040701,,,button-response,,128
=======
awarded a bonus of <strong>$0.00</strong>.</p>",1040701,,,button-response,,132
>>>>>>> 36e8165b01c8dffc2c69f4aa8ff1e8a2035c2961
,,0.0,,,,,,,,4672,,"<h1 id=""youvecompletedthehit"">You've completed the HIT</h1>

<p>Thanks again for participating. We hope you had fun!</p>

<p>Based on your performance, you will be
<<<<<<< HEAD
awarded a bonus of <strong>$1.00</strong>.</p>",1015208,,,button-response,,130
=======
awarded a bonus of <strong>$1.00</strong>.</p>",1015208,,,button-response,,134
>>>>>>> 36e8165b01c8dffc2c69f4aa8ff1e8a2035c2961
,,0.0,,,,,,,,4299,,"<h1 id=""youvecompletedthehit"">You've completed the HIT</h1>

<p>Thanks again for participating. We hope you had fun!</p>

<p>Based on your performance, you will be
<<<<<<< HEAD
awarded a bonus of <strong>$2.05</strong>.</p>",875826,,,button-response,,131
=======
awarded a bonus of <strong>$2.05</strong>.</p>",875826,,,button-response,,135
>>>>>>> 36e8165b01c8dffc2c69f4aa8ff1e8a2035c2961
,,0.0,,,,,,,,1848,,"<h1 id=""youvecompletedthehit"">You've completed the HIT</h1>

<p>Thanks again for participating. We hope you had fun!</p>

<p>Based on your performance, you will be
<<<<<<< HEAD
awarded a bonus of <strong>$1.55</strong>.</p>",2137299,,,button-response,,132
=======
awarded a bonus of <strong>$1.55</strong>.</p>",2137299,,,button-response,,136
>>>>>>> 36e8165b01c8dffc2c69f4aa8ff1e8a2035c2961
,,0.0,,,,,,,,4681,,"<h1 id=""youvecompletedthehit"">You've completed the HIT</h1>

<p>Thanks again for participating. We hope you had fun!</p>

<p>Based on your performance, you will be
<<<<<<< HEAD
awarded a bonus of <strong>$0.95</strong>.</p>",916205,,,button-response,,133
=======
awarded a bonus of <strong>$0.95</strong>.</p>",916205,,,button-response,,137
>>>>>>> 36e8165b01c8dffc2c69f4aa8ff1e8a2035c2961
,,0.0,,,,,,,,6385,,"<h1 id=""youvecompletedthehit"">You've completed the HIT</h1>

<p>Thanks again for participating. We hope you had fun!</p>

<p>Based on your performance, you will be
<<<<<<< HEAD
awarded a bonus of <strong>$0.00</strong>.</p>",949794,,,button-response,,134
=======
awarded a bonus of <strong>$0.00</strong>.</p>",949794,,,button-response,,138
,,0.0,,,,,,,,7757,,"<h1 id=""youvecompletedthehit"">You've completed the HIT</h1>

<p>Thanks again for participating. We hope you had fun!</p>

<p>Based on your performance, you will be
awarded a bonus of <strong>$0.90</strong>.</p>",770482,,,button-response,,139
>>>>>>> 36e8165b01c8dffc2c69f4aa8ff1e8a2035c2961
,,0.0,,,,,,,,4374,,"<h1 id=""youvecompletedthehit"">You've completed the HIT</h1>

<p>Thanks again for participating. We hope you had fun!</p>

<p>Based on your performance, you will be
<<<<<<< HEAD
awarded a bonus of <strong>$1.65</strong>.</p>",1002358,,,button-response,,135
=======
awarded a bonus of <strong>$1.65</strong>.</p>",1002358,,,button-response,,140
>>>>>>> 36e8165b01c8dffc2c69f4aa8ff1e8a2035c2961
,,0.0,,,,,,,,4503,,"<h1 id=""youvecompletedthehit"">You've completed the HIT</h1>

<p>Thanks again for participating. We hope you had fun!</p>

<p>Based on your performance, you will be
<<<<<<< HEAD
awarded a bonus of <strong>$1.50</strong>.</p>",888759,,,button-response,,136
=======
awarded a bonus of <strong>$1.50</strong>.</p>",888759,,,button-response,,141
>>>>>>> 36e8165b01c8dffc2c69f4aa8ff1e8a2035c2961
,,0.0,,,,,,,,4319,,"<h1 id=""youvecompletedthehit"">You've completed the HIT</h1>

<p>Thanks again for participating. We hope you had fun!</p>

<p>Based on your performance, you will be
<<<<<<< HEAD
awarded a bonus of <strong>$1.65</strong>.</p>",856000,,,button-response,,137
=======
awarded a bonus of <strong>$1.65</strong>.</p>",856000,,,button-response,,142
>>>>>>> 36e8165b01c8dffc2c69f4aa8ff1e8a2035c2961
,,0.0,,,,,,,,9680,,"<h1 id=""youvecompletedthehit"">You've completed the HIT</h1>

<p>Thanks again for participating. We hope you had fun!</p>

<p>Based on your performance, you will be
<<<<<<< HEAD
awarded a bonus of <strong>$1.10</strong>.</p>",829244,,,button-response,,138
=======
awarded a bonus of <strong>$1.10</strong>.</p>",829244,,,button-response,,143
>>>>>>> 36e8165b01c8dffc2c69f4aa8ff1e8a2035c2961
,,0.0,,,,,,,,4825,,"<h1 id=""youvecompletedthehit"">You've completed the HIT</h1>

<p>Thanks again for participating. We hope you had fun!</p>

<p>Based on your performance, you will be
<<<<<<< HEAD
awarded a bonus of <strong>$1.15</strong>.</p>",926738,,,button-response,,139
=======
awarded a bonus of <strong>$1.15</strong>.</p>",926738,,,button-response,,144
>>>>>>> 36e8165b01c8dffc2c69f4aa8ff1e8a2035c2961
,,0.0,,,,,,,,19326,,"<h1 id=""youvecompletedthehit"">You've completed the HIT</h1>

<p>Thanks again for participating. We hope you had fun!</p>

<p>Based on your performance, you will be
<<<<<<< HEAD
awarded a bonus of <strong>$0.85</strong>.</p>",1261133,,,button-response,,140
=======
awarded a bonus of <strong>$0.85</strong>.</p>",1261133,,,button-response,,145
>>>>>>> 36e8165b01c8dffc2c69f4aa8ff1e8a2035c2961
,,0.0,,,,,,,,17042,,"<h1 id=""youvecompletedthehit"">You've completed the HIT</h1>

<p>Thanks again for participating. We hope you had fun!</p>

<p>Based on your performance, you will be
<<<<<<< HEAD
awarded a bonus of <strong>$2.65</strong>.</p>",1450723,,,button-response,,141
=======
awarded a bonus of <strong>$2.65</strong>.</p>",1450723,,,button-response,,146
>>>>>>> 36e8165b01c8dffc2c69f4aa8ff1e8a2035c2961
,,0.0,,,,,,,,5488,,"<h1 id=""youvecompletedthehit"">You've completed the HIT</h1>

<p>Thanks again for participating. We hope you had fun!</p>

<p>Based on your performance, you will be
<<<<<<< HEAD
awarded a bonus of <strong>$0.50</strong>.</p>",1016392,,,button-response,,143
=======
awarded a bonus of <strong>$0.50</strong>.</p>",1016392,,,button-response,,148
,,0.0,,,,,,,,6075,,"<h1 id=""youvecompletedthehit"">You've completed the HIT</h1>

<p>Thanks again for participating. We hope you had fun!</p>

<p>Based on your performance, you will be
awarded a bonus of <strong>$1.30</strong>.</p>",908854,,,button-response,,149
>>>>>>> 36e8165b01c8dffc2c69f4aa8ff1e8a2035c2961
,,0.0,,,,,,,,7176,,"<h1 id=""youvecompletedthehit"">You've completed the HIT</h1>

<p>Thanks again for participating. We hope you had fun!</p>

<p>Based on your performance, you will be
<<<<<<< HEAD
awarded a bonus of <strong>$1.40</strong>.</p>",859574,,,button-response,,145
=======
awarded a bonus of <strong>$1.40</strong>.</p>",859574,,,button-response,,151
>>>>>>> 36e8165b01c8dffc2c69f4aa8ff1e8a2035c2961
,,0.0,,,,,,,,2317,,"<h1 id=""youvecompletedthehit"">You've completed the HIT</h1>

<p>Thanks again for participating. We hope you had fun!</p>

<p>Based on your performance, you will be
<<<<<<< HEAD
awarded a bonus of <strong>$1.80</strong>.</p>",1539683,,,button-response,,146
=======
awarded a bonus of <strong>$1.80</strong>.</p>",1539683,,,button-response,,152
>>>>>>> 36e8165b01c8dffc2c69f4aa8ff1e8a2035c2961
,,0.0,,,,,,,,6561,,"<h1 id=""youvecompletedthehit"">You've completed the HIT</h1>

<p>Thanks again for participating. We hope you had fun!</p>

<p>Based on your performance, you will be
<<<<<<< HEAD
awarded a bonus of <strong>$2.00</strong>.</p>",967071,,,button-response,,147
=======
awarded a bonus of <strong>$2.00</strong>.</p>",967071,,,button-response,,153
>>>>>>> 36e8165b01c8dffc2c69f4aa8ff1e8a2035c2961
,,0.0,,,,,,,,3686,,"<h1 id=""youvecompletedthehit"">You've completed the HIT</h1>

<p>Thanks again for participating. We hope you had fun!</p>

<p>Based on your performance, you will be
<<<<<<< HEAD
awarded a bonus of <strong>$0.00</strong>.</p>",850569,,,button-response,,148
=======
awarded a bonus of <strong>$0.00</strong>.</p>",850569,,,button-response,,154
>>>>>>> 36e8165b01c8dffc2c69f4aa8ff1e8a2035c2961
,,0.0,,,,,,,,17427,,"<h1 id=""youvecompletedthehit"">You've completed the HIT</h1>

<p>Thanks again for participating. We hope you had fun!</p>

<p>Based on your performance, you will be
<<<<<<< HEAD
awarded a bonus of <strong>$1.60</strong>.</p>",2455777,,,button-response,,149
=======
awarded a bonus of <strong>$1.60</strong>.</p>",2455777,,,button-response,,155
>>>>>>> 36e8165b01c8dffc2c69f4aa8ff1e8a2035c2961
,,0.0,,,,,,,,4946,,"<h1 id=""youvecompletedthehit"">You've completed the HIT</h1>

<p>Thanks again for participating. We hope you had fun!</p>

<p>Based on your performance, you will be
<<<<<<< HEAD
awarded a bonus of <strong>$0.40</strong>.</p>",1038125,,,button-response,,150
=======
awarded a bonus of <strong>$0.40</strong>.</p>",1038125,,,button-response,,156
>>>>>>> 36e8165b01c8dffc2c69f4aa8ff1e8a2035c2961
,,0.0,,,,,,,,16710,,"<h1 id=""youvecompletedthehit"">You've completed the HIT</h1>

<p>Thanks again for participating. We hope you had fun!</p>

<p>Based on your performance, you will be
<<<<<<< HEAD
awarded a bonus of <strong>$2.00</strong>.</p>",1468007,,,button-response,,151
=======
awarded a bonus of <strong>$2.00</strong>.</p>",1468007,,,button-response,,157
>>>>>>> 36e8165b01c8dffc2c69f4aa8ff1e8a2035c2961
,,0.0,,,,,,,,15775,,"<h1 id=""youvecompletedthehit"">You've completed the HIT</h1>

<p>Thanks again for participating. We hope you had fun!</p>

<p>Based on your performance, you will be
<<<<<<< HEAD
awarded a bonus of <strong>$0.05</strong>.</p>",1305493,,,button-response,,154
=======
awarded a bonus of <strong>$0.05</strong>.</p>",1305493,,,button-response,,160
>>>>>>> 36e8165b01c8dffc2c69f4aa8ff1e8a2035c2961
,,0.0,,,,,,,,7120,,"<h1 id=""youvecompletedthehit"">You've completed the HIT</h1>

<p>Thanks again for participating. We hope you had fun!</p>

<p>Based on your performance, you will be
<<<<<<< HEAD
awarded a bonus of <strong>$1.70</strong>.</p>",1359774,,,button-response,,155
=======
awarded a bonus of <strong>$1.70</strong>.</p>",1359774,,,button-response,,161
>>>>>>> 36e8165b01c8dffc2c69f4aa8ff1e8a2035c2961
,,0.0,,,,,,,,4603,,"<h1 id=""youvecompletedthehit"">You've completed the HIT</h1>

<p>Thanks again for participating. We hope you had fun!</p>

<p>Based on your performance, you will be
<<<<<<< HEAD
awarded a bonus of <strong>$0.55</strong>.</p>",954648,,,button-response,,156
=======
awarded a bonus of <strong>$0.55</strong>.</p>",954648,,,button-response,,162
>>>>>>> 36e8165b01c8dffc2c69f4aa8ff1e8a2035c2961
,,0.0,,,,,,,,9750,,"<h1 id=""youvecompletedthehit"">You've completed the HIT</h1>

<p>Thanks again for participating. We hope you had fun!</p>

<p>Based on your performance, you will be
<<<<<<< HEAD
awarded a bonus of <strong>$1.30</strong>.</p>",2103954,,,button-response,,157
=======
awarded a bonus of <strong>$1.30</strong>.</p>",2103954,,,button-response,,163
>>>>>>> 36e8165b01c8dffc2c69f4aa8ff1e8a2035c2961
,,0.0,,,,,,,,5077,,"<h1 id=""youvecompletedthehit"">You've completed the HIT</h1>

<p>Thanks again for participating. We hope you had fun!</p>

<p>Based on your performance, you will be
<<<<<<< HEAD
awarded a bonus of <strong>$1.35</strong>.</p>",852258,,,button-response,,158
=======
awarded a bonus of <strong>$1.35</strong>.</p>",852258,,,button-response,,164
,,0.0,,,,,,,,3301,,"<h1 id=""youvecompletedthehit"">You've completed the HIT</h1>

<p>Thanks again for participating. We hope you had fun!</p>

<p>Based on your performance, you will be
awarded a bonus of <strong>$2.00</strong>.</p>",943781,,,button-response,,165
,,0.0,,,,,,,,4086,,"<h1 id=""youvecompletedthehit"">You've completed the HIT</h1>

<p>Thanks again for participating. We hope you had fun!</p>

<p>Based on your performance, you will be
awarded a bonus of <strong>$0.85</strong>.</p>",986322,,,button-response,,167
>>>>>>> 36e8165b01c8dffc2c69f4aa8ff1e8a2035c2961
,,0.0,,,,,,,,18120,,"<h1 id=""youvecompletedthehit"">You've completed the HIT</h1>

<p>Thanks again for participating. We hope you had fun!</p>

<p>Based on your performance, you will be
<<<<<<< HEAD
awarded a bonus of <strong>$0.65</strong>.</p>",1454054,,,button-response,,160
=======
awarded a bonus of <strong>$0.65</strong>.</p>",1454054,,,button-response,,168
>>>>>>> 36e8165b01c8dffc2c69f4aa8ff1e8a2035c2961
,,0.0,,,,,,,,8998,,"<h1 id=""youvecompletedthehit"">You've completed the HIT</h1>

<p>Thanks again for participating. We hope you had fun!</p>

<p>Based on your performance, you will be
<<<<<<< HEAD
awarded a bonus of <strong>$0.25</strong>.</p>",1382229,,,button-response,,161
=======
awarded a bonus of <strong>$0.25</strong>.</p>",1382229,,,button-response,,169
>>>>>>> 36e8165b01c8dffc2c69f4aa8ff1e8a2035c2961
,,0.0,,,,,,,,3808,,"<h1 id=""youvecompletedthehit"">You've completed the HIT</h1>

<p>Thanks again for participating. We hope you had fun!</p>

<p>Based on your performance, you will be
<<<<<<< HEAD
awarded a bonus of <strong>$0.50</strong>.</p>",759871,,,button-response,,162
=======
awarded a bonus of <strong>$0.50</strong>.</p>",759871,,,button-response,,170
>>>>>>> 36e8165b01c8dffc2c69f4aa8ff1e8a2035c2961
,,0.0,,,,,,,,5557,,"<h1 id=""youvecompletedthehit"">You've completed the HIT</h1>

<p>Thanks again for participating. We hope you had fun!</p>

<p>Based on your performance, you will be
<<<<<<< HEAD
awarded a bonus of <strong>$1.50</strong>.</p>",1088745,,,button-response,,163
=======
awarded a bonus of <strong>$1.50</strong>.</p>",1088745,,,button-response,,171
>>>>>>> 36e8165b01c8dffc2c69f4aa8ff1e8a2035c2961
,,0.0,,,,,,,,6220,,"<h1 id=""youvecompletedthehit"">You've completed the HIT</h1>

<p>Thanks again for participating. We hope you had fun!</p>

<p>Based on your performance, you will be
<<<<<<< HEAD
awarded a bonus of <strong>$1.60</strong>.</p>",911708,,,button-response,,165
=======
awarded a bonus of <strong>$1.60</strong>.</p>",911708,,,button-response,,173
>>>>>>> 36e8165b01c8dffc2c69f4aa8ff1e8a2035c2961
,,0.0,,,,,,,,4754,,"<h1 id=""youvecompletedthehit"">You've completed the HIT</h1>

<p>Thanks again for participating. We hope you had fun!</p>

<p>Based on your performance, you will be
<<<<<<< HEAD
awarded a bonus of <strong>$0.00</strong>.</p>",1236129,,,button-response,,166
=======
awarded a bonus of <strong>$0.00</strong>.</p>",1236129,,,button-response,,174
>>>>>>> 36e8165b01c8dffc2c69f4aa8ff1e8a2035c2961
,,0.0,,,,,,,,6161,,"<h1 id=""youvecompletedthehit"">You've completed the HIT</h1>

<p>Thanks again for participating. We hope you had fun!</p>

<p>Based on your performance, you will be
<<<<<<< HEAD
awarded a bonus of <strong>$0.95</strong>.</p>",878866,,,button-response,,167
=======
awarded a bonus of <strong>$0.95</strong>.</p>",878866,,,button-response,,175
>>>>>>> 36e8165b01c8dffc2c69f4aa8ff1e8a2035c2961
,,0.0,,,,,,,,3244,,"<h1 id=""youvecompletedthehit"">You've completed the HIT</h1>

<p>Thanks again for participating. We hope you had fun!</p>

<p>Based on your performance, you will be
<<<<<<< HEAD
awarded a bonus of <strong>$2.25</strong>.</p>",3326792,,,button-response,,168
=======
awarded a bonus of <strong>$2.25</strong>.</p>",3326792,,,button-response,,176
>>>>>>> 36e8165b01c8dffc2c69f4aa8ff1e8a2035c2961
,,0.0,,,,,,,,5208,,"<h1 id=""youvecompletedthehit"">You've completed the HIT</h1>

<p>Thanks again for participating. We hope you had fun!</p>

<p>Based on your performance, you will be
<<<<<<< HEAD
awarded a bonus of <strong>$1.40</strong>.</p>",948454,,,button-response,,169
=======
awarded a bonus of <strong>$1.40</strong>.</p>",948454,,,button-response,,177
>>>>>>> 36e8165b01c8dffc2c69f4aa8ff1e8a2035c2961
,,0.0,,,,,,,,4223,,"<h1 id=""youvecompletedthehit"">You've completed the HIT</h1>

<p>Thanks again for participating. We hope you had fun!</p>

<p>Based on your performance, you will be
<<<<<<< HEAD
awarded a bonus of <strong>$1.80</strong>.</p>",1137417,,,button-response,,170
=======
awarded a bonus of <strong>$1.80</strong>.</p>",1137417,,,button-response,,178
>>>>>>> 36e8165b01c8dffc2c69f4aa8ff1e8a2035c2961
,,0.0,,,,,,,,7572,,"<h1 id=""youvecompletedthehit"">You've completed the HIT</h1>

<p>Thanks again for participating. We hope you had fun!</p>

<p>Based on your performance, you will be
<<<<<<< HEAD
awarded a bonus of <strong>$1.35</strong>.</p>",1955561,,,button-response,,171
=======
awarded a bonus of <strong>$1.35</strong>.</p>",1955561,,,button-response,,179
>>>>>>> 36e8165b01c8dffc2c69f4aa8ff1e8a2035c2961
,,0.0,,,,,,,,5242,,"<h1 id=""youvecompletedthehit"">You've completed the HIT</h1>

<p>Thanks again for participating. We hope you had fun!</p>

<p>Based on your performance, you will be
<<<<<<< HEAD
awarded a bonus of <strong>$1.35</strong>.</p>",1144809,,,button-response,,172
=======
awarded a bonus of <strong>$1.35</strong>.</p>",1144809,,,button-response,,180
>>>>>>> 36e8165b01c8dffc2c69f4aa8ff1e8a2035c2961
,,0.0,,,,,,,,10929,,"<h1 id=""youvecompletedthehit"">You've completed the HIT</h1>

<p>Thanks again for participating. We hope you had fun!</p>

<p>Based on your performance, you will be
<<<<<<< HEAD
awarded a bonus of <strong>$1.25</strong>.</p>",1800540,,,button-response,,173
=======
awarded a bonus of <strong>$1.25</strong>.</p>",1800540,,,button-response,,181
>>>>>>> 36e8165b01c8dffc2c69f4aa8ff1e8a2035c2961
,,0.0,,,,,,,,7232,,"<h1 id=""youvecompletedthehit"">You've completed the HIT</h1>

<p>Thanks again for participating. We hope you had fun!</p>

<p>Based on your performance, you will be
<<<<<<< HEAD
awarded a bonus of <strong>$1.55</strong>.</p>",1558573,,,button-response,,174
=======
awarded a bonus of <strong>$1.55</strong>.</p>",1558573,,,button-response,,182
>>>>>>> 36e8165b01c8dffc2c69f4aa8ff1e8a2035c2961
,,0.0,,,,,,,,11178,,"<h1 id=""youvecompletedthehit"">You've completed the HIT</h1>

<p>Thanks again for participating. We hope you had fun!</p>

<p>Based on your performance, you will be
<<<<<<< HEAD
awarded a bonus of <strong>$1.85</strong>.</p>",1107088,,,button-response,,175
=======
awarded a bonus of <strong>$1.85</strong>.</p>",1107088,,,button-response,,183
>>>>>>> 36e8165b01c8dffc2c69f4aa8ff1e8a2035c2961
,,0.0,,,,,,,,17117,,"<h1 id=""youvecompletedthehit"">You've completed the HIT</h1>

<p>Thanks again for participating. We hope you had fun!</p>

<p>Based on your performance, you will be
<<<<<<< HEAD
awarded a bonus of <strong>$1.25</strong>.</p>",1087443,,,button-response,,177
=======
awarded a bonus of <strong>$1.25</strong>.</p>",1087443,,,button-response,,185
>>>>>>> 36e8165b01c8dffc2c69f4aa8ff1e8a2035c2961
,,0.0,,,,,,,,21172,,"<h1 id=""youvecompletedthehit"">You've completed the HIT</h1>

<p>Thanks again for participating. We hope you had fun!</p>

<p>Based on your performance, you will be
<<<<<<< HEAD
awarded a bonus of <strong>$0.00</strong>.</p>",1407706,,,button-response,,178
=======
awarded a bonus of <strong>$0.00</strong>.</p>",1407706,,,button-response,,186
>>>>>>> 36e8165b01c8dffc2c69f4aa8ff1e8a2035c2961
,,0.0,,,,,,,,6147,,"<h1 id=""youvecompletedthehit"">You've completed the HIT</h1>

<p>Thanks again for participating. We hope you had fun!</p>

<p>Based on your performance, you will be
<<<<<<< HEAD
awarded a bonus of <strong>$2.55</strong>.</p>",889409,,,button-response,,179
=======
awarded a bonus of <strong>$2.55</strong>.</p>",889409,,,button-response,,187
>>>>>>> 36e8165b01c8dffc2c69f4aa8ff1e8a2035c2961
,,0.0,,,,,,,,8146,,"<h1 id=""youvecompletedthehit"">You've completed the HIT</h1>

<p>Thanks again for participating. We hope you had fun!</p>

<p>Based on your performance, you will be
<<<<<<< HEAD
awarded a bonus of <strong>$1.40</strong>.</p>",891740,,,button-response,,180
=======
awarded a bonus of <strong>$1.40</strong>.</p>",891740,,,button-response,,188
>>>>>>> 36e8165b01c8dffc2c69f4aa8ff1e8a2035c2961
,,0.0,,,,,,,,4782,,"<h1 id=""youvecompletedthehit"">You've completed the HIT</h1>

<p>Thanks again for participating. We hope you had fun!</p>

<p>Based on your performance, you will be
<<<<<<< HEAD
awarded a bonus of <strong>$1.45</strong>.</p>",1155028,,,button-response,,181
=======
awarded a bonus of <strong>$1.45</strong>.</p>",1155028,,,button-response,,189
>>>>>>> 36e8165b01c8dffc2c69f4aa8ff1e8a2035c2961
,,0.0,,,,,,,,5368,,"<h1 id=""youvecompletedthehit"">You've completed the HIT</h1>

<p>Thanks again for participating. We hope you had fun!</p>

<p>Based on your performance, you will be
<<<<<<< HEAD
awarded a bonus of <strong>$1.05</strong>.</p>",729632,,,button-response,,182
=======
awarded a bonus of <strong>$1.05</strong>.</p>",729632,,,button-response,,190
>>>>>>> 36e8165b01c8dffc2c69f4aa8ff1e8a2035c2961
,,0.0,,,,,,,,3581,,"<h1 id=""youvecompletedthehit"">You've completed the HIT</h1>

<p>Thanks again for participating. We hope you had fun!</p>

<p>Based on your performance, you will be
<<<<<<< HEAD
awarded a bonus of <strong>$1.85</strong>.</p>",912812,,,button-response,,183
=======
awarded a bonus of <strong>$1.85</strong>.</p>",912812,,,button-response,,191
>>>>>>> 36e8165b01c8dffc2c69f4aa8ff1e8a2035c2961
,,0.0,,,,,,,,7640,,"<h1 id=""youvecompletedthehit"">You've completed the HIT</h1>

<p>Thanks again for participating. We hope you had fun!</p>

<p>Based on your performance, you will be
<<<<<<< HEAD
awarded a bonus of <strong>$2.50</strong>.</p>",804577,,,button-response,,184
=======
awarded a bonus of <strong>$2.50</strong>.</p>",804577,,,button-response,,192
>>>>>>> 36e8165b01c8dffc2c69f4aa8ff1e8a2035c2961
,,0.0,,,,,,,,4557,,"<h1 id=""youvecompletedthehit"">You've completed the HIT</h1>

<p>Thanks again for participating. We hope you had fun!</p>

<p>Based on your performance, you will be
<<<<<<< HEAD
awarded a bonus of <strong>$0.40</strong>.</p>",861854,,,button-response,,185
=======
awarded a bonus of <strong>$0.40</strong>.</p>",861854,,,button-response,,193
,,0.0,,,,,,,,5508,,"<h1 id=""youvecompletedthehit"">You've completed the HIT</h1>

<p>Thanks again for participating. We hope you had fun!</p>

<p>Based on your performance, you will be
awarded a bonus of <strong>$1.10</strong>.</p>",1095735,,,button-response,,194
>>>>>>> 36e8165b01c8dffc2c69f4aa8ff1e8a2035c2961
,,0.0,,,,,,,,5274,,"<h1 id=""youvecompletedthehit"">You've completed the HIT</h1>

<p>Thanks again for participating. We hope you had fun!</p>

<p>Based on your performance, you will be
<<<<<<< HEAD
awarded a bonus of <strong>$0.55</strong>.</p>",903104,,,button-response,,187
=======
awarded a bonus of <strong>$0.55</strong>.</p>",903104,,,button-response,,196
>>>>>>> 36e8165b01c8dffc2c69f4aa8ff1e8a2035c2961
,,0.0,,,,,,,,5097,,"<h1 id=""youvecompletedthehit"">You've completed the HIT</h1>

<p>Thanks again for participating. We hope you had fun!</p>

<p>Based on your performance, you will be
<<<<<<< HEAD
awarded a bonus of <strong>$1.35</strong>.</p>",989209,,,button-response,,188
=======
awarded a bonus of <strong>$1.35</strong>.</p>",989209,,,button-response,,197
>>>>>>> 36e8165b01c8dffc2c69f4aa8ff1e8a2035c2961
,,0.0,,,,,,,,4382,,"<h1 id=""youvecompletedthehit"">You've completed the HIT</h1>

<p>Thanks again for participating. We hope you had fun!</p>

<p>Based on your performance, you will be
<<<<<<< HEAD
awarded a bonus of <strong>$0.70</strong>.</p>",968869,,,button-response,,189
=======
awarded a bonus of <strong>$0.70</strong>.</p>",968869,,,button-response,,198
>>>>>>> 36e8165b01c8dffc2c69f4aa8ff1e8a2035c2961
,,0.0,,,,,,,,2938,,"<h1 id=""youvecompletedthehit"">You've completed the HIT</h1>

<p>Thanks again for participating. We hope you had fun!</p>

<p>Based on your performance, you will be
<<<<<<< HEAD
awarded a bonus of <strong>$1.55</strong>.</p>",987553,,,button-response,,190
=======
awarded a bonus of <strong>$1.55</strong>.</p>",987553,,,button-response,,199
>>>>>>> 36e8165b01c8dffc2c69f4aa8ff1e8a2035c2961
,,0.0,,,,,,,,5848,,"<h1 id=""youvecompletedthehit"">You've completed the HIT</h1>

<p>Thanks again for participating. We hope you had fun!</p>

<p>Based on your performance, you will be
<<<<<<< HEAD
awarded a bonus of <strong>$2.20</strong>.</p>",810229,,,button-response,,191
=======
awarded a bonus of <strong>$2.20</strong>.</p>",810229,,,button-response,,200
>>>>>>> 36e8165b01c8dffc2c69f4aa8ff1e8a2035c2961
,,0.0,,,,,,,,18376,,"<h1 id=""youvecompletedthehit"">You've completed the HIT</h1>

<p>Thanks again for participating. We hope you had fun!</p>

<p>Based on your performance, you will be
<<<<<<< HEAD
awarded a bonus of <strong>$1.90</strong>.</p>",830458,,,button-response,,192
=======
awarded a bonus of <strong>$1.90</strong>.</p>",830458,,,button-response,,201
>>>>>>> 36e8165b01c8dffc2c69f4aa8ff1e8a2035c2961
,,0.0,,,,,,,,5480,,"<h1 id=""youvecompletedthehit"">You've completed the HIT</h1>

<p>Thanks again for participating. We hope you had fun!</p>

<p>Based on your performance, you will be
<<<<<<< HEAD
awarded a bonus of <strong>$1.55</strong>.</p>",783773,,,button-response,,194
=======
awarded a bonus of <strong>$1.55</strong>.</p>",783773,,,button-response,,203
>>>>>>> 36e8165b01c8dffc2c69f4aa8ff1e8a2035c2961
,,0.0,,,,,,,,4456,,"<h1 id=""youvecompletedthehit"">You've completed the HIT</h1>

<p>Thanks again for participating. We hope you had fun!</p>

<p>Based on your performance, you will be
<<<<<<< HEAD
awarded a bonus of <strong>$2.55</strong>.</p>",1428874,,,button-response,,195
=======
awarded a bonus of <strong>$2.55</strong>.</p>",1428874,,,button-response,,204
>>>>>>> 36e8165b01c8dffc2c69f4aa8ff1e8a2035c2961
,,0.0,,,,,,,,3621,,"<h1 id=""youvecompletedthehit"">You've completed the HIT</h1>

<p>Thanks again for participating. We hope you had fun!</p>

<p>Based on your performance, you will be
<<<<<<< HEAD
awarded a bonus of <strong>$1.70</strong>.</p>",1024357,,,button-response,,196
=======
awarded a bonus of <strong>$1.70</strong>.</p>",1024357,,,button-response,,205
,,0.0,,,,,,,,9912,,"<h1 id=""youvecompletedthehit"">You've completed the HIT</h1>

<p>Thanks again for participating. We hope you had fun!</p>

<p>Based on your performance, you will be
awarded a bonus of <strong>$2.40</strong>.</p>",976768,,,button-response,,206
>>>>>>> 36e8165b01c8dffc2c69f4aa8ff1e8a2035c2961
,,0.0,,,,,,,,1505,,"<h1 id=""youvecompletedthehit"">You've completed the HIT</h1>

<p>Thanks again for participating. We hope you had fun!</p>

<p>Based on your performance, you will be
<<<<<<< HEAD
awarded a bonus of <strong>$2.45</strong>.</p>",998643,,,button-response,,197
=======
awarded a bonus of <strong>$2.45</strong>.</p>",998643,,,button-response,,207
>>>>>>> 36e8165b01c8dffc2c69f4aa8ff1e8a2035c2961
,,0.0,,,,,,,,4766,,"<h1 id=""youvecompletedthehit"">You've completed the HIT</h1>

<p>Thanks again for participating. We hope you had fun!</p>

<p>Based on your performance, you will be
<<<<<<< HEAD
awarded a bonus of <strong>$2.35</strong>.</p>",1470085,,,button-response,,198
=======
awarded a bonus of <strong>$2.35</strong>.</p>",1470085,,,button-response,,208
>>>>>>> 36e8165b01c8dffc2c69f4aa8ff1e8a2035c2961
,,0.0,,,,,,,,8206,,"<h1 id=""youvecompletedthehit"">You've completed the HIT</h1>

<p>Thanks again for participating. We hope you had fun!</p>

<p>Based on your performance, you will be
<<<<<<< HEAD
awarded a bonus of <strong>$1.55</strong>.</p>",744883,,,button-response,,199
=======
awarded a bonus of <strong>$1.55</strong>.</p>",744883,,,button-response,,209
>>>>>>> 36e8165b01c8dffc2c69f4aa8ff1e8a2035c2961
,,0.0,,,,,,,,7042,,"<h1 id=""youvecompletedthehit"">You've completed the HIT</h1>

<p>Thanks again for participating. We hope you had fun!</p>

<p>Based on your performance, you will be
<<<<<<< HEAD
awarded a bonus of <strong>$1.85</strong>.</p>",993121,,,button-response,,200
=======
awarded a bonus of <strong>$1.85</strong>.</p>",993121,,,button-response,,211
>>>>>>> 36e8165b01c8dffc2c69f4aa8ff1e8a2035c2961
,,0.0,,,,,,,,5048,,"<h1 id=""youvecompletedthehit"">You've completed the HIT</h1>

<p>Thanks again for participating. We hope you had fun!</p>

<p>Based on your performance, you will be
<<<<<<< HEAD
awarded a bonus of <strong>$2.30</strong>.</p>",1045301,,,button-response,,201
=======
awarded a bonus of <strong>$2.30</strong>.</p>",1045301,,,button-response,,212
>>>>>>> 36e8165b01c8dffc2c69f4aa8ff1e8a2035c2961
,,0.0,,,,,,,,10046,,"<h1 id=""youvecompletedthehit"">You've completed the HIT</h1>

<p>Thanks again for participating. We hope you had fun!</p>

<p>Based on your performance, you will be
<<<<<<< HEAD
awarded a bonus of <strong>$0.70</strong>.</p>",771336,,,button-response,,202
=======
awarded a bonus of <strong>$0.70</strong>.</p>",771336,,,button-response,,213
>>>>>>> 36e8165b01c8dffc2c69f4aa8ff1e8a2035c2961
,,0.0,,,,,,,,3896,,"<h1 id=""youvecompletedthehit"">You've completed the HIT</h1>

<p>Thanks again for participating. We hope you had fun!</p>

<p>Based on your performance, you will be
<<<<<<< HEAD
awarded a bonus of <strong>$0.40</strong>.</p>",892695,,,button-response,,204
=======
awarded a bonus of <strong>$0.40</strong>.</p>",892695,,,button-response,,215
>>>>>>> 36e8165b01c8dffc2c69f4aa8ff1e8a2035c2961
,,0.0,,,,,,,,4691,,"<h1 id=""youvecompletedthehit"">You've completed the HIT</h1>

<p>Thanks again for participating. We hope you had fun!</p>

<p>Based on your performance, you will be
<<<<<<< HEAD
awarded a bonus of <strong>$0.60</strong>.</p>",1294859,,,button-response,,205
=======
awarded a bonus of <strong>$0.60</strong>.</p>",1294859,,,button-response,,216
>>>>>>> 36e8165b01c8dffc2c69f4aa8ff1e8a2035c2961
,,0.0,,,,,,,,1068,,"<h1 id=""youvecompletedthehit"">You've completed the HIT</h1>

<p>Thanks again for participating. We hope you had fun!</p>

<p>Based on your performance, you will be
<<<<<<< HEAD
awarded a bonus of <strong>$2.10</strong>.</p>",771149,,,button-response,,206
=======
awarded a bonus of <strong>$2.10</strong>.</p>",771149,,,button-response,,217
>>>>>>> 36e8165b01c8dffc2c69f4aa8ff1e8a2035c2961
,,0.0,,,,,,,,6235,,"<h1 id=""youvecompletedthehit"">You've completed the HIT</h1>

<p>Thanks again for participating. We hope you had fun!</p>

<p>Based on your performance, you will be
<<<<<<< HEAD
awarded a bonus of <strong>$1.80</strong>.</p>",865617,,,button-response,,207
=======
awarded a bonus of <strong>$1.80</strong>.</p>",865617,,,button-response,,218
>>>>>>> 36e8165b01c8dffc2c69f4aa8ff1e8a2035c2961
