action_times,actions,button_pressed,correct,delays,key_press,path,queries,questions,responses,rt,score,stimulus,time_elapsed,trial_index,trial_i,trial_type,view_history,pid
,,,,,,,,,,77793,,,77795,,,instructions,"[{""page_index"":0,""viewing_time"":40336},{""page_index"":1,""viewing_time"":11476},{""page_index"":2,""viewing_time"":25978}]",0
,,,,,,,,,,123929,,,123932,,,instructions,"[{""page_index"":0,""viewing_time"":34988},{""page_index"":1,""viewing_time"":40723},{""page_index"":2,""viewing_time"":31968},{""page_index"":3,""viewing_time"":16248}]",1
,,,,,,,,,,193962,,,193962,,,instructions,"[{""page_index"":0,""viewing_time"":72103},{""page_index"":1,""viewing_time"":35793},{""page_index"":2,""viewing_time"":50805},{""page_index"":3,""viewing_time"":35260}]",2
,,,,,,,,,,69809,,,69813,,,instructions,"[{""page_index"":0,""viewing_time"":16481},{""page_index"":1,""viewing_time"":18077},{""page_index"":2,""viewing_time"":22666},{""page_index"":3,""viewing_time"":12582}]",3
,,,,,,,,,,169772,,,169773,,,instructions,"[{""page_index"":0,""viewing_time"":50874},{""page_index"":1,""viewing_time"":40228},{""page_index"":2,""viewing_time"":55908},{""page_index"":3,""viewing_time"":22762}]",4
,,,,,,,,,,150246,,,150246,,,instructions,"[{""page_index"":0,""viewing_time"":63157},{""page_index"":1,""viewing_time"":49423},{""page_index"":2,""viewing_time"":37665}]",5
,,,,,,,,,,119805,,,307062,,,instructions,"[{""page_index"":0,""viewing_time"":33876},{""page_index"":1,""viewing_time"":64849},{""page_index"":2,""viewing_time"":21079}]",5
,,,,,,,,,,119943,,,119943,,,instructions,"[{""page_index"":0,""viewing_time"":38379},{""page_index"":1,""viewing_time"":16304},{""page_index"":2,""viewing_time"":58251},{""page_index"":3,""viewing_time"":7008}]",6
,,,,,,,,,,91167,,,246257,,,instructions,"[{""page_index"":0,""viewing_time"":22265},{""page_index"":1,""viewing_time"":10536},{""page_index"":2,""viewing_time"":7144},{""page_index"":1,""viewing_time"":1559},{""page_index"":0,""viewing_time"":12464},{""page_index"":1,""viewing_time"":10319},{""page_index"":2,""viewing_time"":11999},{""page_index"":3,""viewing_time"":14880}]",6
,,,,,,,,,,42316,,,315974,,,instructions,"[{""page_index"":0,""viewing_time"":13412},{""page_index"":1,""viewing_time"":18927},{""page_index"":2,""viewing_time"":6592},{""page_index"":3,""viewing_time"":3384}]",6
,,,,,,,,,,4418,,,345492,,,instructions,"[{""page_index"":0,""viewing_time"":1666},{""page_index"":1,""viewing_time"":744},{""page_index"":2,""viewing_time"":1288},{""page_index"":3,""viewing_time"":720}]",6
,,,,,,,,,,77336,,,445128,,,instructions,"[{""page_index"":0,""viewing_time"":41481},{""page_index"":1,""viewing_time"":14784},{""page_index"":2,""viewing_time"":12071},{""page_index"":3,""viewing_time"":9000}]",6
,,,,,,,,,,143677,,,143677,,,instructions,"[{""page_index"":0,""viewing_time"":39475},{""page_index"":1,""viewing_time"":32176},{""page_index"":2,""viewing_time"":51261},{""page_index"":3,""viewing_time"":20764}]",7
,,,,,,,,,,213503,,,213505,,,instructions,"[{""page_index"":0,""viewing_time"":66969},{""page_index"":1,""viewing_time"":33011},{""page_index"":2,""viewing_time"":66697},{""page_index"":3,""viewing_time"":46824}]",8
,,,,,,,,,,130239,,,130240,,,instructions,"[{""page_index"":0,""viewing_time"":2421},{""page_index"":1,""viewing_time"":30526},{""page_index"":2,""viewing_time"":22479},{""page_index"":1,""viewing_time"":2344},{""page_index"":0,""viewing_time"":39492},{""page_index"":1,""viewing_time"":29369},{""page_index"":2,""viewing_time"":3607}]",9
,,,,,,,,,,122558,,,122560,,,instructions,"[{""page_index"":0,""viewing_time"":38699},{""page_index"":1,""viewing_time"":29256},{""page_index"":2,""viewing_time"":26527},{""page_index"":3,""viewing_time"":28075}]",10
,,,,,,,,,,161112,,,161112,,,instructions,"[{""page_index"":0,""viewing_time"":32889},{""page_index"":1,""viewing_time"":47315},{""page_index"":2,""viewing_time"":68003},{""page_index"":3,""viewing_time"":12904}]",11
,,,,,,,,,,17096,,,206379,,,instructions,"[{""page_index"":0,""viewing_time"":2628},{""page_index"":1,""viewing_time"":2406},{""page_index"":2,""viewing_time"":11096},{""page_index"":3,""viewing_time"":966}]",11
,,,,,,,,,,191005,,,191007,,,instructions,"[{""page_index"":0,""viewing_time"":72246},{""page_index"":1,""viewing_time"":55464},{""page_index"":2,""viewing_time"":39107},{""page_index"":3,""viewing_time"":24188}]",12
,,,,,,,,,,70626,,,317951,,,instructions,"[{""page_index"":0,""viewing_time"":24131},{""page_index"":1,""viewing_time"":16358},{""page_index"":2,""viewing_time"":16144},{""page_index"":3,""viewing_time"":13993}]",12
,,,,,,,,,,130067,,,640198,,,instructions,"[{""page_index"":0,""viewing_time"":1761},{""page_index"":1,""viewing_time"":831},{""page_index"":2,""viewing_time"":2042},{""page_index"":1,""viewing_time"":9815},{""page_index"":0,""viewing_time"":23199},{""page_index"":1,""viewing_time"":11156},{""page_index"":0,""viewing_time"":8400},{""page_index"":1,""viewing_time"":16695},{""page_index"":2,""viewing_time"":55597},{""page_index"":3,""viewing_time"":570}]",12
,,,,,,,,,,167747,,,167759,,,instructions,"[{""page_index"":0,""viewing_time"":68376},{""page_index"":1,""viewing_time"":54571},{""page_index"":2,""viewing_time"":44798}]",13
,,,,,,,,,,94451,,,94453,,,instructions,"[{""page_index"":0,""viewing_time"":25302},{""page_index"":1,""viewing_time"":19413},{""page_index"":2,""viewing_time"":31694},{""page_index"":3,""viewing_time"":18040}]",14
,,,,,,,,,,13616,,,144875,,,instructions,"[{""page_index"":0,""viewing_time"":2258},{""page_index"":1,""viewing_time"":1220},{""page_index"":2,""viewing_time"":9354},{""page_index"":3,""viewing_time"":783}]",14
,,,,,,,,,,4202,,,166609,,,instructions,"[{""page_index"":0,""viewing_time"":1162},{""page_index"":1,""viewing_time"":553},{""page_index"":2,""viewing_time"":1034},{""page_index"":3,""viewing_time"":1452}]",14
,,,,,,,,,,56048,,,56048,,,instructions,"[{""page_index"":0,""viewing_time"":20265},{""page_index"":1,""viewing_time"":16967},{""page_index"":2,""viewing_time"":6184},{""page_index"":3,""viewing_time"":12631}]",15
,,,,,,,,,,218082,,,218087,,,instructions,"[{""page_index"":0,""viewing_time"":62859},{""page_index"":1,""viewing_time"":43839},{""page_index"":2,""viewing_time"":60695},{""page_index"":3,""viewing_time"":50683}]",16
,,,,,,,,,,76847,,,76848,,,instructions,"[{""page_index"":0,""viewing_time"":22997},{""page_index"":1,""viewing_time"":19031},{""page_index"":2,""viewing_time"":21805},{""page_index"":3,""viewing_time"":13013}]",17
,,,,,,,,,,6418,,,111395,,,instructions,"[{""page_index"":0,""viewing_time"":2202},{""page_index"":1,""viewing_time"":885},{""page_index"":2,""viewing_time"":1832},{""page_index"":3,""viewing_time"":1498}]",17
,,,,,,,,,,65551,,,65553,,,instructions,"[{""page_index"":0,""viewing_time"":23677},{""page_index"":1,""viewing_time"":20432},{""page_index"":2,""viewing_time"":21441}]",18
,,,,,,,,,,31029,,,121016,,,instructions,"[{""page_index"":0,""viewing_time"":7323},{""page_index"":1,""viewing_time"":18650},{""page_index"":2,""viewing_time"":5056}]",18
,,,,,,,,,,49004,,,49005,,,instructions,"[{""page_index"":0,""viewing_time"":26612},{""page_index"":1,""viewing_time"":10474},{""page_index"":2,""viewing_time"":11908}]",19
,,,,,,,,,,12438,,,126106,,,instructions,"[{""page_index"":0,""viewing_time"":6241},{""page_index"":1,""viewing_time"":3858},{""page_index"":2,""viewing_time"":2339}]",19
,,,,,,,,,,73207,,,212549,,,instructions,"[{""page_index"":0,""viewing_time"":24198},{""page_index"":1,""viewing_time"":28025},{""page_index"":2,""viewing_time"":20984}]",19
,,,,,,,,,,147572,,,147573,,,instructions,"[{""page_index"":0,""viewing_time"":51347},{""page_index"":1,""viewing_time"":59537},{""page_index"":2,""viewing_time"":36688}]",20
,,,,,,,,,,14123,,,190835,,,instructions,"[{""page_index"":0,""viewing_time"":5157},{""page_index"":1,""viewing_time"":3053},{""page_index"":2,""viewing_time"":5912}]",20
,,,,,,,,,,24702,,,236954,,,instructions,"[{""page_index"":0,""viewing_time"":7183},{""page_index"":1,""viewing_time"":10191},{""page_index"":2,""viewing_time"":7328}]",20
,,,,,,,,,,62822,,,325698,,,instructions,"[{""page_index"":0,""viewing_time"":12567},{""page_index"":1,""viewing_time"":4439},{""page_index"":2,""viewing_time"":4353},{""page_index"":1,""viewing_time"":8103},{""page_index"":0,""viewing_time"":5424},{""page_index"":1,""viewing_time"":14736},{""page_index"":2,""viewing_time"":13200}]",20
,,,,,,,,,,44919,,,44921,,,instructions,"[{""page_index"":0,""viewing_time"":16838},{""page_index"":1,""viewing_time"":6916},{""page_index"":2,""viewing_time"":16310},{""page_index"":3,""viewing_time"":4854}]",21
,,,,,,,,,,79102,,,79104,,,instructions,"[{""page_index"":0,""viewing_time"":13731},{""page_index"":1,""viewing_time"":5534},{""page_index"":2,""viewing_time"":2225},{""page_index"":3,""viewing_time"":13106},{""page_index"":2,""viewing_time"":8305},{""page_index"":1,""viewing_time"":14334},{""page_index"":0,""viewing_time"":18125},{""page_index"":1,""viewing_time"":734},{""page_index"":2,""viewing_time"":2548},{""page_index"":3,""viewing_time"":459}]",22
,,,,,,,,,,40789,,,143405,,,instructions,"[{""page_index"":0,""viewing_time"":14192},{""page_index"":1,""viewing_time"":14225},{""page_index"":2,""viewing_time"":8479},{""page_index"":3,""viewing_time"":3893}]",22
,,,,,,,,,,215864,,,215864,,,instructions,"[{""page_index"":0,""viewing_time"":95581},{""page_index"":1,""viewing_time"":45403},{""page_index"":2,""viewing_time"":40426},{""page_index"":3,""viewing_time"":34453}]",23
,,,,,,,,,,51709,,,51713,,,instructions,"[{""page_index"":0,""viewing_time"":19789},{""page_index"":1,""viewing_time"":18954},{""page_index"":2,""viewing_time"":12963}]",24
,,,,,,,,,,34700,,,110694,,,instructions,"[{""page_index"":0,""viewing_time"":26266},{""page_index"":1,""viewing_time"":5096},{""page_index"":2,""viewing_time"":3335}]",24
,,,,,,,,,,99058,,,99060,,,instructions,"[{""page_index"":0,""viewing_time"":77928},{""page_index"":1,""viewing_time"":14938},{""page_index"":2,""viewing_time"":6190}]",25
,,,,,,,,,,45089,,,191086,,,instructions,"[{""page_index"":0,""viewing_time"":4828},{""page_index"":1,""viewing_time"":12990},{""page_index"":2,""viewing_time"":11889},{""page_index"":1,""viewing_time"":14412},{""page_index"":2,""viewing_time"":969}]",25
,,,,,,,,,,139513,,,139513,,,instructions,"[{""page_index"":0,""viewing_time"":56017},{""page_index"":1,""viewing_time"":43224},{""page_index"":2,""viewing_time"":27448},{""page_index"":3,""viewing_time"":12823}]",26
,,,,,,,,,,50932,,,50935,,,instructions,"[{""page_index"":0,""viewing_time"":17644},{""page_index"":1,""viewing_time"":10223},{""page_index"":2,""viewing_time"":9677},{""page_index"":3,""viewing_time"":13386}]",27
,,,,,,,,,,52199,,,134956,,,instructions,"[{""page_index"":0,""viewing_time"":21942},{""page_index"":1,""viewing_time"":10337},{""page_index"":2,""viewing_time"":11221},{""page_index"":3,""viewing_time"":8697}]",27
,,,,,,,,,,65699,,,225901,,,instructions,"[{""page_index"":0,""viewing_time"":25327},{""page_index"":1,""viewing_time"":16402},{""page_index"":2,""viewing_time"":14350},{""page_index"":3,""viewing_time"":9619}]",27
,,,,,,,,,,143911,,,143912,,,instructions,"[{""page_index"":0,""viewing_time"":31377},{""page_index"":1,""viewing_time"":34222},{""page_index"":0,""viewing_time"":10274},{""page_index"":1,""viewing_time"":19725},{""page_index"":2,""viewing_time"":29577},{""page_index"":3,""viewing_time"":18735}]",28
,,,,,,,,,,93502,,,93504,,,instructions,"[{""page_index"":0,""viewing_time"":36261},{""page_index"":1,""viewing_time"":30653},{""page_index"":2,""viewing_time"":13477},{""page_index"":3,""viewing_time"":13109}]",29
,,,,,,,,,,10077,,,360860,,,instructions,"[{""page_index"":0,""viewing_time"":2341},{""page_index"":1,""viewing_time"":458},{""page_index"":0,""viewing_time"":2022},{""page_index"":1,""viewing_time"":440},{""page_index"":0,""viewing_time"":1679},{""page_index"":1,""viewing_time"":648},{""page_index"":2,""viewing_time"":1761},{""page_index"":3,""viewing_time"":727}]",29
,,,,,,,,,,98706,,,98708,,,instructions,"[{""page_index"":0,""viewing_time"":26354},{""page_index"":1,""viewing_time"":18492},{""page_index"":2,""viewing_time"":35573},{""page_index"":3,""viewing_time"":18286}]",30
,,,,,,,,,,186184,,,186186,,,instructions,"[{""page_index"":0,""viewing_time"":28842},{""page_index"":1,""viewing_time"":38145},{""page_index"":2,""viewing_time"":39911},{""page_index"":3,""viewing_time"":22622},{""page_index"":2,""viewing_time"":2551},{""page_index"":1,""viewing_time"":23036},{""page_index"":2,""viewing_time"":16478},{""page_index"":3,""viewing_time"":14598}]",31
,,,,,,,,,,190255,,,190258,,,instructions,"[{""page_index"":0,""viewing_time"":50184},{""page_index"":1,""viewing_time"":50782},{""page_index"":2,""viewing_time"":69798},{""page_index"":3,""viewing_time"":19489}]",32
,,,,,,,,,,89170,,,89171,,,instructions,"[{""page_index"":0,""viewing_time"":27216},{""page_index"":1,""viewing_time"":31440},{""page_index"":2,""viewing_time"":9864},{""page_index"":3,""viewing_time"":20649}]",33
,,,,,,,,,,88764,,,204794,,,instructions,"[{""page_index"":0,""viewing_time"":17316},{""page_index"":1,""viewing_time"":18376},{""page_index"":2,""viewing_time"":43464},{""page_index"":3,""viewing_time"":9608}]",33
,,,,,,,,,,12703,,,239041,,,instructions,"[{""page_index"":0,""viewing_time"":1799},{""page_index"":1,""viewing_time"":2320},{""page_index"":2,""viewing_time"":7448},{""page_index"":3,""viewing_time"":1136}]",33
,,,,,,,,,,5247,,,262121,,,instructions,"[{""page_index"":0,""viewing_time"":1711},{""page_index"":1,""viewing_time"":872},{""page_index"":2,""viewing_time"":1632},{""page_index"":3,""viewing_time"":1032}]",33
,,,,,,,,,,157785,,,157788,,,instructions,"[{""page_index"":0,""viewing_time"":68158},{""page_index"":1,""viewing_time"":37842},{""page_index"":0,""viewing_time"":5715},{""page_index"":1,""viewing_time"":6605},{""page_index"":2,""viewing_time"":22918},{""page_index"":3,""viewing_time"":16544}]",34
,,,,,,,,,,21075,,,216003,,,instructions,"[{""page_index"":0,""viewing_time"":2353},{""page_index"":1,""viewing_time"":3636},{""page_index"":2,""viewing_time"":14206},{""page_index"":3,""viewing_time"":878}]",34
,,,,,,,,,,39855,,,285565,,,instructions,"[{""page_index"":0,""viewing_time"":3654},{""page_index"":1,""viewing_time"":2195},{""page_index"":2,""viewing_time"":24521},{""page_index"":3,""viewing_time"":9483}]",34
,,,,,,,,,,5418,,,311540,,,instructions,"[{""page_index"":0,""viewing_time"":2032},{""page_index"":1,""viewing_time"":715},{""page_index"":2,""viewing_time"":2223},{""page_index"":3,""viewing_time"":446}]",34
,,,,,,,,,,6056,,,339151,,,instructions,"[{""page_index"":0,""viewing_time"":3003},{""page_index"":1,""viewing_time"":599},{""page_index"":2,""viewing_time"":1978},{""page_index"":3,""viewing_time"":474}]",34
,,,,,,,,,,13509,,,372505,,,instructions,"[{""page_index"":0,""viewing_time"":8594},{""page_index"":1,""viewing_time"":484},{""page_index"":0,""viewing_time"":691},{""page_index"":1,""viewing_time"":573},{""page_index"":2,""viewing_time"":2706},{""page_index"":3,""viewing_time"":460}]",34
,,,,,,,,,,5371,,,393072,,,instructions,"[{""page_index"":0,""viewing_time"":1688},{""page_index"":1,""viewing_time"":767},{""page_index"":2,""viewing_time"":1852},{""page_index"":3,""viewing_time"":1062}]",34
,,,,,,,,,,83271,,,83273,,,instructions,"[{""page_index"":0,""viewing_time"":22558},{""page_index"":1,""viewing_time"":30080},{""page_index"":2,""viewing_time"":14943},{""page_index"":3,""viewing_time"":15688}]",35
,,,,,,,,,,38938,,,38939,,,instructions,"[{""page_index"":0,""viewing_time"":15802},{""page_index"":1,""viewing_time"":12942},{""page_index"":2,""viewing_time"":10193}]",36
,,,,,,,,,,24403,,,24403,,,instructions,"[{""page_index"":0,""viewing_time"":11493},{""page_index"":1,""viewing_time"":2830},{""page_index"":2,""viewing_time"":10079}]",37
,,,,,,,,,,13662,,,65261,,,instructions,"[{""page_index"":0,""viewing_time"":5193},{""page_index"":1,""viewing_time"":5815},{""page_index"":2,""viewing_time"":2654}]",37
,,,,,,,,,,117920,,,117922,,,instructions,"[{""page_index"":0,""viewing_time"":39447},{""page_index"":1,""viewing_time"":31016},{""page_index"":2,""viewing_time"":29863},{""page_index"":3,""viewing_time"":17593}]",38
,,,,,,,,,,111890,,,111892,,,instructions,"[{""page_index"":0,""viewing_time"":42670},{""page_index"":1,""viewing_time"":41027},{""page_index"":2,""viewing_time"":28192}]",39
,,,,,,,,,,124690,,,124692,,,instructions,"[{""page_index"":0,""viewing_time"":38987},{""page_index"":1,""viewing_time"":28981},{""page_index"":2,""viewing_time"":37140},{""page_index"":3,""viewing_time"":19581}]",40
,,,,,,,,,,92284,,,92285,,,instructions,"[{""page_index"":0,""viewing_time"":28960},{""page_index"":1,""viewing_time"":28875},{""page_index"":2,""viewing_time"":16400},{""page_index"":3,""viewing_time"":18048}]",41
,,,,,,,,,,96823,,,96823,,,instructions,"[{""page_index"":0,""viewing_time"":34274},{""page_index"":1,""viewing_time"":23771},{""page_index"":2,""viewing_time"":17077},{""page_index"":3,""viewing_time"":21700}]",42
,,,,,,,,,,38888,,,38889,,,instructions,"[{""page_index"":0,""viewing_time"":21199},{""page_index"":1,""viewing_time"":8661},{""page_index"":2,""viewing_time"":4387},{""page_index"":3,""viewing_time"":4641}]",43
,,,,,,,,,,20622,,,81330,,,instructions,"[{""page_index"":0,""viewing_time"":1458},{""page_index"":1,""viewing_time"":2519},{""page_index"":2,""viewing_time"":9141},{""page_index"":3,""viewing_time"":7503}]",43
,,,,,,,,,,66427,,,66428,,,instructions,"[{""page_index"":0,""viewing_time"":30844},{""page_index"":1,""viewing_time"":1860},{""page_index"":2,""viewing_time"":26170},{""page_index"":3,""viewing_time"":7553}]",44
,,,,,,,,,,57367,,,151034,,,instructions,"[{""page_index"":0,""viewing_time"":25821},{""page_index"":1,""viewing_time"":13988},{""page_index"":2,""viewing_time"":2562},{""page_index"":3,""viewing_time"":14996}]",44
,,,,,,,,,,55974,,,224933,,,instructions,"[{""page_index"":0,""viewing_time"":6644},{""page_index"":1,""viewing_time"":18685},{""page_index"":2,""viewing_time"":15028},{""page_index"":3,""viewing_time"":15617}]",44
,,,,,,,,,,396647,,,396647,,,instructions,"[{""page_index"":0,""viewing_time"":39600},{""page_index"":1,""viewing_time"":3122},{""page_index"":0,""viewing_time"":32274},{""page_index"":1,""viewing_time"":117786},{""page_index"":2,""viewing_time"":121362},{""page_index"":3,""viewing_time"":82502}]",45
,,,,,,,,,,133066,,,613272,,,instructions,"[{""page_index"":0,""viewing_time"":22755},{""page_index"":1,""viewing_time"":22758},{""page_index"":2,""viewing_time"":66109},{""page_index"":3,""viewing_time"":21444}]",45
,,,,,,,,,,178130,,,178132,,,instructions,"[{""page_index"":0,""viewing_time"":52365},{""page_index"":1,""viewing_time"":46248},{""page_index"":2,""viewing_time"":47939},{""page_index"":3,""viewing_time"":31577}]",46
,,,,,,,,,,11747,,,242182,,,instructions,"[{""page_index"":0,""viewing_time"":7521},{""page_index"":1,""viewing_time"":923},{""page_index"":2,""viewing_time"":2721},{""page_index"":3,""viewing_time"":582}]",46
,,,,,,,,,,59522,,,342987,,,instructions,"[{""page_index"":0,""viewing_time"":8450},{""page_index"":1,""viewing_time"":13968},{""page_index"":2,""viewing_time"":11119},{""page_index"":3,""viewing_time"":25985}]",46
,,,,,,,,,,78549,,,78552,,,instructions,"[{""page_index"":0,""viewing_time"":21060},{""page_index"":1,""viewing_time"":4012},{""page_index"":0,""viewing_time"":10757},{""page_index"":1,""viewing_time"":3477},{""page_index"":2,""viewing_time"":24098},{""page_index"":3,""viewing_time"":15145}]",47
,,,,,,,,,,45248,,,162529,,,instructions,"[{""page_index"":0,""viewing_time"":13596},{""page_index"":1,""viewing_time"":14847},{""page_index"":2,""viewing_time"":10010},{""page_index"":3,""viewing_time"":6795}]",47
,,,,,,,,,,88929,,,88931,,,instructions,"[{""page_index"":0,""viewing_time"":16162},{""page_index"":1,""viewing_time"":28381},{""page_index"":2,""viewing_time"":30968},{""page_index"":3,""viewing_time"":13417}]",48
,,,,,,,,,,263405,,,263408,,,instructions,"[{""page_index"":0,""viewing_time"":133406},{""page_index"":1,""viewing_time"":105743},{""page_index"":2,""viewing_time"":24252}]",49
,,,,,,,,,,103144,,,103155,,,instructions,"[{""page_index"":0,""viewing_time"":36240},{""page_index"":1,""viewing_time"":42856},{""page_index"":2,""viewing_time"":24048}]",50
,,,,,,,,,,135354,,,135355,,,instructions,"[{""page_index"":0,""viewing_time"":28393},{""page_index"":1,""viewing_time"":32200},{""page_index"":2,""viewing_time"":56672},{""page_index"":3,""viewing_time"":18089}]",51
,,,,,,,,,,171759,,,171761,,,instructions,"[{""page_index"":0,""viewing_time"":30726},{""page_index"":1,""viewing_time"":84487},{""page_index"":2,""viewing_time"":34176},{""page_index"":3,""viewing_time"":22367}]",52
,,,,,,,,,,48452,,,254588,,,instructions,"[{""page_index"":0,""viewing_time"":9483},{""page_index"":1,""viewing_time"":4337},{""page_index"":2,""viewing_time"":1824},{""page_index"":1,""viewing_time"":11911},{""page_index"":2,""viewing_time"":10976},{""page_index"":3,""viewing_time"":9920}]",52
,,,,,,,,,,170457,,,170457,,,instructions,"[{""page_index"":0,""viewing_time"":104058},{""page_index"":1,""viewing_time"":9829},{""page_index"":2,""viewing_time"":56570}]",53
,,,,,,,,,,52639,,,278197,,,instructions,"[{""page_index"":0,""viewing_time"":12004},{""page_index"":1,""viewing_time"":33839},{""page_index"":2,""viewing_time"":6794}]",53
,,,,,,,,,,56419,,,56423,,,instructions,"[{""page_index"":0,""viewing_time"":30577},{""page_index"":1,""viewing_time"":9628},{""page_index"":2,""viewing_time"":7696},{""page_index"":3,""viewing_time"":8515}]",54
,,,,,,,,,,86866,,,172047,,,instructions,"[{""page_index"":0,""viewing_time"":20208},{""page_index"":1,""viewing_time"":26342},{""page_index"":2,""viewing_time"":22737},{""page_index"":3,""viewing_time"":17576}]",54
,,,,,,,,,,119164,,,119164,,,instructions,"[{""page_index"":0,""viewing_time"":44091},{""page_index"":1,""viewing_time"":51262},{""page_index"":2,""viewing_time"":23810}]",55
,,,,,,,,,,43473,,,43474,,,instructions,"[{""page_index"":0,""viewing_time"":19179},{""page_index"":1,""viewing_time"":19949},{""page_index"":2,""viewing_time"":4343}]",56
,,,,,,,,,,33915,,,102007,,,instructions,"[{""page_index"":0,""viewing_time"":18083},{""page_index"":1,""viewing_time"":9488},{""page_index"":2,""viewing_time"":6343}]",56
,,,,,,,,,,22324,,,144283,,,instructions,"[{""page_index"":0,""viewing_time"":8350},{""page_index"":1,""viewing_time"":9762},{""page_index"":2,""viewing_time"":4211}]",56
,,,,,,,,,,33114,,,196895,,,instructions,"[{""page_index"":0,""viewing_time"":7833},{""page_index"":1,""viewing_time"":14088},{""page_index"":2,""viewing_time"":11193}]",56
,,,,,,,,,,152681,,,152682,,,instructions,"[{""page_index"":0,""viewing_time"":108943},{""page_index"":1,""viewing_time"":22607},{""page_index"":2,""viewing_time"":21128}]",57
,,,,,,,,,,41456,,,238541,,,instructions,"[{""page_index"":0,""viewing_time"":15473},{""page_index"":1,""viewing_time"":23260},{""page_index"":2,""viewing_time"":2722}]",57
,,,,,,,,,,162912,,,162912,,,instructions,"[{""page_index"":0,""viewing_time"":73292},{""page_index"":1,""viewing_time"":24878},{""page_index"":2,""viewing_time"":38127},{""page_index"":3,""viewing_time"":26611}]",58
,,,,,,,,,,80059,,,284461,,,instructions,"[{""page_index"":0,""viewing_time"":44401},{""page_index"":1,""viewing_time"":1768},{""page_index"":0,""viewing_time"":5157},{""page_index"":1,""viewing_time"":6288},{""page_index"":2,""viewing_time"":16927},{""page_index"":3,""viewing_time"":5518}]",58
,,,,,,,,,,105694,,,105697,,,instructions,"[{""page_index"":0,""viewing_time"":32541},{""page_index"":1,""viewing_time"":26226},{""page_index"":2,""viewing_time"":33922},{""page_index"":3,""viewing_time"":13001}]",59
,,,,,,,,,,145998,,,146000,,,instructions,"[{""page_index"":0,""viewing_time"":43993},{""page_index"":1,""viewing_time"":2455},{""page_index"":0,""viewing_time"":6767},{""page_index"":1,""viewing_time"":1392},{""page_index"":2,""viewing_time"":66054},{""page_index"":3,""viewing_time"":25336}]",60
,,,,,,,,,,68647,,,68649,,,instructions,"[{""page_index"":0,""viewing_time"":20177},{""page_index"":1,""viewing_time"":24412},{""page_index"":2,""viewing_time"":13847},{""page_index"":3,""viewing_time"":10211}]",61
,,,,,,,,,,34412,,,126689,,,instructions,"[{""page_index"":0,""viewing_time"":4669},{""page_index"":1,""viewing_time"":3374},{""page_index"":2,""viewing_time"":1781},{""page_index"":3,""viewing_time"":11231},{""page_index"":2,""viewing_time"":7750},{""page_index"":1,""viewing_time"":3313},{""page_index"":2,""viewing_time"":1575},{""page_index"":3,""viewing_time"":719}]",61
,,,,,,,,,,133902,,,133903,,,instructions,"[{""page_index"":0,""viewing_time"":32449},{""page_index"":1,""viewing_time"":47129},{""page_index"":2,""viewing_time"":31131},{""page_index"":3,""viewing_time"":23192}]",62
,,,,,,,,,,50297,,,232644,,,instructions,"[{""page_index"":0,""viewing_time"":7911},{""page_index"":1,""viewing_time"":15952},{""page_index"":0,""viewing_time"":8632},{""page_index"":1,""viewing_time"":2487},{""page_index"":2,""viewing_time"":13723},{""page_index"":3,""viewing_time"":1592}]",62
,,,,,,,,,,6382,,,265155,,,instructions,"[{""page_index"":0,""viewing_time"":2038},{""page_index"":1,""viewing_time"":776},{""page_index"":2,""viewing_time"":1920},{""page_index"":3,""viewing_time"":1648}]",62
,,,,,,,,,,233518,,,233522,,,instructions,"[{""page_index"":0,""viewing_time"":76855},{""page_index"":1,""viewing_time"":68670},{""page_index"":2,""viewing_time"":54217},{""page_index"":3,""viewing_time"":33773}]",63
,,,,,,,,,,195683,,,195684,,,instructions,"[{""page_index"":0,""viewing_time"":77651},{""page_index"":1,""viewing_time"":42308},{""page_index"":2,""viewing_time"":32849},{""page_index"":3,""viewing_time"":42874}]",64
,,,,,,,,,,112727,,,112728,,,instructions,"[{""page_index"":0,""viewing_time"":48785},{""page_index"":1,""viewing_time"":33038},{""page_index"":2,""viewing_time"":14033},{""page_index"":3,""viewing_time"":16871}]",65
,,,,,,,,,,50568,,,225303,,,instructions,"[{""page_index"":0,""viewing_time"":4856},{""page_index"":1,""viewing_time"":4840},{""page_index"":2,""viewing_time"":30711},{""page_index"":3,""viewing_time"":10160}]",65
,,,,,,,,,,62577,,,312711,,,instructions,"[{""page_index"":0,""viewing_time"":4377},{""page_index"":1,""viewing_time"":26657},{""page_index"":2,""viewing_time"":21743},{""page_index"":3,""viewing_time"":9800}]",65
,,,,,,,,,,25405,,,376893,,,instructions,"[{""page_index"":0,""viewing_time"":9655},{""page_index"":1,""viewing_time"":10310},{""page_index"":2,""viewing_time"":3200},{""page_index"":3,""viewing_time"":2240}]",65
,,,,,,,,,,77200,,,77204,,,instructions,"[{""page_index"":0,""viewing_time"":27894},{""page_index"":1,""viewing_time"":15919},{""page_index"":2,""viewing_time"":12590},{""page_index"":3,""viewing_time"":20795}]",66
,,,,,,,,,,166552,,,166555,,,instructions,"[{""page_index"":0,""viewing_time"":50405},{""page_index"":1,""viewing_time"":60190},{""page_index"":2,""viewing_time"":35382},{""page_index"":3,""viewing_time"":20573}]",67
,,,,,,,,,,96780,,,96782,,,instructions,"[{""page_index"":0,""viewing_time"":30542},{""page_index"":1,""viewing_time"":25182},{""page_index"":2,""viewing_time"":30071},{""page_index"":3,""viewing_time"":10984}]",68
,,,,,,,,,,276839,,,276841,,,instructions,"[{""page_index"":0,""viewing_time"":210585},{""page_index"":1,""viewing_time"":25835},{""page_index"":2,""viewing_time"":26448},{""page_index"":3,""viewing_time"":13968}]",69
,,,,,,,,,,37911,,,330466,,,instructions,"[{""page_index"":0,""viewing_time"":12510},{""page_index"":1,""viewing_time"":19688},{""page_index"":2,""viewing_time"":4200},{""page_index"":3,""viewing_time"":1511}]",69
,,,,,,,,,,178505,,,178506,,,instructions,"[{""page_index"":0,""viewing_time"":50784},{""page_index"":1,""viewing_time"":39420},{""page_index"":2,""viewing_time"":61908},{""page_index"":3,""viewing_time"":26392}]",70
,,,,,,,,,,47921,,,262080,,,instructions,"[{""page_index"":0,""viewing_time"":6100},{""page_index"":1,""viewing_time"":15090},{""page_index"":2,""viewing_time"":22005},{""page_index"":3,""viewing_time"":4725}]",70
,,,,,,,,,,92889,,,92890,,,instructions,"[{""page_index"":0,""viewing_time"":7357},{""page_index"":1,""viewing_time"":9642},{""page_index"":2,""viewing_time"":34462},{""page_index"":3,""viewing_time"":24863},{""page_index"":2,""viewing_time"":4080},{""page_index"":3,""viewing_time"":12484}]",71
,,,,,,,,,,113280,,,113282,,,instructions,"[{""page_index"":0,""viewing_time"":52942},{""page_index"":1,""viewing_time"":40803},{""page_index"":2,""viewing_time"":19535}]",72
,,,,,,,,,,172947,,,172948,,,instructions,"[{""page_index"":0,""viewing_time"":68303},{""page_index"":1,""viewing_time"":41596},{""page_index"":2,""viewing_time"":43965},{""page_index"":3,""viewing_time"":19082}]",73
,,,,,,,,,,93935,,,93936,,,instructions,"[{""page_index"":0,""viewing_time"":35507},{""page_index"":1,""viewing_time"":35808},{""page_index"":2,""viewing_time"":7883},{""page_index"":3,""viewing_time"":14737}]",74
,,,,,,,,,,128081,,,128081,,,instructions,"[{""page_index"":0,""viewing_time"":35025},{""page_index"":1,""viewing_time"":51375},{""page_index"":2,""viewing_time"":41680}]",75
,,,,,,,,,,101455,,,266392,,,instructions,"[{""page_index"":0,""viewing_time"":48575},{""page_index"":1,""viewing_time"":45703},{""page_index"":2,""viewing_time"":7176}]",75
,,,,,,,,,,43119,,,43121,,,instructions,"[{""page_index"":0,""viewing_time"":13345},{""page_index"":1,""viewing_time"":13387},{""page_index"":2,""viewing_time"":9464},{""page_index"":3,""viewing_time"":6921}]",76
,,,,,,,,,,87439,,,87441,,,instructions,"[{""page_index"":0,""viewing_time"":19302},{""page_index"":1,""viewing_time"":23976},{""page_index"":2,""viewing_time"":23513},{""page_index"":3,""viewing_time"":20647}]",77
,,,,,,,,,,164567,,,164568,,,instructions,"[{""page_index"":0,""viewing_time"":40901},{""page_index"":1,""viewing_time"":1642},{""page_index"":0,""viewing_time"":9254},{""page_index"":1,""viewing_time"":37599},{""page_index"":2,""viewing_time"":42760},{""page_index"":3,""viewing_time"":32411}]",78
,,,,,,,,,,53839,,,259792,,,instructions,"[{""page_index"":0,""viewing_time"":4014},{""page_index"":1,""viewing_time"":15375},{""page_index"":2,""viewing_time"":12576},{""page_index"":3,""viewing_time"":3756},{""page_index"":2,""viewing_time"":1532},{""page_index"":1,""viewing_time"":1376},{""page_index"":0,""viewing_time"":12389},{""page_index"":1,""viewing_time"":932},{""page_index"":2,""viewing_time"":1360},{""page_index"":3,""viewing_time"":528}]",78
,,,,,,,,,,151270,,,151270,,,instructions,"[{""page_index"":0,""viewing_time"":51309},{""page_index"":1,""viewing_time"":40844},{""page_index"":2,""viewing_time"":59115}]",79
,,,,,,,,,,23874,,,203268,,,instructions,"[{""page_index"":0,""viewing_time"":3588},{""page_index"":1,""viewing_time"":19786},{""page_index"":2,""viewing_time"":499}]",79
,,,,,,,,,,131803,,,131805,,,instructions,"[{""page_index"":0,""viewing_time"":32876},{""page_index"":1,""viewing_time"":40757},{""page_index"":2,""viewing_time"":32774},{""page_index"":3,""viewing_time"":25395}]",80
,,,,,,,,,,49720,,,49720,,,instructions,"[{""page_index"":0,""viewing_time"":17827},{""page_index"":1,""viewing_time"":16620},{""page_index"":2,""viewing_time"":15272}]",81
,,,,,,,,,,45806,,,127644,,,instructions,"[{""page_index"":0,""viewing_time"":23605},{""page_index"":1,""viewing_time"":13528},{""page_index"":2,""viewing_time"":8673}]",81
,,,,,,,,,,17959,,,161058,,,instructions,"[{""page_index"":0,""viewing_time"":5515},{""page_index"":1,""viewing_time"":5552},{""page_index"":2,""viewing_time"":6892}]",81
,,,,,,,,,,97816,,,97818,,,instructions,"[{""page_index"":0,""viewing_time"":38151},{""page_index"":1,""viewing_time"":38119},{""page_index"":2,""viewing_time"":21546}]",82
,,,,,,,,,,29782,,,159884,,,instructions,"[{""page_index"":0,""viewing_time"":10484},{""page_index"":1,""viewing_time"":9018},{""page_index"":2,""viewing_time"":10280}]",82
,,,,,,,,,,95472,,,95475,,,instructions,"[{""page_index"":0,""viewing_time"":65385},{""page_index"":1,""viewing_time"":27993},{""page_index"":2,""viewing_time"":2089}]",83
,,,,,,,,,,44695,,,171136,,,instructions,"[{""page_index"":0,""viewing_time"":11306},{""page_index"":1,""viewing_time"":15532},{""page_index"":2,""viewing_time"":17856}]",83
,,,,,,,,,,219710,,,219710,,,instructions,"[{""page_index"":0,""viewing_time"":74562},{""page_index"":1,""viewing_time"":99347},{""page_index"":2,""viewing_time"":25081},{""page_index"":3,""viewing_time"":20719}]",84
,,,,,,,,,,81765,,,81767,,,instructions,"[{""page_index"":0,""viewing_time"":33803},{""page_index"":1,""viewing_time"":18383},{""page_index"":2,""viewing_time"":16428},{""page_index"":3,""viewing_time"":13149}]",85
,,,,,,,,,,41730,,,152680,,,instructions,"[{""page_index"":0,""viewing_time"":3016},{""page_index"":1,""viewing_time"":2709},{""page_index"":2,""viewing_time"":17188},{""page_index"":1,""viewing_time"":3760},{""page_index"":2,""viewing_time"":6578},{""page_index"":3,""viewing_time"":8477}]",85
,,,,,,,,,,159262,,,159262,,,instructions,"[{""page_index"":0,""viewing_time"":49159},{""page_index"":1,""viewing_time"":39606},{""page_index"":2,""viewing_time"":36773},{""page_index"":3,""viewing_time"":33723}]",86
,,,,,,,,,,358918,,,358920,,,instructions,"[{""page_index"":0,""viewing_time"":150586},{""page_index"":1,""viewing_time"":99100},{""page_index"":2,""viewing_time"":51549},{""page_index"":3,""viewing_time"":34486},{""page_index"":2,""viewing_time"":4388},{""page_index"":1,""viewing_time"":4973},{""page_index"":2,""viewing_time"":2182},{""page_index"":3,""viewing_time"":11652}]",87
,,,,,,,,,,101341,,,511357,,,instructions,"[{""page_index"":0,""viewing_time"":33108},{""page_index"":1,""viewing_time"":44760},{""page_index"":2,""viewing_time"":12278},{""page_index"":3,""viewing_time"":11194}]",87
,,,,,,,,,,80537,,,80537,,,instructions,"[{""page_index"":0,""viewing_time"":29749},{""page_index"":1,""viewing_time"":23538},{""page_index"":2,""viewing_time"":27249}]",88
,,,,,,,,,,47238,,,47240,,,instructions,"[{""page_index"":0,""viewing_time"":20123},{""page_index"":1,""viewing_time"":16602},{""page_index"":2,""viewing_time"":10513}]",89
,,,,,,,,,,36041,,,100754,,,instructions,"[{""page_index"":0,""viewing_time"":14435},{""page_index"":1,""viewing_time"":14611},{""page_index"":2,""viewing_time"":6995}]",89
,,,,,,,,,,211304,,,211306,,,instructions,"[{""page_index"":0,""viewing_time"":51036},{""page_index"":1,""viewing_time"":83163},{""page_index"":2,""viewing_time"":50651},{""page_index"":3,""viewing_time"":26452}]",90
,,,,,,,,,,145626,,,145631,,,instructions,"[{""page_index"":0,""viewing_time"":46154},{""page_index"":1,""viewing_time"":42615},{""page_index"":2,""viewing_time"":56856}]",91
,,,,,,,,,,101463,,,101463,,,instructions,"[{""page_index"":0,""viewing_time"":36337},{""page_index"":1,""viewing_time"":32118},{""page_index"":2,""viewing_time"":22422},{""page_index"":3,""viewing_time"":10585}]",92
,,,,,,,,,,87419,,,87419,,,instructions,"[{""page_index"":0,""viewing_time"":28936},{""page_index"":1,""viewing_time"":42466},{""page_index"":2,""viewing_time"":16017}]",93
,,,,,,,,,,29202,,,29203,,,instructions,"[{""page_index"":0,""viewing_time"":10161},{""page_index"":1,""viewing_time"":12317},{""page_index"":2,""viewing_time"":6723}]",94
,,,,,,,,,,16795,,,66243,,,instructions,"[{""page_index"":0,""viewing_time"":2142},{""page_index"":1,""viewing_time"":3789},{""page_index"":2,""viewing_time"":10863}]",94
,,,,,,,,,,28594,,,120199,,,instructions,"[{""page_index"":0,""viewing_time"":4038},{""page_index"":1,""viewing_time"":17576},{""page_index"":2,""viewing_time"":6979}]",94
,,,,,,,,,,89711,,,89715,,,instructions,"[{""page_index"":0,""viewing_time"":30138},{""page_index"":1,""viewing_time"":15952},{""page_index"":2,""viewing_time"":24042},{""page_index"":3,""viewing_time"":19573}]",95
,,,,,,,,,,116370,,,116372,,,instructions,"[{""page_index"":0,""viewing_time"":33862},{""page_index"":1,""viewing_time"":27178},{""page_index"":2,""viewing_time"":35649},{""page_index"":3,""viewing_time"":19680}]",96
,,,,,,,,,,76352,,,245062,,,instructions,"[{""page_index"":0,""viewing_time"":16577},{""page_index"":1,""viewing_time"":23984},{""page_index"":2,""viewing_time"":13679},{""page_index"":3,""viewing_time"":22110}]",96
,,,,,,,,,,12684,,,398634,,,instructions,"[{""page_index"":0,""viewing_time"":3204},{""page_index"":1,""viewing_time"":644},{""page_index"":2,""viewing_time"":3363},{""page_index"":3,""viewing_time"":5473}]",96
,,,,,,,,,,32662,,,443391,,,instructions,"[{""page_index"":0,""viewing_time"":10724},{""page_index"":1,""viewing_time"":2294},{""page_index"":2,""viewing_time"":18500},{""page_index"":3,""viewing_time"":1143}]",96
,,,,,,,,,,10998,,,475950,,,instructions,"[{""page_index"":0,""viewing_time"":5588},{""page_index"":1,""viewing_time"":1154},{""page_index"":2,""viewing_time"":3214},{""page_index"":3,""viewing_time"":1041}]",96
,,,,,,,,,,7939,,,507038,,,instructions,"[{""page_index"":0,""viewing_time"":3191},{""page_index"":1,""viewing_time"":1402},{""page_index"":2,""viewing_time"":1813},{""page_index"":3,""viewing_time"":1532}]",96
,,,,,,,,,,23057,,,606755,,,instructions,"[{""page_index"":0,""viewing_time"":18032},{""page_index"":1,""viewing_time"":632},{""page_index"":2,""viewing_time"":3612},{""page_index"":3,""viewing_time"":780}]",96
,,,,,,,,,,11934,,,11935,,,instructions,"[{""page_index"":0,""viewing_time"":4132},{""page_index"":1,""viewing_time"":905},{""page_index"":2,""viewing_time"":5222},{""page_index"":3,""viewing_time"":1675}]",97
,,,,,,,,,,111424,,,111424,,,instructions,"[{""page_index"":0,""viewing_time"":40030},{""page_index"":1,""viewing_time"":29127},{""page_index"":2,""viewing_time"":23929},{""page_index"":3,""viewing_time"":18337}]",98
,,,,,,,,,,82730,,,82731,,,instructions,"[{""page_index"":0,""viewing_time"":37569},{""page_index"":1,""viewing_time"":29103},{""page_index"":2,""viewing_time"":16058}]",99
,,,,,,,,,,13593,,,132487,,,instructions,"[{""page_index"":0,""viewing_time"":2878},{""page_index"":1,""viewing_time"":3403},{""page_index"":2,""viewing_time"":7312}]",99
,,,,,,,,,,176932,,,176932,,,instructions,"[{""page_index"":0,""viewing_time"":76365},{""page_index"":1,""viewing_time"":43479},{""page_index"":2,""viewing_time"":33647},{""page_index"":3,""viewing_time"":23441}]",100
,,,,,,,,,,37362,,,463776,,,instructions,"[{""page_index"":0,""viewing_time"":6719},{""page_index"":1,""viewing_time"":10444},{""page_index"":2,""viewing_time"":16616},{""page_index"":3,""viewing_time"":3583}]",100
,,,,,,,,,,187218,,,187219,,,instructions,"[{""page_index"":0,""viewing_time"":49898},{""page_index"":1,""viewing_time"":53624},{""page_index"":0,""viewing_time"":23265},{""page_index"":1,""viewing_time"":18382},{""page_index"":0,""viewing_time"":13052},{""page_index"":1,""viewing_time"":8900},{""page_index"":0,""viewing_time"":7308},{""page_index"":1,""viewing_time"":3892},{""page_index"":2,""viewing_time"":5280},{""page_index"":1,""viewing_time"":832},{""page_index"":0,""viewing_time"":1504},{""page_index"":1,""viewing_time"":512},{""page_index"":2,""viewing_time"":768}]",101
,,,,,,,,,,34917,,,256317,,,instructions,"[{""page_index"":0,""viewing_time"":12647},{""page_index"":1,""viewing_time"":8820},{""page_index"":2,""viewing_time"":13450}]",101
,,,,,,,,,,7351,,,291040,,,instructions,"[{""page_index"":0,""viewing_time"":1499},{""page_index"":1,""viewing_time"":1136},{""page_index"":2,""viewing_time"":4716}]",101
,,,,,,,,,,70791,,,70791,,,instructions,"[{""page_index"":0,""viewing_time"":27118},{""page_index"":1,""viewing_time"":17152},{""page_index"":2,""viewing_time"":26520}]",102
,,,,,,,,,,3699,,,165150,,,instructions,"[{""page_index"":0,""viewing_time"":2377},{""page_index"":1,""viewing_time"":828},{""page_index"":2,""viewing_time"":494}]",102
,,,,,,,,,,4052,,,184724,,,instructions,"[{""page_index"":0,""viewing_time"":2458},{""page_index"":1,""viewing_time"":767},{""page_index"":2,""viewing_time"":827}]",102
,,,,,,,,,,3195,,,200780,,,instructions,"[{""page_index"":0,""viewing_time"":1873},{""page_index"":1,""viewing_time"":706},{""page_index"":2,""viewing_time"":615}]",102
,,,,,,,,,,108526,,,108527,,,instructions,"[{""page_index"":0,""viewing_time"":48260},{""page_index"":1,""viewing_time"":30529},{""page_index"":2,""viewing_time"":14169},{""page_index"":3,""viewing_time"":15568}]",103
,,,,,,,,,,92418,,,92420,,,instructions,"[{""page_index"":0,""viewing_time"":5560},{""page_index"":1,""viewing_time"":58032},{""page_index"":2,""viewing_time"":28824}]",104
,,,,,,,,,,118575,,,118575,,,instructions,"[{""page_index"":0,""viewing_time"":43723},{""page_index"":1,""viewing_time"":33838},{""page_index"":2,""viewing_time"":22385},{""page_index"":3,""viewing_time"":18628}]",105
,,,,,,,,,,56676,,,56677,,,instructions,"[{""page_index"":0,""viewing_time"":13181},{""page_index"":1,""viewing_time"":8916},{""page_index"":2,""viewing_time"":25466},{""page_index"":3,""viewing_time"":9111}]",106
,,,,,,,,,,58047,,,274214,,,instructions,"[{""page_index"":0,""viewing_time"":15574},{""page_index"":1,""viewing_time"":13481},{""page_index"":2,""viewing_time"":15342},{""page_index"":3,""viewing_time"":13648}]",106
,,,,,,,,,,473934,,,473937,,,instructions,"[{""page_index"":0,""viewing_time"":141172},{""page_index"":1,""viewing_time"":63858},{""page_index"":0,""viewing_time"":21470},{""page_index"":1,""viewing_time"":8870},{""page_index"":0,""viewing_time"":3023},{""page_index"":1,""viewing_time"":1921},{""page_index"":0,""viewing_time"":4061},{""page_index"":1,""viewing_time"":13529},{""page_index"":2,""viewing_time"":130132},{""page_index"":3,""viewing_time"":85897}]",107
,,,,,,,,,,144699,,,144700,,,instructions,"[{""page_index"":0,""viewing_time"":53869},{""page_index"":1,""viewing_time"":38335},{""page_index"":2,""viewing_time"":34345},{""page_index"":3,""viewing_time"":18150}]",108
,,,,,,,,,,74452,,,74454,,,instructions,"[{""page_index"":0,""viewing_time"":32844},{""page_index"":1,""viewing_time"":22196},{""page_index"":2,""viewing_time"":11790},{""page_index"":3,""viewing_time"":7621}]",109
,,,,,,,,,,27287,,,132840,,,instructions,"[{""page_index"":0,""viewing_time"":5589},{""page_index"":1,""viewing_time"":2412},{""page_index"":2,""viewing_time"":14854},{""page_index"":3,""viewing_time"":4432}]",109
,,,,,,,,,,57465,,,57465,,,instructions,"[{""page_index"":0,""viewing_time"":26137},{""page_index"":1,""viewing_time"":19523},{""page_index"":2,""viewing_time"":11804}]",110
,,,,,,,,,,26657,,,98245,,,instructions,"[{""page_index"":0,""viewing_time"":10931},{""page_index"":1,""viewing_time"":10173},{""page_index"":2,""viewing_time"":5552}]",110
,,,,,,,,,,49183,,,49184,,,instructions,"[{""page_index"":0,""viewing_time"":10874},{""page_index"":1,""viewing_time"":14062},{""page_index"":2,""viewing_time"":12571},{""page_index"":3,""viewing_time"":11676}]",111
,,,,,,,,,,56568,,,56570,,,instructions,"[{""page_index"":0,""viewing_time"":23925},{""page_index"":1,""viewing_time"":17267},{""page_index"":2,""viewing_time"":15374}]",112
,,,,,,,,,,16884,,,97723,,,instructions,"[{""page_index"":0,""viewing_time"":7631},{""page_index"":1,""viewing_time"":7168},{""page_index"":2,""viewing_time"":2083}]",112
,,,,,,,,,,85961,,,85963,,,instructions,"[{""page_index"":0,""viewing_time"":19762},{""page_index"":1,""viewing_time"":4290},{""page_index"":2,""viewing_time"":14328},{""page_index"":3,""viewing_time"":9389},{""page_index"":2,""viewing_time"":11568},{""page_index"":1,""viewing_time"":12883},{""page_index"":2,""viewing_time"":7768},{""page_index"":3,""viewing_time"":5970}]",113
,,,,,,,,,,802155,,,802157,,,instructions,"[{""page_index"":0,""viewing_time"":27147},{""page_index"":1,""viewing_time"":40715},{""page_index"":2,""viewing_time"":24009},{""page_index"":3,""viewing_time"":693741},{""page_index"":2,""viewing_time"":198},{""page_index"":1,""viewing_time"":118},{""page_index"":0,""viewing_time"":1227},{""page_index"":1,""viewing_time"":11542},{""page_index"":2,""viewing_time"":2665},{""page_index"":3,""viewing_time"":792}]",114
,,,,,,,,,,102062,,,102064,,,instructions,"[{""page_index"":0,""viewing_time"":42496},{""page_index"":1,""viewing_time"":34588},{""page_index"":2,""viewing_time"":24975}]",115
,,,,,,,,,,87718,,,216282,,,instructions,"[{""page_index"":0,""viewing_time"":29072},{""page_index"":1,""viewing_time"":42093},{""page_index"":2,""viewing_time"":16551}]",115
,,,,,,,,,,140342,,,140345,,,instructions,"[{""page_index"":0,""viewing_time"":95974},{""page_index"":1,""viewing_time"":21159},{""page_index"":2,""viewing_time"":13169},{""page_index"":3,""viewing_time"":10039}]",116
,,,,,,,,,,159773,,,159773,,,instructions,"[{""page_index"":0,""viewing_time"":69524},{""page_index"":1,""viewing_time"":38068},{""page_index"":2,""viewing_time"":27125},{""page_index"":3,""viewing_time"":25055}]",117
,,,,,,,,,,44443,,,243254,,,instructions,"[{""page_index"":0,""viewing_time"":7089},{""page_index"":1,""viewing_time"":13124},{""page_index"":2,""viewing_time"":16996},{""page_index"":3,""viewing_time"":7234}]",117
,,,,,,,,,,5616,,,275954,,,instructions,"[{""page_index"":0,""viewing_time"":2155},{""page_index"":1,""viewing_time"":1238},{""page_index"":2,""viewing_time"":1300},{""page_index"":3,""viewing_time"":922}]",117
,,,,,,,,,,102301,,,102303,,,instructions,"[{""page_index"":0,""viewing_time"":32030},{""page_index"":1,""viewing_time"":35455},{""page_index"":2,""viewing_time"":22464},{""page_index"":3,""viewing_time"":12351}]",118
,,,,,,,,,,468514,,,468514,,,instructions,"[{""page_index"":0,""viewing_time"":114809},{""page_index"":1,""viewing_time"":60311},{""page_index"":2,""viewing_time"":30073},{""page_index"":1,""viewing_time"":648},{""page_index"":0,""viewing_time"":203870},{""page_index"":1,""viewing_time"":41746},{""page_index"":2,""viewing_time"":17056}]",119
,,,,,,,,,,9054,,,531056,,,instructions,"[{""page_index"":0,""viewing_time"":4230},{""page_index"":1,""viewing_time"":1952},{""page_index"":2,""viewing_time"":2871}]",119
,,,,,,,,,,77582,,,77584,,,instructions,"[{""page_index"":0,""viewing_time"":26537},{""page_index"":1,""viewing_time"":19573},{""page_index"":2,""viewing_time"":14046},{""page_index"":3,""viewing_time"":17425}]",120
,,,,,,,,,,92304,,,203242,,,instructions,"[{""page_index"":0,""viewing_time"":8319},{""page_index"":1,""viewing_time"":21345},{""page_index"":2,""viewing_time"":43494},{""page_index"":3,""viewing_time"":19145}]",120
,,,,,,,,,,5293,,,354555,,,instructions,"[{""page_index"":0,""viewing_time"":1944},{""page_index"":1,""viewing_time"":768},{""page_index"":2,""viewing_time"":1772},{""page_index"":3,""viewing_time"":808}]",120
,,,,,,,,,,92921,,,92925,,,instructions,"[{""page_index"":0,""viewing_time"":34031},{""page_index"":1,""viewing_time"":24799},{""page_index"":2,""viewing_time"":18176},{""page_index"":3,""viewing_time"":15913}]",121
,,,,,,,,,,92607,,,92608,,,instructions,"[{""page_index"":0,""viewing_time"":30100},{""page_index"":1,""viewing_time"":23387},{""page_index"":2,""viewing_time"":20049},{""page_index"":3,""viewing_time"":19071}]",122
,,,,,,,,,,225735,,,225736,,,instructions,"[{""page_index"":0,""viewing_time"":37747},{""page_index"":1,""viewing_time"":106181},{""page_index"":2,""viewing_time"":45491},{""page_index"":3,""viewing_time"":36316}]",123
,,,,,,,,,,146759,,,146760,,,instructions,"[{""page_index"":0,""viewing_time"":56694},{""page_index"":1,""viewing_time"":50480},{""page_index"":2,""viewing_time"":39584}]",124
,,,,,,,,,,109595,,,109596,,,instructions,"[{""page_index"":0,""viewing_time"":30747},{""page_index"":1,""viewing_time"":32088},{""page_index"":2,""viewing_time"":31936},{""page_index"":3,""viewing_time"":14824}]",125
,,,,,,,,,,110934,,,110942,,,instructions,"[{""page_index"":0,""viewing_time"":37943},{""page_index"":1,""viewing_time"":53304},{""page_index"":2,""viewing_time"":19684}]",126
,,,,,,,,,,229991,,,229992,,,instructions,"[{""page_index"":0,""viewing_time"":115791},{""page_index"":1,""viewing_time"":80349},{""page_index"":2,""viewing_time"":33851}]",127
,,,,,,,,,,28507,,,303106,,,instructions,"[{""page_index"":0,""viewing_time"":3373},{""page_index"":1,""viewing_time"":7930},{""page_index"":2,""viewing_time"":17203}]",127
,,,,,,,,,,207312,,,207313,,,instructions,"[{""page_index"":0,""viewing_time"":89392},{""page_index"":1,""viewing_time"":85782},{""page_index"":2,""viewing_time"":32136}]",128
,,,,,,,,,,88432,,,88436,,,instructions,"[{""page_index"":0,""viewing_time"":29732},{""page_index"":1,""viewing_time"":20716},{""page_index"":2,""viewing_time"":20388},{""page_index"":3,""viewing_time"":17594}]",129
,,,,,,,,,,36756,,,143743,,,instructions,"[{""page_index"":0,""viewing_time"":9776},{""page_index"":1,""viewing_time"":10325},{""page_index"":2,""viewing_time"":12194},{""page_index"":3,""viewing_time"":4460}]",129
,,,,,,,,,,73025,,,73026,,,instructions,"[{""page_index"":0,""viewing_time"":23405},{""page_index"":1,""viewing_time"":33914},{""page_index"":2,""viewing_time"":15705}]",130
,,,,,,,,,,67635,,,67638,,,instructions,"[{""page_index"":0,""viewing_time"":32699},{""page_index"":1,""viewing_time"":15061},{""page_index"":2,""viewing_time"":19873}]",131
,,,,,,,,,,102481,,,102484,,,instructions,"[{""page_index"":0,""viewing_time"":34599},{""page_index"":1,""viewing_time"":20203},{""page_index"":2,""viewing_time"":30704},{""page_index"":3,""viewing_time"":16974}]",132
,,,,,,,,,,66524,,,66524,,,instructions,"[{""page_index"":0,""viewing_time"":27059},{""page_index"":1,""viewing_time"":20318},{""page_index"":2,""viewing_time"":19143}]",133
,,,,,,,,,,244688,,,244690,,,instructions,"[{""page_index"":0,""viewing_time"":37039},{""page_index"":1,""viewing_time"":192799},{""page_index"":2,""viewing_time"":14847}]",134
,,,,,,,,,,47724,,,47725,,,instructions,"[{""page_index"":0,""viewing_time"":25102},{""page_index"":1,""viewing_time"":12795},{""page_index"":2,""viewing_time"":9825}]",135
,,,,,,,,,,1424868,,,1424869,,,instructions,"[{""page_index"":0,""viewing_time"":18523},{""page_index"":1,""viewing_time"":35576},{""page_index"":2,""viewing_time"":28615},{""page_index"":3,""viewing_time"":1342153}]",136
,,,,,,,,,,197381,,,197383,,,instructions,"[{""page_index"":0,""viewing_time"":11572},{""page_index"":1,""viewing_time"":9551},{""page_index"":2,""viewing_time"":22509},{""page_index"":1,""viewing_time"":588},{""page_index"":0,""viewing_time"":7155},{""page_index"":1,""viewing_time"":2913},{""page_index"":0,""viewing_time"":29810},{""page_index"":1,""viewing_time"":29679},{""page_index"":2,""viewing_time"":37765},{""page_index"":3,""viewing_time"":45837}]",137
,,,,,,,,,,74120,,,74122,,,instructions,"[{""page_index"":0,""viewing_time"":27904},{""page_index"":1,""viewing_time"":16796},{""page_index"":2,""viewing_time"":15427},{""page_index"":3,""viewing_time"":13992}]",138
,,,,,,,,,,30095,,,133342,,,instructions,"[{""page_index"":0,""viewing_time"":3947},{""page_index"":1,""viewing_time"":2943},{""page_index"":2,""viewing_time"":10327},{""page_index"":3,""viewing_time"":12877}]",138
,,,,,,,,,,23126,,,179735,,,instructions,"[{""page_index"":0,""viewing_time"":3923},{""page_index"":1,""viewing_time"":4294},{""page_index"":2,""viewing_time"":8713},{""page_index"":3,""viewing_time"":6196}]",138
,,,,,,,,,,19778,,,222932,,,instructions,"[{""page_index"":0,""viewing_time"":7545},{""page_index"":1,""viewing_time"":4671},{""page_index"":2,""viewing_time"":5193},{""page_index"":3,""viewing_time"":2368}]",138
,,,,,,,,,,9309,,,249457,,,instructions,"[{""page_index"":0,""viewing_time"":3433},{""page_index"":1,""viewing_time"":1174},{""page_index"":2,""viewing_time"":3624},{""page_index"":3,""viewing_time"":1078}]",138
,,,,,,,,,,42999,,,43001,,,instructions,"[{""page_index"":0,""viewing_time"":9310},{""page_index"":1,""viewing_time"":25617},{""page_index"":2,""viewing_time"":8068}]",139
,,,,,,,,,,67878,,,67878,,,instructions,"[{""page_index"":0,""viewing_time"":24704},{""page_index"":1,""viewing_time"":7983},{""page_index"":2,""viewing_time"":27709},{""page_index"":3,""viewing_time"":7481}]",140
,,,,,,,,,,34572,,,129848,,,instructions,"[{""page_index"":0,""viewing_time"":10396},{""page_index"":1,""viewing_time"":8903},{""page_index"":2,""viewing_time"":12422},{""page_index"":3,""viewing_time"":2850}]",140
,,,,,,,,,,46487,,,203420,,,instructions,"[{""page_index"":0,""viewing_time"":14365},{""page_index"":1,""viewing_time"":21238},{""page_index"":2,""viewing_time"":8824},{""page_index"":3,""viewing_time"":2059}]",140
,,,,,,,,,,83393,,,310599,,,instructions,"[{""page_index"":0,""viewing_time"":22378},{""page_index"":1,""viewing_time"":24961},{""page_index"":2,""viewing_time"":18329},{""page_index"":3,""viewing_time"":17724}]",140
,,,,,,,,,,159409,,,159411,,,instructions,"[{""page_index"":0,""viewing_time"":67934},{""page_index"":1,""viewing_time"":47763},{""page_index"":2,""viewing_time"":21327},{""page_index"":3,""viewing_time"":22384}]",141
,,,,,,,,,,115818,,,115820,,,instructions,"[{""page_index"":0,""viewing_time"":43148},{""page_index"":1,""viewing_time"":38950},{""page_index"":2,""viewing_time"":33718}]",142
,,,,,,,,,,97774,,,97775,,,instructions,"[{""page_index"":0,""viewing_time"":30635},{""page_index"":1,""viewing_time"":33087},{""page_index"":2,""viewing_time"":19781},{""page_index"":3,""viewing_time"":14270}]",143
,,,,,,,,,,4738,,,125590,,,instructions,"[{""page_index"":0,""viewing_time"":1212},{""page_index"":1,""viewing_time"":985},{""page_index"":2,""viewing_time"":959},{""page_index"":3,""viewing_time"":1581}]",143
,,,,,,,,,,23447,,,173387,,,instructions,"[{""page_index"":0,""viewing_time"":2596},{""page_index"":1,""viewing_time"":1080},{""page_index"":2,""viewing_time"":1211},{""page_index"":3,""viewing_time"":7006},{""page_index"":2,""viewing_time"":1467},{""page_index"":1,""viewing_time"":4149},{""page_index"":2,""viewing_time"":4152},{""page_index"":3,""viewing_time"":1785}]",143
,,,,,,,,,,62818,,,62819,,,instructions,"[{""page_index"":0,""viewing_time"":10863},{""page_index"":1,""viewing_time"":1419},{""page_index"":0,""viewing_time"":846},{""page_index"":1,""viewing_time"":7541},{""page_index"":2,""viewing_time"":6473},{""page_index"":3,""viewing_time"":9808},{""page_index"":2,""viewing_time"":691},{""page_index"":1,""viewing_time"":8197},{""page_index"":2,""viewing_time"":11160},{""page_index"":3,""viewing_time"":5819}]",144
,,,,,,,,,,39623,,,190598,,,instructions,"[{""page_index"":0,""viewing_time"":15540},{""page_index"":1,""viewing_time"":10150},{""page_index"":2,""viewing_time"":13259},{""page_index"":3,""viewing_time"":673}]",144
,,,,,,,,,,56831,,,56836,,,instructions,"[{""page_index"":0,""viewing_time"":21021},{""page_index"":1,""viewing_time"":15553},{""page_index"":2,""viewing_time"":11670},{""page_index"":3,""viewing_time"":8580}]",145
,,,,,,,,,,18129,,,108870,,,instructions,"[{""page_index"":0,""viewing_time"":3921},{""page_index"":1,""viewing_time"":8166},{""page_index"":2,""viewing_time"":2562},{""page_index"":3,""viewing_time"":3478}]",145
,,,,,,,,,,84083,,,203751,,,instructions,"[{""page_index"":0,""viewing_time"":15159},{""page_index"":1,""viewing_time"":11176},{""page_index"":2,""viewing_time"":14104},{""page_index"":3,""viewing_time"":7475},{""page_index"":2,""viewing_time"":3921},{""page_index"":1,""viewing_time"":21434},{""page_index"":0,""viewing_time"":7538},{""page_index"":1,""viewing_time"":1154},{""page_index"":2,""viewing_time"":1418},{""page_index"":3,""viewing_time"":703}]",145
,,,,,,,,,,51496,,,275955,,,instructions,"[{""page_index"":0,""viewing_time"":20644},{""page_index"":1,""viewing_time"":16575},{""page_index"":2,""viewing_time"":8974},{""page_index"":3,""viewing_time"":5301}]",145
,,,,,,,,,,7714,,,296166,,,instructions,"[{""page_index"":0,""viewing_time"":1611},{""page_index"":1,""viewing_time"":164},{""page_index"":0,""viewing_time"":1227},{""page_index"":1,""viewing_time"":555},{""page_index"":2,""viewing_time"":2188},{""page_index"":3,""viewing_time"":1968}]",145
,,,,,,,,,,4183,,,311440,,,instructions,"[{""page_index"":0,""viewing_time"":1442},{""page_index"":1,""viewing_time"":582},{""page_index"":2,""viewing_time"":1172},{""page_index"":3,""viewing_time"":985}]",145
,,,,,,,,,,6191,,,334483,,,instructions,"[{""page_index"":0,""viewing_time"":2811},{""page_index"":1,""viewing_time"":636},{""page_index"":2,""viewing_time"":1759},{""page_index"":3,""viewing_time"":983}]",145
,,,,,,,,,,8016,,,354726,,,instructions,"[{""page_index"":0,""viewing_time"":1617},{""page_index"":1,""viewing_time"":642},{""page_index"":2,""viewing_time"":1357},{""page_index"":3,""viewing_time"":4399}]",145
,,,,,,,,,,10188,,,376185,,,instructions,"[{""page_index"":0,""viewing_time"":5960},{""page_index"":1,""viewing_time"":890},{""page_index"":2,""viewing_time"":1415},{""page_index"":3,""viewing_time"":1922}]",145
,,,,,,,,,,6748,,,400611,,,instructions,"[{""page_index"":0,""viewing_time"":3213},{""page_index"":1,""viewing_time"":993},{""page_index"":2,""viewing_time"":1333},{""page_index"":3,""viewing_time"":1208}]",145
,,,,,,,,,,343115,,,343116,,,instructions,"[{""page_index"":0,""viewing_time"":143898},{""page_index"":1,""viewing_time"":103050},{""page_index"":2,""viewing_time"":51935},{""page_index"":3,""viewing_time"":44232}]",146
,,,,,,,,,,68800,,,505415,,,instructions,"[{""page_index"":0,""viewing_time"":22702},{""page_index"":1,""viewing_time"":11086},{""page_index"":2,""viewing_time"":32753},{""page_index"":3,""viewing_time"":2259}]",146
,,,,,,,,,,145594,,,690455,,,instructions,"[{""page_index"":0,""viewing_time"":52068},{""page_index"":1,""viewing_time"":30047},{""page_index"":2,""viewing_time"":39510},{""page_index"":3,""viewing_time"":23968}]",146
,,,,,,,,,,165922,,,165924,,,instructions,"[{""page_index"":0,""viewing_time"":38589},{""page_index"":1,""viewing_time"":74619},{""page_index"":2,""viewing_time"":32746},{""page_index"":3,""viewing_time"":19964}]",147
,,,,,,,,,,225124,,,225127,,,instructions,"[{""page_index"":0,""viewing_time"":34692},{""page_index"":1,""viewing_time"":84734},{""page_index"":2,""viewing_time"":68599},{""page_index"":3,""viewing_time"":37098}]",148
,,,,,,,,,,158144,,,158146,,,instructions,"[{""page_index"":0,""viewing_time"":41658},{""page_index"":1,""viewing_time"":39155},{""page_index"":2,""viewing_time"":52999},{""page_index"":3,""viewing_time"":24329}]",149
,,,,,,,,,,1103357,,,1103358,,,instructions,"[{""page_index"":0,""viewing_time"":952266},{""page_index"":1,""viewing_time"":75342},{""page_index"":2,""viewing_time"":29409},{""page_index"":3,""viewing_time"":46338}]",150
,,,,,,,,,,83392,,,83392,,,instructions,"[{""page_index"":0,""viewing_time"":21250},{""page_index"":1,""viewing_time"":23704},{""page_index"":2,""viewing_time"":23818},{""page_index"":3,""viewing_time"":14619}]",151
,,,,,,,,,,43927,,,158541,,,instructions,"[{""page_index"":0,""viewing_time"":8543},{""page_index"":1,""viewing_time"":14812},{""page_index"":2,""viewing_time"":9664},{""page_index"":3,""viewing_time"":10908}]",151
,,,,,,,,,,25718,,,25721,,,instructions,"[{""page_index"":0,""viewing_time"":8431},{""page_index"":1,""viewing_time"":11572},{""page_index"":2,""viewing_time"":2605},{""page_index"":3,""viewing_time"":3107}]",152
,,,,,,,,,,80036,,,125967,,,instructions,"[{""page_index"":0,""viewing_time"":14769},{""page_index"":1,""viewing_time"":32221},{""page_index"":2,""viewing_time"":26504},{""page_index"":3,""viewing_time"":6541}]",152
,,,,,,,,,,261017,,,261018,,,instructions,"[{""page_index"":0,""viewing_time"":98363},{""page_index"":1,""viewing_time"":113209},{""page_index"":2,""viewing_time"":49445}]",153
,,,,,,,,,,81220,,,81220,,,instructions,"[{""page_index"":0,""viewing_time"":18487},{""page_index"":1,""viewing_time"":27118},{""page_index"":2,""viewing_time"":21897},{""page_index"":3,""viewing_time"":13716}]",154
,,,,,,,,,,93998,,,93999,,,instructions,"[{""page_index"":0,""viewing_time"":41418},{""page_index"":1,""viewing_time"":22530},{""page_index"":2,""viewing_time"":12185},{""page_index"":3,""viewing_time"":17864}]",155
,,,,,,,,,,154004,,,154005,,,instructions,"[{""page_index"":0,""viewing_time"":29332},{""page_index"":1,""viewing_time"":49192},{""page_index"":2,""viewing_time"":57043},{""page_index"":3,""viewing_time"":18437}]",156
,,,,,,,,,,40022,,,231347,,,instructions,"[{""page_index"":0,""viewing_time"":13934},{""page_index"":1,""viewing_time"":3780},{""page_index"":2,""viewing_time"":17072},{""page_index"":3,""viewing_time"":5236}]",156
,,,,,,,,,,490008,,,490010,,,instructions,"[{""page_index"":0,""viewing_time"":298602},{""page_index"":1,""viewing_time"":33712},{""page_index"":2,""viewing_time"":17712},{""page_index"":3,""viewing_time"":7311},{""page_index"":2,""viewing_time"":690},{""page_index"":1,""viewing_time"":790},{""page_index"":0,""viewing_time"":115066},{""page_index"":1,""viewing_time"":4932},{""page_index"":2,""viewing_time"":6331},{""page_index"":3,""viewing_time"":4860}]",157
,,,,,,,,,,5182,,,640212,,,instructions,"[{""page_index"":0,""viewing_time"":2062},{""page_index"":1,""viewing_time"":704},{""page_index"":2,""viewing_time"":1711},{""page_index"":3,""viewing_time"":705}]",157
,,,,,,,,,,5099,,,661635,,,instructions,"[{""page_index"":0,""viewing_time"":1938},{""page_index"":1,""viewing_time"":937},{""page_index"":2,""viewing_time"":1567},{""page_index"":3,""viewing_time"":657}]",157
,,,,,,,,,,4884,,,678003,,,instructions,"[{""page_index"":0,""viewing_time"":2212},{""page_index"":1,""viewing_time"":767},{""page_index"":2,""viewing_time"":1393},{""page_index"":3,""viewing_time"":512}]",157
,,,,,,,,,,67678,,,67678,,,instructions,"[{""page_index"":0,""viewing_time"":25564},{""page_index"":1,""viewing_time"":22999},{""page_index"":2,""viewing_time"":19113}]",158
,,,,,,,,,,81316,,,81318,,,instructions,"[{""page_index"":0,""viewing_time"":28481},{""page_index"":1,""viewing_time"":22480},{""page_index"":2,""viewing_time"":30354}]",159
,,,,,,,,,,554022,,,554023,,,instructions,"[{""page_index"":0,""viewing_time"":123305},{""page_index"":1,""viewing_time"":159455},{""page_index"":2,""viewing_time"":182038},{""page_index"":1,""viewing_time"":11481},{""page_index"":2,""viewing_time"":11400},{""page_index"":3,""viewing_time"":66341}]",160
,,,,,,,,,,160541,,,160542,,,instructions,"[{""page_index"":0,""viewing_time"":55322},{""page_index"":1,""viewing_time"":53752},{""page_index"":2,""viewing_time"":13606},{""page_index"":3,""viewing_time"":37851}]",161
,,,,,,,,,,106833,,,106834,,,instructions,"[{""page_index"":0,""viewing_time"":66615},{""page_index"":1,""viewing_time"":17774},{""page_index"":2,""viewing_time"":22443}]",162
,,,,,,,,,,38918,,,178161,,,instructions,"[{""page_index"":0,""viewing_time"":10864},{""page_index"":1,""viewing_time"":23194},{""page_index"":2,""viewing_time"":4860}]",162
,,,,,,,,,,10043,,,206956,,,instructions,"[{""page_index"":0,""viewing_time"":1952},{""page_index"":1,""viewing_time"":4093},{""page_index"":2,""viewing_time"":3998}]",162
,,,,,,,,,,184845,,,184846,,,instructions,"[{""page_index"":0,""viewing_time"":125331},{""page_index"":1,""viewing_time"":3080},{""page_index"":0,""viewing_time"":2533},{""page_index"":1,""viewing_time"":13366},{""page_index"":2,""viewing_time"":27719},{""page_index"":3,""viewing_time"":12815}]",163
,,,,,,,,,,73664,,,293964,,,instructions,"[{""page_index"":0,""viewing_time"":22316},{""page_index"":1,""viewing_time"":32589},{""page_index"":2,""viewing_time"":10604},{""page_index"":3,""viewing_time"":8154}]",163
,,,,,,,,,,85082,,,405640,,,instructions,"[{""page_index"":0,""viewing_time"":20380},{""page_index"":1,""viewing_time"":36509},{""page_index"":2,""viewing_time"":18685},{""page_index"":3,""viewing_time"":9507}]",163
,,,,,,,,,,87850,,,87852,,,instructions,"[{""page_index"":0,""viewing_time"":31421},{""page_index"":1,""viewing_time"":21381},{""page_index"":2,""viewing_time"":17129},{""page_index"":3,""viewing_time"":17918}]",164
,,,,,,,,,,147640,,,147642,,,instructions,"[{""page_index"":0,""viewing_time"":44336},{""page_index"":1,""viewing_time"":29560},{""page_index"":2,""viewing_time"":51840},{""page_index"":3,""viewing_time"":21903}]",165
,,,,,,,,,,8180,,,191289,,,instructions,"[{""page_index"":0,""viewing_time"":3563},{""page_index"":1,""viewing_time"":911},{""page_index"":2,""viewing_time"":2217},{""page_index"":3,""viewing_time"":1488}]",165
,,,,,,,,,,72778,,,72781,,,instructions,"[{""page_index"":0,""viewing_time"":42245},{""page_index"":1,""viewing_time"":14176},{""page_index"":2,""viewing_time"":6635},{""page_index"":3,""viewing_time"":9721}]",166
,,,,,,,,,,92393,,,92395,,,instructions,"[{""page_index"":0,""viewing_time"":19552},{""page_index"":1,""viewing_time"":51967},{""page_index"":2,""viewing_time"":9728},{""page_index"":3,""viewing_time"":11144}]",167
,,,,,,,,,,119417,,,119418,,,instructions,"[{""page_index"":0,""viewing_time"":46207},{""page_index"":1,""viewing_time"":9153},{""page_index"":2,""viewing_time"":30207},{""page_index"":3,""viewing_time"":33850}]",168
,,,,,,,,,,38060,,,201792,,,instructions,"[{""page_index"":0,""viewing_time"":13106},{""page_index"":1,""viewing_time"":12747},{""page_index"":2,""viewing_time"":7391},{""page_index"":3,""viewing_time"":4816}]",168
,,,,,,,,,,84748,,,342533,,,instructions,"[{""page_index"":0,""viewing_time"":31928},{""page_index"":1,""viewing_time"":24446},{""page_index"":2,""viewing_time"":18091},{""page_index"":3,""viewing_time"":10283}]",168
,,,,,,,,,,39907,,,414054,,,instructions,"[{""page_index"":0,""viewing_time"":24615},{""page_index"":1,""viewing_time"":3746},{""page_index"":2,""viewing_time"":5120},{""page_index"":3,""viewing_time"":6426}]",168
,,,,,,,,,,207388,,,207391,,,instructions,"[{""page_index"":0,""viewing_time"":86957},{""page_index"":1,""viewing_time"":3722},{""page_index"":2,""viewing_time"":62374},{""page_index"":3,""viewing_time"":54331}]",169
,,,,,,,,,,211112,,,477424,,,instructions,"[{""page_index"":0,""viewing_time"":59737},{""page_index"":1,""viewing_time"":70271},{""page_index"":2,""viewing_time"":17140},{""page_index"":3,""viewing_time"":63962}]",169
,,,,,,,,,,56348,,,56348,,,instructions,"[{""page_index"":0,""viewing_time"":24066},{""page_index"":1,""viewing_time"":21551},{""page_index"":2,""viewing_time"":10730}]",170
,,,,,,,,,,20103,,,93156,,,instructions,"[{""page_index"":0,""viewing_time"":7814},{""page_index"":1,""viewing_time"":7480},{""page_index"":2,""viewing_time"":4808}]",170
,,,,,,,,,,316307,,,316309,,,instructions,"[{""page_index"":0,""viewing_time"":81092},{""page_index"":1,""viewing_time"":60526},{""page_index"":2,""viewing_time"":117099},{""page_index"":3,""viewing_time"":57588}]",171
,,,,,,,,,,206947,,,206948,,,instructions,"[{""page_index"":0,""viewing_time"":102275},{""page_index"":1,""viewing_time"":37294},{""page_index"":2,""viewing_time"":33766},{""page_index"":3,""viewing_time"":33612}]",172
,,,,,,,,,,48761,,,290961,,,instructions,"[{""page_index"":0,""viewing_time"":12415},{""page_index"":1,""viewing_time"":24132},{""page_index"":2,""viewing_time"":8269},{""page_index"":3,""viewing_time"":3945}]",172
,,,,,,,,,,4422,,,314897,,,instructions,"[{""page_index"":0,""viewing_time"":1593},{""page_index"":1,""viewing_time"":863},{""page_index"":2,""viewing_time"":903},{""page_index"":3,""viewing_time"":1063}]",172
,,,,,,,,,,5298,,,339842,,,instructions,"[{""page_index"":0,""viewing_time"":1496},{""page_index"":1,""viewing_time"":1179},{""page_index"":2,""viewing_time"":1380},{""page_index"":3,""viewing_time"":1243}]",172
,,,,,,,,,,34576,,,388162,,,instructions,"[{""page_index"":0,""viewing_time"":17428},{""page_index"":1,""viewing_time"":2525},{""page_index"":2,""viewing_time"":11228},{""page_index"":3,""viewing_time"":3395}]",172
,,,,,,,,,,12703,,,421995,,,instructions,"[{""page_index"":0,""viewing_time"":6744},{""page_index"":1,""viewing_time"":2689},{""page_index"":2,""viewing_time"":1664},{""page_index"":3,""viewing_time"":1605}]",172
,,,,,,,,,,65323,,,501565,,,instructions,"[{""page_index"":0,""viewing_time"":15166},{""page_index"":1,""viewing_time"":21433},{""page_index"":2,""viewing_time"":21424},{""page_index"":3,""viewing_time"":7299}]",172
,,,,,,,,,,180136,,,180148,,,instructions,"[{""page_index"":0,""viewing_time"":74065},{""page_index"":1,""viewing_time"":39553},{""page_index"":2,""viewing_time"":48222},{""page_index"":3,""viewing_time"":18290}]",173
,,,,,,,,,,133805,,,133809,,,instructions,"[{""page_index"":0,""viewing_time"":52772},{""page_index"":1,""viewing_time"":38418},{""page_index"":0,""viewing_time"":11784},{""page_index"":1,""viewing_time"":2476},{""page_index"":2,""viewing_time"":28351}]",174
,,,,,,,,,,46503,,,216485,,,instructions,"[{""page_index"":0,""viewing_time"":14341},{""page_index"":1,""viewing_time"":23594},{""page_index"":2,""viewing_time"":8566}]",174
,,,,,,,,,,169102,,,169103,,,instructions,"[{""page_index"":0,""viewing_time"":62650},{""page_index"":1,""viewing_time"":36087},{""page_index"":2,""viewing_time"":45036},{""page_index"":3,""viewing_time"":25328}]",175
,,,,,,,,,,46858,,,251016,,,instructions,"[{""page_index"":0,""viewing_time"":24985},{""page_index"":1,""viewing_time"":8350},{""page_index"":2,""viewing_time"":6621},{""page_index"":3,""viewing_time"":6901}]",175
,,,,,,,,,,64497,,,64499,,,instructions,"[{""page_index"":0,""viewing_time"":32382},{""page_index"":1,""viewing_time"":15767},{""page_index"":2,""viewing_time"":9117},{""page_index"":3,""viewing_time"":7230}]",176
,,,,,,,,,,149017,,,236599,,,instructions,"[{""page_index"":0,""viewing_time"":4364},{""page_index"":1,""viewing_time"":8707},{""page_index"":2,""viewing_time"":125319},{""page_index"":3,""viewing_time"":10625}]",176
,,,,,,,,,,157229,,,470070,,,instructions,"[{""page_index"":0,""viewing_time"":137825},{""page_index"":1,""viewing_time"":11260},{""page_index"":2,""viewing_time"":7365},{""page_index"":3,""viewing_time"":779}]",176
,,,,,,,,,,26887,,,514446,,,instructions,"[{""page_index"":0,""viewing_time"":5168},{""page_index"":1,""viewing_time"":15445},{""page_index"":2,""viewing_time"":3013},{""page_index"":3,""viewing_time"":3260}]",176
,,,,,,,,,,15801,,,542907,,,instructions,"[{""page_index"":0,""viewing_time"":6803},{""page_index"":1,""viewing_time"":6690},{""page_index"":2,""viewing_time"":1860},{""page_index"":3,""viewing_time"":447}]",176
,,,,,,,,,,222456,,,222458,,,instructions,"[{""page_index"":0,""viewing_time"":55770},{""page_index"":1,""viewing_time"":84575},{""page_index"":2,""viewing_time"":48623},{""page_index"":3,""viewing_time"":33488}]",177
,,,,,,,,,,156576,,,156577,,,instructions,"[{""page_index"":0,""viewing_time"":52995},{""page_index"":1,""viewing_time"":80301},{""page_index"":2,""viewing_time"":23278}]",178
,,,,,,,,,,208816,,,208816,,,instructions,"[{""page_index"":0,""viewing_time"":7391},{""page_index"":1,""viewing_time"":11816},{""page_index"":2,""viewing_time"":22982},{""page_index"":3,""viewing_time"":37186},{""page_index"":2,""viewing_time"":2094},{""page_index"":1,""viewing_time"":5354},{""page_index"":0,""viewing_time"":43398},{""page_index"":1,""viewing_time"":31800},{""page_index"":2,""viewing_time"":41448},{""page_index"":3,""viewing_time"":5345}]",179
,,,,,,,,,,254745,,,254749,,,instructions,"[{""page_index"":0,""viewing_time"":52831},{""page_index"":1,""viewing_time"":64148},{""page_index"":2,""viewing_time"":112327},{""page_index"":3,""viewing_time"":25436}]",180
,,,,,,,,,,647248,,,647249,,,instructions,"[{""page_index"":0,""viewing_time"":517190},{""page_index"":1,""viewing_time"":72532},{""page_index"":2,""viewing_time"":57524}]",181
,,,,,,,,,,20536,,,20537,,,instructions,"[{""page_index"":0,""viewing_time"":15601},{""page_index"":1,""viewing_time"":4268},{""page_index"":2,""viewing_time"":666}]",182
,,,,,,,,,,148264,,,148266,,,instructions,"[{""page_index"":0,""viewing_time"":22582},{""page_index"":1,""viewing_time"":33358},{""page_index"":2,""viewing_time"":68900},{""page_index"":3,""viewing_time"":23424}]",183
,,,,,,,,,,179717,,,179719,,,instructions,"[{""page_index"":0,""viewing_time"":60890},{""page_index"":1,""viewing_time"":38468},{""page_index"":2,""viewing_time"":27704},{""page_index"":3,""viewing_time"":52652}]",184
,,,,,,,,,,230253,,,230255,,,instructions,"[{""page_index"":0,""viewing_time"":83158},{""page_index"":1,""viewing_time"":69745},{""page_index"":0,""viewing_time"":14690},{""page_index"":1,""viewing_time"":30464},{""page_index"":2,""viewing_time"":32195}]",185
,,,,,,,,,,122075,,,392613,,,instructions,"[{""page_index"":0,""viewing_time"":75111},{""page_index"":1,""viewing_time"":32303},{""page_index"":2,""viewing_time"":14660}]",185
,,,,,,,,,,320444,,,320444,,,instructions,"[{""page_index"":0,""viewing_time"":298721},{""page_index"":1,""viewing_time"":11397},{""page_index"":2,""viewing_time"":3464},{""page_index"":3,""viewing_time"":6861}]",186
,,,,,,,,,,172680,,,172682,,,instructions,"[{""page_index"":0,""viewing_time"":66827},{""page_index"":1,""viewing_time"":87021},{""page_index"":2,""viewing_time"":18831}]",187
,,,,,,,,,,143156,,,143158,,,instructions,"[{""page_index"":0,""viewing_time"":68449},{""page_index"":1,""viewing_time"":52817},{""page_index"":2,""viewing_time"":21888}]",188
,,,,,,,,,,81192,,,81194,,,instructions,"[{""page_index"":0,""viewing_time"":37343},{""page_index"":1,""viewing_time"":18065},{""page_index"":2,""viewing_time"":21734},{""page_index"":3,""viewing_time"":4048}]",189
,,,,,,,,,,57902,,,162673,,,instructions,"[{""page_index"":0,""viewing_time"":10300},{""page_index"":1,""viewing_time"":13032},{""page_index"":2,""viewing_time"":19992},{""page_index"":3,""viewing_time"":14576}]",189
,,,,,,,,,,233726,,,414184,,,instructions,"[{""page_index"":0,""viewing_time"":6845},{""page_index"":1,""viewing_time"":220281},{""page_index"":2,""viewing_time"":4079},{""page_index"":3,""viewing_time"":2520}]",189
,,,,,,,,,,73279,,,73280,,,instructions,"[{""page_index"":0,""viewing_time"":31319},{""page_index"":1,""viewing_time"":22408},{""page_index"":2,""viewing_time"":14856},{""page_index"":1,""viewing_time"":1015},{""page_index"":0,""viewing_time"":2448},{""page_index"":1,""viewing_time"":713},{""page_index"":2,""viewing_time"":519}]",190
,,,,,,,,,,164189,,,164191,,,instructions,"[{""page_index"":0,""viewing_time"":50785},{""page_index"":1,""viewing_time"":58630},{""page_index"":2,""viewing_time"":26406},{""page_index"":3,""viewing_time"":28368}]",191
,,,,,,,,,,148763,,,148764,,,instructions,"[{""page_index"":0,""viewing_time"":49103},{""page_index"":1,""viewing_time"":45841},{""page_index"":2,""viewing_time"":34019},{""page_index"":3,""viewing_time"":19797}]",192
,,,,,,,,,,69019,,,69021,,,instructions,"[{""page_index"":0,""viewing_time"":28627},{""page_index"":1,""viewing_time"":26322},{""page_index"":2,""viewing_time"":14066}]",193
,,,,,,,,,,28188,,,130641,,,instructions,"[{""page_index"":0,""viewing_time"":10654},{""page_index"":1,""viewing_time"":10556},{""page_index"":2,""viewing_time"":6976}]",193
,,,,,,,,,,23734,,,23739,,,instructions,"[{""page_index"":0,""viewing_time"":16821},{""page_index"":1,""viewing_time"":3588},{""page_index"":2,""viewing_time"":3320}]",194
,,,,,,,,,,111954,,,166674,,,instructions,"[{""page_index"":0,""viewing_time"":55449},{""page_index"":1,""viewing_time"":33607},{""page_index"":2,""viewing_time"":22891}]",194
,,,,,,,,,,70402,,,70402,,,instructions,"[{""page_index"":0,""viewing_time"":25726},{""page_index"":1,""viewing_time"":23764},{""page_index"":2,""viewing_time"":20911}]",195
,,,,,,,,,,21881,,,110556,,,instructions,"[{""page_index"":0,""viewing_time"":5807},{""page_index"":1,""viewing_time"":11160},{""page_index"":2,""viewing_time"":4914}]",195
,,,,,,,,,,138133,,,138133,,,instructions,"[{""page_index"":0,""viewing_time"":76078},{""page_index"":1,""viewing_time"":39527},{""page_index"":2,""viewing_time"":22527}]",196
,,,,,,,,,,65278,,,230629,,,instructions,"[{""page_index"":0,""viewing_time"":14882},{""page_index"":1,""viewing_time"":36324},{""page_index"":2,""viewing_time"":14071}]",196
,,,,,,,,,,109734,,,109736,,,instructions,"[{""page_index"":0,""viewing_time"":42180},{""page_index"":1,""viewing_time"":33929},{""page_index"":2,""viewing_time"":12552},{""page_index"":3,""viewing_time"":21072}]",197
,,,,,,,,,,228076,,,228078,,,instructions,"[{""page_index"":0,""viewing_time"":79567},{""page_index"":1,""viewing_time"":97187},{""page_index"":2,""viewing_time"":51320}]",198
,,,,,,,,,,170943,,,170944,,,instructions,"[{""page_index"":0,""viewing_time"":53008},{""page_index"":1,""viewing_time"":60254},{""page_index"":2,""viewing_time"":57681}]",199
,,,,,,,,,,46236,,,46237,,,instructions,"[{""page_index"":0,""viewing_time"":13546},{""page_index"":1,""viewing_time"":25199},{""page_index"":2,""viewing_time"":7490}]",200
,,,,,,,,,,41007,,,106911,,,instructions,"[{""page_index"":0,""viewing_time"":25601},{""page_index"":1,""viewing_time"":10714},{""page_index"":2,""viewing_time"":4692}]",200
,,,,,,,,,,68170,,,68174,,,instructions,"[{""page_index"":0,""viewing_time"":30866},{""page_index"":1,""viewing_time"":29518},{""page_index"":2,""viewing_time"":7784}]",201
,,,,,,,,,,165525,,,165526,,,instructions,"[{""page_index"":0,""viewing_time"":56210},{""page_index"":1,""viewing_time"":33121},{""page_index"":2,""viewing_time"":46629},{""page_index"":3,""viewing_time"":29560}]",202
,,,,,,,,,,51193,,,261498,,,instructions,"[{""page_index"":0,""viewing_time"":23298},{""page_index"":1,""viewing_time"":13218},{""page_index"":2,""viewing_time"":7940},{""page_index"":3,""viewing_time"":6736}]",202
,,,,,,,,,,75730,,,75730,,,instructions,"[{""page_index"":0,""viewing_time"":16489},{""page_index"":1,""viewing_time"":36634},{""page_index"":2,""viewing_time"":22606}]",203
,,,,,,,,,,354210,,,354212,,,instructions,"[{""page_index"":0,""viewing_time"":228098},{""page_index"":1,""viewing_time"":17360},{""page_index"":2,""viewing_time"":50308},{""page_index"":3,""viewing_time"":18923},{""page_index"":2,""viewing_time"":2944},{""page_index"":1,""viewing_time"":6831},{""page_index"":0,""viewing_time"":20949},{""page_index"":1,""viewing_time"":1258},{""page_index"":2,""viewing_time"":2632},{""page_index"":3,""viewing_time"":4906}]",204
,,,,,,,,,,63907,,,495638,,,instructions,"[{""page_index"":0,""viewing_time"":15103},{""page_index"":1,""viewing_time"":17508},{""page_index"":2,""viewing_time"":28162},{""page_index"":3,""viewing_time"":3133}]",204
,,,,,,,,,,252698,,,252700,,,instructions,"[{""page_index"":0,""viewing_time"":111006},{""page_index"":1,""viewing_time"":66026},{""page_index"":2,""viewing_time"":51858},{""page_index"":3,""viewing_time"":23805}]",205
,,,,,,,,,,43678,,,341376,,,instructions,"[{""page_index"":0,""viewing_time"":4920},{""page_index"":1,""viewing_time"":14934},{""page_index"":2,""viewing_time"":9910},{""page_index"":3,""viewing_time"":13913}]",205
,,,,,,,,,,123669,,,123670,,,instructions,"[{""page_index"":0,""viewing_time"":41614},{""page_index"":1,""viewing_time"":41647},{""page_index"":2,""viewing_time"":25432},{""page_index"":3,""viewing_time"":14975}]",206
,,,,,,,,,,54191,,,219332,,,instructions,"[{""page_index"":0,""viewing_time"":17183},{""page_index"":1,""viewing_time"":9448},{""page_index"":2,""viewing_time"":12872},{""page_index"":3,""viewing_time"":14687}]",206
,,,,,,,,,,18943,,,275420,,,instructions,"[{""page_index"":0,""viewing_time"":2158},{""page_index"":1,""viewing_time"":1520},{""page_index"":2,""viewing_time"":3056},{""page_index"":3,""viewing_time"":12208}]",206
,,,,,,,,,,134350,,,134354,,,instructions,"[{""page_index"":0,""viewing_time"":16780},{""page_index"":1,""viewing_time"":29559},{""page_index"":2,""viewing_time"":69107},{""page_index"":3,""viewing_time"":18902}]",207
,,,,,,,,,,45140,,,201047,,,instructions,"[{""page_index"":0,""viewing_time"":14131},{""page_index"":1,""viewing_time"":16117},{""page_index"":2,""viewing_time"":9305},{""page_index"":3,""viewing_time"":5585}]",207
,,,,,,,,,,516735,,,516735,,,instructions,"[{""page_index"":0,""viewing_time"":61917},{""page_index"":1,""viewing_time"":56234},{""page_index"":0,""viewing_time"":8497},{""page_index"":1,""viewing_time"":13146},{""page_index"":2,""viewing_time"":37162},{""page_index"":3,""viewing_time"":339779}]",208
,,,,,,,,,,29062,,,595656,,,instructions,"[{""page_index"":0,""viewing_time"":7926},{""page_index"":1,""viewing_time"":8040},{""page_index"":2,""viewing_time"":3717},{""page_index"":3,""viewing_time"":9379}]",208
,,,,,,,,,,5967,,,622770,,,instructions,"[{""page_index"":0,""viewing_time"":1334},{""page_index"":1,""viewing_time"":526},{""page_index"":2,""viewing_time"":2487},{""page_index"":3,""viewing_time"":1620}]",208
,,,,,,,,,,184957,,,823799,,,instructions,"[{""page_index"":0,""viewing_time"":131265},{""page_index"":1,""viewing_time"":12993},{""page_index"":2,""viewing_time"":34816},{""page_index"":3,""viewing_time"":5883}]",208
,,,,,,,,,,66777,,,66780,,,instructions,"[{""page_index"":0,""viewing_time"":18808},{""page_index"":1,""viewing_time"":30722},{""page_index"":2,""viewing_time"":17241}]",209
,,,,,,,,,,143930,,,143931,,,instructions,"[{""page_index"":0,""viewing_time"":4401},{""page_index"":1,""viewing_time"":135056},{""page_index"":2,""viewing_time"":4472}]",210
,,,,,,,,,,66697,,,229250,,,instructions,"[{""page_index"":0,""viewing_time"":46352},{""page_index"":1,""viewing_time"":8928},{""page_index"":2,""viewing_time"":11416}]",210
,,,,,,,,,,260514,,,260516,,,instructions,"[{""page_index"":0,""viewing_time"":117973},{""page_index"":1,""viewing_time"":18589},{""page_index"":0,""viewing_time"":14217},{""page_index"":1,""viewing_time"":33840},{""page_index"":2,""viewing_time"":49550},{""page_index"":3,""viewing_time"":26344}]",211
,,,,,,,,,,81974,,,81975,,,instructions,"[{""page_index"":0,""viewing_time"":19994},{""page_index"":1,""viewing_time"":25830},{""page_index"":2,""viewing_time"":23201},{""page_index"":3,""viewing_time"":12949}]",212
,,,,,,,,,,67721,,,67724,,,instructions,"[{""page_index"":0,""viewing_time"":16027},{""page_index"":1,""viewing_time"":10113},{""page_index"":2,""viewing_time"":8109},{""page_index"":1,""viewing_time"":21192},{""page_index"":2,""viewing_time"":12278}]",213
,,,,,,,,,,53525,,,53527,,,instructions,"[{""page_index"":0,""viewing_time"":24552},{""page_index"":1,""viewing_time"":17311},{""page_index"":2,""viewing_time"":8249},{""page_index"":3,""viewing_time"":3410}]",214
,,,,,,,,,,160566,,,254746,,,instructions,"[{""page_index"":0,""viewing_time"":35076},{""page_index"":1,""viewing_time"":73766},{""page_index"":2,""viewing_time"":23076},{""page_index"":3,""viewing_time"":28644}]",214
,,,,,,,,,,154276,,,154282,,,instructions,"[{""page_index"":0,""viewing_time"":26185},{""page_index"":1,""viewing_time"":1292},{""page_index"":0,""viewing_time"":6374},{""page_index"":1,""viewing_time"":4923},{""page_index"":0,""viewing_time"":29737},{""page_index"":1,""viewing_time"":6117},{""page_index"":0,""viewing_time"":17121},{""page_index"":1,""viewing_time"":35954},{""page_index"":2,""viewing_time"":26570}]",215
,,,,,,,,,,13906,,,198153,,,instructions,"[{""page_index"":0,""viewing_time"":3480},{""page_index"":1,""viewing_time"":4333},{""page_index"":2,""viewing_time"":6091}]",215
,,,,,,,,,,75679,,,75683,,,instructions,"[{""page_index"":0,""viewing_time"":27885},{""page_index"":1,""viewing_time"":19769},{""page_index"":2,""viewing_time"":10568},{""page_index"":3,""viewing_time"":17453}]",216
,,,,,,,,,,70645,,,180871,,,instructions,"[{""page_index"":0,""viewing_time"":10992},{""page_index"":1,""viewing_time"":13781},{""page_index"":2,""viewing_time"":32655},{""page_index"":3,""viewing_time"":13215}]",216
,,,,,,,,,,69372,,,276790,,,instructions,"[{""page_index"":0,""viewing_time"":10565},{""page_index"":1,""viewing_time"":11763},{""page_index"":2,""viewing_time"":39937},{""page_index"":3,""viewing_time"":7102}]",216
,,,,,,,,,,30854,,,30854,,,instructions,"[{""page_index"":0,""viewing_time"":14566},{""page_index"":1,""viewing_time"":10455},{""page_index"":2,""viewing_time"":3440},{""page_index"":3,""viewing_time"":2392}]",217
,,,,,,,,,,43648,,,107830,,,instructions,"[{""page_index"":0,""viewing_time"":6391},{""page_index"":1,""viewing_time"":12384},{""page_index"":2,""viewing_time"":12184},{""page_index"":3,""viewing_time"":12688}]",217
,,,,,,,,,,164528,,,164530,,,instructions,"[{""page_index"":0,""viewing_time"":41495},{""page_index"":1,""viewing_time"":90219},{""page_index"":2,""viewing_time"":32812}]",218
