action_times,actions,button_pressed,correct,delays,key_press,path,queries,questions,responses,rt,score,stimulus,time_elapsed,trial_index,trial_i,trial_type,view_history,pid
,,,,,,,,,,77793,,,77795,,,instructions,"[{""page_index"":0,""viewing_time"":40336},{""page_index"":1,""viewing_time"":11476},{""page_index"":2,""viewing_time"":25978}]",0
,,,,,,,,,,123929,,,123932,,,instructions,"[{""page_index"":0,""viewing_time"":34988},{""page_index"":1,""viewing_time"":40723},{""page_index"":2,""viewing_time"":31968},{""page_index"":3,""viewing_time"":16248}]",1
,,,,,,,,,,169772,,,169773,,,instructions,"[{""page_index"":0,""viewing_time"":50874},{""page_index"":1,""viewing_time"":40228},{""page_index"":2,""viewing_time"":55908},{""page_index"":3,""viewing_time"":22762}]",2
,,,,,,,,,,119943,,,119943,,,instructions,"[{""page_index"":0,""viewing_time"":38379},{""page_index"":1,""viewing_time"":16304},{""page_index"":2,""viewing_time"":58251},{""page_index"":3,""viewing_time"":7008}]",3
,,,,,,,,,,91167,,,246257,,,instructions,"[{""page_index"":0,""viewing_time"":22265},{""page_index"":1,""viewing_time"":10536},{""page_index"":2,""viewing_time"":7144},{""page_index"":1,""viewing_time"":1559},{""page_index"":0,""viewing_time"":12464},{""page_index"":1,""viewing_time"":10319},{""page_index"":2,""viewing_time"":11999},{""page_index"":3,""viewing_time"":14880}]",3
,,,,,,,,,,42316,,,315974,,,instructions,"[{""page_index"":0,""viewing_time"":13412},{""page_index"":1,""viewing_time"":18927},{""page_index"":2,""viewing_time"":6592},{""page_index"":3,""viewing_time"":3384}]",3
,,,,,,,,,,4418,,,345492,,,instructions,"[{""page_index"":0,""viewing_time"":1666},{""page_index"":1,""viewing_time"":744},{""page_index"":2,""viewing_time"":1288},{""page_index"":3,""viewing_time"":720}]",3
,,,,,,,,,,77336,,,445128,,,instructions,"[{""page_index"":0,""viewing_time"":41481},{""page_index"":1,""viewing_time"":14784},{""page_index"":2,""viewing_time"":12071},{""page_index"":3,""viewing_time"":9000}]",3
,,,,,,,,,,143677,,,143677,,,instructions,"[{""page_index"":0,""viewing_time"":39475},{""page_index"":1,""viewing_time"":32176},{""page_index"":2,""viewing_time"":51261},{""page_index"":3,""viewing_time"":20764}]",4
,,,,,,,,,,213503,,,213505,,,instructions,"[{""page_index"":0,""viewing_time"":66969},{""page_index"":1,""viewing_time"":33011},{""page_index"":2,""viewing_time"":66697},{""page_index"":3,""viewing_time"":46824}]",5
,,,,,,,,,,130239,,,130240,,,instructions,"[{""page_index"":0,""viewing_time"":2421},{""page_index"":1,""viewing_time"":30526},{""page_index"":2,""viewing_time"":22479},{""page_index"":1,""viewing_time"":2344},{""page_index"":0,""viewing_time"":39492},{""page_index"":1,""viewing_time"":29369},{""page_index"":2,""viewing_time"":3607}]",6
,,,,,,,,,,161112,,,161112,,,instructions,"[{""page_index"":0,""viewing_time"":32889},{""page_index"":1,""viewing_time"":47315},{""page_index"":2,""viewing_time"":68003},{""page_index"":3,""viewing_time"":12904}]",7
,,,,,,,,,,17096,,,206379,,,instructions,"[{""page_index"":0,""viewing_time"":2628},{""page_index"":1,""viewing_time"":2406},{""page_index"":2,""viewing_time"":11096},{""page_index"":3,""viewing_time"":966}]",7
,,,,,,,,,,191005,,,191007,,,instructions,"[{""page_index"":0,""viewing_time"":72246},{""page_index"":1,""viewing_time"":55464},{""page_index"":2,""viewing_time"":39107},{""page_index"":3,""viewing_time"":24188}]",8
,,,,,,,,,,70626,,,317951,,,instructions,"[{""page_index"":0,""viewing_time"":24131},{""page_index"":1,""viewing_time"":16358},{""page_index"":2,""viewing_time"":16144},{""page_index"":3,""viewing_time"":13993}]",8
,,,,,,,,,,130067,,,640198,,,instructions,"[{""page_index"":0,""viewing_time"":1761},{""page_index"":1,""viewing_time"":831},{""page_index"":2,""viewing_time"":2042},{""page_index"":1,""viewing_time"":9815},{""page_index"":0,""viewing_time"":23199},{""page_index"":1,""viewing_time"":11156},{""page_index"":0,""viewing_time"":8400},{""page_index"":1,""viewing_time"":16695},{""page_index"":2,""viewing_time"":55597},{""page_index"":3,""viewing_time"":570}]",8
,,,,,,,,,,94451,,,94453,,,instructions,"[{""page_index"":0,""viewing_time"":25302},{""page_index"":1,""viewing_time"":19413},{""page_index"":2,""viewing_time"":31694},{""page_index"":3,""viewing_time"":18040}]",9
,,,,,,,,,,13616,,,144875,,,instructions,"[{""page_index"":0,""viewing_time"":2258},{""page_index"":1,""viewing_time"":1220},{""page_index"":2,""viewing_time"":9354},{""page_index"":3,""viewing_time"":783}]",9
,,,,,,,,,,4202,,,166609,,,instructions,"[{""page_index"":0,""viewing_time"":1162},{""page_index"":1,""viewing_time"":553},{""page_index"":2,""viewing_time"":1034},{""page_index"":3,""viewing_time"":1452}]",9
,,,,,,,,,,56048,,,56048,,,instructions,"[{""page_index"":0,""viewing_time"":20265},{""page_index"":1,""viewing_time"":16967},{""page_index"":2,""viewing_time"":6184},{""page_index"":3,""viewing_time"":12631}]",10
,,,,,,,,,,218082,,,218087,,,instructions,"[{""page_index"":0,""viewing_time"":62859},{""page_index"":1,""viewing_time"":43839},{""page_index"":2,""viewing_time"":60695},{""page_index"":3,""viewing_time"":50683}]",11
,,,,,,,,,,76847,,,76848,,,instructions,"[{""page_index"":0,""viewing_time"":22997},{""page_index"":1,""viewing_time"":19031},{""page_index"":2,""viewing_time"":21805},{""page_index"":3,""viewing_time"":13013}]",12
,,,,,,,,,,6418,,,111395,,,instructions,"[{""page_index"":0,""viewing_time"":2202},{""page_index"":1,""viewing_time"":885},{""page_index"":2,""viewing_time"":1832},{""page_index"":3,""viewing_time"":1498}]",12
,,,,,,,,,,65551,,,65553,,,instructions,"[{""page_index"":0,""viewing_time"":23677},{""page_index"":1,""viewing_time"":20432},{""page_index"":2,""viewing_time"":21441}]",13
,,,,,,,,,,31029,,,121016,,,instructions,"[{""page_index"":0,""viewing_time"":7323},{""page_index"":1,""viewing_time"":18650},{""page_index"":2,""viewing_time"":5056}]",13
,,,,,,,,,,44919,,,44921,,,instructions,"[{""page_index"":0,""viewing_time"":16838},{""page_index"":1,""viewing_time"":6916},{""page_index"":2,""viewing_time"":16310},{""page_index"":3,""viewing_time"":4854}]",14
,,,,,,,,,,79102,,,79104,,,instructions,"[{""page_index"":0,""viewing_time"":13731},{""page_index"":1,""viewing_time"":5534},{""page_index"":2,""viewing_time"":2225},{""page_index"":3,""viewing_time"":13106},{""page_index"":2,""viewing_time"":8305},{""page_index"":1,""viewing_time"":14334},{""page_index"":0,""viewing_time"":18125},{""page_index"":1,""viewing_time"":734},{""page_index"":2,""viewing_time"":2548},{""page_index"":3,""viewing_time"":459}]",15
,,,,,,,,,,40789,,,143405,,,instructions,"[{""page_index"":0,""viewing_time"":14192},{""page_index"":1,""viewing_time"":14225},{""page_index"":2,""viewing_time"":8479},{""page_index"":3,""viewing_time"":3893}]",15
,,,,,,,,,,215864,,,215864,,,instructions,"[{""page_index"":0,""viewing_time"":95581},{""page_index"":1,""viewing_time"":45403},{""page_index"":2,""viewing_time"":40426},{""page_index"":3,""viewing_time"":34453}]",16
,,,,,,,,,,51709,,,51713,,,instructions,"[{""page_index"":0,""viewing_time"":19789},{""page_index"":1,""viewing_time"":18954},{""page_index"":2,""viewing_time"":12963}]",17
,,,,,,,,,,34700,,,110694,,,instructions,"[{""page_index"":0,""viewing_time"":26266},{""page_index"":1,""viewing_time"":5096},{""page_index"":2,""viewing_time"":3335}]",17
,,,,,,,,,,99058,,,99060,,,instructions,"[{""page_index"":0,""viewing_time"":77928},{""page_index"":1,""viewing_time"":14938},{""page_index"":2,""viewing_time"":6190}]",18
,,,,,,,,,,45089,,,191086,,,instructions,"[{""page_index"":0,""viewing_time"":4828},{""page_index"":1,""viewing_time"":12990},{""page_index"":2,""viewing_time"":11889},{""page_index"":1,""viewing_time"":14412},{""page_index"":2,""viewing_time"":969}]",18
,,,,,,,,,,93502,,,93504,,,instructions,"[{""page_index"":0,""viewing_time"":36261},{""page_index"":1,""viewing_time"":30653},{""page_index"":2,""viewing_time"":13477},{""page_index"":3,""viewing_time"":13109}]",19
,,,,,,,,,,10077,,,360860,,,instructions,"[{""page_index"":0,""viewing_time"":2341},{""page_index"":1,""viewing_time"":458},{""page_index"":0,""viewing_time"":2022},{""page_index"":1,""viewing_time"":440},{""page_index"":0,""viewing_time"":1679},{""page_index"":1,""viewing_time"":648},{""page_index"":2,""viewing_time"":1761},{""page_index"":3,""viewing_time"":727}]",19
,,,,,,,,,,190255,,,190258,,,instructions,"[{""page_index"":0,""viewing_time"":50184},{""page_index"":1,""viewing_time"":50782},{""page_index"":2,""viewing_time"":69798},{""page_index"":3,""viewing_time"":19489}]",20
,,,,,,,,,,89170,,,89171,,,instructions,"[{""page_index"":0,""viewing_time"":27216},{""page_index"":1,""viewing_time"":31440},{""page_index"":2,""viewing_time"":9864},{""page_index"":3,""viewing_time"":20649}]",21
,,,,,,,,,,88764,,,204794,,,instructions,"[{""page_index"":0,""viewing_time"":17316},{""page_index"":1,""viewing_time"":18376},{""page_index"":2,""viewing_time"":43464},{""page_index"":3,""viewing_time"":9608}]",21
,,,,,,,,,,12703,,,239041,,,instructions,"[{""page_index"":0,""viewing_time"":1799},{""page_index"":1,""viewing_time"":2320},{""page_index"":2,""viewing_time"":7448},{""page_index"":3,""viewing_time"":1136}]",21
,,,,,,,,,,5247,,,262121,,,instructions,"[{""page_index"":0,""viewing_time"":1711},{""page_index"":1,""viewing_time"":872},{""page_index"":2,""viewing_time"":1632},{""page_index"":3,""viewing_time"":1032}]",21
,,,,,,,,,,83271,,,83273,,,instructions,"[{""page_index"":0,""viewing_time"":22558},{""page_index"":1,""viewing_time"":30080},{""page_index"":2,""viewing_time"":14943},{""page_index"":3,""viewing_time"":15688}]",22
,,,,,,,,,,38938,,,38939,,,instructions,"[{""page_index"":0,""viewing_time"":15802},{""page_index"":1,""viewing_time"":12942},{""page_index"":2,""viewing_time"":10193}]",23
,,,,,,,,,,117920,,,117922,,,instructions,"[{""page_index"":0,""viewing_time"":39447},{""page_index"":1,""viewing_time"":31016},{""page_index"":2,""viewing_time"":29863},{""page_index"":3,""viewing_time"":17593}]",24
,,,,,,,,,,111890,,,111892,,,instructions,"[{""page_index"":0,""viewing_time"":42670},{""page_index"":1,""viewing_time"":41027},{""page_index"":2,""viewing_time"":28192}]",25
,,,,,,,,,,92284,,,92285,,,instructions,"[{""page_index"":0,""viewing_time"":28960},{""page_index"":1,""viewing_time"":28875},{""page_index"":2,""viewing_time"":16400},{""page_index"":3,""viewing_time"":18048}]",26
,,,,,,,,,,38888,,,38889,,,instructions,"[{""page_index"":0,""viewing_time"":21199},{""page_index"":1,""viewing_time"":8661},{""page_index"":2,""viewing_time"":4387},{""page_index"":3,""viewing_time"":4641}]",27
,,,,,,,,,,20622,,,81330,,,instructions,"[{""page_index"":0,""viewing_time"":1458},{""page_index"":1,""viewing_time"":2519},{""page_index"":2,""viewing_time"":9141},{""page_index"":3,""viewing_time"":7503}]",27
,,,,,,,,,,66427,,,66428,,,instructions,"[{""page_index"":0,""viewing_time"":30844},{""page_index"":1,""viewing_time"":1860},{""page_index"":2,""viewing_time"":26170},{""page_index"":3,""viewing_time"":7553}]",28
,,,,,,,,,,57367,,,151034,,,instructions,"[{""page_index"":0,""viewing_time"":25821},{""page_index"":1,""viewing_time"":13988},{""page_index"":2,""viewing_time"":2562},{""page_index"":3,""viewing_time"":14996}]",28
,,,,,,,,,,55974,,,224933,,,instructions,"[{""page_index"":0,""viewing_time"":6644},{""page_index"":1,""viewing_time"":18685},{""page_index"":2,""viewing_time"":15028},{""page_index"":3,""viewing_time"":15617}]",28
,,,,,,,,,,178130,,,178132,,,instructions,"[{""page_index"":0,""viewing_time"":52365},{""page_index"":1,""viewing_time"":46248},{""page_index"":2,""viewing_time"":47939},{""page_index"":3,""viewing_time"":31577}]",29
,,,,,,,,,,11747,,,242182,,,instructions,"[{""page_index"":0,""viewing_time"":7521},{""page_index"":1,""viewing_time"":923},{""page_index"":2,""viewing_time"":2721},{""page_index"":3,""viewing_time"":582}]",29
,,,,,,,,,,59522,,,342987,,,instructions,"[{""page_index"":0,""viewing_time"":8450},{""page_index"":1,""viewing_time"":13968},{""page_index"":2,""viewing_time"":11119},{""page_index"":3,""viewing_time"":25985}]",29
,,,,,,,,,,78549,,,78552,,,instructions,"[{""page_index"":0,""viewing_time"":21060},{""page_index"":1,""viewing_time"":4012},{""page_index"":0,""viewing_time"":10757},{""page_index"":1,""viewing_time"":3477},{""page_index"":2,""viewing_time"":24098},{""page_index"":3,""viewing_time"":15145}]",30
,,,,,,,,,,45248,,,162529,,,instructions,"[{""page_index"":0,""viewing_time"":13596},{""page_index"":1,""viewing_time"":14847},{""page_index"":2,""viewing_time"":10010},{""page_index"":3,""viewing_time"":6795}]",30
,,,,,,,,,,88929,,,88931,,,instructions,"[{""page_index"":0,""viewing_time"":16162},{""page_index"":1,""viewing_time"":28381},{""page_index"":2,""viewing_time"":30968},{""page_index"":3,""viewing_time"":13417}]",31
,,,,,,,,,,263405,,,263408,,,instructions,"[{""page_index"":0,""viewing_time"":133406},{""page_index"":1,""viewing_time"":105743},{""page_index"":2,""viewing_time"":24252}]",32
,,,,,,,,,,103144,,,103155,,,instructions,"[{""page_index"":0,""viewing_time"":36240},{""page_index"":1,""viewing_time"":42856},{""page_index"":2,""viewing_time"":24048}]",33
,,,,,,,,,,135354,,,135355,,,instructions,"[{""page_index"":0,""viewing_time"":28393},{""page_index"":1,""viewing_time"":32200},{""page_index"":2,""viewing_time"":56672},{""page_index"":3,""viewing_time"":18089}]",34
,,,,,,,,,,170457,,,170457,,,instructions,"[{""page_index"":0,""viewing_time"":104058},{""page_index"":1,""viewing_time"":9829},{""page_index"":2,""viewing_time"":56570}]",35
,,,,,,,,,,52639,,,278197,,,instructions,"[{""page_index"":0,""viewing_time"":12004},{""page_index"":1,""viewing_time"":33839},{""page_index"":2,""viewing_time"":6794}]",35
,,,,,,,,,,56419,,,56423,,,instructions,"[{""page_index"":0,""viewing_time"":30577},{""page_index"":1,""viewing_time"":9628},{""page_index"":2,""viewing_time"":7696},{""page_index"":3,""viewing_time"":8515}]",36
,,,,,,,,,,86866,,,172047,,,instructions,"[{""page_index"":0,""viewing_time"":20208},{""page_index"":1,""viewing_time"":26342},{""page_index"":2,""viewing_time"":22737},{""page_index"":3,""viewing_time"":17576}]",36
,,,,,,,,,,119164,,,119164,,,instructions,"[{""page_index"":0,""viewing_time"":44091},{""page_index"":1,""viewing_time"":51262},{""page_index"":2,""viewing_time"":23810}]",37
,,,,,,,,,,43473,,,43474,,,instructions,"[{""page_index"":0,""viewing_time"":19179},{""page_index"":1,""viewing_time"":19949},{""page_index"":2,""viewing_time"":4343}]",38
,,,,,,,,,,33915,,,102007,,,instructions,"[{""page_index"":0,""viewing_time"":18083},{""page_index"":1,""viewing_time"":9488},{""page_index"":2,""viewing_time"":6343}]",38
,,,,,,,,,,22324,,,144283,,,instructions,"[{""page_index"":0,""viewing_time"":8350},{""page_index"":1,""viewing_time"":9762},{""page_index"":2,""viewing_time"":4211}]",38
,,,,,,,,,,33114,,,196895,,,instructions,"[{""page_index"":0,""viewing_time"":7833},{""page_index"":1,""viewing_time"":14088},{""page_index"":2,""viewing_time"":11193}]",38
,,,,,,,,,,152681,,,152682,,,instructions,"[{""page_index"":0,""viewing_time"":108943},{""page_index"":1,""viewing_time"":22607},{""page_index"":2,""viewing_time"":21128}]",39
,,,,,,,,,,41456,,,238541,,,instructions,"[{""page_index"":0,""viewing_time"":15473},{""page_index"":1,""viewing_time"":23260},{""page_index"":2,""viewing_time"":2722}]",39
,,,,,,,,,,162912,,,162912,,,instructions,"[{""page_index"":0,""viewing_time"":73292},{""page_index"":1,""viewing_time"":24878},{""page_index"":2,""viewing_time"":38127},{""page_index"":3,""viewing_time"":26611}]",40
,,,,,,,,,,80059,,,284461,,,instructions,"[{""page_index"":0,""viewing_time"":44401},{""page_index"":1,""viewing_time"":1768},{""page_index"":0,""viewing_time"":5157},{""page_index"":1,""viewing_time"":6288},{""page_index"":2,""viewing_time"":16927},{""page_index"":3,""viewing_time"":5518}]",40
,,,,,,,,,,145998,,,146000,,,instructions,"[{""page_index"":0,""viewing_time"":43993},{""page_index"":1,""viewing_time"":2455},{""page_index"":0,""viewing_time"":6767},{""page_index"":1,""viewing_time"":1392},{""page_index"":2,""viewing_time"":66054},{""page_index"":3,""viewing_time"":25336}]",41
,,,,,,,,,,68647,,,68649,,,instructions,"[{""page_index"":0,""viewing_time"":20177},{""page_index"":1,""viewing_time"":24412},{""page_index"":2,""viewing_time"":13847},{""page_index"":3,""viewing_time"":10211}]",42
,,,,,,,,,,34412,,,126689,,,instructions,"[{""page_index"":0,""viewing_time"":4669},{""page_index"":1,""viewing_time"":3374},{""page_index"":2,""viewing_time"":1781},{""page_index"":3,""viewing_time"":11231},{""page_index"":2,""viewing_time"":7750},{""page_index"":1,""viewing_time"":3313},{""page_index"":2,""viewing_time"":1575},{""page_index"":3,""viewing_time"":719}]",42
,,,,,,,,,,233518,,,233522,,,instructions,"[{""page_index"":0,""viewing_time"":76855},{""page_index"":1,""viewing_time"":68670},{""page_index"":2,""viewing_time"":54217},{""page_index"":3,""viewing_time"":33773}]",43
,,,,,,,,,,195683,,,195684,,,instructions,"[{""page_index"":0,""viewing_time"":77651},{""page_index"":1,""viewing_time"":42308},{""page_index"":2,""viewing_time"":32849},{""page_index"":3,""viewing_time"":42874}]",44
,,,,,,,,,,77200,,,77204,,,instructions,"[{""page_index"":0,""viewing_time"":27894},{""page_index"":1,""viewing_time"":15919},{""page_index"":2,""viewing_time"":12590},{""page_index"":3,""viewing_time"":20795}]",45
,,,,,,,,,,166552,,,166555,,,instructions,"[{""page_index"":0,""viewing_time"":50405},{""page_index"":1,""viewing_time"":60190},{""page_index"":2,""viewing_time"":35382},{""page_index"":3,""viewing_time"":20573}]",46
,,,,,,,,,,96780,,,96782,,,instructions,"[{""page_index"":0,""viewing_time"":30542},{""page_index"":1,""viewing_time"":25182},{""page_index"":2,""viewing_time"":30071},{""page_index"":3,""viewing_time"":10984}]",47
,,,,,,,,,,178505,,,178506,,,instructions,"[{""page_index"":0,""viewing_time"":50784},{""page_index"":1,""viewing_time"":39420},{""page_index"":2,""viewing_time"":61908},{""page_index"":3,""viewing_time"":26392}]",48
,,,,,,,,,,47921,,,262080,,,instructions,"[{""page_index"":0,""viewing_time"":6100},{""page_index"":1,""viewing_time"":15090},{""page_index"":2,""viewing_time"":22005},{""page_index"":3,""viewing_time"":4725}]",48
,,,,,,,,,,92889,,,92890,,,instructions,"[{""page_index"":0,""viewing_time"":7357},{""page_index"":1,""viewing_time"":9642},{""page_index"":2,""viewing_time"":34462},{""page_index"":3,""viewing_time"":24863},{""page_index"":2,""viewing_time"":4080},{""page_index"":3,""viewing_time"":12484}]",49
,,,,,,,,,,113280,,,113282,,,instructions,"[{""page_index"":0,""viewing_time"":52942},{""page_index"":1,""viewing_time"":40803},{""page_index"":2,""viewing_time"":19535}]",50
,,,,,,,,,,93935,,,93936,,,instructions,"[{""page_index"":0,""viewing_time"":35507},{""page_index"":1,""viewing_time"":35808},{""page_index"":2,""viewing_time"":7883},{""page_index"":3,""viewing_time"":14737}]",51
,,,,,,,,,,128081,,,128081,,,instructions,"[{""page_index"":0,""viewing_time"":35025},{""page_index"":1,""viewing_time"":51375},{""page_index"":2,""viewing_time"":41680}]",52
,,,,,,,,,,101455,,,266392,,,instructions,"[{""page_index"":0,""viewing_time"":48575},{""page_index"":1,""viewing_time"":45703},{""page_index"":2,""viewing_time"":7176}]",52
,,,,,,,,,,43119,,,43121,,,instructions,"[{""page_index"":0,""viewing_time"":13345},{""page_index"":1,""viewing_time"":13387},{""page_index"":2,""viewing_time"":9464},{""page_index"":3,""viewing_time"":6921}]",53
,,,,,,,,,,87439,,,87441,,,instructions,"[{""page_index"":0,""viewing_time"":19302},{""page_index"":1,""viewing_time"":23976},{""page_index"":2,""viewing_time"":23513},{""page_index"":3,""viewing_time"":20647}]",54
,,,,,,,,,,164567,,,164568,,,instructions,"[{""page_index"":0,""viewing_time"":40901},{""page_index"":1,""viewing_time"":1642},{""page_index"":0,""viewing_time"":9254},{""page_index"":1,""viewing_time"":37599},{""page_index"":2,""viewing_time"":42760},{""page_index"":3,""viewing_time"":32411}]",55
,,,,,,,,,,53839,,,259792,,,instructions,"[{""page_index"":0,""viewing_time"":4014},{""page_index"":1,""viewing_time"":15375},{""page_index"":2,""viewing_time"":12576},{""page_index"":3,""viewing_time"":3756},{""page_index"":2,""viewing_time"":1532},{""page_index"":1,""viewing_time"":1376},{""page_index"":0,""viewing_time"":12389},{""page_index"":1,""viewing_time"":932},{""page_index"":2,""viewing_time"":1360},{""page_index"":3,""viewing_time"":528}]",55
,,,,,,,,,,131803,,,131805,,,instructions,"[{""page_index"":0,""viewing_time"":32876},{""page_index"":1,""viewing_time"":40757},{""page_index"":2,""viewing_time"":32774},{""page_index"":3,""viewing_time"":25395}]",56
,,,,,,,,,,49720,,,49720,,,instructions,"[{""page_index"":0,""viewing_time"":17827},{""page_index"":1,""viewing_time"":16620},{""page_index"":2,""viewing_time"":15272}]",57
,,,,,,,,,,45806,,,127644,,,instructions,"[{""page_index"":0,""viewing_time"":23605},{""page_index"":1,""viewing_time"":13528},{""page_index"":2,""viewing_time"":8673}]",57
,,,,,,,,,,17959,,,161058,,,instructions,"[{""page_index"":0,""viewing_time"":5515},{""page_index"":1,""viewing_time"":5552},{""page_index"":2,""viewing_time"":6892}]",57
,,,,,,,,,,95472,,,95475,,,instructions,"[{""page_index"":0,""viewing_time"":65385},{""page_index"":1,""viewing_time"":27993},{""page_index"":2,""viewing_time"":2089}]",58
,,,,,,,,,,44695,,,171136,,,instructions,"[{""page_index"":0,""viewing_time"":11306},{""page_index"":1,""viewing_time"":15532},{""page_index"":2,""viewing_time"":17856}]",58
,,,,,,,,,,219710,,,219710,,,instructions,"[{""page_index"":0,""viewing_time"":74562},{""page_index"":1,""viewing_time"":99347},{""page_index"":2,""viewing_time"":25081},{""page_index"":3,""viewing_time"":20719}]",59
,,,,,,,,,,358918,,,358920,,,instructions,"[{""page_index"":0,""viewing_time"":150586},{""page_index"":1,""viewing_time"":99100},{""page_index"":2,""viewing_time"":51549},{""page_index"":3,""viewing_time"":34486},{""page_index"":2,""viewing_time"":4388},{""page_index"":1,""viewing_time"":4973},{""page_index"":2,""viewing_time"":2182},{""page_index"":3,""viewing_time"":11652}]",60
,,,,,,,,,,101341,,,511357,,,instructions,"[{""page_index"":0,""viewing_time"":33108},{""page_index"":1,""viewing_time"":44760},{""page_index"":2,""viewing_time"":12278},{""page_index"":3,""viewing_time"":11194}]",60
,,,,,,,,,,80537,,,80537,,,instructions,"[{""page_index"":0,""viewing_time"":29749},{""page_index"":1,""viewing_time"":23538},{""page_index"":2,""viewing_time"":27249}]",61
,,,,,,,,,,47238,,,47240,,,instructions,"[{""page_index"":0,""viewing_time"":20123},{""page_index"":1,""viewing_time"":16602},{""page_index"":2,""viewing_time"":10513}]",62
,,,,,,,,,,36041,,,100754,,,instructions,"[{""page_index"":0,""viewing_time"":14435},{""page_index"":1,""viewing_time"":14611},{""page_index"":2,""viewing_time"":6995}]",62
,,,,,,,,,,211304,,,211306,,,instructions,"[{""page_index"":0,""viewing_time"":51036},{""page_index"":1,""viewing_time"":83163},{""page_index"":2,""viewing_time"":50651},{""page_index"":3,""viewing_time"":26452}]",63
,,,,,,,,,,101463,,,101463,,,instructions,"[{""page_index"":0,""viewing_time"":36337},{""page_index"":1,""viewing_time"":32118},{""page_index"":2,""viewing_time"":22422},{""page_index"":3,""viewing_time"":10585}]",64
,,,,,,,,,,87419,,,87419,,,instructions,"[{""page_index"":0,""viewing_time"":28936},{""page_index"":1,""viewing_time"":42466},{""page_index"":2,""viewing_time"":16017}]",65
,,,,,,,,,,29202,,,29203,,,instructions,"[{""page_index"":0,""viewing_time"":10161},{""page_index"":1,""viewing_time"":12317},{""page_index"":2,""viewing_time"":6723}]",66
,,,,,,,,,,16795,,,66243,,,instructions,"[{""page_index"":0,""viewing_time"":2142},{""page_index"":1,""viewing_time"":3789},{""page_index"":2,""viewing_time"":10863}]",66
,,,,,,,,,,28594,,,120199,,,instructions,"[{""page_index"":0,""viewing_time"":4038},{""page_index"":1,""viewing_time"":17576},{""page_index"":2,""viewing_time"":6979}]",66
,,,,,,,,,,89711,,,89715,,,instructions,"[{""page_index"":0,""viewing_time"":30138},{""page_index"":1,""viewing_time"":15952},{""page_index"":2,""viewing_time"":24042},{""page_index"":3,""viewing_time"":19573}]",67
,,,,,,,,,,116370,,,116372,,,instructions,"[{""page_index"":0,""viewing_time"":33862},{""page_index"":1,""viewing_time"":27178},{""page_index"":2,""viewing_time"":35649},{""page_index"":3,""viewing_time"":19680}]",68
,,,,,,,,,,76352,,,245062,,,instructions,"[{""page_index"":0,""viewing_time"":16577},{""page_index"":1,""viewing_time"":23984},{""page_index"":2,""viewing_time"":13679},{""page_index"":3,""viewing_time"":22110}]",68
,,,,,,,,,,12684,,,398634,,,instructions,"[{""page_index"":0,""viewing_time"":3204},{""page_index"":1,""viewing_time"":644},{""page_index"":2,""viewing_time"":3363},{""page_index"":3,""viewing_time"":5473}]",68
,,,,,,,,,,32662,,,443391,,,instructions,"[{""page_index"":0,""viewing_time"":10724},{""page_index"":1,""viewing_time"":2294},{""page_index"":2,""viewing_time"":18500},{""page_index"":3,""viewing_time"":1143}]",68
,,,,,,,,,,10998,,,475950,,,instructions,"[{""page_index"":0,""viewing_time"":5588},{""page_index"":1,""viewing_time"":1154},{""page_index"":2,""viewing_time"":3214},{""page_index"":3,""viewing_time"":1041}]",68
,,,,,,,,,,7939,,,507038,,,instructions,"[{""page_index"":0,""viewing_time"":3191},{""page_index"":1,""viewing_time"":1402},{""page_index"":2,""viewing_time"":1813},{""page_index"":3,""viewing_time"":1532}]",68
,,,,,,,,,,23057,,,606755,,,instructions,"[{""page_index"":0,""viewing_time"":18032},{""page_index"":1,""viewing_time"":632},{""page_index"":2,""viewing_time"":3612},{""page_index"":3,""viewing_time"":780}]",68
,,,,,,,,,,11934,,,11935,,,instructions,"[{""page_index"":0,""viewing_time"":4132},{""page_index"":1,""viewing_time"":905},{""page_index"":2,""viewing_time"":5222},{""page_index"":3,""viewing_time"":1675}]",69
,,,,,,,,,,111424,,,111424,,,instructions,"[{""page_index"":0,""viewing_time"":40030},{""page_index"":1,""viewing_time"":29127},{""page_index"":2,""viewing_time"":23929},{""page_index"":3,""viewing_time"":18337}]",70
,,,,,,,,,,82730,,,82731,,,instructions,"[{""page_index"":0,""viewing_time"":37569},{""page_index"":1,""viewing_time"":29103},{""page_index"":2,""viewing_time"":16058}]",71
,,,,,,,,,,13593,,,132487,,,instructions,"[{""page_index"":0,""viewing_time"":2878},{""page_index"":1,""viewing_time"":3403},{""page_index"":2,""viewing_time"":7312}]",71
,,,,,,,,,,176932,,,176932,,,instructions,"[{""page_index"":0,""viewing_time"":76365},{""page_index"":1,""viewing_time"":43479},{""page_index"":2,""viewing_time"":33647},{""page_index"":3,""viewing_time"":23441}]",72
,,,,,,,,,,37362,,,463776,,,instructions,"[{""page_index"":0,""viewing_time"":6719},{""page_index"":1,""viewing_time"":10444},{""page_index"":2,""viewing_time"":16616},{""page_index"":3,""viewing_time"":3583}]",72
,,,,,,,,,,187218,,,187219,,,instructions,"[{""page_index"":0,""viewing_time"":49898},{""page_index"":1,""viewing_time"":53624},{""page_index"":0,""viewing_time"":23265},{""page_index"":1,""viewing_time"":18382},{""page_index"":0,""viewing_time"":13052},{""page_index"":1,""viewing_time"":8900},{""page_index"":0,""viewing_time"":7308},{""page_index"":1,""viewing_time"":3892},{""page_index"":2,""viewing_time"":5280},{""page_index"":1,""viewing_time"":832},{""page_index"":0,""viewing_time"":1504},{""page_index"":1,""viewing_time"":512},{""page_index"":2,""viewing_time"":768}]",73
,,,,,,,,,,34917,,,256317,,,instructions,"[{""page_index"":0,""viewing_time"":12647},{""page_index"":1,""viewing_time"":8820},{""page_index"":2,""viewing_time"":13450}]",73
,,,,,,,,,,7351,,,291040,,,instructions,"[{""page_index"":0,""viewing_time"":1499},{""page_index"":1,""viewing_time"":1136},{""page_index"":2,""viewing_time"":4716}]",73
,,,,,,,,,,70791,,,70791,,,instructions,"[{""page_index"":0,""viewing_time"":27118},{""page_index"":1,""viewing_time"":17152},{""page_index"":2,""viewing_time"":26520}]",74
,,,,,,,,,,3699,,,165150,,,instructions,"[{""page_index"":0,""viewing_time"":2377},{""page_index"":1,""viewing_time"":828},{""page_index"":2,""viewing_time"":494}]",74
,,,,,,,,,,4052,,,184724,,,instructions,"[{""page_index"":0,""viewing_time"":2458},{""page_index"":1,""viewing_time"":767},{""page_index"":2,""viewing_time"":827}]",74
,,,,,,,,,,3195,,,200780,,,instructions,"[{""page_index"":0,""viewing_time"":1873},{""page_index"":1,""viewing_time"":706},{""page_index"":2,""viewing_time"":615}]",74
,,,,,,,,,,108526,,,108527,,,instructions,"[{""page_index"":0,""viewing_time"":48260},{""page_index"":1,""viewing_time"":30529},{""page_index"":2,""viewing_time"":14169},{""page_index"":3,""viewing_time"":15568}]",75
,,,,,,,,,,92418,,,92420,,,instructions,"[{""page_index"":0,""viewing_time"":5560},{""page_index"":1,""viewing_time"":58032},{""page_index"":2,""viewing_time"":28824}]",76
,,,,,,,,,,118575,,,118575,,,instructions,"[{""page_index"":0,""viewing_time"":43723},{""page_index"":1,""viewing_time"":33838},{""page_index"":2,""viewing_time"":22385},{""page_index"":3,""viewing_time"":18628}]",77
,,,,,,,,,,144699,,,144700,,,instructions,"[{""page_index"":0,""viewing_time"":53869},{""page_index"":1,""viewing_time"":38335},{""page_index"":2,""viewing_time"":34345},{""page_index"":3,""viewing_time"":18150}]",78
,,,,,,,,,,74452,,,74454,,,instructions,"[{""page_index"":0,""viewing_time"":32844},{""page_index"":1,""viewing_time"":22196},{""page_index"":2,""viewing_time"":11790},{""page_index"":3,""viewing_time"":7621}]",79
,,,,,,,,,,27287,,,132840,,,instructions,"[{""page_index"":0,""viewing_time"":5589},{""page_index"":1,""viewing_time"":2412},{""page_index"":2,""viewing_time"":14854},{""page_index"":3,""viewing_time"":4432}]",79
,,,,,,,,,,49183,,,49184,,,instructions,"[{""page_index"":0,""viewing_time"":10874},{""page_index"":1,""viewing_time"":14062},{""page_index"":2,""viewing_time"":12571},{""page_index"":3,""viewing_time"":11676}]",80
,,,,,,,,,,56568,,,56570,,,instructions,"[{""page_index"":0,""viewing_time"":23925},{""page_index"":1,""viewing_time"":17267},{""page_index"":2,""viewing_time"":15374}]",81
,,,,,,,,,,16884,,,97723,,,instructions,"[{""page_index"":0,""viewing_time"":7631},{""page_index"":1,""viewing_time"":7168},{""page_index"":2,""viewing_time"":2083}]",81
,,,,,,,,,,85961,,,85963,,,instructions,"[{""page_index"":0,""viewing_time"":19762},{""page_index"":1,""viewing_time"":4290},{""page_index"":2,""viewing_time"":14328},{""page_index"":3,""viewing_time"":9389},{""page_index"":2,""viewing_time"":11568},{""page_index"":1,""viewing_time"":12883},{""page_index"":2,""viewing_time"":7768},{""page_index"":3,""viewing_time"":5970}]",82
,,,,,,,,,,102062,,,102064,,,instructions,"[{""page_index"":0,""viewing_time"":42496},{""page_index"":1,""viewing_time"":34588},{""page_index"":2,""viewing_time"":24975}]",83
,,,,,,,,,,87718,,,216282,,,instructions,"[{""page_index"":0,""viewing_time"":29072},{""page_index"":1,""viewing_time"":42093},{""page_index"":2,""viewing_time"":16551}]",83
,,,,,,,,,,140342,,,140345,,,instructions,"[{""page_index"":0,""viewing_time"":95974},{""page_index"":1,""viewing_time"":21159},{""page_index"":2,""viewing_time"":13169},{""page_index"":3,""viewing_time"":10039}]",84
,,,,,,,,,,159773,,,159773,,,instructions,"[{""page_index"":0,""viewing_time"":69524},{""page_index"":1,""viewing_time"":38068},{""page_index"":2,""viewing_time"":27125},{""page_index"":3,""viewing_time"":25055}]",85
,,,,,,,,,,44443,,,243254,,,instructions,"[{""page_index"":0,""viewing_time"":7089},{""page_index"":1,""viewing_time"":13124},{""page_index"":2,""viewing_time"":16996},{""page_index"":3,""viewing_time"":7234}]",85
,,,,,,,,,,5616,,,275954,,,instructions,"[{""page_index"":0,""viewing_time"":2155},{""page_index"":1,""viewing_time"":1238},{""page_index"":2,""viewing_time"":1300},{""page_index"":3,""viewing_time"":922}]",85
,,,,,,,,,,102301,,,102303,,,instructions,"[{""page_index"":0,""viewing_time"":32030},{""page_index"":1,""viewing_time"":35455},{""page_index"":2,""viewing_time"":22464},{""page_index"":3,""viewing_time"":12351}]",86
,,,,,,,,,,77582,,,77584,,,instructions,"[{""page_index"":0,""viewing_time"":26537},{""page_index"":1,""viewing_time"":19573},{""page_index"":2,""viewing_time"":14046},{""page_index"":3,""viewing_time"":17425}]",87
,,,,,,,,,,92304,,,203242,,,instructions,"[{""page_index"":0,""viewing_time"":8319},{""page_index"":1,""viewing_time"":21345},{""page_index"":2,""viewing_time"":43494},{""page_index"":3,""viewing_time"":19145}]",87
,,,,,,,,,,5293,,,354555,,,instructions,"[{""page_index"":0,""viewing_time"":1944},{""page_index"":1,""viewing_time"":768},{""page_index"":2,""viewing_time"":1772},{""page_index"":3,""viewing_time"":808}]",87
,,,,,,,,,,92607,,,92608,,,instructions,"[{""page_index"":0,""viewing_time"":30100},{""page_index"":1,""viewing_time"":23387},{""page_index"":2,""viewing_time"":20049},{""page_index"":3,""viewing_time"":19071}]",88
,,,,,,,,,,146759,,,146760,,,instructions,"[{""page_index"":0,""viewing_time"":56694},{""page_index"":1,""viewing_time"":50480},{""page_index"":2,""viewing_time"":39584}]",89
,,,,,,,,,,109595,,,109596,,,instructions,"[{""page_index"":0,""viewing_time"":30747},{""page_index"":1,""viewing_time"":32088},{""page_index"":2,""viewing_time"":31936},{""page_index"":3,""viewing_time"":14824}]",90
,,,,,,,,,,110934,,,110942,,,instructions,"[{""page_index"":0,""viewing_time"":37943},{""page_index"":1,""viewing_time"":53304},{""page_index"":2,""viewing_time"":19684}]",91
,,,,,,,,,,88432,,,88436,,,instructions,"[{""page_index"":0,""viewing_time"":29732},{""page_index"":1,""viewing_time"":20716},{""page_index"":2,""viewing_time"":20388},{""page_index"":3,""viewing_time"":17594}]",92
,,,,,,,,,,36756,,,143743,,,instructions,"[{""page_index"":0,""viewing_time"":9776},{""page_index"":1,""viewing_time"":10325},{""page_index"":2,""viewing_time"":12194},{""page_index"":3,""viewing_time"":4460}]",92
,,,,,,,,,,73025,,,73026,,,instructions,"[{""page_index"":0,""viewing_time"":23405},{""page_index"":1,""viewing_time"":33914},{""page_index"":2,""viewing_time"":15705}]",93
,,,,,,,,,,67635,,,67638,,,instructions,"[{""page_index"":0,""viewing_time"":32699},{""page_index"":1,""viewing_time"":15061},{""page_index"":2,""viewing_time"":19873}]",94
,,,,,,,,,,66524,,,66524,,,instructions,"[{""page_index"":0,""viewing_time"":27059},{""page_index"":1,""viewing_time"":20318},{""page_index"":2,""viewing_time"":19143}]",95
,,,,,,,,,,74120,,,74122,,,instructions,"[{""page_index"":0,""viewing_time"":27904},{""page_index"":1,""viewing_time"":16796},{""page_index"":2,""viewing_time"":15427},{""page_index"":3,""viewing_time"":13992}]",96
,,,,,,,,,,30095,,,133342,,,instructions,"[{""page_index"":0,""viewing_time"":3947},{""page_index"":1,""viewing_time"":2943},{""page_index"":2,""viewing_time"":10327},{""page_index"":3,""viewing_time"":12877}]",96
,,,,,,,,,,23126,,,179735,,,instructions,"[{""page_index"":0,""viewing_time"":3923},{""page_index"":1,""viewing_time"":4294},{""page_index"":2,""viewing_time"":8713},{""page_index"":3,""viewing_time"":6196}]",96
,,,,,,,,,,19778,,,222932,,,instructions,"[{""page_index"":0,""viewing_time"":7545},{""page_index"":1,""viewing_time"":4671},{""page_index"":2,""viewing_time"":5193},{""page_index"":3,""viewing_time"":2368}]",96
,,,,,,,,,,9309,,,249457,,,instructions,"[{""page_index"":0,""viewing_time"":3433},{""page_index"":1,""viewing_time"":1174},{""page_index"":2,""viewing_time"":3624},{""page_index"":3,""viewing_time"":1078}]",96
,,,,,,,,,,115818,,,115820,,,instructions,"[{""page_index"":0,""viewing_time"":43148},{""page_index"":1,""viewing_time"":38950},{""page_index"":2,""viewing_time"":33718}]",97
,,,,,,,,,,62818,,,62819,,,instructions,"[{""page_index"":0,""viewing_time"":10863},{""page_index"":1,""viewing_time"":1419},{""page_index"":0,""viewing_time"":846},{""page_index"":1,""viewing_time"":7541},{""page_index"":2,""viewing_time"":6473},{""page_index"":3,""viewing_time"":9808},{""page_index"":2,""viewing_time"":691},{""page_index"":1,""viewing_time"":8197},{""page_index"":2,""viewing_time"":11160},{""page_index"":3,""viewing_time"":5819}]",98
,,,,,,,,,,39623,,,190598,,,instructions,"[{""page_index"":0,""viewing_time"":15540},{""page_index"":1,""viewing_time"":10150},{""page_index"":2,""viewing_time"":13259},{""page_index"":3,""viewing_time"":673}]",98
,,,,,,,,,,343115,,,343116,,,instructions,"[{""page_index"":0,""viewing_time"":143898},{""page_index"":1,""viewing_time"":103050},{""page_index"":2,""viewing_time"":51935},{""page_index"":3,""viewing_time"":44232}]",99
,,,,,,,,,,68800,,,505415,,,instructions,"[{""page_index"":0,""viewing_time"":22702},{""page_index"":1,""viewing_time"":11086},{""page_index"":2,""viewing_time"":32753},{""page_index"":3,""viewing_time"":2259}]",99
,,,,,,,,,,145594,,,690455,,,instructions,"[{""page_index"":0,""viewing_time"":52068},{""page_index"":1,""viewing_time"":30047},{""page_index"":2,""viewing_time"":39510},{""page_index"":3,""viewing_time"":23968}]",99
,,,,,,,,,,165922,,,165924,,,instructions,"[{""page_index"":0,""viewing_time"":38589},{""page_index"":1,""viewing_time"":74619},{""page_index"":2,""viewing_time"":32746},{""page_index"":3,""viewing_time"":19964}]",100
,,,,,,,,,,1103357,,,1103358,,,instructions,"[{""page_index"":0,""viewing_time"":952266},{""page_index"":1,""viewing_time"":75342},{""page_index"":2,""viewing_time"":29409},{""page_index"":3,""viewing_time"":46338}]",101
,,,,,,,,,,25718,,,25721,,,instructions,"[{""page_index"":0,""viewing_time"":8431},{""page_index"":1,""viewing_time"":11572},{""page_index"":2,""viewing_time"":2605},{""page_index"":3,""viewing_time"":3107}]",102
,,,,,,,,,,80036,,,125967,,,instructions,"[{""page_index"":0,""viewing_time"":14769},{""page_index"":1,""viewing_time"":32221},{""page_index"":2,""viewing_time"":26504},{""page_index"":3,""viewing_time"":6541}]",102
,,,,,,,,,,261017,,,261018,,,instructions,"[{""page_index"":0,""viewing_time"":98363},{""page_index"":1,""viewing_time"":113209},{""page_index"":2,""viewing_time"":49445}]",103
,,,,,,,,,,154004,,,154005,,,instructions,"[{""page_index"":0,""viewing_time"":29332},{""page_index"":1,""viewing_time"":49192},{""page_index"":2,""viewing_time"":57043},{""page_index"":3,""viewing_time"":18437}]",104
,,,,,,,,,,40022,,,231347,,,instructions,"[{""page_index"":0,""viewing_time"":13934},{""page_index"":1,""viewing_time"":3780},{""page_index"":2,""viewing_time"":17072},{""page_index"":3,""viewing_time"":5236}]",104
,,,,,,,,,,490008,,,490010,,,instructions,"[{""page_index"":0,""viewing_time"":298602},{""page_index"":1,""viewing_time"":33712},{""page_index"":2,""viewing_time"":17712},{""page_index"":3,""viewing_time"":7311},{""page_index"":2,""viewing_time"":690},{""page_index"":1,""viewing_time"":790},{""page_index"":0,""viewing_time"":115066},{""page_index"":1,""viewing_time"":4932},{""page_index"":2,""viewing_time"":6331},{""page_index"":3,""viewing_time"":4860}]",105
,,,,,,,,,,5182,,,640212,,,instructions,"[{""page_index"":0,""viewing_time"":2062},{""page_index"":1,""viewing_time"":704},{""page_index"":2,""viewing_time"":1711},{""page_index"":3,""viewing_time"":705}]",105
,,,,,,,,,,5099,,,661635,,,instructions,"[{""page_index"":0,""viewing_time"":1938},{""page_index"":1,""viewing_time"":937},{""page_index"":2,""viewing_time"":1567},{""page_index"":3,""viewing_time"":657}]",105
,,,,,,,,,,4884,,,678003,,,instructions,"[{""page_index"":0,""viewing_time"":2212},{""page_index"":1,""viewing_time"":767},{""page_index"":2,""viewing_time"":1393},{""page_index"":3,""viewing_time"":512}]",105
,,,,,,,,,,67678,,,67678,,,instructions,"[{""page_index"":0,""viewing_time"":25564},{""page_index"":1,""viewing_time"":22999},{""page_index"":2,""viewing_time"":19113}]",106
,,,,,,,,,,160541,,,160542,,,instructions,"[{""page_index"":0,""viewing_time"":55322},{""page_index"":1,""viewing_time"":53752},{""page_index"":2,""viewing_time"":13606},{""page_index"":3,""viewing_time"":37851}]",107
,,,,,,,,,,72778,,,72781,,,instructions,"[{""page_index"":0,""viewing_time"":42245},{""page_index"":1,""viewing_time"":14176},{""page_index"":2,""viewing_time"":6635},{""page_index"":3,""viewing_time"":9721}]",108
,,,,,,,,,,119417,,,119418,,,instructions,"[{""page_index"":0,""viewing_time"":46207},{""page_index"":1,""viewing_time"":9153},{""page_index"":2,""viewing_time"":30207},{""page_index"":3,""viewing_time"":33850}]",109
,,,,,,,,,,38060,,,201792,,,instructions,"[{""page_index"":0,""viewing_time"":13106},{""page_index"":1,""viewing_time"":12747},{""page_index"":2,""viewing_time"":7391},{""page_index"":3,""viewing_time"":4816}]",109
,,,,,,,,,,84748,,,342533,,,instructions,"[{""page_index"":0,""viewing_time"":31928},{""page_index"":1,""viewing_time"":24446},{""page_index"":2,""viewing_time"":18091},{""page_index"":3,""viewing_time"":10283}]",109
,,,,,,,,,,39907,,,414054,,,instructions,"[{""page_index"":0,""viewing_time"":24615},{""page_index"":1,""viewing_time"":3746},{""page_index"":2,""viewing_time"":5120},{""page_index"":3,""viewing_time"":6426}]",109
,,,,,,,,,,207388,,,207391,,,instructions,"[{""page_index"":0,""viewing_time"":86957},{""page_index"":1,""viewing_time"":3722},{""page_index"":2,""viewing_time"":62374},{""page_index"":3,""viewing_time"":54331}]",110
,,,,,,,,,,211112,,,477424,,,instructions,"[{""page_index"":0,""viewing_time"":59737},{""page_index"":1,""viewing_time"":70271},{""page_index"":2,""viewing_time"":17140},{""page_index"":3,""viewing_time"":63962}]",110
,,,,,,,,,,56348,,,56348,,,instructions,"[{""page_index"":0,""viewing_time"":24066},{""page_index"":1,""viewing_time"":21551},{""page_index"":2,""viewing_time"":10730}]",111
,,,,,,,,,,20103,,,93156,,,instructions,"[{""page_index"":0,""viewing_time"":7814},{""page_index"":1,""viewing_time"":7480},{""page_index"":2,""viewing_time"":4808}]",111
,,,,,,,,,,316307,,,316309,,,instructions,"[{""page_index"":0,""viewing_time"":81092},{""page_index"":1,""viewing_time"":60526},{""page_index"":2,""viewing_time"":117099},{""page_index"":3,""viewing_time"":57588}]",112
,,,,,,,,,,180136,,,180148,,,instructions,"[{""page_index"":0,""viewing_time"":74065},{""page_index"":1,""viewing_time"":39553},{""page_index"":2,""viewing_time"":48222},{""page_index"":3,""viewing_time"":18290}]",113
,,,,,,,,,,133805,,,133809,,,instructions,"[{""page_index"":0,""viewing_time"":52772},{""page_index"":1,""viewing_time"":38418},{""page_index"":0,""viewing_time"":11784},{""page_index"":1,""viewing_time"":2476},{""page_index"":2,""viewing_time"":28351}]",114
,,,,,,,,,,46503,,,216485,,,instructions,"[{""page_index"":0,""viewing_time"":14341},{""page_index"":1,""viewing_time"":23594},{""page_index"":2,""viewing_time"":8566}]",114
,,,,,,,,,,169102,,,169103,,,instructions,"[{""page_index"":0,""viewing_time"":62650},{""page_index"":1,""viewing_time"":36087},{""page_index"":2,""viewing_time"":45036},{""page_index"":3,""viewing_time"":25328}]",115
,,,,,,,,,,46858,,,251016,,,instructions,"[{""page_index"":0,""viewing_time"":24985},{""page_index"":1,""viewing_time"":8350},{""page_index"":2,""viewing_time"":6621},{""page_index"":3,""viewing_time"":6901}]",115
,,,,,,,,,,156576,,,156577,,,instructions,"[{""page_index"":0,""viewing_time"":52995},{""page_index"":1,""viewing_time"":80301},{""page_index"":2,""viewing_time"":23278}]",116
,,,,,,,,,,208816,,,208816,,,instructions,"[{""page_index"":0,""viewing_time"":7391},{""page_index"":1,""viewing_time"":11816},{""page_index"":2,""viewing_time"":22982},{""page_index"":3,""viewing_time"":37186},{""page_index"":2,""viewing_time"":2094},{""page_index"":1,""viewing_time"":5354},{""page_index"":0,""viewing_time"":43398},{""page_index"":1,""viewing_time"":31800},{""page_index"":2,""viewing_time"":41448},{""page_index"":3,""viewing_time"":5345}]",117
,,,,,,,,,,647248,,,647249,,,instructions,"[{""page_index"":0,""viewing_time"":517190},{""page_index"":1,""viewing_time"":72532},{""page_index"":2,""viewing_time"":57524}]",118
,,,,,,,,,,20536,,,20537,,,instructions,"[{""page_index"":0,""viewing_time"":15601},{""page_index"":1,""viewing_time"":4268},{""page_index"":2,""viewing_time"":666}]",119
,,,,,,,,,,179717,,,179719,,,instructions,"[{""page_index"":0,""viewing_time"":60890},{""page_index"":1,""viewing_time"":38468},{""page_index"":2,""viewing_time"":27704},{""page_index"":3,""viewing_time"":52652}]",120
,,,,,,,,,,230253,,,230255,,,instructions,"[{""page_index"":0,""viewing_time"":83158},{""page_index"":1,""viewing_time"":69745},{""page_index"":0,""viewing_time"":14690},{""page_index"":1,""viewing_time"":30464},{""page_index"":2,""viewing_time"":32195}]",121
,,,,,,,,,,122075,,,392613,,,instructions,"[{""page_index"":0,""viewing_time"":75111},{""page_index"":1,""viewing_time"":32303},{""page_index"":2,""viewing_time"":14660}]",121
,,,,,,,,,,320444,,,320444,,,instructions,"[{""page_index"":0,""viewing_time"":298721},{""page_index"":1,""viewing_time"":11397},{""page_index"":2,""viewing_time"":3464},{""page_index"":3,""viewing_time"":6861}]",122
,,,,,,,,,,172680,,,172682,,,instructions,"[{""page_index"":0,""viewing_time"":66827},{""page_index"":1,""viewing_time"":87021},{""page_index"":2,""viewing_time"":18831}]",123
,,,,,,,,,,81192,,,81194,,,instructions,"[{""page_index"":0,""viewing_time"":37343},{""page_index"":1,""viewing_time"":18065},{""page_index"":2,""viewing_time"":21734},{""page_index"":3,""viewing_time"":4048}]",124
,,,,,,,,,,57902,,,162673,,,instructions,"[{""page_index"":0,""viewing_time"":10300},{""page_index"":1,""viewing_time"":13032},{""page_index"":2,""viewing_time"":19992},{""page_index"":3,""viewing_time"":14576}]",124
,,,,,,,,,,233726,,,414184,,,instructions,"[{""page_index"":0,""viewing_time"":6845},{""page_index"":1,""viewing_time"":220281},{""page_index"":2,""viewing_time"":4079},{""page_index"":3,""viewing_time"":2520}]",124
,,,,,,,,,,73279,,,73280,,,instructions,"[{""page_index"":0,""viewing_time"":31319},{""page_index"":1,""viewing_time"":22408},{""page_index"":2,""viewing_time"":14856},{""page_index"":1,""viewing_time"":1015},{""page_index"":0,""viewing_time"":2448},{""page_index"":1,""viewing_time"":713},{""page_index"":2,""viewing_time"":519}]",125
,,,,,,,,,,148763,,,148764,,,instructions,"[{""page_index"":0,""viewing_time"":49103},{""page_index"":1,""viewing_time"":45841},{""page_index"":2,""viewing_time"":34019},{""page_index"":3,""viewing_time"":19797}]",126
,,,,,,,,,,69019,,,69021,,,instructions,"[{""page_index"":0,""viewing_time"":28627},{""page_index"":1,""viewing_time"":26322},{""page_index"":2,""viewing_time"":14066}]",127
,,,,,,,,,,28188,,,130641,,,instructions,"[{""page_index"":0,""viewing_time"":10654},{""page_index"":1,""viewing_time"":10556},{""page_index"":2,""viewing_time"":6976}]",127
,,,,,,,,,,70402,,,70402,,,instructions,"[{""page_index"":0,""viewing_time"":25726},{""page_index"":1,""viewing_time"":23764},{""page_index"":2,""viewing_time"":20911}]",128
,,,,,,,,,,21881,,,110556,,,instructions,"[{""page_index"":0,""viewing_time"":5807},{""page_index"":1,""viewing_time"":11160},{""page_index"":2,""viewing_time"":4914}]",128
,,,,,,,,,,138133,,,138133,,,instructions,"[{""page_index"":0,""viewing_time"":76078},{""page_index"":1,""viewing_time"":39527},{""page_index"":2,""viewing_time"":22527}]",129
,,,,,,,,,,65278,,,230629,,,instructions,"[{""page_index"":0,""viewing_time"":14882},{""page_index"":1,""viewing_time"":36324},{""page_index"":2,""viewing_time"":14071}]",129
,,,,,,,,,,170943,,,170944,,,instructions,"[{""page_index"":0,""viewing_time"":53008},{""page_index"":1,""viewing_time"":60254},{""page_index"":2,""viewing_time"":57681}]",130
,,,,,,,,,,46236,,,46237,,,instructions,"[{""page_index"":0,""viewing_time"":13546},{""page_index"":1,""viewing_time"":25199},{""page_index"":2,""viewing_time"":7490}]",131
,,,,,,,,,,41007,,,106911,,,instructions,"[{""page_index"":0,""viewing_time"":25601},{""page_index"":1,""viewing_time"":10714},{""page_index"":2,""viewing_time"":4692}]",131
,,,,,,,,,,165525,,,165526,,,instructions,"[{""page_index"":0,""viewing_time"":56210},{""page_index"":1,""viewing_time"":33121},{""page_index"":2,""viewing_time"":46629},{""page_index"":3,""viewing_time"":29560}]",132
,,,,,,,,,,51193,,,261498,,,instructions,"[{""page_index"":0,""viewing_time"":23298},{""page_index"":1,""viewing_time"":13218},{""page_index"":2,""viewing_time"":7940},{""page_index"":3,""viewing_time"":6736}]",132
,,,,,,,,,,75730,,,75730,,,instructions,"[{""page_index"":0,""viewing_time"":16489},{""page_index"":1,""viewing_time"":36634},{""page_index"":2,""viewing_time"":22606}]",133
,,,,,,,,,,354210,,,354212,,,instructions,"[{""page_index"":0,""viewing_time"":228098},{""page_index"":1,""viewing_time"":17360},{""page_index"":2,""viewing_time"":50308},{""page_index"":3,""viewing_time"":18923},{""page_index"":2,""viewing_time"":2944},{""page_index"":1,""viewing_time"":6831},{""page_index"":0,""viewing_time"":20949},{""page_index"":1,""viewing_time"":1258},{""page_index"":2,""viewing_time"":2632},{""page_index"":3,""viewing_time"":4906}]",134
,,,,,,,,,,63907,,,495638,,,instructions,"[{""page_index"":0,""viewing_time"":15103},{""page_index"":1,""viewing_time"":17508},{""page_index"":2,""viewing_time"":28162},{""page_index"":3,""viewing_time"":3133}]",134
,,,,,,,,,,252698,,,252700,,,instructions,"[{""page_index"":0,""viewing_time"":111006},{""page_index"":1,""viewing_time"":66026},{""page_index"":2,""viewing_time"":51858},{""page_index"":3,""viewing_time"":23805}]",135
,,,,,,,,,,43678,,,341376,,,instructions,"[{""page_index"":0,""viewing_time"":4920},{""page_index"":1,""viewing_time"":14934},{""page_index"":2,""viewing_time"":9910},{""page_index"":3,""viewing_time"":13913}]",135
,,,,,,,,,,516735,,,516735,,,instructions,"[{""page_index"":0,""viewing_time"":61917},{""page_index"":1,""viewing_time"":56234},{""page_index"":0,""viewing_time"":8497},{""page_index"":1,""viewing_time"":13146},{""page_index"":2,""viewing_time"":37162},{""page_index"":3,""viewing_time"":339779}]",136
,,,,,,,,,,29062,,,595656,,,instructions,"[{""page_index"":0,""viewing_time"":7926},{""page_index"":1,""viewing_time"":8040},{""page_index"":2,""viewing_time"":3717},{""page_index"":3,""viewing_time"":9379}]",136
,,,,,,,,,,5967,,,622770,,,instructions,"[{""page_index"":0,""viewing_time"":1334},{""page_index"":1,""viewing_time"":526},{""page_index"":2,""viewing_time"":2487},{""page_index"":3,""viewing_time"":1620}]",136
,,,,,,,,,,184957,,,823799,,,instructions,"[{""page_index"":0,""viewing_time"":131265},{""page_index"":1,""viewing_time"":12993},{""page_index"":2,""viewing_time"":34816},{""page_index"":3,""viewing_time"":5883}]",136
,,,,,,,,,,66777,,,66780,,,instructions,"[{""page_index"":0,""viewing_time"":18808},{""page_index"":1,""viewing_time"":30722},{""page_index"":2,""viewing_time"":17241}]",137
,,,,,,,,,,81974,,,81975,,,instructions,"[{""page_index"":0,""viewing_time"":19994},{""page_index"":1,""viewing_time"":25830},{""page_index"":2,""viewing_time"":23201},{""page_index"":3,""viewing_time"":12949}]",138
,,,,,,,,,,67721,,,67724,,,instructions,"[{""page_index"":0,""viewing_time"":16027},{""page_index"":1,""viewing_time"":10113},{""page_index"":2,""viewing_time"":8109},{""page_index"":1,""viewing_time"":21192},{""page_index"":2,""viewing_time"":12278}]",139
,,,,,,,,,,53525,,,53527,,,instructions,"[{""page_index"":0,""viewing_time"":24552},{""page_index"":1,""viewing_time"":17311},{""page_index"":2,""viewing_time"":8249},{""page_index"":3,""viewing_time"":3410}]",140
,,,,,,,,,,160566,,,254746,,,instructions,"[{""page_index"":0,""viewing_time"":35076},{""page_index"":1,""viewing_time"":73766},{""page_index"":2,""viewing_time"":23076},{""page_index"":3,""viewing_time"":28644}]",140
,,,,,,,,,,30854,,,30854,,,instructions,"[{""page_index"":0,""viewing_time"":14566},{""page_index"":1,""viewing_time"":10455},{""page_index"":2,""viewing_time"":3440},{""page_index"":3,""viewing_time"":2392}]",141
,,,,,,,,,,43648,,,107830,,,instructions,"[{""page_index"":0,""viewing_time"":6391},{""page_index"":1,""viewing_time"":12384},{""page_index"":2,""viewing_time"":12184},{""page_index"":3,""viewing_time"":12688}]",141
,,,,,,,,,,164528,,,164530,,,instructions,"[{""page_index"":0,""viewing_time"":41495},{""page_index"":1,""viewing_time"":90219},{""page_index"":2,""viewing_time"":32812}]",142
