action_times,actions,button_pressed,correct,delays,key_press,path,queries,questions,responses,rt,score,stimulus,time_elapsed,trial_index,trial_i,trial_type,view_history,pid
"[42577, 52218, 53633]","[u'up', u'up', u'right']",,,"[3, 0, 1]",,"[u'1', 3, 7, 13]","{u'mouseover': {u'state': {u'target': [], u'time': []}, u'edge': {u'target': [], u'time': []}}, u'click': {u'state': {u'target': [u'2', u'6', u'10', u'11', u'3', u'7', u'12', u'4', u'8', u'14', u'15', u'5', u'9', u'16', u'17', u'13'], u'time': [10791, 13639, 15196, 17476, 19198, 21079, 21951, 24592, 28468, 31299, 33404, 34923, 35649, 39344, 40065, 41250]}, u'edge': {u'target': [], u'time': []}}, u'mouseout': {u'state': {u'target': [], u'time': []}, u'edge': {u'target': [], u'time': []}}}",,,"[42577, 1990, 897]",5.0,,216223,1.0,0.0,mouselab-mdp,,0
"[8528, 16675, 20745]","[u'up', u'up', u'right']",,,"[3, 0, 1]",,"[u'1', 3, 7, 13]","{u'mouseover': {u'state': {u'target': [], u'time': []}, u'edge': {u'target': [], u'time': []}}, u'click': {u'state': {u'target': [u'3'], u'time': [4271]}, u'edge': {u'target': [], u'time': []}}, u'mouseout': {u'state': {u'target': [], u'time': []}, u'edge': {u'target': [], u'time': []}}}",,,"[8527, 2644, 3127]",20.0,,276184,2.0,5.0,mouselab-mdp,,0
"[1459, 8059, 17138]","[u'down', u'down', u'left']",,,"[3, 0, 1]",,"[u'1', 5, 9, 16]","{u'mouseover': {u'state': {u'target': [], u'time': []}, u'edge': {u'target': [], u'time': []}}, u'click': {u'state': {u'target': [u'16', u'17'], u'time': [12673, 13989]}, u'edge': {u'target': [], u'time': []}}, u'mouseout': {u'state': {u'target': [], u'time': []}, u'edge': {u'target': [], u'time': []}}}",,,"[1459, 1478, 8100]",23.0,,332184,3.0,1.0,mouselab-mdp,,0
"[3106, 29992, 32195]","[u'up', u'up', u'right']",,,"[3, 0, 1]",,"[u'1', 3, 7, 13]","{u'mouseover': {u'state': {u'target': [], u'time': []}, u'edge': {u'target': [], u'time': []}}, u'click': {u'state': {u'target': [u'7', u'12', u'2', u'13', u'10'], u'time': [10312, 12081, 16379, 20981, 26289]}, u'edge': {u'target': [], u'time': []}}, u'mouseout': {u'state': {u'target': [], u'time': []}, u'edge': {u'target': [], u'time': []}}}",,,"[3106, 21734, 4]",-1.0,,393935,4.0,3.0,mouselab-mdp,,0
"[2619, 12699, 14851]","[u'left', u'left', u'up']",,,"[3, 0, 1]",,"[u'1', 4, 8, 14]","{u'mouseover': {u'state': {u'target': [], u'time': []}, u'edge': {u'target': [], u'time': []}}, u'click': {u'state': {u'target': [u'8', u'15', u'14'], u'time': [8085, 8616, 9305]}, u'edge': {u'target': [], u'time': []}}, u'mouseout': {u'state': {u'target': [], u'time': []}, u'edge': {u'target': [], u'time': []}}}",,,"[2619, 4963, 532]",3.0,,451639,5.0,4.0,mouselab-mdp,,0
"[6456, 16584, 21784]","[u'right', u'right', u'up']",,,"[3, 0, 1]",,"[u'1', 2, 6, 10]","{u'mouseover': {u'state': {u'target': [], u'time': []}, u'edge': {u'target': [], u'time': []}}, u'click': {u'state': {u'target': [u'2', u'10', u'6', u'11'], u'time': [2619, 4358, 4837, 14613]}, u'edge': {u'target': [], u'time': []}}, u'mouseout': {u'state': {u'target': [], u'time': []}, u'edge': {u'target': [], u'time': []}}}",,,"[6456, 4149, 4100]",30.0,,520343,6.0,2.0,mouselab-mdp,,0
"[7385, 11744, 15912]","[u'up', u'up', u'left']",,,[],,"[u'1', 3, 7, 12]","{u'mouseover': {u'state': {u'target': [], u'time': []}, u'edge': {u'target': [], u'time': []}}, u'click': {u'state': {u'target': [u'5', u'3', u'13', u'7', u'12'], u'time': [3741, 5456, 9217, 9776, 10241]}, u'edge': {u'target': [], u'time': []}}, u'mouseout': {u'state': {u'target': [], u'time': []}, u'edge': {u'target': [], u'time': []}}}",,,"[7383, 3856, 3656]",29.0,,569913,7.0,7.0,mouselab-mdp,,0
"[4813, 8797, 13308]","[u'right', u'right', u'up']",,,[],,"[u'1', 2, 6, 10]","{u'mouseover': {u'state': {u'target': [], u'time': []}, u'edge': {u'target': [], u'time': []}}, u'click': {u'state': {u'target': [u'2', u'6', u'10'], u'time': [1905, 3164, 3562]}, u'edge': {u'target': [], u'time': []}}, u'mouseout': {u'state': {u'target': [], u'time': []}, u'edge': {u'target': [], u'time': []}}}",,,"[4813, 3467, 3996]",45.0,,618584,8.0,11.0,mouselab-mdp,,0
"[13870, 16374, 18030]","[u'left', u'left', u'up']",,,[],,"[u'1', 4, 8, 14]","{u'mouseover': {u'state': {u'target': [], u'time': []}, u'edge': {u'target': [], u'time': []}}, u'click': {u'state': {u'target': [u'4', u'8', u'14', u'15'], u'time': [9179, 10476, 11311, 12143]}, u'edge': {u'target': [], u'time': []}}, u'mouseout': {u'state': {u'target': [], u'time': []}, u'edge': {u'target': [], u'time': []}}}",,,"[13870, 1993, 1150]",6.0,,668112,9.0,6.0,mouselab-mdp,,0
"[8611, 13212, 15219]","[u'up', u'up', u'left']",,,[],,"[u'1', 3, 7, 12]","{u'mouseover': {u'state': {u'target': [], u'time': []}, u'edge': {u'target': [], u'time': []}}, u'click': {u'state': {u'target': [u'5', u'3', u'7', u'12', u'13'], u'time': [2700, 3840, 5648, 6405, 7415]}, u'edge': {u'target': [], u'time': []}}, u'mouseout': {u'state': {u'target': [], u'time': []}, u'edge': {u'target': [], u'time': []}}}",,,"[8611, 4094, 1500]",35.0,,716665,10.0,10.0,mouselab-mdp,,0
"[5038, 11166, 14109]","[u'left', u'left', u'down']",,,[],,"[u'1', 4, 8, 15]","{u'mouseover': {u'state': {u'target': [], u'time': []}, u'edge': {u'target': [], u'time': []}}, u'click': {u'state': {u'target': [u'4', u'8', u'15'], u'time': [2561, 3395, 3968]}, u'edge': {u'target': [], u'time': []}}, u'mouseout': {u'state': {u'target': [], u'time': []}, u'edge': {u'target': [], u'time': []}}}",,,"[5038, 5620, 2432]",47.0,,778430,11.0,8.0,mouselab-mdp,,0
"[6119, 7303, 8055]","[u'left', u'left', u'down']",,,[],,"[u'1', 4, 8, 15]","{u'mouseover': {u'state': {u'target': [], u'time': []}, u'edge': {u'target': [], u'time': []}}, u'click': {u'state': {u'target': [u'2', u'4', u'8', u'15'], u'time': [1830, 2740, 3715, 4213]}, u'edge': {u'target': [], u'time': []}}, u'mouseout': {u'state': {u'target': [], u'time': []}, u'edge': {u'target': [], u'time': []}}}",,,"[6119, 671, 239]",37.0,,836791,12.0,9.0,mouselab-mdp,,0
"[13783, 33672, 40010]","[u'right', u'right', u'up']",,,"[2, 2, 0]",,"[u'1', 2, 6, 10]","{u'mouseover': {u'state': {u'target': [], u'time': []}, u'edge': {u'target': [], u'time': []}}, u'click': {u'state': {u'target': [u'2', u'6', u'10', u'11'], u'time': [2109, 4585, 6041, 28202]}, u'edge': {u'target': [], u'time': []}}, u'mouseout': {u'state': {u'target': [], u'time': []}, u'edge': {u'target': [], u'time': []}}}",,,"[13780, 6515, 1350]",32.0,,165989,1.0,3.0,mouselab-mdp,,2
"[7380, 45161, 59180]","[u'down', u'down', u'right']",,,"[5, 6, 0]",,"[u'1', 5, 9, 17]","{u'mouseover': {u'state': {u'target': [], u'time': []}, u'edge': {u'target': [], u'time': []}}, u'click': {u'state': {u'target': [u'3', u'5', u'9', u'17', u'16'], u'time': [2323, 5018, 28370, 40744, 42053]}, u'edge': {u'target': [], u'time': []}}, u'mouseout': {u'state': {u'target': [], u'time': []}, u'edge': {u'target': [], u'time': []}}}",,,"[7379, 20522, 1977]",-4.0,,244957,2.0,2.0,mouselab-mdp,,2
"[6624, 36358, 50644]","[u'left', u'left', u'up']",,,"[9, 6, 0]",,"[u'1', 4, 8, 14]","{u'mouseover': {u'state': {u'target': [], u'time': []}, u'edge': {u'target': [], u'time': []}}, u'click': {u'state': {u'target': [u'2', u'3', u'4', u'5', u'8', u'14', u'15'], u'time': [1327, 2651, 3660, 4496, 28158, 29757, 30964]}, u'edge': {u'target': [], u'time': []}}, u'mouseout': {u'state': {u'target': [], u'time': []}, u'edge': {u'target': [], u'time': []}}}",,,"[6623, 9333, 2547]",-1.0,,326548,3.0,4.0,mouselab-mdp,,2
"[34406, 57937, 59582]","[u'up', u'up', u'left']",,,"[0, 0, 0]",,"[u'1', 3, 7, 12]","{u'mouseover': {u'state': {u'target': [], u'time': []}, u'edge': {u'target': [], u'time': []}}, u'click': {u'state': {u'target': [u'2', u'3', u'4', u'5', u'6', u'7', u'8', u'13', u'9', u'17', u'16', u'11', u'10', u'14', u'15', u'12'], u'time': [2790, 4256, 5241, 6151, 9999, 11347, 12523, 19900, 21406, 23684, 24629, 25999, 26754, 27642, 28300, 30301]}, u'edge': {u'target': [], u'time': []}}, u'mouseout': {u'state': {u'target': [], u'time': []}, u'edge': {u'target': [], u'time': []}}}",,,"[34406, 8, 1035]",28.0,,399761,4.0,1.0,mouselab-mdp,,2
"[18099, 35147, 37402]","[u'right', u'right', u'up']",,,"[0, 0, 0]",,"[u'1', 2, 6, 10]","{u'mouseover': {u'state': {u'target': [], u'time': []}, u'edge': {u'target': [], u'time': []}}, u'click': {u'state': {u'target': [u'13', u'7', u'12', u'3', u'2', u'10', u'6', u'11', u'5', u'9', u'17', u'16', u'4', u'14', u'8', u'15'], u'time': [1675, 2453, 3141, 3806, 4508, 5054, 5557, 6109, 7044, 7877, 8769, 9404, 10092, 10717, 11164, 11599]}, u'edge': {u'target': [], u'time': []}}, u'mouseout': {u'state': {u'target': [], u'time': []}, u'edge': {u'target': [], u'time': []}}}",,,"[18099, 183, 1704]",21.0,,464292,5.0,5.0,mouselab-mdp,,2
"[15225, 35747, 39190]","[u'left', u'left', u'up']",,,"[0, 0, 0]",,"[u'1', 4, 8, 14]","{u'mouseover': {u'state': {u'target': [], u'time': []}, u'edge': {u'target': [], u'time': []}}, u'click': {u'state': {u'target': [u'2', u'3', u'4', u'5', u'6', u'7', u'8', u'9', u'17', u'11', u'10', u'13', u'12', u'14', u'15', u'16'], u'time': [1222, 1755, 2336, 2981, 3706, 4650, 5700, 6394, 6869, 7395, 7970, 8851, 9394, 9858, 10534, 11271]}, u'edge': {u'target': [], u'time': []}}, u'mouseout': {u'state': {u'target': [], u'time': []}, u'edge': {u'target': [], u'time': []}}}",,,"[15224, 28, 2881]",38.0,,531581,6.0,0.0,mouselab-mdp,,2
"[24638, 27153, 28883]","[u'right', u'right', u'down']",,,[],,"[u'1', 2, 6, 11]","{u'mouseover': {u'state': {u'target': [], u'time': []}, u'edge': {u'target': [], u'time': []}}, u'click': {u'state': {u'target': [u'2', u'3', u'4', u'5', u'9', u'17', u'16', u'11', u'6', u'10', u'13', u'7', u'12', u'14', u'8', u'15'], u'time': [1618, 2888, 3617, 4192, 5158, 5624, 6224, 6960, 7326, 7704, 8262, 8703, 9433, 9979, 10422, 10857]}, u'edge': {u'target': [], u'time': []}}, u'mouseout': {u'state': {u'target': [], u'time': []}, u'edge': {u'target': [], u'time': []}}}",,,"[24637, 1991, 1199]",40.0,,586440,7.0,11.0,mouselab-mdp,,2
"[15432, 16584, 18402]","[u'left', u'left', u'down']",,,[],,"[u'1', 4, 8, 15]","{u'mouseover': {u'state': {u'target': [], u'time': []}, u'edge': {u'target': [], u'time': []}}, u'click': {u'state': {u'target': [u'3', u'2', u'5', u'4', u'9', u'17', u'16', u'11', u'6', u'10', u'13', u'7', u'12', u'14', u'8', u'15'], u'time': [1713, 2388, 3086, 3653, 4260, 4676, 5389, 6077, 6461, 7117, 7806, 8199, 8640, 9255, 9767, 10238]}, u'edge': {u'target': [], u'time': []}}, u'mouseout': {u'state': {u'target': [], u'time': []}, u'edge': {u'target': [], u'time': []}}}",,,"[15432, 624, 1162]",25.0,,633820,8.0,9.0,mouselab-mdp,,2
"[18972, 19916, 21171]","[u'left', u'left', u'up']",,,[],,"[u'1', 4, 8, 14]","{u'mouseover': {u'state': {u'target': [], u'time': []}, u'edge': {u'target': [], u'time': []}}, u'click': {u'state': {u'target': [u'3', u'2', u'5', u'4', u'9', u'17', u'16', u'11', u'6', u'10', u'13', u'12', u'7', u'14', u'8', u'15'], u'time': [1971, 2488, 3080, 3747, 4327, 4773, 5456, 6158, 6544, 6910, 7377, 8514, 9157, 9873, 10391, 10840]}, u'edge': {u'target': [], u'time': []}}, u'mouseout': {u'state': {u'target': [], u'time': []}, u'edge': {u'target': [], u'time': []}}}",,,"[18971, 406, 662]",41.0,,681060,9.0,7.0,mouselab-mdp,,2
"[20601, 21551, 22694]","[u'up', u'up', u'left']",,,[],,"[u'1', 3, 7, 12]","{u'mouseover': {u'state': {u'target': [], u'time': []}, u'edge': {u'target': [], u'time': []}}, u'click': {u'state': {u'target': [u'3', u'2', u'5', u'4', u'9', u'6', u'7', u'8', u'15', u'14', u'12', u'13', u'10', u'11', u'17', u'16'], u'time': [1976, 2509, 3011, 3587, 4287, 5011, 5685, 6394, 6859, 7420, 8022, 8964, 9567, 10150, 10851, 11403]}, u'edge': {u'target': [], u'time': []}}, u'mouseout': {u'state': {u'target': [], u'time': []}, u'edge': {u'target': [], u'time': []}}}",,,"[20599, 410, 599]",24.0,,729377,10.0,10.0,mouselab-mdp,,2
"[11192, 12348, 13608]","[u'right', u'right', u'down']",,,[],,"[u'1', 2, 6, 11]","{u'mouseover': {u'state': {u'target': [], u'time': []}, u'edge': {u'target': [], u'time': []}}, u'click': {u'state': {u'target': [u'5', u'2', u'3', u'4', u'9', u'17', u'16', u'11', u'6', u'10', u'13', u'7', u'12', u'14', u'8', u'15'], u'time': [678, 1160, 1675, 2218, 2971, 3385, 3869, 4510, 4860, 5325, 6148, 6610, 7227, 7762, 8179, 8573]}, u'edge': {u'target': [], u'time': []}}, u'mouseout': {u'state': {u'target': [], u'time': []}, u'edge': {u'target': [], u'time': []}}}",,,"[11191, 619, 738]",40.0,,776736,11.0,6.0,mouselab-mdp,,2
"[20196, 21018, 22423]","[u'left', u'left', u'down']",,,[],,"[u'1', 4, 8, 15]","{u'mouseover': {u'state': {u'target': [], u'time': []}, u'edge': {u'target': [], u'time': []}}, u'click': {u'state': {u'target': [u'3', u'2', u'5', u'4', u'9', u'17', u'16', u'11', u'6', u'10', u'13', u'7', u'12', u'14', u'8', u'15'], u'time': [1794, 2158, 2670, 3541, 3885, 4317, 5175, 5918, 6325, 6724, 7429, 7902, 8319, 8906, 9493, 9838]}, u'edge': {u'target': [], u'time': []}}, u'mouseout': {u'state': {u'target': [], u'time': []}, u'edge': {u'target': [], u'time': []}}}",,,"[20196, 273, 795]",34.0,,823654,12.0,8.0,mouselab-mdp,,2
"[1733, 49826, 64236]","[u'up', u'up', u'right']",,,"[34, 12, 0]",,"[u'1', 3, 7, 13]","{u'mouseover': {u'state': {u'target': [], u'time': []}, u'edge': {u'target': [], u'time': []}}, u'click': {u'state': {u'target': [u'4', u'8', u'7', u'2', u'13', u'12'], u'time': [39208, 39940, 41433, 43034, 47717, 48803]}, u'edge': {u'target': [], u'time': []}}, u'mouseout': {u'state': {u'target': [], u'time': []}, u'edge': {u'target': [], u'time': []}}}",,,"[1733, 12383, 456]",-24.0,,371159,1.0,2.0,mouselab-mdp,,3
"[4671, 13555, 20008]","[u'up', u'up', u'left']",,,"[3, 2, 0]",,"[u'1', 3, 7, 12]","{u'mouseover': {u'state': {u'target': [], u'time': []}, u'edge': {u'target': [], u'time': []}}, u'click': {u'state': {u'target': [u'2', u'4', u'3', u'7', u'13', u'12'], u'time': [845, 1706, 2673, 12474, 18011, 18965]}, u'edge': {u'target': [], u'time': []}}, u'mouseout': {u'state': {u'target': [], u'time': []}, u'edge': {u'target': [], u'time': []}}}",,,"[4671, 3562, 3319]",38.0,,425789,2.0,1.0,mouselab-mdp,,3
"[1983, 65198, 72991]","[u'left', u'left', u'up']",,,"[6, 6, 6]",,"[u'1', 4, 8, 14]","{u'mouseover': {u'state': {u'target': [], u'time': []}, u'edge': {u'target': [], u'time': []}}, u'click': {u'state': {u'target': [u'4', u'8', u'14', u'15'], u'time': [846, 10802, 15401, 16158]}, u'edge': {u'target': [], u'time': []}}, u'mouseout': {u'state': {u'target': [], u'time': []}, u'edge': {u'target': [], u'time': []}}}",,,"[1983, 55336, 472]",-16.0,,508969,3.0,5.0,mouselab-mdp,,3
"[8798, 11609, 12605]","[u'left', u'left', u'up']",,,"[0, 0, 0]",,"[u'1', 4, 8, 14]","{u'mouseover': {u'state': {u'target': [], u'time': []}, u'edge': {u'target': [], u'time': []}}, u'click': {u'state': {u'target': [u'3', u'7', u'13', u'12', u'2', u'4', u'8', u'14'], u'time': [1033, 2053, 2757, 3559, 5220, 6223, 6912, 7518]}, u'edge': {u'target': [], u'time': []}}, u'mouseout': {u'state': {u'target': [], u'time': []}, u'edge': {u'target': [], u'time': []}}}",,,"[8798, 2, 230]",46.0,,557787,4.0,0.0,mouselab-mdp,,3
"[10216, 19178, 20024]","[u'up', u'up', u'left']",,,"[6, 0, 0]",,"[u'1', 3, 7, 12]","{u'mouseover': {u'state': {u'target': [], u'time': []}, u'edge': {u'target': [], u'time': []}}, u'click': {u'state': {u'target': [u'4', u'8', u'14', u'15', u'3', u'7', u'13', u'12'], u'time': [2281, 3457, 4070, 4775, 6127, 6811, 7443, 8899]}, u'edge': {u'target': [], u'time': []}}, u'mouseout': {u'state': {u'target': [], u'time': []}, u'edge': {u'target': [], u'time': []}}}",,,"[10216, 375, 170]",18.0,,613678,5.0,4.0,mouselab-mdp,,3
"[4047, 8963, 9786]","[u'right', u'right', u'up']",,,"[2, 0, 0]",,"[u'1', 2, 6, 10]","{u'mouseover': {u'state': {u'target': [], u'time': []}, u'edge': {u'target': [], u'time': []}}, u'click': {u'state': {u'target': [u'2', u'6', u'10'], u'time': [667, 1392, 2205]}, u'edge': {u'target': [], u'time': []}}, u'mouseout': {u'state': {u'target': [], u'time': []}, u'edge': {u'target': [], u'time': []}}}",,,"[4047, 524, 2]",33.0,,665947,6.0,3.0,mouselab-mdp,,3
"[4831, 5559, 6232]","[u'down', u'down', u'right']",,,[],,"[u'1', 5, 9, 17]","{u'mouseover': {u'state': {u'target': [], u'time': []}, u'edge': {u'target': [], u'time': []}}, u'click': {u'state': {u'target': [u'4', u'5', u'9', u'17'], u'time': [1305, 2167, 3000, 3691]}, u'edge': {u'target': [], u'time': []}}, u'mouseout': {u'state': {u'target': [], u'time': []}, u'edge': {u'target': [], u'time': []}}}",,,"[4831, 211, 170]",36.0,,720496,7.0,11.0,mouselab-mdp,,3
"[4870, 5496, 6070]","[u'left', u'left', u'down']",,,[],,"[u'1', 4, 8, 15]","{u'mouseover': {u'state': {u'target': [], u'time': []}, u'edge': {u'target': [], u'time': []}}, u'click': {u'state': {u'target': [u'4', u'8', u'14', u'15'], u'time': [1059, 1800, 2763, 3438]}, u'edge': {u'target': [], u'time': []}}, u'mouseout': {u'state': {u'target': [], u'time': []}, u'edge': {u'target': [], u'time': []}}}",,,"[4870, 101, 61]",37.0,,769570,8.0,9.0,mouselab-mdp,,3
"[9737, 10361, 11078]","[u'up', u'up', u'left']",,,[],,"[u'1', 3, 7, 12]","{u'mouseover': {u'state': {u'target': [], u'time': []}, u'edge': {u'target': [], u'time': []}}, u'click': {u'state': {u'target': [u'5', u'4', u'8', u'2', u'3', u'7', u'12', u'13'], u'time': [2303, 3186, 4121, 5417, 6133, 7058, 7760, 8540]}, u'edge': {u'target': [], u'time': []}}, u'mouseout': {u'state': {u'target': [], u'time': []}, u'edge': {u'target': [], u'time': []}}}",,,"[9737, 115, 201]",32.0,,816779,9.0,10.0,mouselab-mdp,,3
"[4744, 5285, 5948]","[u'left', u'left', u'down']",,,[],,"[u'1', 4, 8, 15]","{u'mouseover': {u'state': {u'target': [], u'time': []}, u'edge': {u'target': [], u'time': []}}, u'click': {u'state': {u'target': [u'4', u'8', u'14', u'15'], u'time': [1103, 1971, 2806, 3514]}, u'edge': {u'target': [], u'time': []}}, u'mouseout': {u'state': {u'target': [], u'time': []}, u'edge': {u'target': [], u'time': []}}}",,,"[4744, 35, 150]",46.0,,863690,10.0,8.0,mouselab-mdp,,3
"[6896, 7508, 8273]","[u'left', u'left', u'up']",,,[],,"[u'1', 4, 8, 14]","{u'mouseover': {u'state': {u'target': [], u'time': []}, u'edge': {u'target': [], u'time': []}}, u'click': {u'state': {u'target': [u'3', u'4', u'7', u'8', u'14'], u'time': [1306, 2011, 2819, 4607, 5525]}, u'edge': {u'target': [], u'time': []}}, u'mouseout': {u'state': {u'target': [], u'time': []}, u'edge': {u'target': [], u'time': []}}}",,,"[6896, 91, 259]",52.0,,910317,11.0,7.0,mouselab-mdp,,3
"[8936, 9539, 10119]","[u'right', u'right', u'down']",,,[],,"[u'1', 2, 6, 11]","{u'mouseover': {u'state': {u'target': [], u'time': []}, u'edge': {u'target': [], u'time': []}}, u'click': {u'state': {u'target': [u'5', u'2', u'9', u'6', u'10', u'11'], u'time': [1627, 2576, 4634, 6111, 7034, 7894]}, u'edge': {u'target': [], u'time': []}}, u'mouseout': {u'state': {u'target': [], u'time': []}, u'edge': {u'target': [], u'time': []}}}",,,"[8936, 91, 74]",50.0,,958645,12.0,6.0,mouselab-mdp,,3
"[5947, 12547, 16734]","[u'down', u'down', u'left']",,,"[3, 0, 1]",,"[u'1', 5, 9, 16]","{u'mouseover': {u'state': {u'target': [], u'time': []}, u'edge': {u'target': [], u'time': []}}, u'click': {u'state': {u'target': [], u'time': []}, u'edge': {u'target': [], u'time': []}}, u'mouseout': {u'state': {u'target': [], u'time': []}, u'edge': {u'target': [], u'time': []}}}",,,"[5946, 1415, 3192]",25.0,,408988,1.0,1.0,mouselab-mdp,,4
"[2835, 9036, 13614]","[u'right', u'right', u'down']",,,"[3, 0, 1]",,"[u'1', 2, 6, 11]","{u'mouseover': {u'state': {u'target': [], u'time': []}, u'edge': {u'target': [], u'time': []}}, u'click': {u'state': {u'target': [], u'time': []}, u'edge': {u'target': [], u'time': []}}, u'mouseout': {u'state': {u'target': [], u'time': []}, u'edge': {u'target': [], u'time': []}}}",,,"[2834, 992, 3622]",14.0,,479313,2.0,3.0,mouselab-mdp,,4
"[3709, 10790, 14116]","[u'up', u'up', u'right']",,,"[3, 0, 1]",,"[u'1', 3, 7, 13]","{u'mouseover': {u'state': {u'target': [], u'time': []}, u'edge': {u'target': [], u'time': []}}, u'click': {u'state': {u'target': [], u'time': []}, u'edge': {u'target': [], u'time': []}}, u'mouseout': {u'state': {u'target': [], u'time': []}, u'edge': {u'target': [], u'time': []}}}",,,"[3709, 1957, 2351]",15.0,,570298,3.0,4.0,mouselab-mdp,,4
"[1548, 8878, 12465]","[u'down', u'down', u'left']",,,"[3, 0, 1]",,"[u'1', 5, 9, 16]","{u'mouseover': {u'state': {u'target': [], u'time': []}, u'edge': {u'target': [], u'time': []}}, u'click': {u'state': {u'target': [], u'time': []}, u'edge': {u'target': [], u'time': []}}, u'mouseout': {u'state': {u'target': [], u'time': []}, u'edge': {u'target': [], u'time': []}}}",,,"[1547, 2214, 2581]",-8.0,,681735,4.0,5.0,mouselab-mdp,,4
"[1727, 7521, 9996]","[u'left', u'left', u'up']",,,"[3, 0, 1]",,"[u'1', 4, 8, 14]","{u'mouseover': {u'state': {u'target': [], u'time': []}, u'edge': {u'target': [], u'time': []}}, u'click': {u'state': {u'target': [], u'time': []}, u'edge': {u'target': [], u'time': []}}, u'mouseout': {u'state': {u'target': [], u'time': []}, u'edge': {u'target': [], u'time': []}}}",,,"[1727, 680, 1521]",54.0,,939333,5.0,0.0,mouselab-mdp,,4
"[1259, 10237, 14607]","[u'up', u'up', u'right']",,,"[3, 0, 1]",,"[u'1', 3, 7, 13]","{u'mouseover': {u'state': {u'target': [], u'time': []}, u'edge': {u'target': [], u'time': []}}, u'click': {u'state': {u'target': [u'12'], u'time': [8126]}, u'edge': {u'target': [], u'time': []}}, u'mouseout': {u'state': {u'target': [], u'time': []}, u'edge': {u'target': [], u'time': []}}}",,,"[1259, 3857, 2936]",-19.0,,1189128,6.0,2.0,mouselab-mdp,,4
"[17468, 20147, 23492]","[u'left', u'left', u'up']",,,[],,"[u'1', 4, 8, 14]","{u'mouseover': {u'state': {u'target': [], u'time': []}, u'edge': {u'target': [], u'time': []}}, u'click': {u'state': {u'target': [u'9', u'7', u'6', u'8'], u'time': [9742, 12102, 14207, 15829]}, u'edge': {u'target': [], u'time': []}}, u'mouseout': {u'state': {u'target': [], u'time': []}, u'edge': {u'target': [], u'time': []}}}",,,"[17467, 2152, 2824]",24.0,,1240844,7.0,8.0,mouselab-mdp,,4
"[1744, 3619, 6005]","[u'up', u'up', u'right']",,,[],,"[u'1', 3, 7, 13]","{u'mouseover': {u'state': {u'target': [], u'time': []}, u'edge': {u'target': [], u'time': []}}, u'click': {u'state': {u'target': [], u'time': []}, u'edge': {u'target': [], u'time': []}}, u'mouseout': {u'state': {u'target': [], u'time': []}, u'edge': {u'target': [], u'time': []}}}",,,"[1744, 1369, 1881]",13.0,,1321668,8.0,7.0,mouselab-mdp,,4
"[1568, 4595, 8457]","[u'right', u'right', u'up']",,,[],,"[u'1', 2, 6, 10]","{u'mouseover': {u'state': {u'target': [], u'time': []}, u'edge': {u'target': [], u'time': []}}, u'click': {u'state': {u'target': [], u'time': []}, u'edge': {u'target': [], u'time': []}}, u'mouseout': {u'state': {u'target': [], u'time': []}, u'edge': {u'target': [], u'time': []}}}",,,"[1568, 2510, 3350]",26.0,,1437631,9.0,6.0,mouselab-mdp,,4
"[2823, 6993, 8767]","[u'left', u'left', u'up']",,,[],,"[u'1', 4, 8, 14]","{u'mouseover': {u'state': {u'target': [], u'time': []}, u'edge': {u'target': [], u'time': []}}, u'click': {u'state': {u'target': [], u'time': []}, u'edge': {u'target': [], u'time': []}}, u'mouseout': {u'state': {u'target': [], u'time': []}, u'edge': {u'target': [], u'time': []}}}",,,"[2823, 3646, 1247]",30.0,,1530777,10.0,11.0,mouselab-mdp,,4
"[3679, 6286, 8034]","[u'down', u'down', u'right']",,,[],,"[u'1', 5, 9, 17]","{u'mouseover': {u'state': {u'target': [], u'time': []}, u'edge': {u'target': [], u'time': []}}, u'click': {u'state': {u'target': [], u'time': []}, u'edge': {u'target': [], u'time': []}}, u'mouseout': {u'state': {u'target': [], u'time': []}, u'edge': {u'target': [], u'time': []}}}",,,"[3679, 2100, 1224]",5.0,,1677618,11.0,9.0,mouselab-mdp,,4
"[1819, 4598, 5953]","[u'right', u'right', u'up']",,,[],,"[u'1', 2, 6, 10]","{u'mouseover': {u'state': {u'target': [], u'time': []}, u'edge': {u'target': [], u'time': []}}, u'click': {u'state': {u'target': [], u'time': []}, u'edge': {u'target': [], u'time': []}}, u'mouseout': {u'state': {u'target': [], u'time': []}, u'edge': {u'target': [], u'time': []}}}",,,"[1819, 2259, 838]",13.0,,1786030,12.0,10.0,mouselab-mdp,,4
"[12004, 18355, 21117]","[u'right', u'right', u'up']",,,"[3, 0, 0]",,"[u'1', 2, 6, 10]","{u'mouseover': {u'state': {u'target': [], u'time': []}, u'edge': {u'target': [], u'time': []}}, u'click': {u'state': {u'target': [u'2', u'6', u'10'], u'time': [2229, 5521, 6991]}, u'edge': {u'target': [], u'time': []}}, u'mouseout': {u'state': {u'target': [], u'time': []}, u'edge': {u'target': [], u'time': []}}}",,,"[12004, 1593, 2026]",31.0,,528444,1.0,2.0,mouselab-mdp,,5
"[3432, 48844, 56570]","[u'right', u'right', u'up']",,,"[34, 6, 0]",,"[u'1', 2, 6, 10]","{u'mouseover': {u'state': {u'target': [], u'time': []}, u'edge': {u'target': [], u'time': []}}, u'click': {u'state': {u'target': [u'6', u'10', u'11'], u'time': [44810, 45703, 46887]}, u'edge': {u'target': [], u'time': []}}, u'mouseout': {u'state': {u'target': [], u'time': []}, u'edge': {u'target': [], u'time': []}}}",,,"[3432, 10034, 714]",34.0,,618776,2.0,5.0,mouselab-mdp,,5
"[2251, 39575, 41561]","[u'up', u'up', u'right']",,,"[34, 0, 9]",,"[u'1', 3, 7, 13]","{u'mouseover': {u'state': {u'target': [], u'time': []}, u'edge': {u'target': [], u'time': []}}, u'click': {u'state': {u'target': [], u'time': []}, u'edge': {u'target': [], u'time': []}}, u'mouseout': {u'state': {u'target': [], u'time': []}, u'edge': {u'target': [], u'time': []}}}",,,"[2251, 1972, 1261]",4.0,,713532,3.0,3.0,mouselab-mdp,,5
"[5318, 24292, 66891]","[u'up', u'up', u'right']",,,"[5, 16, 10]",,"[u'1', 3, 7, 13]","{u'mouseover': {u'state': {u'target': [], u'time': []}, u'edge': {u'target': [], u'time': []}}, u'click': {u'state': {u'target': [u'3', u'7', u'13', u'12', u'10', u'6', u'11', u'2'], u'time': [1929, 4033, 19816, 21288, 52872, 54513, 61447, 62990]}, u'edge': {u'target': [], u'time': []}}, u'mouseout': {u'state': {u'target': [], u'time': []}, u'edge': {u'target': [], u'time': []}}}",,,"[5318, 12396, 25175]",13.0,,800544,4.0,0.0,mouselab-mdp,,5
"[35562, 38182, 39874]","[u'up', u'up', u'left']",,,"[0, 0, 0]",,"[u'1', 3, 7, 12]","{u'mouseover': {u'state': {u'target': [], u'time': []}, u'edge': {u'target': [], u'time': []}}, u'click': {u'state': {u'target': [u'4', u'8', u'14', u'15', u'2', u'3', u'7', u'12', u'13', u'10', u'5', u'9', u'17', u'16', u'6', u'11'], u'time': [13849, 14654, 15535, 17814, 18911, 20422, 21277, 22190, 23183, 25838, 27046, 28774, 30430, 31815, 33270, 33662]}, u'edge': {u'target': [], u'time': []}}, u'mouseout': {u'state': {u'target': [], u'time': []}, u'edge': {u'target': [], u'time': []}}}",,,"[35562, 4, 1175]",28.0,,852430,5.0,1.0,mouselab-mdp,,5
"[16283, 18588, 20171]","[u'down', u'down', u'right']",,,"[0, 0, 0]",,"[u'1', 5, 9, 17]","{u'mouseover': {u'state': {u'target': [], u'time': []}, u'edge': {u'target': [], u'time': []}}, u'click': {u'state': {u'target': [u'3', u'7', u'12', u'13', u'2', u'4', u'8', u'14', u'15', u'5', u'9', u'16', u'17'], u'time': [1871, 2502, 3438, 4671, 6224, 7598, 8623, 9288, 10270, 11590, 12182, 12852, 14951]}, u'edge': {u'target': [], u'time': []}}, u'mouseout': {u'state': {u'target': [], u'time': []}, u'edge': {u'target': [], u'time': []}}}",,,"[16283, 4, 975]",29.0,,905627,6.0,4.0,mouselab-mdp,,5
"[15928, 19064, 20424]","[u'left', u'left', u'down']",,,[],,"[u'1', 4, 8, 15]","{u'mouseover': {u'state': {u'target': [], u'time': []}, u'edge': {u'target': [], u'time': []}}, u'click': {u'state': {u'target': [u'2', u'6', u'3', u'7', u'12', u'13', u'5', u'9', u'16', u'17', u'4', u'14', u'8', u'15', u'11', u'10'], u'time': [1820, 2581, 3950, 4422, 4996, 5603, 6718, 7340, 7716, 8268, 8883, 9556, 9996, 10643, 12987, 13963]}, u'edge': {u'target': [], u'time': []}}, u'mouseout': {u'state': {u'target': [], u'time': []}, u'edge': {u'target': [], u'time': []}}}",,,"[15928, 2617, 838]",12.0,,957802,7.0,10.0,mouselab-mdp,,5
"[10607, 11575, 12414]","[u'left', u'left', u'down']",,,[],,"[u'1', 4, 8, 15]","{u'mouseover': {u'state': {u'target': [], u'time': []}, u'edge': {u'target': [], u'time': []}}, u'click': {u'state': {u'target': [u'3', u'7', u'12', u'4', u'8', u'15'], u'time': [1466, 2330, 3011, 7098, 7601, 8794]}, u'edge': {u'target': [], u'time': []}}, u'mouseout': {u'state': {u'target': [], u'time': []}, u'edge': {u'target': [], u'time': []}}}",,,"[10607, 450, 320]",35.0,,1004256,8.0,9.0,mouselab-mdp,,5
"[12085, 12989, 14389]","[u'right', u'right', u'down']",,,[],,"[u'1', 2, 6, 11]","{u'mouseover': {u'state': {u'target': [], u'time': []}, u'edge': {u'target': [], u'time': []}}, u'click': {u'state': {u'target': [u'3', u'7', u'12', u'13', u'2', u'6', u'10', u'11'], u'time': [2373, 2953, 3561, 4201, 6401, 7625, 9089, 9977]}, u'edge': {u'target': [], u'time': []}}, u'mouseout': {u'state': {u'target': [], u'time': []}, u'edge': {u'target': [], u'time': []}}}",,,"[12085, 391, 872]",48.0,,1054629,9.0,6.0,mouselab-mdp,,5
"[7367, 8191, 9158]","[u'left', u'left', u'down']",,,[],,"[u'1', 4, 8, 15]","{u'mouseover': {u'state': {u'target': [], u'time': []}, u'edge': {u'target': [], u'time': []}}, u'click': {u'state': {u'target': [u'4', u'8', u'15'], u'time': [2482, 3081, 3994]}, u'edge': {u'target': [], u'time': []}}, u'mouseout': {u'state': {u'target': [], u'time': []}, u'edge': {u'target': [], u'time': []}}}",,,"[7367, 309, 441]",46.0,,1101947,10.0,7.0,mouselab-mdp,,5
"[7913, 8665, 10561]","[u'right', u'right', u'down']",,,[],,"[u'1', 2, 6, 11]","{u'mouseover': {u'state': {u'target': [], u'time': []}, u'edge': {u'target': [], u'time': []}}, u'click': {u'state': {u'target': [u'3', u'7', u'13', u'6', u'11', u'2'], u'time': [1845, 2403, 3035, 4892, 5396, 6724]}, u'edge': {u'target': [], u'time': []}}, u'mouseout': {u'state': {u'target': [], u'time': []}, u'edge': {u'target': [], u'time': []}}}",,,"[7913, 229, 1373]",50.0,,1149787,11.0,11.0,mouselab-mdp,,5
"[11707, 12627, 13515]","[u'left', u'left', u'down']",,,[],,"[u'1', 4, 8, 15]","{u'mouseover': {u'state': {u'target': [], u'time': []}, u'edge': {u'target': [], u'time': []}}, u'click': {u'state': {u'target': [u'4', u'8', u'15', u'2', u'6', u'11', u'5', u'9', u'17', u'16'], u'time': [2504, 3086, 3632, 4622, 5230, 5647, 6687, 7182, 7887, 8918]}, u'edge': {u'target': [], u'time': []}}, u'mouseout': {u'state': {u'target': [], u'time': []}, u'edge': {u'target': [], u'time': []}}}",,,"[11707, 407, 360]",40.0,,1199887,12.0,8.0,mouselab-mdp,,5
"[23803, 25954, 27807]","[u'up', u'up', u'left']",,,"[0, 0, 0]",,"[u'1', 3, 7, 12]","{u'mouseover': {u'state': {u'target': [], u'time': []}, u'edge': {u'target': [], u'time': []}}, u'click': {u'state': {u'target': [u'2', u'3', u'7', u'12', u'13'], u'time': [5737, 9771, 12854, 18915, 20014]}, u'edge': {u'target': [], u'time': []}}, u'mouseout': {u'state': {u'target': [], u'time': []}, u'edge': {u'target': [], u'time': []}}}",,,"[23803, 2, 1118]",39.0,,225330,1.0,1.0,mouselab-mdp,,6
"[22061, 24857, 25821]","[u'right', u'right', u'up']",,,"[0, 0, 0]",,"[u'1', 2, 6, 10]","{u'mouseover': {u'state': {u'target': [], u'time': []}, u'edge': {u'target': [], u'time': []}}, u'click': {u'state': {u'target': [u'4', u'5', u'3', u'2', u'7', u'8', u'6', u'9', u'10'], u'time': [4334, 7329, 8773, 9842, 11126, 15024, 17261, 19344, 20626]}, u'edge': {u'target': [], u'time': []}}, u'mouseout': {u'state': {u'target': [], u'time': []}, u'edge': {u'target': [], u'time': []}}}",,,"[22061, 2, 162]",27.0,,273848,2.0,3.0,mouselab-mdp,,6
"[10910, 15083, 16564]","[u'right', u'right', u'up']",,,"[1, 0, 0]",,"[u'1', 2, 6, 10]","{u'mouseover': {u'state': {u'target': [], u'time': []}, u'edge': {u'target': [], u'time': []}}, u'click': {u'state': {u'target': [u'5', u'2', u'6', u'10', u'11'], u'time': [3993, 5033, 6515, 8375, 9671]}, u'edge': {u'target': [], u'time': []}}, u'mouseout': {u'state': {u'target': [], u'time': []}, u'edge': {u'target': [], u'time': []}}}",,,"[10910, 1037, 792]",32.0,,323796,3.0,5.0,mouselab-mdp,,6
"[23805, 26266, 28860]","[u'left', u'left', u'up']",,,"[0, 0, 0]",,"[u'1', 4, 8, 14]","{u'mouseover': {u'state': {u'target': [], u'time': []}, u'edge': {u'target': [], u'time': []}}, u'click': {u'state': {u'target': [u'5', u'9', u'16', u'17', u'2', u'3', u'12', u'13', u'7', u'4', u'8', u'14'], u'time': [2766, 4225, 5306, 6349, 10807, 11770, 16379, 17847, 18573, 19646, 21858, 27764]}, u'edge': {u'target': [], u'time': []}}, u'mouseout': {u'state': {u'target': [], u'time': []}, u'edge': {u'target': [], u'time': []}}}",,,"[23805, 1, 1931]",42.0,,372103,4.0,0.0,mouselab-mdp,,6
"[13204, 15499, 17064]","[u'down', u'down', u'right']",,,"[0, 0, 0]",,"[u'1', 5, 9, 17]","{u'mouseover': {u'state': {u'target': [], u'time': []}, u'edge': {u'target': [], u'time': []}}, u'click': {u'state': {u'target': [u'4', u'8', u'14', u'15', u'5', u'9', u'16', u'17'], u'time': [4039, 5264, 6677, 7719, 9200, 10179, 11262, 12201]}, u'edge': {u'target': [], u'time': []}}, u'mouseout': {u'state': {u'target': [], u'time': []}, u'edge': {u'target': [], u'time': []}}}",,,"[13204, 2, 907]",34.0,,420209,5.0,4.0,mouselab-mdp,,6
"[9172, 15712, 17357]","[u'right', u'right', u'up']",,,"[2, 0, 0]",,"[u'1', 2, 6, 10]","{u'mouseover': {u'state': {u'target': [], u'time': []}, u'edge': {u'target': [], u'time': []}}, u'click': {u'state': {u'target': [u'3', u'2', u'6', u'10', u'11'], u'time': [1968, 3263, 5338, 6205, 7425]}, u'edge': {u'target': [], u'time': []}}, u'mouseout': {u'state': {u'target': [], u'time': []}, u'edge': {u'target': [], u'time': []}}}",,,"[9172, 2401, 938]",29.0,,470818,6.0,2.0,mouselab-mdp,,6
"[15428, 16315, 17247]","[u'left', u'left', u'down']",,,[],,"[u'1', 4, 8, 15]","{u'mouseover': {u'state': {u'target': [], u'time': []}, u'edge': {u'target': [], u'time': []}}, u'click': {u'state': {u'target': [u'3', u'7', u'12', u'13', u'6', u'2', u'5', u'4', u'8', u'14', u'15'], u'time': [1420, 2784, 3653, 4533, 7130, 7957, 9543, 10412, 11820, 12980, 13842]}, u'edge': {u'target': [], u'time': []}}, u'mouseout': {u'state': {u'target': [], u'time': []}, u'edge': {u'target': [], u'time': []}}}",,,"[15428, 383, 415]",30.0,,522535,7.0,9.0,mouselab-mdp,,6
"[9422, 10236, 11307]","[u'up', u'up', u'left']",,,[],,"[u'1', 3, 7, 12]","{u'mouseover': {u'state': {u'target': [], u'time': []}, u'edge': {u'target': [], u'time': []}}, u'click': {u'state': {u'target': [u'3', u'7', u'13', u'12'], u'time': [1261, 2280, 3033, 3862]}, u'edge': {u'target': [], u'time': []}}, u'mouseout': {u'state': {u'target': [], u'time': []}, u'edge': {u'target': [], u'time': []}}}",,,"[9422, 301, 556]",30.0,,569329,8.0,7.0,mouselab-mdp,,6
"[17212, 17802, 18656]","[u'right', u'right', u'down']",,,[],,"[u'1', 2, 6, 11]","{u'mouseover': {u'state': {u'target': [], u'time': []}, u'edge': {u'target': [], u'time': []}}, u'click': {u'state': {u'target': [u'4', u'2', u'5', u'3', u'7', u'12', u'13', u'6', u'10', u'11'], u'time': [1134, 2399, 3250, 4165, 5255, 6060, 7422, 13986, 15355, 16347]}, u'edge': {u'target': [], u'time': []}}, u'mouseout': {u'state': {u'target': [], u'time': []}, u'edge': {u'target': [], u'time': []}}}",,,"[17212, 74, 344]",46.0,,616038,9.0,6.0,mouselab-mdp,,6
"[12059, 12610, 13393]","[u'left', u'left', u'down']",,,[],,"[u'1', 4, 8, 15]","{u'mouseover': {u'state': {u'target': [], u'time': []}, u'edge': {u'target': [], u'time': []}}, u'click': {u'state': {u'target': [u'5', u'9', u'16', u'17', u'2', u'6', u'4', u'8', u'14', u'15'], u'time': [1381, 2563, 3644, 4650, 5811, 6590, 8221, 9161, 10198, 11021]}, u'edge': {u'target': [], u'time': []}}, u'mouseout': {u'state': {u'target': [], u'time': []}, u'edge': {u'target': [], u'time': []}}}",,,"[12059, 52, 267]",40.0,,662621,10.0,8.0,mouselab-mdp,,6
"[12186, 12923, 13714]","[u'down', u'down', u'left']",,,[],,"[u'1', 5, 9, 16]","{u'mouseover': {u'state': {u'target': [], u'time': []}, u'edge': {u'target': [], u'time': []}}, u'click': {u'state': {u'target': [u'3', u'7', u'13', u'12', u'5', u'9', u'17', u'16'], u'time': [2471, 3535, 4473, 5467, 7831, 9133, 10032, 10845]}, u'edge': {u'target': [], u'time': []}}, u'mouseout': {u'state': {u'target': [], u'time': []}, u'edge': {u'target': [], u'time': []}}}",,,"[12186, 240, 279]",45.0,,713606,11.0,11.0,mouselab-mdp,,6
"[17734, 21721, 22479]","[u'left', u'left', u'down']",,,[],,"[u'1', 4, 8, 15]","{u'mouseover': {u'state': {u'target': [], u'time': []}, u'edge': {u'target': [], u'time': []}}, u'click': {u'state': {u'target': [u'4', u'5', u'2', u'3', u'7', u'12', u'13', u'8', u'14', u'15'], u'time': [2361, 4134, 4952, 5729, 6835, 7719, 8582, 9634, 10646, 11576]}, u'edge': {u'target': [], u'time': []}}, u'mouseout': {u'state': {u'target': [], u'time': []}, u'edge': {u'target': [], u'time': []}}}",,,"[17734, 3475, 251]",18.0,,760696,12.0,10.0,mouselab-mdp,,6
"[13594, 22741, 24953]","[u'left', u'left', u'up']",,,"[0, 0, 0]",,"[u'1', 4, 8, 14]","{u'mouseover': {u'state': {u'target': [], u'time': []}, u'edge': {u'target': [], u'time': []}}, u'click': {u'state': {u'target': [u'2', u'4', u'8', u'14'], u'time': [3391, 4841, 6513, 7560]}, u'edge': {u'target': [], u'time': []}}, u'mouseout': {u'state': {u'target': [], u'time': []}, u'edge': {u'target': [], u'time': []}}}",,,"[13591, 5, 368]",50.0,,299479,1.0,0.0,mouselab-mdp,,7
"[20833, 33423, 39616]","[u'right', u'right', u'up']",,,"[0, 2, 0]",,"[u'1', 2, 6, 10]","{u'mouseover': {u'state': {u'target': [], u'time': []}, u'edge': {u'target': [], u'time': []}}, u'click': {u'state': {u'target': [u'3', u'4', u'2', u'5', u'7', u'12', u'13', u'6', u'10', u'8', u'9'], u'time': [2143, 3368, 4329, 5486, 7007, 8398, 10310, 11866, 13140, 16852, 18784]}, u'edge': {u'target': [], u'time': []}}, u'mouseout': {u'state': {u'target': [], u'time': []}, u'edge': {u'target': [], u'time': []}}}",,,"[20833, 6, 1799]",25.0,,369374,2.0,3.0,mouselab-mdp,,7
"[15685, 26409, 29368]","[u'right', u'right', u'up']",,,"[0, 0, 0]",,"[u'1', 2, 6, 10]","{u'mouseover': {u'state': {u'target': [], u'time': []}, u'edge': {u'target': [], u'time': []}}, u'click': {u'state': {u'target': [u'3', u'4', u'2', u'5', u'9', u'6', u'11', u'10'], u'time': [2461, 4067, 5400, 6998, 9006, 10565, 12217, 13802]}, u'edge': {u'target': [], u'time': []}}, u'mouseout': {u'state': {u'target': [], u'time': []}, u'edge': {u'target': [], u'time': []}}}",,,"[15685, 6, 1413]",26.0,,439473,3.0,2.0,mouselab-mdp,,7
"[22744, 34091, 39460]","[u'down', u'down', u'right']",,,"[0, 2, 1]",,"[u'1', 5, 9, 17]","{u'mouseover': {u'state': {u'target': [], u'time': []}, u'edge': {u'target': [], u'time': []}}, u'click': {u'state': {u'target': [u'3', u'4', u'5', u'2', u'8', u'14', u'7', u'13', u'12', u'15', u'9', u'16'], u'time': [3304, 4432, 5776, 6837, 8481, 10203, 12086, 13891, 15633, 18538, 20823, 34106]}, u'edge': {u'target': [], u'time': []}}, u'mouseout': {u'state': {u'target': [], u'time': []}, u'edge': {u'target': [], u'time': []}}}",,,"[22744, 4, 1153]",30.0,,614366,4.0,4.0,mouselab-mdp,,7
"[14640, 25084, 28246]","[u'right', u'right', u'up']",,,"[0, 0, 0]",,"[u'1', 2, 6, 10]","{u'mouseover': {u'state': {u'target': [], u'time': []}, u'edge': {u'target': [], u'time': []}}, u'click': {u'state': {u'target': [u'3', u'2', u'4', u'5', u'8', u'6', u'10', u'11'], u'time': [2035, 3476, 4494, 5760, 6805, 8567, 10678, 12639]}, u'edge': {u'target': [], u'time': []}}, u'mouseout': {u'state': {u'target': [], u'time': []}, u'edge': {u'target': [], u'time': []}}}",,,"[14640, 5, 1622]",29.0,,675576,5.0,5.0,mouselab-mdp,,7
"[23211, 34595, 36444]","[u'up', u'up', u'left']",,,"[0, 0, 0]",,"[u'1', 3, 7, 12]","{u'mouseover': {u'state': {u'target': [], u'time': []}, u'edge': {u'target': [], u'time': []}}, u'click': {u'state': {u'target': [u'3', u'2', u'4', u'5', u'9', u'7', u'12'], u'time': [3594, 6450, 7573, 8747, 10166, 11204, 15283]}, u'edge': {u'target': [], u'time': []}}, u'mouseout': {u'state': {u'target': [], u'time': []}, u'edge': {u'target': [], u'time': []}}}",,,"[23211, 6, 6]",37.0,,743421,6.0,1.0,mouselab-mdp,,7
"[31558, 32944, 35463]","[u'right', u'right', u'down']",,,[],,"[u'1', 2, 6, 11]","{u'mouseover': {u'state': {u'target': [], u'time': []}, u'edge': {u'target': [], u'time': []}}, u'click': {u'state': {u'target': [u'3', u'2', u'4', u'5', u'6', u'9', u'10', u'11', u'17', u'16'], u'time': [1420, 2211, 2992, 3716, 5222, 7209, 9095, 10238, 11864, 12743]}, u'edge': {u'target': [], u'time': []}}, u'mouseout': {u'state': {u'target': [], u'time': []}, u'edge': {u'target': [], u'time': []}}}",,,"[31556, 868, 2018]",46.0,,827452,7.0,11.0,mouselab-mdp,,7
"[16017, 17701, 19009]","[u'left', u'left', u'down']",,,[],,"[u'1', 4, 8, 15]","{u'mouseover': {u'state': {u'target': [], u'time': []}, u'edge': {u'target': [], u'time': []}}, u'click': {u'state': {u'target': [u'3', u'4', u'5', u'2', u'8', u'7', u'14', u'15', u'12'], u'time': [1653, 2685, 3450, 4194, 5273, 6072, 7950, 9722, 12783]}, u'edge': {u'target': [], u'time': []}}, u'mouseout': {u'state': {u'target': [], u'time': []}, u'edge': {u'target': [], u'time': []}}}",,,"[16017, 1166, 808]",32.0,,878139,8.0,9.0,mouselab-mdp,,7
"[12406, 13364, 14365]","[u'left', u'left', u'down']",,,[],,"[u'1', 4, 8, 15]","{u'mouseover': {u'state': {u'target': [], u'time': []}, u'edge': {u'target': [], u'time': []}}, u'click': {u'state': {u'target': [u'3', u'4', u'5', u'2', u'9', u'8', u'14', u'15'], u'time': [2129, 3102, 3939, 4746, 5550, 7142, 10140, 11022]}, u'edge': {u'target': [], u'time': []}}, u'mouseout': {u'state': {u'target': [], u'time': []}, u'edge': {u'target': [], u'time': []}}}",,,"[12406, 438, 507]",42.0,,936316,9.0,8.0,mouselab-mdp,,7
"[14316, 15329, 16530]","[u'right', u'right', u'down']",,,[],,"[u'1', 2, 6, 11]","{u'mouseover': {u'state': {u'target': [], u'time': []}, u'edge': {u'target': [], u'time': []}}, u'click': {u'state': {u'target': [u'3', u'4', u'2', u'5', u'7', u'12', u'13', u'6', u'10', u'11'], u'time': [4295, 5135, 5948, 6537, 7440, 8142, 8781, 10131, 11744, 12534]}, u'edge': {u'target': [], u'time': []}}, u'mouseout': {u'state': {u'target': [], u'time': []}, u'edge': {u'target': [], u'time': []}}}",,,"[14310, 489, 696]",46.0,,989723,10.0,6.0,mouselab-mdp,,7
"[15396, 16189, 18100]","[u'up', u'up', u'left']",,,[],,"[u'1', 3, 7, 12]","{u'mouseover': {u'state': {u'target': [], u'time': []}, u'edge': {u'target': [], u'time': []}}, u'click': {u'state': {u'target': [u'3', u'4', u'2', u'5', u'7', u'12', u'13', u'8'], u'time': [2018, 2939, 3914, 4560, 6559, 8283, 9262, 10822]}, u'edge': {u'target': [], u'time': []}}, u'mouseout': {u'state': {u'target': [], u'time': []}, u'edge': {u'target': [], u'time': []}}}",,,"[15396, 280, 1411]",32.0,,1044261,11.0,10.0,mouselab-mdp,,7
"[15630, 16860, 18048]","[u'left', u'left', u'up']",,,[],,"[u'1', 4, 8, 14]","{u'mouseover': {u'state': {u'target': [], u'time': []}, u'edge': {u'target': [], u'time': []}}, u'click': {u'state': {u'target': [u'3', u'4', u'2', u'5', u'7', u'6', u'8', u'14', u'15'], u'time': [2091, 2832, 3546, 4284, 5533, 6610, 7938, 11508, 14248]}, u'edge': {u'target': [], u'time': []}}, u'mouseout': {u'state': {u'target': [], u'time': []}, u'edge': {u'target': [], u'time': []}}}",,,"[15630, 703, 678]",48.0,,1109491,12.0,7.0,mouselab-mdp,,7
"[5632, 26110, 27918]","[u'right', u'right', u'up']",,,"[18, 0, 9]",,"[u'1', 2, 6, 10]","{u'mouseover': {u'state': {u'target': [], u'time': []}, u'edge': {u'target': [], u'time': []}}, u'click': {u'state': {u'target': [u'2'], u'time': [2151]}, u'edge': {u'target': [], u'time': []}}, u'mouseout': {u'state': {u'target': [], u'time': []}, u'edge': {u'target': [], u'time': []}}}",,,"[5632, 1389, 1167]",35.0,,227451,1.0,3.0,mouselab-mdp,,9
"[1284, 36901, 38349]","[u'up', u'up', u'left']",,,"[34, 0, 9]",,"[u'1', 3, 7, 12]","{u'mouseover': {u'state': {u'target': [], u'time': []}, u'edge': {u'target': [], u'time': []}}, u'click': {u'state': {u'target': [], u'time': []}, u'edge': {u'target': [], u'time': []}}, u'mouseout': {u'state': {u'target': [], u'time': []}, u'edge': {u'target': [], u'time': []}}}",,,"[1284, 588, 799]",44.0,,318662,2.0,1.0,mouselab-mdp,,9
"[5024, 41866, 44618]","[u'left', u'left', u'up']",,,"[34, 0, 9]",,"[u'1', 4, 8, 14]","{u'mouseover': {u'state': {u'target': [], u'time': []}, u'edge': {u'target': [], u'time': []}}, u'click': {u'state': {u'target': [], u'time': []}, u'edge': {u'target': [], u'time': []}}, u'mouseout': {u'state': {u'target': [], u'time': []}, u'edge': {u'target': [], u'time': []}}}",,,"[5024, 1855, 2098]",-12.0,,410745,3.0,5.0,mouselab-mdp,,9
"[13794, 54556, 66484]","[u'down', u'down', u'left']",,,"[34, 0, 9]",,"[u'1', 5, 9, 16]","{u'mouseover': {u'state': {u'target': [], u'time': []}, u'edge': {u'target': [], u'time': []}}, u'click': {u'state': {u'target': [], u'time': []}, u'edge': {u'target': [], u'time': []}}, u'mouseout': {u'state': {u'target': [], u'time': []}, u'edge': {u'target': [], u'time': []}}}",,,"[13794, 5764, 11267]",31.0,,504461,4.0,4.0,mouselab-mdp,,9
"[19156, 62669, 64469]","[u'right', u'right', u'down']",,,"[34, 0, 9]",,"[u'1', 2, 6, 11]","{u'mouseover': {u'state': {u'target': [], u'time': []}, u'edge': {u'target': [], u'time': []}}, u'click': {u'state': {u'target': [], u'time': []}, u'edge': {u'target': [], u'time': []}}, u'mouseout': {u'state': {u'target': [], u'time': []}, u'edge': {u'target': [], u'time': []}}}",,,"[19156, 8524, 1149]",3.0,,595896,5.0,0.0,mouselab-mdp,,9
"[10219, 46908, 64869]","[u'up', u'up', u'right']",,,"[34, 0, 9]",,"[u'1', 3, 7, 13]","{u'mouseover': {u'state': {u'target': [], u'time': []}, u'edge': {u'target': [], u'time': []}}, u'click': {u'state': {u'target': [], u'time': []}, u'edge': {u'target': [], u'time': []}}, u'mouseout': {u'state': {u'target': [], u'time': []}, u'edge': {u'target': [], u'time': []}}}",,,"[10219, 1674, 17296]",-18.0,,689411,6.0,2.0,mouselab-mdp,,9
"[784, 2296, 3976]","[u'up', u'up', u'right']",,,[],,"[u'1', 3, 7, 13]","{u'mouseover': {u'state': {u'target': [], u'time': []}, u'edge': {u'target': [], u'time': []}}, u'click': {u'state': {u'target': [], u'time': []}, u'edge': {u'target': [], u'time': []}}, u'mouseout': {u'state': {u'target': [], u'time': []}, u'edge': {u'target': [], u'time': []}}}",,,"[784, 985, 1167]",27.0,,745565,7.0,8.0,mouselab-mdp,,9
"[491, 2307, 3235]","[u'left', u'left', u'down']",,,[],,"[u'1', 4, 8, 15]","{u'mouseover': {u'state': {u'target': [], u'time': []}, u'edge': {u'target': [], u'time': []}}, u'click': {u'state': {u'target': [], u'time': []}, u'edge': {u'target': [], u'time': []}}, u'mouseout': {u'state': {u'target': [], u'time': []}, u'edge': {u'target': [], u'time': []}}}",,,"[491, 1302, 412]",28.0,,794711,8.0,10.0,mouselab-mdp,,9
"[11406, 21206, 22254]","[u'down', u'down', u'right']",,,[],,"[u'1', 5, 9, 17]","{u'mouseover': {u'state': {u'target': [], u'time': []}, u'edge': {u'target': [], u'time': []}}, u'click': {u'state': {u'target': [], u'time': []}, u'edge': {u'target': [], u'time': []}}, u'mouseout': {u'state': {u'target': [], u'time': []}, u'edge': {u'target': [], u'time': []}}}",,,"[11406, 9275, 529]",9.0,,842200,9.0,6.0,mouselab-mdp,,9
"[1308, 2676, 3508]","[u'right', u'right', u'down']",,,[],,"[u'1', 2, 6, 11]","{u'mouseover': {u'state': {u'target': [], u'time': []}, u'edge': {u'target': [], u'time': []}}, u'click': {u'state': {u'target': [], u'time': []}, u'edge': {u'target': [], u'time': []}}, u'mouseout': {u'state': {u'target': [], u'time': []}, u'edge': {u'target': [], u'time': []}}}",,,"[1308, 841, 291]",6.0,,891354,10.0,7.0,mouselab-mdp,,9
"[619, 1531, 2403]","[u'up', u'up', u'right']",,,[],,"[u'1', 3, 7, 13]","{u'mouseover': {u'state': {u'target': [], u'time': []}, u'edge': {u'target': [], u'time': []}}, u'click': {u'state': {u'target': [], u'time': []}, u'edge': {u'target': [], u'time': []}}, u'mouseout': {u'state': {u'target': [], u'time': []}, u'edge': {u'target': [], u'time': []}}}",,,"[619, 393, 348]",35.0,,939676,11.0,11.0,mouselab-mdp,,9
"[2415, 3519, 4447]","[u'up', u'up', u'left']",,,[],,"[u'1', 3, 7, 12]","{u'mouseover': {u'state': {u'target': [], u'time': []}, u'edge': {u'target': [], u'time': []}}, u'click': {u'state': {u'target': [], u'time': []}, u'edge': {u'target': [], u'time': []}}, u'mouseout': {u'state': {u'target': [], u'time': []}, u'edge': {u'target': [], u'time': []}}}",,,"[2415, 577, 405]",22.0,,988614,12.0,9.0,mouselab-mdp,,9
"[12802, 16463, 21732]","[u'up', u'up', u'left']",,,"[0, 2, 2]",,"[u'1', 3, 7, 12]","{u'mouseover': {u'state': {u'target': [], u'time': []}, u'edge': {u'target': [], u'time': []}}, u'click': {u'state': {u'target': [u'2', u'3', u'4', u'5', u'9', u'16', u'17', u'7', u'13', u'12'], u'time': [1227, 3817, 4789, 5237, 7356, 8207, 9033, 10334, 10643, 11407]}, u'edge': {u'target': [], u'time': []}}, u'mouseout': {u'state': {u'target': [], u'time': []}, u'edge': {u'target': [], u'time': []}}}",,,"[12802, 8, 2386]",34.0,,273047,1.0,1.0,mouselab-mdp,,10
"[9293, 12736, 14971]","[u'down', u'down', u'right']",,,"[0, 0, 0]",,"[u'1', 5, 9, 17]","{u'mouseover': {u'state': {u'target': [], u'time': []}, u'edge': {u'target': [], u'time': []}}, u'click': {u'state': {u'target': [u'3', u'2', u'5', u'4', u'8', u'15', u'14', u'9', u'17'], u'time': [1703, 2288, 2839, 3229, 3891, 4800, 5394, 7409, 7881]}, u'edge': {u'target': [], u'time': []}}, u'mouseout': {u'state': {u'target': [], u'time': []}, u'edge': {u'target': [], u'time': []}}}",,,"[9293, 2, 1441]",33.0,,328696,2.0,4.0,mouselab-mdp,,10
"[16008, 41022, 52254]","[u'left', u'left', u'down']",,,"[19, 0, 0]",,"[u'1', 4, 8, 15]","{u'mouseover': {u'state': {u'target': [], u'time': []}, u'edge': {u'target': [], u'time': []}}, u'click': {u'state': {u'target': [u'3', u'2', u'5', u'4', u'7', u'13', u'12', u'8', u'15', u'14', u'16', u'9', u'17', u'6', u'10', u'11'], u'time': [1697, 2680, 3792, 4556, 6375, 7093, 7707, 8963, 9659, 10438, 11289, 11563, 11942, 14063, 14539, 14964]}, u'edge': {u'target': [], u'time': []}}, u'mouseout': {u'state': {u'target': [], u'time': []}, u'edge': {u'target': [], u'time': []}}}",,,"[16008, 2337, 10703]",-6.0,,417504,3.0,3.0,mouselab-mdp,,10
"[12128, 15851, 17629]","[u'right', u'right', u'up']",,,"[0, 0, 0]",,"[u'1', 2, 6, 10]","{u'mouseover': {u'state': {u'target': [], u'time': []}, u'edge': {u'target': [], u'time': []}}, u'click': {u'state': {u'target': [u'2', u'5', u'4', u'3', u'8', u'15', u'14', u'6', u'11', u'10'], u'time': [1712, 2689, 3416, 4074, 5784, 6846, 7933, 9240, 9962, 10932]}, u'edge': {u'target': [], u'time': []}}, u'mouseout': {u'state': {u'target': [], u'time': []}, u'edge': {u'target': [], u'time': []}}}",,,"[12128, 1, 897]",27.0,,491699,4.0,5.0,mouselab-mdp,,10
"[32833, 36408, 38186]","[u'left', u'left', u'up']",,,"[0, 0, 0]",,"[u'1', 4, 8, 14]","{u'mouseover': {u'state': {u'target': [], u'time': []}, u'edge': {u'target': [], u'time': []}}, u'click': {u'state': {u'target': [u'2', u'5', u'4', u'3', u'9', u'17', u'16', u'8', u'14'], u'time': [25805, 26407, 26855, 27632, 28330, 28850, 29701, 30783, 31184]}, u'edge': {u'target': [], u'time': []}}, u'mouseout': {u'state': {u'target': [], u'time': []}, u'edge': {u'target': [], u'time': []}}}",,,"[32833, 1, 972]",45.0,,546583,5.0,0.0,mouselab-mdp,,10
"[9023, 12577, 13460]","[u'right', u'right', u'up']",,,"[0, 0, 0]",,"[u'1', 2, 6, 10]","{u'mouseover': {u'state': {u'target': [], u'time': []}, u'edge': {u'target': [], u'time': []}}, u'click': {u'state': {u'target': [u'3', u'2', u'5', u'4', u'9', u'17', u'16', u'6', u'10', u'11'], u'time': [1336, 2334, 2862, 3258, 4313, 4775, 5227, 6184, 6617, 7745]}, u'edge': {u'target': [], u'time': []}}, u'mouseout': {u'state': {u'target': [], u'time': []}, u'edge': {u'target': [], u'time': []}}}",,,"[9023, 9, 169]",24.0,,610406,6.0,2.0,mouselab-mdp,,10
"[7103, 7805, 8406]","[u'right', u'right', u'down']",,,[],,"[u'1', 2, 6, 11]","{u'mouseover': {u'state': {u'target': [], u'time': []}, u'edge': {u'target': [], u'time': []}}, u'click': {u'state': {u'target': [u'2', u'5', u'4', u'3', u'7', u'13', u'12', u'10', u'6', u'11'], u'time': [1171, 1677, 2070, 2435, 3168, 3496, 4337, 5158, 5495, 5931]}, u'edge': {u'target': [], u'time': []}}, u'mouseout': {u'state': {u'target': [], u'time': []}, u'edge': {u'target': [], u'time': []}}}",,,"[7103, 187, 87]",46.0,,685065,7.0,6.0,mouselab-mdp,,10
"[9742, 10894, 11501]","[u'left', u'left', u'down']",,,[],,"[u'1', 4, 8, 15]","{u'mouseover': {u'state': {u'target': [], u'time': []}, u'edge': {u'target': [], u'time': []}}, u'click': {u'state': {u'target': [u'2', u'3', u'4', u'5', u'9', u'17', u'16', u'8', u'14', u'15'], u'time': [2237, 2761, 3192, 3909, 5301, 5995, 6720, 7514, 7888, 8474]}, u'edge': {u'target': [], u'time': []}}, u'mouseout': {u'state': {u'target': [], u'time': []}, u'edge': {u'target': [], u'time': []}}}",,,"[9742, 632, 88]",40.0,,746777,8.0,8.0,mouselab-mdp,,10
"[10906, 11513, 12064]","[u'left', u'left', u'down']",,,[],,"[u'1', 4, 8, 15]","{u'mouseover': {u'state': {u'target': [], u'time': []}, u'edge': {u'target': [], u'time': []}}, u'click': {u'state': {u'target': [u'2', u'5', u'4', u'3', u'8', u'14', u'15', u'7', u'13', u'12'], u'time': [1792, 2301, 2744, 3174, 5748, 6597, 7042, 8750, 9104, 9642]}, u'edge': {u'target': [], u'time': []}}, u'mouseout': {u'state': {u'target': [], u'time': []}, u'edge': {u'target': [], u'time': []}}}",,,"[10906, 93, 43]",31.0,,801028,9.0,9.0,mouselab-mdp,,10
"[13505, 14127, 14763]","[u'up', u'up', u'left']",,,[],,"[u'1', 3, 7, 12]","{u'mouseover': {u'state': {u'target': [], u'time': []}, u'edge': {u'target': [], u'time': []}}, u'click': {u'state': {u'target': [u'2', u'3', u'4', u'5', u'7', u'13', u'12', u'8', u'14', u'15', u'6', u'10', u'11'], u'time': [1745, 2300, 3067, 3766, 4400, 4818, 5368, 7782, 8130, 8632, 11695, 11997, 12465]}, u'edge': {u'target': [], u'time': []}}, u'mouseout': {u'state': {u'target': [], u'time': []}, u'edge': {u'target': [], u'time': []}}}",,,"[13505, 105, 126]",27.0,,858686,10.0,10.0,mouselab-mdp,,10
"[7328, 7925, 8496]","[u'right', u'right', u'down']",,,[],,"[u'1', 2, 6, 11]","{u'mouseover': {u'state': {u'target': [], u'time': []}, u'edge': {u'target': [], u'time': []}}, u'click': {u'state': {u'target': [u'2', u'5', u'4', u'3', u'6', u'11', u'10'], u'time': [3002, 3812, 4185, 4595, 5215, 5621, 6203]}, u'edge': {u'target': [], u'time': []}}, u'mouseout': {u'state': {u'target': [], u'time': []}, u'edge': {u'target': [], u'time': []}}}",,,"[7328, 87, 59]",49.0,,911547,11.0,11.0,mouselab-mdp,,10
"[11979, 12534, 13095]","[u'left', u'left', u'up']",,,[],,"[u'1', 4, 8, 14]","{u'mouseover': {u'state': {u'target': [], u'time': []}, u'edge': {u'target': [], u'time': []}}, u'click': {u'state': {u'target': [u'2', u'3', u'4', u'5', u'7', u'13', u'12', u'10', u'6', u'11', u'8', u'14'], u'time': [1005, 1597, 1979, 2767, 3877, 4282, 4720, 8269, 8767, 9197, 10109, 10447]}, u'edge': {u'target': [], u'time': []}}, u'mouseout': {u'state': {u'target': [], u'time': []}, u'edge': {u'target': [], u'time': []}}}",,,"[11979, 46, 41]",45.0,,972749,12.0,7.0,mouselab-mdp,,10
"[1648, 42764, 49068]","[u'up', u'up', u'right']",,,"[34, 4, 9]",,"[u'1', 3, 7, 13]","{u'mouseover': {u'state': {u'target': [], u'time': []}, u'edge': {u'target': [], u'time': []}}, u'click': {u'state': {u'target': [u'2'], u'time': [37437]}, u'edge': {u'target': [], u'time': []}}, u'mouseout': {u'state': {u'target': [], u'time': []}, u'edge': {u'target': [], u'time': []}}}",,,"[1646, 5481, 1045]",3.0,,879674,1.0,3.0,mouselab-mdp,,11
"[1729, 41835, 43308]","[u'left', u'left', u'up']",,,"[34, 0, 9]",,"[u'1', 4, 8, 14]","{u'mouseover': {u'state': {u'target': [], u'time': []}, u'edge': {u'target': [], u'time': []}}, u'click': {u'state': {u'target': [], u'time': []}, u'edge': {u'target': [], u'time': []}}, u'mouseout': {u'state': {u'target': [], u'time': []}, u'edge': {u'target': [], u'time': []}}}",,,"[1729, 4469, 634]",54.0,,983685,2.0,0.0,mouselab-mdp,,11
"[806, 40702, 41536]","[u'down', u'down', u'right']",,,"[34, 0, 9]",,"[u'1', 5, 9, 17]","{u'mouseover': {u'state': {u'target': [], u'time': []}, u'edge': {u'target': [], u'time': []}}, u'click': {u'state': {u'target': [], u'time': []}, u'edge': {u'target': [], u'time': []}}, u'mouseout': {u'state': {u'target': [], u'time': []}, u'edge': {u'target': [], u'time': []}}}",,,"[806, 4224, 1]",42.0,,1079370,3.0,4.0,mouselab-mdp,,11
"[1056, 38775, 40077]","[u'right', u'right', u'up']",,,"[34, 0, 9]",,"[u'1', 2, 6, 10]","{u'mouseover': {u'state': {u'target': [], u'time': []}, u'edge': {u'target': [], u'time': []}}, u'click': {u'state': {u'target': [], u'time': []}, u'edge': {u'target': [], u'time': []}}, u'mouseout': {u'state': {u'target': [], u'time': []}, u'edge': {u'target': [], u'time': []}}}",,,"[1056, 2095, 465]",37.0,,1191425,4.0,5.0,mouselab-mdp,,11
"[2491, 38578, 39443]","[u'down', u'down', u'left']",,,"[34, 0, 9]",,"[u'1', 5, 9, 16]","{u'mouseover': {u'state': {u'target': [], u'time': []}, u'edge': {u'target': [], u'time': []}}, u'click': {u'state': {u'target': [], u'time': []}, u'edge': {u'target': [], u'time': []}}, u'mouseout': {u'state': {u'target': [], u'time': []}, u'edge': {u'target': [], u'time': []}}}",,,"[2491, 492, 3]",1.0,,1289873,5.0,2.0,mouselab-mdp,,11
"[1340, 37609, 38507]","[u'left', u'left', u'up']",,,"[34, 0, 9]",,"[u'1', 4, 8, 14]","{u'mouseover': {u'state': {u'target': [], u'time': []}, u'edge': {u'target': [], u'time': []}}, u'click': {u'state': {u'target': [], u'time': []}, u'edge': {u'target': [], u'time': []}}, u'mouseout': {u'state': {u'target': [], u'time': []}, u'edge': {u'target': [], u'time': []}}}",,,"[1340, 625, 37]",-9.0,,1384645,6.0,1.0,mouselab-mdp,,11
"[1014, 6817, 7408]","[u'up', u'up', u'right']",,,[],,"[u'1', 3, 7, 13]","{u'mouseover': {u'state': {u'target': [], u'time': []}, u'edge': {u'target': [], u'time': []}}, u'click': {u'state': {u'target': [], u'time': []}, u'edge': {u'target': [], u'time': []}}, u'mouseout': {u'state': {u'target': [], u'time': []}, u'edge': {u'target': [], u'time': []}}}",,,"[1014, 5288, 80]",13.0,,1446856,7.0,7.0,mouselab-mdp,,11
"[508, 2035, 2698]","[u'down', u'down', u'left']",,,[],,"[u'1', 5, 9, 16]","{u'mouseover': {u'state': {u'target': [], u'time': []}, u'edge': {u'target': [], u'time': []}}, u'click': {u'state': {u'target': [], u'time': []}, u'edge': {u'target': [], u'time': []}}, u'mouseout': {u'state': {u'target': [], u'time': []}, u'edge': {u'target': [], u'time': []}}}",,,"[508, 1019, 167]",7.0,,1494530,8.0,10.0,mouselab-mdp,,11
"[439, 2094, 2669]","[u'left', u'left', u'up']",,,[],,"[u'1', 4, 8, 14]","{u'mouseover': {u'state': {u'target': [], u'time': []}, u'edge': {u'target': [], u'time': []}}, u'click': {u'state': {u'target': [], u'time': []}, u'edge': {u'target': [], u'time': []}}, u'mouseout': {u'state': {u'target': [], u'time': []}, u'edge': {u'target': [], u'time': []}}}",,,"[439, 1149, 56]",14.0,,1542161,9.0,9.0,mouselab-mdp,,11
"[1399, 4903, 5764]","[u'right', u'right', u'down']",,,[],,"[u'1', 2, 6, 11]","{u'mouseover': {u'state': {u'target': [], u'time': []}, u'edge': {u'target': [], u'time': []}}, u'click': {u'state': {u'target': [], u'time': []}, u'edge': {u'target': [], u'time': []}}, u'mouseout': {u'state': {u'target': [], u'time': []}, u'edge': {u'target': [], u'time': []}}}",,,"[1399, 3003, 365]",56.0,,1590464,10.0,6.0,mouselab-mdp,,11
"[545, 2271, 2849]","[u'down', u'down', u'right']",,,[],,"[u'1', 5, 9, 17]","{u'mouseover': {u'state': {u'target': [], u'time': []}, u'edge': {u'target': [], u'time': []}}, u'click': {u'state': {u'target': [], u'time': []}, u'edge': {u'target': [], u'time': []}}, u'mouseout': {u'state': {u'target': [], u'time': []}, u'edge': {u'target': [], u'time': []}}}",,,"[544, 1215, 76]",40.0,,1639642,11.0,11.0,mouselab-mdp,,11
"[521, 2100, 2686]","[u'left', u'left', u'down']",,,[],,"[u'1', 4, 8, 15]","{u'mouseover': {u'state': {u'target': [], u'time': []}, u'edge': {u'target': [], u'time': []}}, u'click': {u'state': {u'target': [], u'time': []}, u'edge': {u'target': [], u'time': []}}, u'mouseout': {u'state': {u'target': [], u'time': []}, u'edge': {u'target': [], u'time': []}}}",,,"[519, 1091, 92]",50.0,,1687573,12.0,8.0,mouselab-mdp,,11
"[18191, 32559, 40895]","[u'right', u'right', u'down']",,,"[3, 0, 1]",,"[u'1', 2, 6, 11]","{u'mouseover': {u'state': {u'target': [], u'time': []}, u'edge': {u'target': [], u'time': []}}, u'click': {u'state': {u'target': [u'2'], u'time': [7650]}, u'edge': {u'target': [], u'time': []}}, u'mouseout': {u'state': {u'target': [], u'time': []}, u'edge': {u'target': [], u'time': []}}}",,,"[18189, 2376, 6205]",30.0,,255084,1.0,5.0,mouselab-mdp,,12
"[31957, 48547, 68243]","[u'up', u'up', u'right']",,,"[3, 0, 1]",,"[u'1', 3, 7, 13]","{u'mouseover': {u'state': {u'target': [], u'time': []}, u'edge': {u'target': [], u'time': []}}, u'click': {u'state': {u'target': [u'4', u'3', u'12', u'13', u'17', u'16'], u'time': [5228, 14951, 23996, 24912, 26474, 27447]}, u'edge': {u'target': [], u'time': []}}, u'mouseout': {u'state': {u'target': [], u'time': []}, u'edge': {u'target': [], u'time': []}}}",,,"[31957, 820, 18024]",-2.0,,334820,2.0,3.0,mouselab-mdp,,12
"[15923, 30920, 37775]","[u'up', u'up', u'left']",,,"[3, 0, 1]",,"[u'1', 3, 7, 12]","{u'mouseover': {u'state': {u'target': [], u'time': []}, u'edge': {u'target': [], u'time': []}}, u'click': {u'state': {u'target': [u'17', u'16', u'12', u'3'], u'time': [3745, 6750, 9417, 13157]}, u'edge': {u'target': [], u'time': []}}, u'mouseout': {u'state': {u'target': [], u'time': []}, u'edge': {u'target': [], u'time': []}}}",,,"[15923, 593, 4747]",40.0,,402944,3.0,1.0,mouselab-mdp,,12
"[16596, 36432, 46813]","[u'left', u'left', u'up']",,,"[3, 0, 1]",,"[u'1', 4, 8, 14]","{u'mouseover': {u'state': {u'target': [], u'time': []}, u'edge': {u'target': [], u'time': []}}, u'click': {u'state': {u'target': [u'13', u'12', u'16', u'17', u'11', u'10', u'14', u'15'], u'time': [2968, 4373, 5717, 6647, 7828, 9072, 10183, 11192]}, u'edge': {u'target': [], u'time': []}}, u'mouseout': {u'state': {u'target': [], u'time': []}, u'edge': {u'target': [], u'time': []}}}",,,"[16596, 859, 8719]",46.0,,473681,4.0,0.0,mouselab-mdp,,12
"[16843, 34548, 43419]","[u'right', u'right', u'up']",,,"[3, 0, 1]",,"[u'1', 2, 6, 10]","{u'mouseover': {u'state': {u'target': [], u'time': []}, u'edge': {u'target': [], u'time': []}}, u'click': {u'state': {u'target': [u'17', u'16', u'15', u'14', u'12', u'13', u'10', u'11'], u'time': [3887, 4982, 6112, 7161, 8036, 8966, 9836, 10855]}, u'edge': {u'target': [], u'time': []}}, u'mouseout': {u'state': {u'target': [], u'time': []}, u'edge': {u'target': [], u'time': []}}}",,,"[16843, 511, 7417]",26.0,,543895,5.0,2.0,mouselab-mdp,,12
"[16112, 34200, 39536]","[u'up', u'up', u'left']",,,"[3, 0, 1]",,"[u'1', 3, 7, 12]","{u'mouseover': {u'state': {u'target': [], u'time': []}, u'edge': {u'target': [], u'time': []}}, u'click': {u'state': {u'target': [u'13', u'12', u'14', u'15', u'16', u'17', u'11', u'10'], u'time': [2425, 3824, 5156, 6195, 7037, 8193, 9302, 10206]}, u'edge': {u'target': [], u'time': []}}, u'mouseout': {u'state': {u'target': [], u'time': []}, u'edge': {u'target': [], u'time': []}}}",,,"[16112, 617, 3775]",18.0,,610220,6.0,4.0,mouselab-mdp,,12
"[16782, 21097, 26770]","[u'down', u'down', u'left']",,,[],,"[u'1', 5, 9, 16]","{u'mouseover': {u'state': {u'target': [], u'time': []}, u'edge': {u'target': [], u'time': []}}, u'click': {u'state': {u'target': [u'13', u'12', u'14', u'15', u'16', u'17', u'11', u'10', u'5'], u'time': [1871, 3103, 4086, 5024, 5962, 6987, 7847, 8825, 14168]}, u'edge': {u'target': [], u'time': []}}, u'mouseout': {u'state': {u'target': [], u'time': []}, u'edge': {u'target': [], u'time': []}}}",,,"[16782, 3798, 5156]",44.0,,658711,7.0,11.0,mouselab-mdp,,12
"[12589, 16500, 19224]","[u'up', u'up', u'left']",,,[],,"[u'1', 3, 7, 12]","{u'mouseover': {u'state': {u'target': [], u'time': []}, u'edge': {u'target': [], u'time': []}}, u'click': {u'state': {u'target': [u'13', u'12', u'14', u'15', u'16', u'17', u'11', u'10'], u'time': [1388, 2464, 3188, 4000, 4850, 5938, 6854, 7695]}, u'edge': {u'target': [], u'time': []}}, u'mouseout': {u'state': {u'target': [], u'time': []}, u'edge': {u'target': [], u'time': []}}}",,,"[12589, 3388, 2214]",30.0,,706222,8.0,8.0,mouselab-mdp,,12
"[15619, 17652, 19360]","[u'left', u'left', u'up']",,,[],,"[u'1', 4, 8, 14]","{u'mouseover': {u'state': {u'target': [], u'time': []}, u'edge': {u'target': [], u'time': []}}, u'click': {u'state': {u'target': [u'13', u'12', u'14', u'15', u'16', u'17', u'11', u'10'], u'time': [2632, 4233, 5599, 6752, 7803, 8935, 9778, 10747]}, u'edge': {u'target': [], u'time': []}}, u'mouseout': {u'state': {u'target': [], u'time': []}, u'edge': {u'target': [], u'time': []}}}",,,"[15618, 1528, 1201]",49.0,,753994,9.0,7.0,mouselab-mdp,,12
"[24110, 29521, 34909]","[u'up', u'up', u'left']",,,[],,"[u'1', 3, 7, 12]","{u'mouseover': {u'state': {u'target': [], u'time': []}, u'edge': {u'target': [], u'time': []}}, u'click': {u'state': {u'target': [u'13', u'12', u'14', u'15', u'16', u'17', u'11', u'10', u'2', u'3'], u'time': [2068, 3811, 5240, 6273, 7170, 8443, 9469, 10348, 18956, 20233]}, u'edge': {u'target': [], u'time': []}}, u'mouseout': {u'state': {u'target': [], u'time': []}, u'edge': {u'target': [], u'time': []}}}",,,"[24110, 4897, 4869]",12.0,,803550,10.0,9.0,mouselab-mdp,,12
"[15411, 17134, 18637]","[u'right', u'right', u'down']",,,[],,"[u'1', 2, 6, 11]","{u'mouseover': {u'state': {u'target': [], u'time': []}, u'edge': {u'target': [], u'time': []}}, u'click': {u'state': {u'target': [u'13', u'12', u'16', u'17', u'11', u'10', u'14', u'15'], u'time': [4909, 5995, 7848, 8746, 9433, 10385, 11434, 12448]}, u'edge': {u'target': [], u'time': []}}, u'mouseout': {u'state': {u'target': [], u'time': []}, u'edge': {u'target': [], u'time': []}}}",,,"[15411, 1210, 996]",48.0,,852098,11.0,6.0,mouselab-mdp,,12
"[14568, 15902, 17429]","[u'left', u'left', u'down']",,,[],,"[u'1', 4, 8, 15]","{u'mouseover': {u'state': {u'target': [], u'time': []}, u'edge': {u'target': [], u'time': []}}, u'click': {u'state': {u'target': [u'13', u'12', u'14', u'15', u'16', u'17', u'11', u'10'], u'time': [1519, 2446, 3381, 4388, 5464, 6513, 7205, 8077]}, u'edge': {u'target': [], u'time': []}}, u'mouseout': {u'state': {u'target': [], u'time': []}, u'edge': {u'target': [], u'time': []}}}",,,"[14567, 821, 1014]",20.0,,902041,12.0,10.0,mouselab-mdp,,12
"[23314, 44597, 46076]","[u'down', u'down', u'right']",,,"[8, 0, 0]",,"[u'1', 5, 9, 17]","{u'mouseover': {u'state': {u'target': [], u'time': []}, u'edge': {u'target': [], u'time': []}}, u'click': {u'state': {u'target': [u'4', u'3', u'2', u'5', u'16', u'17', u'9'], u'time': [2919, 5960, 8446, 9859, 14048, 15901, 17572]}, u'edge': {u'target': [], u'time': []}}, u'mouseout': {u'state': {u'target': [], u'time': []}, u'edge': {u'target': [], u'time': []}}}",,,"[23313, 3522, 4]",15.0,,250775,1.0,0.0,mouselab-mdp,,13
"[12700, 23681, 25136]","[u'right', u'right', u'up']",,,"[0, 0, 0]",,"[u'1', 2, 6, 10]","{u'mouseover': {u'state': {u'target': [], u'time': []}, u'edge': {u'target': [], u'time': []}}, u'click': {u'state': {u'target': [u'3', u'2', u'5', u'4', u'9', u'6', u'11', u'10'], u'time': [1534, 2760, 3676, 4422, 6522, 7358, 9494, 10100]}, u'edge': {u'target': [], u'time': []}}, u'mouseout': {u'state': {u'target': [], u'time': []}, u'edge': {u'target': [], u'time': []}}}",,,"[12700, 4, 4]",26.0,,309240,2.0,2.0,mouselab-mdp,,13
"[19726, 46401, 48468]","[u'right', u'right', u'up']",,,"[0, 0, 0]",,"[u'1', 2, 6, 10]","{u'mouseover': {u'state': {u'target': [], u'time': []}, u'edge': {u'target': [], u'time': []}}, u'click': {u'state': {u'target': [u'4', u'5', u'2', u'3', u'13', u'12', u'15', u'14', u'16', u'9', u'17', u'11', u'6', u'10', u'7', u'8'], u'time': [1493, 3517, 4543, 5409, 6337, 7255, 8604, 10545, 11903, 12296, 12884, 13561, 13961, 14446, 15194, 15844]}, u'edge': {u'target': [], u'time': []}}, u'mouseout': {u'state': {u'target': [], u'time': []}, u'edge': {u'target': [], u'time': []}}}",,,"[19723, 5, 1502]",20.0,,388283,3.0,3.0,mouselab-mdp,,13
"[11430, 35480, 37028]","[u'up', u'up', u'left']",,,"[0, 0, 0]",,"[u'1', 3, 7, 12]","{u'mouseover': {u'state': {u'target': [], u'time': []}, u'edge': {u'target': [], u'time': []}}, u'click': {u'state': {u'target': [u'11', u'10', u'13', u'12', u'14', u'15', u'16', u'17', u'3', u'7'], u'time': [1908, 2854, 3956, 4565, 5978, 6654, 7294, 8089, 9289, 10239]}, u'edge': {u'target': [], u'time': []}}, u'mouseout': {u'state': {u'target': [], u'time': []}, u'edge': {u'target': [], u'time': []}}}",,,"[11429, 1287, 3]",34.0,,467780,4.0,1.0,mouselab-mdp,,13
"[16864, 70980, 72163]","[u'right', u'right', u'up']",,,"[0, 0, 0]",,"[u'1', 2, 6, 10]","{u'mouseover': {u'state': {u'target': [], u'time': []}, u'edge': {u'target': [], u'time': []}}, u'click': {u'state': {u'target': [u'12', u'13', u'11', u'10', u'17', u'16', u'9', u'5', u'15', u'14', u'6', u'2'], u'time': [3057, 4367, 5318, 6227, 7420, 8095, 10094, 10653, 11720, 12410, 14449, 15069]}, u'edge': {u'target': [], u'time': []}}, u'mouseout': {u'state': {u'target': [], u'time': []}, u'edge': {u'target': [], u'time': []}}}",,,"[16864, 14134, 275]",25.0,,556606,5.0,5.0,mouselab-mdp,,13
"[14561, 25387, 29744]","[u'down', u'down', u'right']",,,"[0, 0, 0]",,"[u'1', 5, 9, 17]","{u'mouseover': {u'state': {u'target': [], u'time': []}, u'edge': {u'target': [], u'time': []}}, u'click': {u'state': {u'target': [u'12', u'13', u'10', u'11', u'7', u'3', u'14', u'15', u'16', u'17', u'9', u'5'], u'time': [1496, 2837, 3707, 4437, 5486, 6721, 8748, 9385, 10729, 11217, 11988, 12368]}, u'edge': {u'target': [], u'time': []}}, u'mouseout': {u'state': {u'target': [], u'time': []}, u'edge': {u'target': [], u'time': []}}}",,,"[14561, 6, 3437]",30.0,,622563,6.0,4.0,mouselab-mdp,,13
"[19848, 21157, 21938]","[u'up', u'up', u'left']",,,[],,"[u'1', 3, 7, 12]","{u'mouseover': {u'state': {u'target': [], u'time': []}, u'edge': {u'target': [], u'time': []}}, u'click': {u'state': {u'target': [u'12', u'13', u'10', u'11', u'17', u'16', u'15', u'14', u'4', u'8', u'9', u'5', u'6', u'2', u'3', u'7'], u'time': [1410, 2998, 3884, 4560, 5111, 5709, 6214, 7100, 7938, 8436, 12430, 13664, 15030, 15497, 16334, 16802]}, u'edge': {u'target': [], u'time': []}}, u'mouseout': {u'state': {u'target': [], u'time': []}, u'edge': {u'target': [], u'time': []}}}",,,"[19847, 791, 289]",24.0,,686679,7.0,10.0,mouselab-mdp,,13
"[8879, 9669, 10321]","[u'up', u'up', u'right']",,,[],,"[u'1', 3, 7, 13]","{u'mouseover': {u'state': {u'target': [], u'time': []}, u'edge': {u'target': [], u'time': []}}, u'click': {u'state': {u'target': [u'8', u'9', u'6', u'7', u'13', u'12', u'3'], u'time': [2618, 3533, 4245, 4963, 6051, 7053, 7652]}, u'edge': {u'target': [], u'time': []}}, u'mouseout': {u'state': {u'target': [], u'time': []}, u'edge': {u'target': [], u'time': []}}}",,,"[8879, 273, 155]",28.0,,735706,8.0,11.0,mouselab-mdp,,13
"[6296, 7144, 7917]","[u'left', u'left', u'down']",,,[],,"[u'1', 4, 8, 15]","{u'mouseover': {u'state': {u'target': [], u'time': []}, u'edge': {u'target': [], u'time': []}}, u'click': {u'state': {u'target': [u'8', u'15', u'4'], u'time': [1914, 3824, 4891]}, u'edge': {u'target': [], u'time': []}}, u'mouseout': {u'state': {u'target': [], u'time': []}, u'edge': {u'target': [], u'time': []}}}",,,"[6295, 341, 252]",46.0,,798043,9.0,7.0,mouselab-mdp,,13
"[11760, 12428, 13043]","[u'left', u'left', u'down']",,,[],,"[u'1', 4, 8, 15]","{u'mouseover': {u'state': {u'target': [], u'time': []}, u'edge': {u'target': [], u'time': []}}, u'click': {u'state': {u'target': [u'8', u'9', u'6', u'7', u'14', u'15', u'4'], u'time': [1517, 4512, 7909, 8559, 9493, 10203, 10741]}, u'edge': {u'target': [], u'time': []}}, u'mouseout': {u'state': {u'target': [], u'time': []}, u'edge': {u'target': [], u'time': []}}}",,,"[11759, 166, 114]",34.0,,847133,10.0,9.0,mouselab-mdp,,13
"[3983, 4853, 5572]","[u'left', u'left', u'down']",,,[],,"[u'1', 4, 8, 15]","{u'mouseover': {u'state': {u'target': [], u'time': []}, u'edge': {u'target': [], u'time': []}}, u'click': {u'state': {u'target': [u'8', u'15', u'4'], u'time': [927, 2271, 2938]}, u'edge': {u'target': [], u'time': []}}, u'mouseout': {u'state': {u'target': [], u'time': []}, u'edge': {u'target': [], u'time': []}}}",,,"[3982, 369, 205]",47.0,,899373,11.0,8.0,mouselab-mdp,,13
"[6327, 7457, 8487]","[u'right', u'right', u'down']",,,[],,"[u'1', 2, 6, 11]","{u'mouseover': {u'state': {u'target': [], u'time': []}, u'edge': {u'target': [], u'time': []}}, u'click': {u'state': {u'target': [u'9', u'6', u'10', u'11', u'2'], u'time': [1562, 2563, 3822, 4386, 4959]}, u'edge': {u'target': [], u'time': []}}, u'mouseout': {u'state': {u'target': [], u'time': []}, u'edge': {u'target': [], u'time': []}}}",,,"[6327, 628, 514]",51.0,,964345,12.0,6.0,mouselab-mdp,,13
"[1434, 13600, 16064]","[u'left', u'left', u'down']",,,"[3, 0, 1]",,"[u'1', 4, 8, 15]","{u'mouseover': {u'state': {u'target': [], u'time': []}, u'edge': {u'target': [], u'time': []}}, u'click': {u'state': {u'target': [], u'time': []}, u'edge': {u'target': [], u'time': []}}, u'mouseout': {u'state': {u'target': [], u'time': []}, u'edge': {u'target': [], u'time': []}}}",,,"[1434, 7536, 1611]",-28.0,,123326,1.0,2.0,mouselab-mdp,,14
"[3306, 10682, 13290]","[u'left', u'left', u'down']",,,"[3, 0, 1]",,"[u'1', 4, 8, 15]","{u'mouseover': {u'state': {u'target': [], u'time': []}, u'edge': {u'target': [], u'time': []}}, u'click': {u'state': {u'target': [], u'time': []}, u'edge': {u'target': [], u'time': []}}, u'mouseout': {u'state': {u'target': [], u'time': []}, u'edge': {u'target': [], u'time': []}}}",,,"[3306, 2694, 1767]",-4.0,,177733,2.0,5.0,mouselab-mdp,,14
"[2648, 13664, 21271]","[u'up', u'up', u'left']",,,"[3, 0, 1]",,"[u'1', 3, 7, 12]","{u'mouseover': {u'state': {u'target': [], u'time': []}, u'edge': {u'target': [], u'time': []}}, u'click': {u'state': {u'target': [u'3', u'7', u'13'], u'time': [933, 12235, 19922]}, u'edge': {u'target': [], u'time': []}}, u'mouseout': {u'state': {u'target': [], u'time': []}, u'edge': {u'target': [], u'time': []}}}",,,"[2648, 6109, 6583]",6.0,,239171,3.0,0.0,mouselab-mdp,,14
"[5616, 15615, 76158]","[u'left', u'left', u'up']",,,"[3, 0, 1]",,"[u'1', 4, 8, 14]","{u'mouseover': {u'state': {u'target': [], u'time': []}, u'edge': {u'target': [], u'time': []}}, u'click': {u'state': {u'target': [u'2', u'4', u'5', u'8', u'14', u'15'], u'time': [906, 2081, 3321, 14345, 17601, 19201]}, u'edge': {u'target': [], u'time': []}}, u'mouseout': {u'state': {u'target': [], u'time': []}, u'edge': {u'target': [], u'time': []}}}",,,"[5615, 4817, 59495]",0.0,,320682,4.0,4.0,mouselab-mdp,,14
"[2101, 10893, 12693]","[u'up', u'up', u'left']",,,"[3, 0, 1]",,"[u'1', 3, 7, 12]","{u'mouseover': {u'state': {u'target': [], u'time': []}, u'edge': {u'target': [], u'time': []}}, u'click': {u'state': {u'target': [u'3', u'13', u'12'], u'time': [1234, 8399, 9424]}, u'edge': {u'target': [], u'time': []}}, u'mouseout': {u'state': {u'target': [], u'time': []}, u'edge': {u'target': [], u'time': []}}}",,,"[2101, 3886, 621]",41.0,,394665,5.0,1.0,mouselab-mdp,,14
"[7525, 24308, 25563]","[u'up', u'up', u'right']",,,"[3, 0, 1]",,"[u'1', 3, 7, 13]","{u'mouseover': {u'state': {u'target': [], u'time': []}, u'edge': {u'target': [], u'time': []}}, u'click': {u'state': {u'target': [u'5', u'4', u'2', u'3', u'13', u'12', u'7'], u'time': [2377, 4097, 5255, 6248, 15783, 16527, 17271]}, u'edge': {u'target': [], u'time': []}}, u'mouseout': {u'state': {u'target': [], u'time': []}, u'edge': {u'target': [], u'time': []}}}",,,"[7525, 11458, 3]",-3.0,,453792,6.0,3.0,mouselab-mdp,,14
"[24787, 25787, 26699]","[u'left', u'left', u'down']",,,[],,"[u'1', 4, 8, 15]","{u'mouseover': {u'state': {u'target': [], u'time': []}, u'edge': {u'target': [], u'time': []}}, u'click': {u'state': {u'target': [u'11', u'10', u'2', u'6', u'3', u'5', u'4', u'17', u'16', u'14', u'15', u'8'], u'time': [1806, 2565, 3933, 5526, 10710, 12197, 13069, 14813, 15733, 21397, 22045, 22941]}, u'edge': {u'target': [], u'time': []}}, u'mouseout': {u'state': {u'target': [], u'time': []}, u'edge': {u'target': [], u'time': []}}}",,,"[24787, 487, 399]",38.0,,509606,7.0,8.0,mouselab-mdp,,14
"[10983, 11863, 13103]","[u'left', u'left', u'up']",,,[],,"[u'1', 4, 8, 14]","{u'mouseover': {u'state': {u'target': [], u'time': []}, u'edge': {u'target': [], u'time': []}}, u'click': {u'state': {u'target': [u'2', u'10', u'11', u'14', u'4', u'8'], u'time': [2761, 4121, 4906, 7641, 9313, 10049]}, u'edge': {u'target': [], u'time': []}}, u'mouseout': {u'state': {u'target': [], u'time': []}, u'edge': {u'target': [], u'time': []}}}",,,"[10983, 366, 723]",51.0,,569445,8.0,7.0,mouselab-mdp,,14
"[9814, 12590, 14869]","[u'left', u'left', u'down']",,,[],,"[u'1', 4, 8, 15]","{u'mouseover': {u'state': {u'target': [], u'time': []}, u'edge': {u'target': [], u'time': []}}, u'click': {u'state': {u'target': [u'14', u'15', u'16', u'17', u'10', u'11', u'13', u'12'], u'time': [2570, 3265, 4290, 4840, 5752, 6263, 7191, 7800]}, u'edge': {u'target': [], u'time': []}}, u'mouseout': {u'state': {u'target': [], u'time': []}, u'edge': {u'target': [], u'time': []}}}",,,"[9812, 2274, 1771]",20.0,,626083,9.0,10.0,mouselab-mdp,,14
"[6578, 7650, 8665]","[u'right', u'right', u'down']",,,[],,"[u'1', 2, 6, 11]","{u'mouseover': {u'state': {u'target': [], u'time': []}, u'edge': {u'target': [], u'time': []}}, u'click': {u'state': {u'target': [u'10', u'11', u'2'], u'time': [1830, 2724, 5230]}, u'edge': {u'target': [], u'time': []}}, u'mouseout': {u'state': {u'target': [], u'time': []}, u'edge': {u'target': [], u'time': []}}}",,,"[6578, 570, 501]",53.0,,679922,10.0,6.0,mouselab-mdp,,14
"[7801, 8633, 9601]","[u'left', u'left', u'down']",,,[],,"[u'1', 4, 8, 15]","{u'mouseover': {u'state': {u'target': [], u'time': []}, u'edge': {u'target': [], u'time': []}}, u'click': {u'state': {u'target': [u'2', u'4', u'5', u'14', u'15'], u'time': [1820, 2940, 4475, 6140, 6666]}, u'edge': {u'target': [], u'time': []}}, u'mouseout': {u'state': {u'target': [], u'time': []}, u'edge': {u'target': [], u'time': []}}}",,,"[7801, 317, 452]",36.0,,729897,11.0,9.0,mouselab-mdp,,14
"[4804, 5793, 6787]","[u'down', u'down', u'left']",,,[],,"[u'1', 5, 9, 16]","{u'mouseover': {u'state': {u'target': [], u'time': []}, u'edge': {u'target': [], u'time': []}}, u'click': {u'state': {u'target': [u'4', u'5', u'17', u'16'], u'time': [727, 1431, 3223, 4078]}, u'edge': {u'target': [], u'time': []}}, u'mouseout': {u'state': {u'target': [], u'time': []}, u'edge': {u'target': [], u'time': []}}}",,,"[4804, 375, 394]",49.0,,779296,12.0,11.0,mouselab-mdp,,14
"[12165, 44025, 50669]","[u'up', u'up', u'left']",,,"[11, 2, 9]",,"[u'1', 3, 7, 12]","{u'mouseover': {u'state': {u'target': [], u'time': []}, u'edge': {u'target': [], u'time': []}}, u'click': {u'state': {u'target': [u'2', u'3', u'4', u'7'], u'time': [3169, 4975, 9121, 39826]}, u'edge': {u'target': [], u'time': []}}, u'mouseout': {u'state': {u'target': [], u'time': []}, u'edge': {u'target': [], u'time': []}}}",,,"[12163, 14023, 2226]",-14.0,,343535,1.0,3.0,mouselab-mdp,,15
"[9797, 37149, 46095]","[u'down', u'down', u'right']",,,"[8, 2, 0]",,"[u'1', 5, 9, 17]","{u'mouseover': {u'state': {u'target': [], u'time': []}, u'edge': {u'target': [], u'time': []}}, u'click': {u'state': {u'target': [u'2', u'5', u'4', u'3', u'9', u'17', u'16'], u'time': [3207, 5000, 6732, 8044, 28741, 43406, 44754]}, u'edge': {u'target': [], u'time': []}}, u'mouseout': {u'state': {u'target': [], u'time': []}, u'edge': {u'target': [], u'time': []}}}",,,"[9796, 11374, 4248]",15.0,,422328,2.0,0.0,mouselab-mdp,,15
"[6305, 76678, 91875]","[u'down', u'down', u'right']",,,"[5, 6, 0]",,"[u'1', 5, 9, 17]","{u'mouseover': {u'state': {u'target': [], u'time': []}, u'edge': {u'target': [], u'time': []}}, u'click': {u'state': {u'target': [u'3', u'2', u'5', u'4', u'9', u'17', u'16'], u'time': [1497, 2661, 3556, 4697, 20999, 27636, 28477]}, u'edge': {u'target': [], u'time': []}}, u'mouseout': {u'state': {u'target': [], u'time': []}, u'edge': {u'target': [], u'time': []}}}",,,"[6305, 57817, 5707]",-6.0,,520778,3.0,2.0,mouselab-mdp,,15
"[23277, 33626, 35858]","[u'right', u'right', u'up']",,,"[0, 0, 0]",,"[u'1', 2, 6, 10]","{u'mouseover': {u'state': {u'target': [], u'time': []}, u'edge': {u'target': [], u'time': []}}, u'click': {u'state': {u'target': [u'3', u'2', u'5', u'4', u'8', u'6', u'10', u'11', u'7', u'13', u'12'], u'time': [2109, 2904, 3983, 4724, 6284, 7599, 9317, 10364, 13339, 16459, 21249]}, u'edge': {u'target': [], u'time': []}}, u'mouseout': {u'state': {u'target': [], u'time': []}, u'edge': {u'target': [], u'time': []}}}",,,"[23277, 14, 1079]",26.0,,582504,4.0,5.0,mouselab-mdp,,15
"[12873, 23194, 26053]","[u'up', u'up', u'left']",,,"[0, 0, 0]",,"[u'1', 3, 7, 12]","{u'mouseover': {u'state': {u'target': [], u'time': []}, u'edge': {u'target': [], u'time': []}}, u'click': {u'state': {u'target': [u'3', u'2', u'5', u'4', u'9', u'16', u'17', u'7', u'13', u'12'], u'time': [1098, 2036, 2860, 3559, 4775, 5426, 6284, 7900, 8713, 9470]}, u'edge': {u'target': [], u'time': []}}, u'mouseout': {u'state': {u'target': [], u'time': []}, u'edge': {u'target': [], u'time': []}}}",,,"[12873, 16, 1612]",34.0,,639598,5.0,1.0,mouselab-mdp,,15
"[13955, 24335, 25803]","[u'down', u'down', u'right']",,,"[0, 0, 0]",,"[u'1', 5, 9, 17]","{u'mouseover': {u'state': {u'target': [], u'time': []}, u'edge': {u'target': [], u'time': []}}, u'click': {u'state': {u'target': [u'3', u'2', u'5', u'4', u'7', u'8', u'6', u'9', u'17', u'16'], u'time': [795, 1524, 2157, 2873, 3839, 6066, 7069, 7977, 9282, 10141]}, u'edge': {u'target': [], u'time': []}}, u'mouseout': {u'state': {u'target': [], u'time': []}, u'edge': {u'target': [], u'time': []}}}",,,"[13955, 19, 12]",32.0,,699361,6.0,4.0,mouselab-mdp,,15
"[12593, 13475, 14432]","[u'right', u'right', u'down']",,,[],,"[u'1', 2, 6, 11]","{u'mouseover': {u'state': {u'target': [], u'time': []}, u'edge': {u'target': [], u'time': []}}, u'click': {u'state': {u'target': [u'3', u'4', u'5', u'2', u'6', u'7', u'8', u'9', u'10', u'11'], u'time': [1110, 1802, 2398, 2986, 3570, 5408, 7038, 8181, 9590, 10795]}, u'edge': {u'target': [], u'time': []}}, u'mouseout': {u'state': {u'target': [], u'time': []}, u'edge': {u'target': [], u'time': []}}}",,,"[12593, 363, 419]",46.0,,759176,7.0,6.0,mouselab-mdp,,15
"[19041, 20402, 21691]","[u'left', u'left', u'down']",,,[],,"[u'1', 4, 8, 15]","{u'mouseover': {u'state': {u'target': [], u'time': []}, u'edge': {u'target': [], u'time': []}}, u'click': {u'state': {u'target': [u'3', u'2', u'5', u'4', u'9', u'7', u'17', u'16', u'13', u'12', u'8', u'15', u'14'], u'time': [2104, 2693, 3312, 3899, 4607, 5703, 7328, 8187, 9246, 11984, 14977, 15961, 16666]}, u'edge': {u'target': [], u'time': []}}, u'mouseout': {u'state': {u'target': [], u'time': []}, u'edge': {u'target': [], u'time': []}}}",,,"[19040, 843, 768]",37.0,,807903,8.0,8.0,mouselab-mdp,,15
"[21508, 22854, 25038]","[u'left', u'left', u'up']",,,[],,"[u'1', 4, 8, 14]","{u'mouseover': {u'state': {u'target': [], u'time': []}, u'edge': {u'target': [], u'time': []}}, u'click': {u'state': {u'target': [u'3', u'2', u'5', u'4', u'7', u'13', u'12', u'6', u'10', u'11', u'9', u'8', u'15', u'14'], u'time': [1067, 1975, 2749, 3666, 4546, 5258, 5806, 8625, 9214, 10127, 11900, 13564, 14523, 15508]}, u'edge': {u'target': [], u'time': []}}, u'mouseout': {u'state': {u'target': [], u'time': []}, u'edge': {u'target': [], u'time': []}}}",,,"[21508, 821, 1674]",43.0,,856640,9.0,7.0,mouselab-mdp,,15
"[36518, 38709, 40857]","[u'up', u'up', u'left']",,,[],,"[u'1', 3, 7, 12]","{u'mouseover': {u'state': {u'target': [], u'time': []}, u'edge': {u'target': [], u'time': []}}, u'click': {u'state': {u'target': [u'3', u'2', u'7', u'12', u'13', u'4', u'8', u'14', u'15', u'6', u'10', u'11', u'5', u'9', u'16', u'17'], u'time': [973, 1633, 2394, 3161, 3928, 5422, 6123, 6981, 7609, 9146, 9933, 11193, 12557, 16417, 17208, 18024]}, u'edge': {u'target': [], u'time': []}}, u'mouseout': {u'state': {u'target': [], u'time': []}, u'edge': {u'target': [], u'time': []}}}",,,"[36517, 1674, 1618]",24.0,,907768,10.0,10.0,mouselab-mdp,,15
"[10419, 11332, 12356]","[u'right', u'right', u'down']",,,[],,"[u'1', 2, 6, 11]","{u'mouseover': {u'state': {u'target': [], u'time': []}, u'edge': {u'target': [], u'time': []}}, u'click': {u'state': {u'target': [u'3', u'2', u'6', u'10', u'11'], u'time': [1413, 2784, 3889, 4733, 6370]}, u'edge': {u'target': [], u'time': []}}, u'mouseout': {u'state': {u'target': [], u'time': []}, u'edge': {u'target': [], u'time': []}}}",,,"[10419, 394, 507]",51.0,,955805,11.0,11.0,mouselab-mdp,,15
"[21056, 22070, 22997]","[u'left', u'left', u'down']",,,[],,"[u'1', 4, 8, 15]","{u'mouseover': {u'state': {u'target': [], u'time': []}, u'edge': {u'target': [], u'time': []}}, u'click': {u'state': {u'target': [u'3', u'2', u'5', u'4', u'8', u'15', u'14', u'7', u'12', u'13'], u'time': [1148, 2651, 3445, 4238, 5125, 6126, 7712, 11373, 12406, 13440]}, u'edge': {u'target': [], u'time': []}}, u'mouseout': {u'state': {u'target': [], u'time': []}, u'edge': {u'target': [], u'time': []}}}",,,"[21056, 494, 407]",31.0,,1006968,12.0,9.0,mouselab-mdp,,15
"[6227, 33261, 41463]","[u'up', u'up', u'right']",,,"[16, 6, 0]",,"[u'1', 3, 7, 13]","{u'mouseover': {u'state': {u'target': [], u'time': []}, u'edge': {u'target': [], u'time': []}}, u'click': {u'state': {u'target': [u'3', u'12', u'13', u'7'], u'time': [3580, 28003, 29434, 30817]}, u'edge': {u'target': [], u'time': []}}, u'mouseout': {u'state': {u'target': [], u'time': []}, u'edge': {u'target': [], u'time': []}}}",,,"[6226, 8399, 448]",17.0,,200721,1.0,5.0,mouselab-mdp,,16
"[21458, 33670, 36525]","[u'up', u'up', u'left']",,,"[6, 0, 0]",,"[u'1', 3, 7, 12]","{u'mouseover': {u'state': {u'target': [], u'time': []}, u'edge': {u'target': [], u'time': []}}, u'click': {u'state': {u'target': [u'10', u'11', u'14', u'15', u'16', u'17', u'13', u'12', u'3'], u'time': [5913, 8401, 10641, 12296, 13069, 14359, 16667, 17698, 19249]}, u'edge': {u'target': [], u'time': []}}, u'mouseout': {u'state': {u'target': [], u'time': []}, u'edge': {u'target': [], u'time': []}}}",,,"[21458, 1234, 2057]",17.0,,271186,2.0,4.0,mouselab-mdp,,16
"[10669, 15006, 19727]","[u'right', u'right', u'up']",,,"[0, 0, 0]",,"[u'1', 2, 6, 10]","{u'mouseover': {u'state': {u'target': [], u'time': []}, u'edge': {u'target': [], u'time': []}}, u'click': {u'state': {u'target': [u'12', u'13', u'10', u'11', u'17', u'16', u'2', u'6'], u'time': [1265, 3571, 4458, 5326, 6168, 6907, 8056, 8875]}, u'edge': {u'target': [], u'time': []}}, u'mouseout': {u'state': {u'target': [], u'time': []}, u'edge': {u'target': [], u'time': []}}}",,,"[10669, 16, 3943]",28.0,,322022,3.0,3.0,mouselab-mdp,,16
"[11101, 15454, 16762]","[u'right', u'right', u'up']",,,"[0, 0, 0]",,"[u'1', 2, 6, 10]","{u'mouseover': {u'state': {u'target': [], u'time': []}, u'edge': {u'target': [], u'time': []}}, u'click': {u'state': {u'target': [u'14', u'15', u'16', u'17', u'11', u'10', u'13', u'12', u'2', u'6'], u'time': [1594, 2282, 3003, 3610, 4302, 4974, 5715, 6638, 8152, 9329]}, u'edge': {u'target': [], u'time': []}}, u'mouseout': {u'state': {u'target': [], u'time': []}, u'edge': {u'target': [], u'time': []}}}",,,"[11101, 6, 557]",24.0,,372086,4.0,2.0,mouselab-mdp,,16
"[13107, 17879, 18919]","[u'left', u'left', u'up']",,,"[0, 0, 0]",,"[u'1', 4, 8, 14]","{u'mouseover': {u'state': {u'target': [], u'time': []}, u'edge': {u'target': [], u'time': []}}, u'click': {u'state': {u'target': [u'13', u'17', u'15', u'10', u'11', u'16', u'12', u'14', u'4', u'8'], u'time': [1103, 2619, 3528, 5250, 6112, 7015, 7820, 9338, 10518, 11860]}, u'edge': {u'target': [], u'time': []}}, u'mouseout': {u'state': {u'target': [], u'time': []}, u'edge': {u'target': [], u'time': []}}}",,,"[13107, 4, 271]",44.0,,444003,5.0,0.0,mouselab-mdp,,16
"[12116, 15891, 17040]","[u'up', u'up', u'left']",,,"[0, 0, 0]",,"[u'1', 3, 7, 12]","{u'mouseover': {u'state': {u'target': [], u'time': []}, u'edge': {u'target': [], u'time': []}}, u'click': {u'state': {u'target': [u'13', u'12', u'14', u'15', u'4', u'3', u'7'], u'time': [1873, 2978, 3814, 5306, 6296, 8947, 9754]}, u'edge': {u'target': [], u'time': []}}, u'mouseout': {u'state': {u'target': [], u'time': []}, u'edge': {u'target': [], u'time': []}}}",,,"[12115, 8, 295]",37.0,,493142,6.0,1.0,mouselab-mdp,,16
"[11277, 11928, 12673]","[u'left', u'left', u'down']",,,[],,"[u'1', 4, 8, 15]","{u'mouseover': {u'state': {u'target': [], u'time': []}, u'edge': {u'target': [], u'time': []}}, u'click': {u'state': {u'target': [u'12', u'13', u'10', u'11', u'17', u'16', u'15', u'14', u'4', u'8'], u'time': [963, 1861, 2823, 3770, 6163, 6775, 7344, 8034, 8807, 9432]}, u'edge': {u'target': [], u'time': []}}, u'mouseout': {u'state': {u'target': [], u'time': []}, u'edge': {u'target': [], u'time': []}}}",,,"[11277, 138, 234]",18.0,,545215,7.0,10.0,mouselab-mdp,,16
"[11397, 12189, 12904]","[u'left', u'left', u'down']",,,[],,"[u'1', 4, 8, 15]","{u'mouseover': {u'state': {u'target': [], u'time': []}, u'edge': {u'target': [], u'time': []}}, u'click': {u'state': {u'target': [u'13', u'12', u'14', u'15', u'16', u'17', u'11', u'10', u'8', u'4'], u'time': [1626, 2659, 3304, 4149, 5151, 5927, 6619, 7232, 9293, 10326]}, u'edge': {u'target': [], u'time': []}}, u'mouseout': {u'state': {u'target': [], u'time': []}, u'edge': {u'target': [], u'time': []}}}",,,"[11397, 283, 198]",31.0,,606765,8.0,9.0,mouselab-mdp,,16
"[10289, 10978, 11786]","[u'right', u'right', u'down']",,,[],,"[u'1', 2, 6, 11]","{u'mouseover': {u'state': {u'target': [], u'time': []}, u'edge': {u'target': [], u'time': []}}, u'click': {u'state': {u'target': [u'13', u'12', u'14', u'15', u'11', u'10', u'6', u'2'], u'time': [1874, 3328, 4187, 4870, 5935, 6525, 8124, 8975]}, u'edge': {u'target': [], u'time': []}}, u'mouseout': {u'state': {u'target': [], u'time': []}, u'edge': {u'target': [], u'time': []}}}",,,"[10289, 166, 281]",48.0,,654509,9.0,6.0,mouselab-mdp,,16
"[19055, 19712, 20532]","[u'left', u'left', u'up']",,,[],,"[u'1', 4, 8, 14]","{u'mouseover': {u'state': {u'target': [], u'time': []}, u'edge': {u'target': [], u'time': []}}, u'click': {u'state': {u'target': [u'13', u'12', u'14', u'15', u'10', u'11', u'17', u'16', u'4', u'3', u'7', u'8'], u'time': [1890, 2550, 3349, 4116, 5047, 5570, 6156, 6945, 10107, 11727, 12876, 14571]}, u'edge': {u'target': [], u'time': []}}, u'mouseout': {u'state': {u'target': [], u'time': []}, u'edge': {u'target': [], u'time': []}}}",,,"[19055, 153, 306]",45.0,,702441,10.0,7.0,mouselab-mdp,,16
"[9608, 10292, 11106]","[u'right', u'right', u'down']",,,[],,"[u'1', 2, 6, 11]","{u'mouseover': {u'state': {u'target': [], u'time': []}, u'edge': {u'target': [], u'time': []}}, u'click': {u'state': {u'target': [u'12', u'14', u'15', u'8', u'4', u'13', u'10', u'11', u'6', u'2'], u'time': [513, 1029, 3111, 3655, 4338, 5440, 6037, 6650, 7714, 8367]}, u'edge': {u'target': [], u'time': []}}, u'mouseout': {u'state': {u'target': [], u'time': []}, u'edge': {u'target': [], u'time': []}}}",,,"[9608, 169, 300]",46.0,,750294,11.0,11.0,mouselab-mdp,,16
"[23551, 25935, 27066]","[u'up', u'up', u'left']",,,[],,"[u'1', 3, 7, 12]","{u'mouseover': {u'state': {u'target': [], u'time': []}, u'edge': {u'target': [], u'time': []}}, u'click': {u'state': {u'target': [u'12', u'7', u'3', u'13', u'10', u'6', u'2', u'5', u'9', u'16', u'17'], u'time': [773, 2505, 3529, 8243, 9232, 10962, 12709, 16186, 17336, 18096, 18763]}, u'edge': {u'target': [], u'time': []}}, u'mouseout': {u'state': {u'target': [], u'time': []}, u'edge': {u'target': [], u'time': []}}}",,,"[23550, 1873, 621]",27.0,,800014,12.0,8.0,mouselab-mdp,,16
"[10112, 17666, 28015]","[u'left', u'left', u'up']",,,"[3, 0, 1]",,"[u'1', 4, 8, 14]","{u'mouseover': {u'state': {u'target': [], u'time': []}, u'edge': {u'target': [], u'time': []}}, u'click': {u'state': {u'target': [u'4', u'2', u'14', u'15'], u'time': [3138, 3866, 19661, 20701]}, u'edge': {u'target': [], u'time': []}}, u'mouseout': {u'state': {u'target': [], u'time': []}, u'edge': {u'target': [], u'time': []}}}",,,"[10112, 1045, 9290]",2.0,,201672,1.0,4.0,mouselab-mdp,,17
"[5492, 12136, 15939]","[u'down', u'down', u'right']",,,"[3, 0, 1]",,"[u'1', 5, 9, 17]","{u'mouseover': {u'state': {u'target': [], u'time': []}, u'edge': {u'target': [], u'time': []}}, u'click': {u'state': {u'target': [u'3', u'5', u'17', u'16'], u'time': [1943, 2744, 13994, 14679]}, u'edge': {u'target': [], u'time': []}}, u'mouseout': {u'state': {u'target': [], u'time': []}, u'edge': {u'target': [], u'time': []}}}",,,"[5492, 514, 2770]",18.0,,259959,2.0,0.0,mouselab-mdp,,17
"[8489, 15493, 17115]","[u'up', u'up', u'right']",,,"[3, 0, 1]",,"[u'1', 3, 7, 13]","{u'mouseover': {u'state': {u'target': [], u'time': []}, u'edge': {u'target': [], u'time': []}}, u'click': {u'state': {u'target': [u'3', u'5', u'2', u'4'], u'time': [4857, 5615, 6238, 6966]}, u'edge': {u'target': [], u'time': []}}, u'mouseout': {u'state': {u'target': [], u'time': []}, u'edge': {u'target': [], u'time': []}}}",,,"[8489, 504, 636]",0.0,,333801,3.0,3.0,mouselab-mdp,,17
"[4770, 11547, 19053]","[u'right', u'right', u'up']",,,"[3, 0, 1]",,"[u'1', 2, 6, 10]","{u'mouseover': {u'state': {u'target': [], u'time': []}, u'edge': {u'target': [], u'time': []}}, u'click': {u'state': {u'target': [u'2', u'4', u'11', u'10'], u'time': [2489, 3479, 16897, 17665]}, u'edge': {u'target': [], u'time': []}}, u'mouseout': {u'state': {u'target': [], u'time': []}, u'edge': {u'target': [], u'time': []}}}",,,"[4770, 443, 6480]",30.0,,389183,4.0,2.0,mouselab-mdp,,17
"[5773, 13499, 18585]","[u'down', u'down', u'left']",,,"[3, 0, 1]",,"[u'1', 5, 9, 16]","{u'mouseover': {u'state': {u'target': [], u'time': []}, u'edge': {u'target': [], u'time': []}}, u'click': {u'state': {u'target': [u'2', u'3', u'5', u'17', u'16'], u'time': [2921, 4134, 4740, 16895, 17391]}, u'edge': {u'target': [], u'time': []}}, u'mouseout': {u'state': {u'target': [], u'time': []}, u'edge': {u'target': [], u'time': []}}}",,,"[5773, 982, 4041]",20.0,,447126,5.0,1.0,mouselab-mdp,,17
"[7288, 16090, 22950]","[u'left', u'left', u'down']",,,"[3, 0, 1]",,"[u'1', 4, 8, 15]","{u'mouseover': {u'state': {u'target': [], u'time': []}, u'edge': {u'target': [], u'time': []}}, u'click': {u'state': {u'target': [u'3', u'5', u'2', u'4', u'14', u'15'], u'time': [2981, 3741, 5212, 5946, 19377, 20184]}, u'edge': {u'target': [], u'time': []}}, u'mouseout': {u'state': {u'target': [], u'time': []}, u'edge': {u'target': [], u'time': []}}}",,,"[7288, 539, 5703]",-10.0,,511803,6.0,5.0,mouselab-mdp,,17
"[11577, 14915, 19478]","[u'left', u'left', u'up']",,,[],,"[u'1', 4, 8, 14]","{u'mouseover': {u'state': {u'target': [], u'time': []}, u'edge': {u'target': [], u'time': []}}, u'click': {u'state': {u'target': [u'5', u'3', u'4', u'2', u'7', u'9', u'6', u'8', u'14', u'15'], u'time': [2568, 3450, 4119, 4815, 6366, 7408, 8443, 9461, 17667, 18313]}, u'edge': {u'target': [], u'time': []}}, u'mouseout': {u'state': {u'target': [], u'time': []}, u'edge': {u'target': [], u'time': []}}}",,,"[11577, 2834, 4053]",47.0,,560776,7.0,7.0,mouselab-mdp,,17
"[1664, 5420, 8842]","[u'up', u'up', u'right']",,,[],,"[u'1', 3, 7, 13]","{u'mouseover': {u'state': {u'target': [], u'time': []}, u'edge': {u'target': [], u'time': []}}, u'click': {u'state': {u'target': [u'13', u'12'], u'time': [6992, 7643]}, u'edge': {u'target': [], u'time': []}}, u'mouseout': {u'state': {u'target': [], u'time': []}, u'edge': {u'target': [], u'time': []}}}",,,"[1664, 3244, 2906]",15.0,,612452,8.0,6.0,mouselab-mdp,,17
"[13320, 15199, 17075]","[u'up', u'up', u'right']",,,[],,"[u'1', 3, 7, 13]","{u'mouseover': {u'state': {u'target': [], u'time': []}, u'edge': {u'target': [], u'time': []}}, u'click': {u'state': {u'target': [u'2', u'4', u'5', u'3', u'14', u'15', u'12', u'13'], u'time': [2678, 3412, 4116, 4685, 9451, 10260, 11212, 11721]}, u'edge': {u'target': [], u'time': []}}, u'mouseout': {u'state': {u'target': [], u'time': []}, u'edge': {u'target': [], u'time': []}}}",,,"[13319, 1371, 1366]",14.0,,661610,9.0,9.0,mouselab-mdp,,17
"[10189, 11535, 12885]","[u'left', u'left', u'down']",,,[],,"[u'1', 4, 8, 15]","{u'mouseover': {u'state': {u'target': [], u'time': []}, u'edge': {u'target': [], u'time': []}}, u'click': {u'state': {u'target': [u'2', u'3', u'4', u'5', u'12', u'13', u'14', u'15'], u'time': [1097, 2233, 3376, 4623, 6005, 6677, 7678, 8763]}, u'edge': {u'target': [], u'time': []}}, u'mouseout': {u'state': {u'target': [], u'time': []}, u'edge': {u'target': [], u'time': []}}}",,,"[10189, 842, 843]",20.0,,714826,10.0,10.0,mouselab-mdp,,17
"[8264, 9403, 10576]","[u'right', u'right', u'down']",,,[],,"[u'1', 2, 6, 11]","{u'mouseover': {u'state': {u'target': [], u'time': []}, u'edge': {u'target': [], u'time': []}}, u'click': {u'state': {u'target': [u'4', u'2', u'3', u'5', u'11', u'10'], u'time': [2171, 3191, 3859, 4788, 5731, 6508]}, u'edge': {u'target': [], u'time': []}}, u'mouseout': {u'state': {u'target': [], u'time': []}, u'edge': {u'target': [], u'time': []}}}",,,"[8264, 622, 666]",50.0,,789680,11.0,11.0,mouselab-mdp,,17
"[11191, 11994, 12922]","[u'left', u'left', u'down']",,,[],,"[u'1', 4, 8, 15]","{u'mouseover': {u'state': {u'target': [], u'time': []}, u'edge': {u'target': [], u'time': []}}, u'click': {u'state': {u'target': [u'2', u'3', u'4', u'5', u'16', u'17', u'14', u'15'], u'time': [2617, 3199, 3650, 4110, 5390, 6317, 7998, 8863]}, u'edge': {u'target': [], u'time': []}}, u'mouseout': {u'state': {u'target': [], u'time': []}, u'edge': {u'target': [], u'time': []}}}",,,"[11191, 292, 406]",42.0,,836970,12.0,8.0,mouselab-mdp,,17
"[7742, 23906, 32564]","[u'right', u'right', u'down']",,,"[3, 0, 1]",,"[u'1', 2, 6, 11]","{u'mouseover': {u'state': {u'target': [], u'time': []}, u'edge': {u'target': [], u'time': []}}, u'click': {u'state': {u'target': [u'6', u'11'], u'time': [20506, 30404]}, u'edge': {u'target': [], u'time': []}}, u'mouseout': {u'state': {u'target': [], u'time': []}, u'edge': {u'target': [], u'time': []}}}",,,"[7741, 9461, 6419]",29.0,,303260,1.0,5.0,mouselab-mdp,,18
"[4034, 17782, 45157]","[u'down', u'down', u'right']",,,"[3, 0, 1]",,"[u'1', 5, 9, 17]","{u'mouseover': {u'state': {u'target': [], u'time': []}, u'edge': {u'target': [], u'time': []}}, u'click': {u'state': {u'target': [u'9', u'16', u'17', u'5'], u'time': [14267, 22690, 26623, 33471]}, u'edge': {u'target': [], u'time': []}}, u'mouseout': {u'state': {u'target': [], u'time': []}, u'edge': {u'target': [], u'time': []}}}",,,"[4034, 6917, 25177]",18.0,,369083,2.0,0.0,mouselab-mdp,,18
"[4511, 19764, 24729]","[u'up', u'up', u'right']",,,"[3, 0, 1]",,"[u'1', 3, 7, 13]","{u'mouseover': {u'state': {u'target': [], u'time': []}, u'edge': {u'target': [], u'time': []}}, u'click': {u'state': {u'target': [], u'time': []}, u'edge': {u'target': [], u'time': []}}, u'mouseout': {u'state': {u'target': [], u'time': []}, u'edge': {u'target': [], u'time': []}}}",,,"[4511, 8621, 3318]",-18.0,,430177,3.0,2.0,mouselab-mdp,,18
"[4833, 18327, 78391]","[u'left', u'left', u'up']",,,"[3, 0, 1]",,"[u'1', 4, 8, 14]","{u'mouseover': {u'state': {u'target': [], u'time': []}, u'edge': {u'target': [], u'time': []}}, u'click': {u'state': {u'target': [u'4', u'8', u'14', u'15'], u'time': [2634, 16828, 22054, 25714]}, u'edge': {u'target': [], u'time': []}}, u'mouseout': {u'state': {u'target': [], u'time': []}, u'edge': {u'target': [], u'time': []}}}",,,"[4833, 6378, 57942]",2.0,,515917,4.0,4.0,mouselab-mdp,,18
"[15973, 34518, 43108]","[u'up', u'up', u'right']",,,"[3, 0, 1]",,"[u'1', 3, 7, 13]","{u'mouseover': {u'state': {u'target': [], u'time': []}, u'edge': {u'target': [], u'time': []}}, u'click': {u'state': {u'target': [u'2', u'4', u'3', u'5', u'7', u'13', u'12'], u'time': [3953, 8141, 12018, 14179, 25088, 38534, 41220]}, u'edge': {u'target': [], u'time': []}}, u'mouseout': {u'state': {u'target': [], u'time': []}, u'edge': {u'target': [], u'time': []}}}",,,"[15972, 10288, 6295]",-3.0,,583455,5.0,3.0,mouselab-mdp,,18
"[7093, 14438, 26469]","[u'right', u'right', u'down']",,,"[3, 0, 1]",,"[u'1', 2, 6, 11]","{u'mouseover': {u'state': {u'target': [], u'time': []}, u'edge': {u'target': [], u'time': []}}, u'click': {u'state': {u'target': [u'10', u'11', u'2'], u'time': [18852, 20760, 22830]}, u'edge': {u'target': [], u'time': []}}, u'mouseout': {u'state': {u'target': [], u'time': []}, u'edge': {u'target': [], u'time': []}}}",,,"[7093, 772, 10426]",-14.0,,645029,6.0,1.0,mouselab-mdp,,18
