action_times,actions,button_pressed,correct,delays,key_press,path,queries,questions,responses,rt,score,stimulus,time_elapsed,trial_index,trial_i,trial_type,view_history,pid
,,,"[True, True, True, True]",,,,,"[""True or false: The hidden values will change each time I start a new round."",""How much does it cost to observe each hidden value?"",""How many hidden values am I allowed to observe in each round?"",""How is your bonus determined?""]","[""True"",""$1.00"",""As many or as few as I wish"",""5% of my score on a random round""]",77067,,,155911,,,survey-multi-choice,,0
,,,"[True, True, True, True]",,,,,"[""True or false: The hidden values will change each time I start a new round."",""How much does it cost to observe each hidden value?"",""How many hidden values am I allowed to observe in each round?"",""How is your bonus determined?""]","[""True"",""$1.00"",""As many or as few as I wish"",""5% of my score on a random round""]",11889,,,136859,,,survey-multi-choice,,1
,,,"[True, True, True, True, True]",,,,,"[""True or false: The hidden values will change each time I start a new round."",""How much does it cost to observe each hidden value?"",""How many hidden values am I allowed to observe in each round?"",""How is your bonus determined?"",""What does the feedback teach you?""]","[""True"",""$1.00"",""As many or as few as I wish"",""5% of my score on a random round"",""All of the above.""]",102726,,,273515,,,survey-multi-choice,,2
,,,"[True, True, True, False, True]",,,,,"[""True or false: The hidden values will change each time I start a new round."",""How much does it cost to observe each hidden value?"",""How many hidden values am I allowed to observe in each round?"",""How is your bonus determined?"",""What does the feedback teach you?""]","[""True"",""$1.00"",""As many or as few as I wish"",""10% of my total score on all rounds"",""All of the above.""]",30693,,,154088,,,survey-multi-choice,,3
,,,"[True, True, True, True, False]",,,,,"[""True or false: The hidden values will change each time I start a new round."",""How much does it cost to observe each hidden value?"",""How many hidden values am I allowed to observe in each round?"",""How is your bonus determined?"",""What does the feedback teach you?""]","[""True"",""$1.00"",""As many or as few as I wish"",""5% of my score on a random round"",""Whether I observed the rewards of relevant locations.""]",23749,,,272656,,,survey-multi-choice,,3
,,,"[True, True, True, True, False]",,,,,"[""True or false: The hidden values will change each time I start a new round."",""How much does it cost to observe each hidden value?"",""How many hidden values am I allowed to observe in each round?"",""How is your bonus determined?"",""What does the feedback teach you?""]","[""True"",""$1.00"",""As many or as few as I wish"",""5% of my score on a random round"",""Whether I chose the move that was best according to the information I had.""]",13408,,,340072,,,survey-multi-choice,,3
,,,"[True, True, True, True, False]",,,,,"[""True or false: The hidden values will change each time I start a new round."",""How much does it cost to observe each hidden value?"",""How many hidden values am I allowed to observe in each round?"",""How is your bonus determined?"",""What does the feedback teach you?""]","[""True"",""$1.00"",""As many or as few as I wish"",""5% of my score on a random round"",""The length of the delay is based on how much more money I could have earned by planning and deciding better.""]",18334,,,366790,,,survey-multi-choice,,3
,,,"[True, True, True, True, True]",,,,,"[""True or false: The hidden values will change each time I start a new round."",""How much does it cost to observe each hidden value?"",""How many hidden values am I allowed to observe in each round?"",""How is your bonus determined?"",""What does the feedback teach you?""]","[""True"",""$1.00"",""As many or as few as I wish"",""5% of my score on a random round"",""All of the above.""]",24920,,,471059,,,survey-multi-choice,,3
,,,"[True, True, True, True, True]",,,,,"[""True or false: The hidden values will change each time I start a new round."",""How much does it cost to observe each hidden value?"",""How many hidden values am I allowed to observe in each round?"",""How is your bonus determined?"",""What does the feedback teach you?""]","[""True"",""$1.00"",""As many or as few as I wish"",""5% of my score on a random round"",""All of the above.""]",29262,,,173985,,,survey-multi-choice,,4
,,,"[True, True, True, True, True]",,,,,"[""True or false: The hidden values will change each time I start a new round."",""How much does it cost to observe each hidden value?"",""How many hidden values am I allowed to observe in each round?"",""How is your bonus determined?"",""What does the feedback teach you?""]","[""True"",""$1.00"",""As many or as few as I wish"",""5% of my score on a random round"",""All of the above.""]",25152,,,239761,,,survey-multi-choice,,5
,,,"[True, True, True, True]",,,,,"[""True or false: The hidden values will change each time I start a new round."",""How much does it cost to observe each hidden value?"",""How many hidden values am I allowed to observe in each round?"",""How is your bonus determined?""]","[""True"",""$1.00"",""As many or as few as I wish"",""5% of my score on a random round""]",16879,,,148135,,,survey-multi-choice,,6
,,,"[True, True, True, True, False]",,,,,"[""True or false: The hidden values will change each time I start a new round."",""How much does it cost to observe each hidden value?"",""How many hidden values am I allowed to observe in each round?"",""How is your bonus determined?"",""What does the feedback teach you?""]","[""True"",""$1.00"",""As many or as few as I wish"",""5% of my score on a random round"",""Whether I observed the rewards of relevant locations.""]",24025,,,188281,,,survey-multi-choice,,7
,,,"[True, True, True, True, True]",,,,,"[""True or false: The hidden values will change each time I start a new round."",""How much does it cost to observe each hidden value?"",""How many hidden values am I allowed to observe in each round?"",""How is your bonus determined?"",""What does the feedback teach you?""]","[""True"",""$1.00"",""As many or as few as I wish"",""5% of my score on a random round"",""All of the above.""]",9572,,,216958,,,survey-multi-choice,,7
,,,"[False, True, False, False, True]",,,,,"[""True or false: The hidden values will change each time I start a new round."",""How much does it cost to observe each hidden value?"",""How many hidden values am I allowed to observe in each round?"",""How is your bonus determined?"",""What does the feedback teach you?""]","[""False"",""$1.00"",""At most 1"",""5% of my best score on any round"",""All of the above.""]",47527,,,246319,,,survey-multi-choice,,8
,,,"[True, True, True, False, True]",,,,,"[""True or false: The hidden values will change each time I start a new round."",""How much does it cost to observe each hidden value?"",""How many hidden values am I allowed to observe in each round?"",""How is your bonus determined?"",""What does the feedback teach you?""]","[""True"",""$1.00"",""As many or as few as I wish"",""5% of my best score on any round"",""All of the above.""]",184121,,,509129,,,survey-multi-choice,,8
,,,"[True, True, True, True, True]",,,,,"[""True or false: The hidden values will change each time I start a new round."",""How much does it cost to observe each hidden value?"",""How many hidden values am I allowed to observe in each round?"",""How is your bonus determined?"",""What does the feedback teach you?""]","[""True"",""$1.00"",""As many or as few as I wish"",""5% of my score on a random round"",""All of the above.""]",103062,,,744286,,,survey-multi-choice,,8
,,,"[True, True, True, True, False]",,,,,"[""True or false: The hidden values will change each time I start a new round."",""How much does it cost to observe each hidden value?"",""How many hidden values am I allowed to observe in each round?"",""How is your bonus determined?"",""What does the feedback teach you?""]","[""True"",""$1.00"",""As many or as few as I wish"",""5% of my score on a random round"",""The length of the delay is based on how much more money I could have earned by planning and deciding better.""]",33171,,,130255,,,survey-multi-choice,,9
,,,"[True, True, True, True, False]",,,,,"[""True or false: The hidden values will change each time I start a new round."",""How much does it cost to observe each hidden value?"",""How many hidden values am I allowed to observe in each round?"",""How is your bonus determined?"",""What does the feedback teach you?""]","[""True"",""$1.00"",""As many or as few as I wish"",""5% of my score on a random round"",""The length of the delay is based on how much more money I could have earned by planning and deciding better.""]",14355,,,161405,,,survey-multi-choice,,9
,,,"[True, True, True, True, True]",,,,,"[""True or false: The hidden values will change each time I start a new round."",""How much does it cost to observe each hidden value?"",""How many hidden values am I allowed to observe in each round?"",""How is your bonus determined?"",""What does the feedback teach you?""]","[""True"",""$1.00"",""As many or as few as I wish"",""5% of my score on a random round"",""All of the above.""]",12667,,,180305,,,survey-multi-choice,,9
,,,"[True, True, True, True]",,,,,"[""True or false: The hidden values will change each time I start a new round."",""How much does it cost to observe each hidden value?"",""How many hidden values am I allowed to observe in each round?"",""How is your bonus determined?""]","[""True"",""$1.00"",""As many or as few as I wish"",""5% of my score on a random round""]",8569,,,65647,,,survey-multi-choice,,10
,,,"[True, True, True, True, True]",,,,,"[""True or false: The hidden values will change each time I start a new round."",""How much does it cost to observe each hidden value?"",""How many hidden values am I allowed to observe in each round?"",""How is your bonus determined?"",""What does the feedback teach you?""]","[""True"",""$1.00"",""As many or as few as I wish"",""5% of my score on a random round"",""All of the above.""]",36922,,,256085,,,survey-multi-choice,,11
,,,"[True, True, True, True, False]",,,,,"[""True or false: The hidden values will change each time I start a new round."",""How much does it cost to observe each hidden value?"",""How many hidden values am I allowed to observe in each round?"",""How is your bonus determined?"",""What does the feedback teach you?""]","[""True"",""$1.00"",""As many or as few as I wish"",""5% of my score on a random round"",""The length of the delay is based on how much more money I could have earned by planning and deciding better.""]",23312,,,103965,,,survey-multi-choice,,12
,,,"[True, True, True, True, True]",,,,,"[""True or false: The hidden values will change each time I start a new round."",""How much does it cost to observe each hidden value?"",""How many hidden values am I allowed to observe in each round?"",""How is your bonus determined?"",""What does the feedback teach you?""]","[""True"",""$1.00"",""As many or as few as I wish"",""5% of my score on a random round"",""All of the above.""]",12639,,,125071,,,survey-multi-choice,,12
,,,"[True, False, False, True]",,,,,"[""True or false: The hidden values will change each time I start a new round."",""How much does it cost to observe each hidden value?"",""How many hidden values am I allowed to observe in each round?"",""How is your bonus determined?""]","[""True"",""$0.05"",""At most 5"",""5% of my score on a random round""]",19846,,,88996,,,survey-multi-choice,,13
,,,"[True, True, True, True]",,,,,"[""True or false: The hidden values will change each time I start a new round."",""How much does it cost to observe each hidden value?"",""How many hidden values am I allowed to observe in each round?"",""How is your bonus determined?""]","[""True"",""$1.00"",""As many or as few as I wish"",""5% of my score on a random round""]",8812,,,130846,,,survey-multi-choice,,13
,,,"[True, True, True, True]",,,,,"[""True or false: The hidden values will change each time I start a new round."",""How much does it cost to observe each hidden value?"",""How many hidden values am I allowed to observe in each round?"",""How is your bonus determined?""]","[""True"",""$1.00"",""As many or as few as I wish"",""5% of my score on a random round""]",15128,,,61075,,,survey-multi-choice,,14
,,,"[True, True, False, True]",,,,,"[""True or false: The hidden values will change each time I start a new round."",""How much does it cost to observe each hidden value?"",""How many hidden values am I allowed to observe in each round?"",""How is your bonus determined?""]","[""True"",""$1.00"",""At most 1"",""5% of my score on a random round""]",15393,,,101606,,,survey-multi-choice,,15
,,,"[True, True, True, True]",,,,,"[""True or false: The hidden values will change each time I start a new round."",""How much does it cost to observe each hidden value?"",""How many hidden values am I allowed to observe in each round?"",""How is your bonus determined?""]","[""True"",""$1.00"",""As many or as few as I wish"",""5% of my score on a random round""]",13309,,,157742,,,survey-multi-choice,,15
,,,"[True, True, True, True]",,,,,"[""True or false: The hidden values will change each time I start a new round."",""How much does it cost to observe each hidden value?"",""How many hidden values am I allowed to observe in each round?"",""How is your bonus determined?""]","[""True"",""$1.00"",""As many or as few as I wish"",""5% of my score on a random round""]",20239,,,237142,,,survey-multi-choice,,16
,,,"[True, False, True, True]",,,,,"[""True or false: The hidden values will change each time I start a new round."",""How much does it cost to observe each hidden value?"",""How many hidden values am I allowed to observe in each round?"",""How is your bonus determined?""]","[""True"",""$0.01"",""As many or as few as I wish"",""5% of my score on a random round""]",20242,,,74989,,,survey-multi-choice,,17
,,,"[True, True, True, True]",,,,,"[""True or false: The hidden values will change each time I start a new round."",""How much does it cost to observe each hidden value?"",""How many hidden values am I allowed to observe in each round?"",""How is your bonus determined?""]","[""True"",""$1.00"",""As many or as few as I wish"",""5% of my score on a random round""]",11004,,,122757,,,survey-multi-choice,,17
,,,"[True, False, True, True]",,,,,"[""True or false: The hidden values will change each time I start a new round."",""How much does it cost to observe each hidden value?"",""How many hidden values am I allowed to observe in each round?"",""How is your bonus determined?""]","[""True"",""$0.05"",""As many or as few as I wish"",""5% of my score on a random round""]",41859,,,144981,,,survey-multi-choice,,18
,,,"[True, True, True, True]",,,,,"[""True or false: The hidden values will change each time I start a new round."",""How much does it cost to observe each hidden value?"",""How many hidden values am I allowed to observe in each round?"",""How is your bonus determined?""]","[""True"",""$1.00"",""As many or as few as I wish"",""5% of my score on a random round""]",15601,,,207706,,,survey-multi-choice,,18
,,,"[True, True, True, True, False]",,,,,"[""True or false: The hidden values will change each time I start a new round."",""How much does it cost to observe each hidden value?"",""How many hidden values am I allowed to observe in each round?"",""How is your bonus determined?"",""What does the feedback teach you?""]","[""True"",""$1.00"",""As many or as few as I wish"",""5% of my score on a random round"",""Whether I chose the move that was best according to the information I had.""]",253561,,,349777,,,survey-multi-choice,,19
,,,"[True, True, True, True, True]",,,,,"[""True or false: The hidden values will change each time I start a new round."",""How much does it cost to observe each hidden value?"",""How many hidden values am I allowed to observe in each round?"",""How is your bonus determined?"",""What does the feedback teach you?""]","[""True"",""$1.00"",""As many or as few as I wish"",""5% of my score on a random round"",""All of the above.""]",9420,,,371331,,,survey-multi-choice,,19
,,,"[True, True, True, True, True]",,,,,"[""True or false: The hidden values will change each time I start a new round."",""How much does it cost to observe each hidden value?"",""How many hidden values am I allowed to observe in each round?"",""How is your bonus determined?"",""What does the feedback teach you?""]","[""True"",""$1.00"",""As many or as few as I wish"",""5% of my score on a random round"",""All of the above.""]",31602,,,222963,,,survey-multi-choice,,20
,,,"[True, False, True, False, True]",,,,,"[""True or false: The hidden values will change each time I start a new round."",""How much does it cost to observe each hidden value?"",""How many hidden values am I allowed to observe in each round?"",""How is your bonus determined?"",""What does the feedback teach you?""]","[""True"",""$0.01"",""As many or as few as I wish"",""10% of my total score on all rounds"",""All of the above.""]",22439,,,115027,,,survey-multi-choice,,21
,,,"[True, True, True, True, False]",,,,,"[""True or false: The hidden values will change each time I start a new round."",""How much does it cost to observe each hidden value?"",""How many hidden values am I allowed to observe in each round?"",""How is your bonus determined?"",""What does the feedback teach you?""]","[""True"",""$1.00"",""As many or as few as I wish"",""5% of my score on a random round"",""Whether I chose the move that was best according to the information I had.""]",17906,,,225337,,,survey-multi-choice,,21
,,,"[True, True, True, True, False]",,,,,"[""True or false: The hidden values will change each time I start a new round."",""How much does it cost to observe each hidden value?"",""How many hidden values am I allowed to observe in each round?"",""How is your bonus determined?"",""What does the feedback teach you?""]","[""True"",""$1.00"",""As many or as few as I wish"",""5% of my score on a random round"",""Whether I observed the rewards of relevant locations.""]",12641,,,255873,,,survey-multi-choice,,21
,,,"[True, True, True, True, True]",,,,,"[""True or false: The hidden values will change each time I start a new round."",""How much does it cost to observe each hidden value?"",""How many hidden values am I allowed to observe in each round?"",""How is your bonus determined?"",""What does the feedback teach you?""]","[""True"",""$1.00"",""As many or as few as I wish"",""5% of my score on a random round"",""All of the above.""]",10216,,,273363,,,survey-multi-choice,,21
,,,"[True, True, True, True, True]",,,,,"[""True or false: The hidden values will change each time I start a new round."",""How much does it cost to observe each hidden value?"",""How many hidden values am I allowed to observe in each round?"",""How is your bonus determined?"",""What does the feedback teach you?""]","[""True"",""$1.00"",""As many or as few as I wish"",""5% of my score on a random round"",""All of the above.""]",23423,,,107783,,,survey-multi-choice,,22
,,,"[True, True, True, True]",,,,,"[""True or false: The hidden values will change each time I start a new round."",""How much does it cost to observe each hidden value?"",""How many hidden values am I allowed to observe in each round?"",""How is your bonus determined?""]","[""True"",""$1.00"",""As many or as few as I wish"",""5% of my score on a random round""]",69778,,,109743,,,survey-multi-choice,,23
,,,"[True, True, True, True]",,,,,"[""True or false: The hidden values will change each time I start a new round."",""How much does it cost to observe each hidden value?"",""How many hidden values am I allowed to observe in each round?"",""How is your bonus determined?""]","[""True"",""$1.00"",""As many or as few as I wish"",""5% of my score on a random round""]",17525,,,136488,,,survey-multi-choice,,24
,,,"[True, True, True, True]",,,,,"[""True or false: The hidden values will change each time I start a new round."",""How much does it cost to observe each hidden value?"",""How many hidden values am I allowed to observe in each round?"",""How is your bonus determined?""]","[""True"",""$1.00"",""As many or as few as I wish"",""5% of my score on a random round""]",26410,,,139330,,,survey-multi-choice,,25
,,,"[True, True, True, True]",,,,,"[""True or false: The hidden values will change each time I start a new round."",""How much does it cost to observe each hidden value?"",""How many hidden values am I allowed to observe in each round?"",""How is your bonus determined?""]","[""True"",""$1.00"",""As many or as few as I wish"",""5% of my score on a random round""]",15153,,,108456,,,survey-multi-choice,,26
,,,"[True, True, True, False]",,,,,"[""True or false: The hidden values will change each time I start a new round."",""How much does it cost to observe each hidden value?"",""How many hidden values am I allowed to observe in each round?"",""How is your bonus determined?""]","[""True"",""$1.00"",""As many or as few as I wish"",""5% of my best score on any round""]",17461,,,59707,,,survey-multi-choice,,27
,,,"[True, True, True, True]",,,,,"[""True or false: The hidden values will change each time I start a new round."",""How much does it cost to observe each hidden value?"",""How many hidden values am I allowed to observe in each round?"",""How is your bonus determined?""]","[""True"",""$1.00"",""As many or as few as I wish"",""5% of my score on a random round""]",6698,,,89037,,,survey-multi-choice,,27
,,,"[False, False, False, False]",,,,,"[""True or false: The hidden values will change each time I start a new round."",""How much does it cost to observe each hidden value?"",""How many hidden values am I allowed to observe in each round?"",""How is your bonus determined?""]","[""False"",""$0.01"",""At most 1"",""10% of my best score on any round""]",21261,,,92663,,,survey-multi-choice,,28
,,,"[True, True, True, False]",,,,,"[""True or false: The hidden values will change each time I start a new round."",""How much does it cost to observe each hidden value?"",""How many hidden values am I allowed to observe in each round?"",""How is your bonus determined?""]","[""True"",""$1.00"",""As many or as few as I wish"",""5% of my best score on any round""]",13316,,,167958,,,survey-multi-choice,,28
,,,"[True, True, True, True]",,,,,"[""True or false: The hidden values will change each time I start a new round."",""How much does it cost to observe each hidden value?"",""How many hidden values am I allowed to observe in each round?"",""How is your bonus determined?""]","[""True"",""$1.00"",""As many or as few as I wish"",""5% of my score on a random round""]",11856,,,237802,,,survey-multi-choice,,28
,,,"[True, True, True, False]",,,,,"[""True or false: The hidden values will change each time I start a new round."",""How much does it cost to observe each hidden value?"",""How many hidden values am I allowed to observe in each round?"",""How is your bonus determined?""]","[""True"",""$1.00"",""As many or as few as I wish"",""5% of my best score on any round""]",41876,,,229423,,,survey-multi-choice,,29
,,,"[True, True, True, False]",,,,,"[""True or false: The hidden values will change each time I start a new round."",""How much does it cost to observe each hidden value?"",""How many hidden values am I allowed to observe in each round?"",""How is your bonus determined?""]","[""True"",""$1.00"",""As many or as few as I wish"",""10% of my best score on any round""]",36943,,,282450,,,survey-multi-choice,,29
,,,"[True, True, True, True]",,,,,"[""True or false: The hidden values will change each time I start a new round."",""How much does it cost to observe each hidden value?"",""How many hidden values am I allowed to observe in each round?"",""How is your bonus determined?""]","[""True"",""$1.00"",""As many or as few as I wish"",""5% of my score on a random round""]",12229,,,356243,,,survey-multi-choice,,29
,,,"[True, False, True, False]",,,,,"[""True or false: The hidden values will change each time I start a new round."",""How much does it cost to observe each hidden value?"",""How many hidden values am I allowed to observe in each round?"",""How is your bonus determined?""]","[""True"",""$0.05"",""As many or as few as I wish"",""5% of my best score on any round""]",34684,,,116271,,,survey-multi-choice,,30
,,,"[True, True, True, True]",,,,,"[""True or false: The hidden values will change each time I start a new round."",""How much does it cost to observe each hidden value?"",""How many hidden values am I allowed to observe in each round?"",""How is your bonus determined?""]","[""True"",""$1.00"",""As many or as few as I wish"",""5% of my score on a random round""]",8451,,,172005,,,survey-multi-choice,,30
,,,"[True, True, True, True]",,,,,"[""True or false: The hidden values will change each time I start a new round."",""How much does it cost to observe each hidden value?"",""How many hidden values am I allowed to observe in each round?"",""How is your bonus determined?""]","[""True"",""$1.00"",""As many or as few as I wish"",""5% of my score on a random round""]",13270,,,103230,,,survey-multi-choice,,31
,,,"[True, True, True, True]",,,,,"[""True or false: The hidden values will change each time I start a new round."",""How much does it cost to observe each hidden value?"",""How many hidden values am I allowed to observe in each round?"",""How is your bonus determined?""]","[""True"",""$1.00"",""As many or as few as I wish"",""5% of my score on a random round""]",19724,,,284246,,,survey-multi-choice,,32
,,,"[True, True, True, True]",,,,,"[""True or false: The hidden values will change each time I start a new round."",""How much does it cost to observe each hidden value?"",""How many hidden values am I allowed to observe in each round?"",""How is your bonus determined?""]","[""True"",""$1.00"",""As many or as few as I wish"",""5% of my score on a random round""]",24003,,,128181,,,survey-multi-choice,,33
,,,"[True, True, True, True, True]",,,,,"[""True or false: The hidden values will change each time I start a new round."",""How much does it cost to observe each hidden value?"",""How many hidden values am I allowed to observe in each round?"",""How is your bonus determined?"",""What does the feedback teach you?""]","[""True"",""$1.00"",""As many or as few as I wish"",""5% of my score on a random round"",""All of the above.""]",24196,,,160580,,,survey-multi-choice,,34
,,,"[True, True, False, False]",,,,,"[""True or false: The hidden values will change each time I start a new round."",""How much does it cost to observe each hidden value?"",""How many hidden values am I allowed to observe in each round?"",""How is your bonus determined?""]","[""True"",""$1.00"",""At most 1"",""5% of my best score on any round""]",47342,,,224556,,,survey-multi-choice,,35
,,,"[True, True, True, True]",,,,,"[""True or false: The hidden values will change each time I start a new round."",""How much does it cost to observe each hidden value?"",""How many hidden values am I allowed to observe in each round?"",""How is your bonus determined?""]","[""True"",""$1.00"",""As many or as few as I wish"",""5% of my score on a random round""]",31306,,,310532,,,survey-multi-choice,,35
,,,"[True, True, True, False, True]",,,,,"[""True or false: The hidden values will change each time I start a new round."",""How much does it cost to observe each hidden value?"",""How many hidden values am I allowed to observe in each round?"",""How is your bonus determined?"",""What does the feedback teach you?""]","[""True"",""$1.00"",""As many or as few as I wish"",""10% of my best score on any round"",""All of the above.""]",24293,,,84171,,,survey-multi-choice,,36
,,,"[True, True, True, True, True]",,,,,"[""True or false: The hidden values will change each time I start a new round."",""How much does it cost to observe each hidden value?"",""How many hidden values am I allowed to observe in each round?"",""How is your bonus determined?"",""What does the feedback teach you?""]","[""True"",""$1.00"",""As many or as few as I wish"",""5% of my score on a random round"",""All of the above.""]",17168,,,190285,,,survey-multi-choice,,36
,,,"[True, True, True, True]",,,,,"[""True or false: The hidden values will change each time I start a new round."",""How much does it cost to observe each hidden value?"",""How many hidden values am I allowed to observe in each round?"",""How is your bonus determined?""]","[""True"",""$1.00"",""As many or as few as I wish"",""5% of my score on a random round""]",30052,,,150253,,,survey-multi-choice,,37
,,,"[True, False, True, False]",,,,,"[""True or false: The hidden values will change each time I start a new round."",""How much does it cost to observe each hidden value?"",""How many hidden values am I allowed to observe in each round?"",""How is your bonus determined?""]","[""True"",""$0.05"",""As many or as few as I wish"",""5% of my best score on any round""]",19523,,,67087,,,survey-multi-choice,,38
,,,"[True, True, True, False]",,,,,"[""True or false: The hidden values will change each time I start a new round."",""How much does it cost to observe each hidden value?"",""How many hidden values am I allowed to observe in each round?"",""How is your bonus determined?""]","[""True"",""$1.00"",""As many or as few as I wish"",""5% of my best score on any round""]",16192,,,120950,,,survey-multi-choice,,38
,,,"[True, True, True, False]",,,,,"[""True or false: The hidden values will change each time I start a new round."",""How much does it cost to observe each hidden value?"",""How many hidden values am I allowed to observe in each round?"",""How is your bonus determined?""]","[""True"",""$1.00"",""As many or as few as I wish"",""5% of my best score on any round""]",13383,,,162779,,,survey-multi-choice,,38
,,,"[True, True, True, True]",,,,,"[""True or false: The hidden values will change each time I start a new round."",""How much does it cost to observe each hidden value?"",""How many hidden values am I allowed to observe in each round?"",""How is your bonus determined?""]","[""True"",""$1.00"",""As many or as few as I wish"",""5% of my score on a random round""]",9362,,,207284,,,survey-multi-choice,,38
,,,"[True, False, True, True]",,,,,"[""True or false: The hidden values will change each time I start a new round."",""How much does it cost to observe each hidden value?"",""How many hidden values am I allowed to observe in each round?"",""How is your bonus determined?""]","[""True"",""$0.05"",""As many or as few as I wish"",""5% of my score on a random round""]",39604,,,196084,,,survey-multi-choice,,39
,,,"[True, True, True, True]",,,,,"[""True or false: The hidden values will change each time I start a new round."",""How much does it cost to observe each hidden value?"",""How many hidden values am I allowed to observe in each round?"",""How is your bonus determined?""]","[""True"",""$1.00"",""As many or as few as I wish"",""5% of my score on a random round""]",9521,,,249083,,,survey-multi-choice,,39
,,,"[True, False, True, True]",,,,,"[""True or false: The hidden values will change each time I start a new round."",""How much does it cost to observe each hidden value?"",""How many hidden values am I allowed to observe in each round?"",""How is your bonus determined?""]","[""True"",""$0.05"",""As many or as few as I wish"",""5% of my score on a random round""]",35832,,,203397,,,survey-multi-choice,,40
,,,"[True, True, True, True]",,,,,"[""True or false: The hidden values will change each time I start a new round."",""How much does it cost to observe each hidden value?"",""How many hidden values am I allowed to observe in each round?"",""How is your bonus determined?""]","[""True"",""$1.00"",""As many or as few as I wish"",""5% of my score on a random round""]",21990,,,307474,,,survey-multi-choice,,40
,,,"[True, True, True, True, True]",,,,,"[""True or false: The hidden values will change each time I start a new round."",""How much does it cost to observe each hidden value?"",""How many hidden values am I allowed to observe in each round?"",""How is your bonus determined?"",""What does the feedback teach you?""]","[""True"",""$1.00"",""As many or as few as I wish"",""5% of my score on a random round"",""All of the above.""]",36965,,,183992,,,survey-multi-choice,,41
,,,"[True, False, True, True, True]",,,,,"[""True or false: The hidden values will change each time I start a new round."",""How much does it cost to observe each hidden value?"",""How many hidden values am I allowed to observe in each round?"",""How is your bonus determined?"",""What does the feedback teach you?""]","[""True"",""$0.01"",""As many or as few as I wish"",""5% of my score on a random round"",""All of the above.""]",19512,,,91275,,,survey-multi-choice,,42
,,,"[True, True, True, True, True]",,,,,"[""True or false: The hidden values will change each time I start a new round."",""How much does it cost to observe each hidden value?"",""How many hidden values am I allowed to observe in each round?"",""How is your bonus determined?"",""What does the feedback teach you?""]","[""True"",""$1.00"",""As many or as few as I wish"",""5% of my score on a random round"",""All of the above.""]",7631,,,135342,,,survey-multi-choice,,42
,,,"[True, True, True, True, True]",,,,,"[""True or false: The hidden values will change each time I start a new round."",""How much does it cost to observe each hidden value?"",""How many hidden values am I allowed to observe in each round?"",""How is your bonus determined?"",""What does the feedback teach you?""]","[""True"",""$1.00"",""As many or as few as I wish"",""5% of my score on a random round"",""All of the above.""]",62325,,,296934,,,survey-multi-choice,,43
,,,"[True, True, True, True]",,,,,"[""True or false: The hidden values will change each time I start a new round."",""How much does it cost to observe each hidden value?"",""How many hidden values am I allowed to observe in each round?"",""How is your bonus determined?""]","[""True"",""$1.00"",""As many or as few as I wish"",""5% of my score on a random round""]",59658,,,256361,,,survey-multi-choice,,44
,,,"[True, True, True, True, True]",,,,,"[""True or false: The hidden values will change each time I start a new round."",""How much does it cost to observe each hidden value?"",""How many hidden values am I allowed to observe in each round?"",""How is your bonus determined?"",""What does the feedback teach you?""]","[""True"",""$1.00"",""As many or as few as I wish"",""5% of my score on a random round"",""All of the above.""]",30561,,,108825,,,survey-multi-choice,,45
,,,"[True, True, True, True, True]",,,,,"[""True or false: The hidden values will change each time I start a new round."",""How much does it cost to observe each hidden value?"",""How many hidden values am I allowed to observe in each round?"",""How is your bonus determined?"",""What does the feedback teach you?""]","[""True"",""$1.00"",""As many or as few as I wish"",""5% of my score on a random round"",""All of the above.""]",44896,,,212522,,,survey-multi-choice,,46
,,,"[True, True, True, True, True]",,,,,"[""True or false: The hidden values will change each time I start a new round."",""How much does it cost to observe each hidden value?"",""How many hidden values am I allowed to observe in each round?"",""How is your bonus determined?"",""What does the feedback teach you?""]","[""True"",""$1.00"",""As many or as few as I wish"",""5% of my score on a random round"",""All of the above.""]",38478,,,136311,,,survey-multi-choice,,47
,,,"[True, True, True, True, False]",,,,,"[""True or false: The hidden values will change each time I start a new round."",""How much does it cost to observe each hidden value?"",""How many hidden values am I allowed to observe in each round?"",""How is your bonus determined?"",""What does the feedback teach you?""]","[""True"",""$1.00"",""As many or as few as I wish"",""5% of my score on a random round"",""Whether I chose the move that was best according to the information I had.""]",30300,,,213144,,,survey-multi-choice,,48
,,,"[True, True, True, True, True]",,,,,"[""True or false: The hidden values will change each time I start a new round."",""How much does it cost to observe each hidden value?"",""How many hidden values am I allowed to observe in each round?"",""How is your bonus determined?"",""What does the feedback teach you?""]","[""True"",""$1.00"",""As many or as few as I wish"",""5% of my score on a random round"",""All of the above.""]",10820,,,273928,,,survey-multi-choice,,48
,,,"[True, True, True, True]",,,,,"[""True or false: The hidden values will change each time I start a new round."",""How much does it cost to observe each hidden value?"",""How many hidden values am I allowed to observe in each round?"",""How is your bonus determined?""]","[""True"",""$1.00"",""As many or as few as I wish"",""5% of my score on a random round""]",16677,,,110596,,,survey-multi-choice,,49
,,,"[True, True, True, True]",,,,,"[""True or false: The hidden values will change each time I start a new round."",""How much does it cost to observe each hidden value?"",""How many hidden values am I allowed to observe in each round?"",""How is your bonus determined?""]","[""True"",""$1.00"",""As many or as few as I wish"",""5% of my score on a random round""]",19772,,,134086,,,survey-multi-choice,,50
,,,"[True, True, True, True, True]",,,,,"[""True or false: The hidden values will change each time I start a new round."",""How much does it cost to observe each hidden value?"",""How many hidden values am I allowed to observe in each round?"",""How is your bonus determined?"",""What does the feedback teach you?""]","[""True"",""$1.00"",""As many or as few as I wish"",""5% of my score on a random round"",""All of the above.""]",40798,,,135753,,,survey-multi-choice,,51
,,,"[False, True, True, True]",,,,,"[""True or false: The hidden values will change each time I start a new round."",""How much does it cost to observe each hidden value?"",""How many hidden values am I allowed to observe in each round?"",""How is your bonus determined?""]","[""False"",""$1.00"",""As many or as few as I wish"",""5% of my score on a random round""]",31298,,,163936,,,survey-multi-choice,,52
,,,"[True, True, True, True]",,,,,"[""True or false: The hidden values will change each time I start a new round."",""How much does it cost to observe each hidden value?"",""How many hidden values am I allowed to observe in each round?"",""How is your bonus determined?""]","[""True"",""$1.00"",""As many or as few as I wish"",""5% of my score on a random round""]",15642,,,283041,,,survey-multi-choice,,52
,,,"[True, True, True, True]",,,,,"[""True or false: The hidden values will change each time I start a new round."",""How much does it cost to observe each hidden value?"",""How many hidden values am I allowed to observe in each round?"",""How is your bonus determined?""]","[""True"",""$1.00"",""As many or as few as I wish"",""5% of my score on a random round""]",11708,,,55884,,,survey-multi-choice,,53
,,,"[True, True, True, True, True]",,,,,"[""True or false: The hidden values will change each time I start a new round."",""How much does it cost to observe each hidden value?"",""How many hidden values am I allowed to observe in each round?"",""How is your bonus determined?"",""What does the feedback teach you?""]","[""True"",""$1.00"",""As many or as few as I wish"",""5% of my score on a random round"",""All of the above.""]",32367,,,120855,,,survey-multi-choice,,54
,,,"[True, True, False, True]",,,,,"[""True or false: The hidden values will change each time I start a new round."",""How much does it cost to observe each hidden value?"",""How many hidden values am I allowed to observe in each round?"",""How is your bonus determined?""]","[""True"",""$1.00"",""At most 5"",""5% of my score on a random round""]",34937,,,204950,,,survey-multi-choice,,55
,,,"[True, True, True, True]",,,,,"[""True or false: The hidden values will change each time I start a new round."",""How much does it cost to observe each hidden value?"",""How many hidden values am I allowed to observe in each round?"",""How is your bonus determined?""]","[""True"",""$1.00"",""As many or as few as I wish"",""5% of my score on a random round""]",7587,,,268421,,,survey-multi-choice,,55
,,,"[True, True, True, True]",,,,,"[""True or false: The hidden values will change each time I start a new round."",""How much does it cost to observe each hidden value?"",""How many hidden values am I allowed to observe in each round?"",""How is your bonus determined?""]","[""True"",""$1.00"",""As many or as few as I wish"",""5% of my score on a random round""]",13173,,,146012,,,survey-multi-choice,,56
,,,"[True, False, False, False]",,,,,"[""True or false: The hidden values will change each time I start a new round."",""How much does it cost to observe each hidden value?"",""How many hidden values am I allowed to observe in each round?"",""How is your bonus determined?""]","[""True"",""$0.05"",""At most 1"",""5% of my best score on any round""]",28442,,,80837,,,survey-multi-choice,,57
,,,"[True, True, True, False]",,,,,"[""True or false: The hidden values will change each time I start a new round."",""How much does it cost to observe each hidden value?"",""How many hidden values am I allowed to observe in each round?"",""How is your bonus determined?""]","[""True"",""$1.00"",""As many or as few as I wish"",""5% of my best score on any round""]",11480,,,142098,,,survey-multi-choice,,57
,,,"[True, True, True, True]",,,,,"[""True or false: The hidden values will change each time I start a new round."",""How much does it cost to observe each hidden value?"",""How many hidden values am I allowed to observe in each round?"",""How is your bonus determined?""]","[""True"",""$1.00"",""As many or as few as I wish"",""5% of my score on a random round""]",6869,,,168933,,,survey-multi-choice,,57
,,,"[True, True, True, False]",,,,,"[""True or false: The hidden values will change each time I start a new round."",""How much does it cost to observe each hidden value?"",""How many hidden values am I allowed to observe in each round?"",""How is your bonus determined?""]","[""True"",""$1.00"",""As many or as few as I wish"",""10% of my total score on all rounds""]",24583,,,125439,,,survey-multi-choice,,58
,,,"[True, True, True, True]",,,,,"[""True or false: The hidden values will change each time I start a new round."",""How much does it cost to observe each hidden value?"",""How many hidden values am I allowed to observe in each round?"",""How is your bonus determined?""]","[""True"",""$1.00"",""As many or as few as I wish"",""5% of my score on a random round""]",14873,,,187034,,,survey-multi-choice,,58
,,,"[True, True, True, True]",,,,,"[""True or false: The hidden values will change each time I start a new round."",""How much does it cost to observe each hidden value?"",""How many hidden values am I allowed to observe in each round?"",""How is your bonus determined?""]","[""True"",""$1.00"",""As many or as few as I wish"",""5% of my score on a random round""]",22037,,,242776,,,survey-multi-choice,,59
,,,"[True, True, True, False]",,,,,"[""True or false: The hidden values will change each time I start a new round."",""How much does it cost to observe each hidden value?"",""How many hidden values am I allowed to observe in each round?"",""How is your bonus determined?""]","[""True"",""$1.00"",""As many or as few as I wish"",""5% of my best score on any round""]",43885,,,409014,,,survey-multi-choice,,60
,,,"[True, True, True, True]",,,,,"[""True or false: The hidden values will change each time I start a new round."",""How much does it cost to observe each hidden value?"",""How many hidden values am I allowed to observe in each round?"",""How is your bonus determined?""]","[""True"",""$1.00"",""As many or as few as I wish"",""5% of my score on a random round""]",16548,,,528938,,,survey-multi-choice,,60
,,,"[True, True, True, True]",,,,,"[""True or false: The hidden values will change each time I start a new round."",""How much does it cost to observe each hidden value?"",""How many hidden values am I allowed to observe in each round?"",""How is your bonus determined?""]","[""True"",""$1.00"",""As many or as few as I wish"",""5% of my score on a random round""]",65296,,,146855,,,survey-multi-choice,,61
,,,"[True, True, False, True]",,,,,"[""True or false: The hidden values will change each time I start a new round."",""How much does it cost to observe each hidden value?"",""How many hidden values am I allowed to observe in each round?"",""How is your bonus determined?""]","[""True"",""$1.00"",""At most 1"",""5% of my score on a random round""]",13012,,,63709,,,survey-multi-choice,,62
,,,"[True, True, True, True]",,,,,"[""True or false: The hidden values will change each time I start a new round."",""How much does it cost to observe each hidden value?"",""How many hidden values am I allowed to observe in each round?"",""How is your bonus determined?""]","[""True"",""$1.00"",""As many or as few as I wish"",""5% of my score on a random round""]",10712,,,112520,,,survey-multi-choice,,62
,,,"[True, True, True, True]",,,,,"[""True or false: The hidden values will change each time I start a new round."",""How much does it cost to observe each hidden value?"",""How many hidden values am I allowed to observe in each round?"",""How is your bonus determined?""]","[""True"",""$1.00"",""As many or as few as I wish"",""5% of my score on a random round""]",20837,,,233215,,,survey-multi-choice,,63
,,,"[True, True, True, True]",,,,,"[""True or false: The hidden values will change each time I start a new round."",""How much does it cost to observe each hidden value?"",""How many hidden values am I allowed to observe in each round?"",""How is your bonus determined?""]","[""True"",""$1.00"",""As many or as few as I wish"",""5% of my score on a random round""]",13993,,,116483,,,survey-multi-choice,,64
,,,"[True, True, True, True]",,,,,"[""True or false: The hidden values will change each time I start a new round."",""How much does it cost to observe each hidden value?"",""How many hidden values am I allowed to observe in each round?"",""How is your bonus determined?""]","[""True"",""$1.00"",""As many or as few as I wish"",""5% of my score on a random round""]",18262,,,106719,,,survey-multi-choice,,65
,,,"[True, True, True, False]",,,,,"[""True or false: The hidden values will change each time I start a new round."",""How much does it cost to observe each hidden value?"",""How many hidden values am I allowed to observe in each round?"",""How is your bonus determined?""]","[""True"",""$1.00"",""As many or as few as I wish"",""5% of my best score on any round""]",15240,,,48446,,,survey-multi-choice,,66
,,,"[False, True, True, True]",,,,,"[""True or false: The hidden values will change each time I start a new round."",""How much does it cost to observe each hidden value?"",""How many hidden values am I allowed to observe in each round?"",""How is your bonus determined?""]","[""False"",""$1.00"",""As many or as few as I wish"",""5% of my score on a random round""]",21142,,,90604,,,survey-multi-choice,,66
,,,"[True, True, True, True]",,,,,"[""True or false: The hidden values will change each time I start a new round."",""How much does it cost to observe each hidden value?"",""How many hidden values am I allowed to observe in each round?"",""How is your bonus determined?""]","[""True"",""$1.00"",""As many or as few as I wish"",""5% of my score on a random round""]",11471,,,132682,,,survey-multi-choice,,66
,,,"[True, True, True, True]",,,,,"[""True or false: The hidden values will change each time I start a new round."",""How much does it cost to observe each hidden value?"",""How many hidden values am I allowed to observe in each round?"",""How is your bonus determined?""]","[""True"",""$1.00"",""As many or as few as I wish"",""5% of my score on a random round""]",13211,,,104112,,,survey-multi-choice,,67
,,,"[True, True, True, False, False]",,,,,"[""True or false: The hidden values will change each time I start a new round."",""How much does it cost to observe each hidden value?"",""How many hidden values am I allowed to observe in each round?"",""How is your bonus determined?"",""What does the feedback teach you?""]","[""True"",""$1.00"",""As many or as few as I wish"",""5% of my best score on any round"",""Whether I chose the move that was best according to the information I had.""]",44097,,,167707,,,survey-multi-choice,,68
,,,"[True, True, True, False, False]",,,,,"[""True or false: The hidden values will change each time I start a new round."",""How much does it cost to observe each hidden value?"",""How many hidden values am I allowed to observe in each round?"",""How is your bonus determined?"",""What does the feedback teach you?""]","[""True"",""$1.00"",""As many or as few as I wish"",""5% of my best score on any round"",""The length of the delay is based on how much more money I could have earned by planning and deciding better.""]",136655,,,384949,,,survey-multi-choice,,68
,,,"[True, True, True, False, True]",,,,,"[""True or false: The hidden values will change each time I start a new round."",""How much does it cost to observe each hidden value?"",""How many hidden values am I allowed to observe in each round?"",""How is your bonus determined?"",""What does the feedback teach you?""]","[""True"",""$1.00"",""As many or as few as I wish"",""5% of my best score on any round"",""All of the above.""]",6963,,,409728,,,survey-multi-choice,,68
,,,"[True, True, True, False, False]",,,,,"[""True or false: The hidden values will change each time I start a new round."",""How much does it cost to observe each hidden value?"",""How many hidden values am I allowed to observe in each round?"",""How is your bonus determined?"",""What does the feedback teach you?""]","[""True"",""$1.00"",""As many or as few as I wish"",""5% of my best score on any round"",""Whether I chose the move that was best according to the information I had.""]",12396,,,463951,,,survey-multi-choice,,68
,,,"[True, True, True, False, False]",,,,,"[""True or false: The hidden values will change each time I start a new round."",""How much does it cost to observe each hidden value?"",""How many hidden values am I allowed to observe in each round?"",""How is your bonus determined?"",""What does the feedback teach you?""]","[""True"",""$1.00"",""As many or as few as I wish"",""5% of my best score on any round"",""Whether I observed the rewards of relevant locations.""]",17962,,,498098,,,survey-multi-choice,,68
,,,"[True, True, False, False, True]",,,,,"[""True or false: The hidden values will change each time I start a new round."",""How much does it cost to observe each hidden value?"",""How many hidden values am I allowed to observe in each round?"",""How is your bonus determined?"",""What does the feedback teach you?""]","[""True"",""$1.00"",""At most 1"",""5% of my best score on any round"",""All of the above.""]",11295,,,582697,,,survey-multi-choice,,68
,,,"[True, True, True, True, True]",,,,,"[""True or false: The hidden values will change each time I start a new round."",""How much does it cost to observe each hidden value?"",""How many hidden values am I allowed to observe in each round?"",""How is your bonus determined?"",""What does the feedback teach you?""]","[""True"",""$1.00"",""As many or as few as I wish"",""5% of my score on a random round"",""All of the above.""]",51519,,,659300,,,survey-multi-choice,,68
,,,"[True, True, True, True, True]",,,,,"[""True or false: The hidden values will change each time I start a new round."",""How much does it cost to observe each hidden value?"",""How many hidden values am I allowed to observe in each round?"",""How is your bonus determined?"",""What does the feedback teach you?""]","[""True"",""$1.00"",""As many or as few as I wish"",""5% of my score on a random round"",""All of the above.""]",39701,,,52722,,,survey-multi-choice,,69
,,,"[True, True, True, True]",,,,,"[""True or false: The hidden values will change each time I start a new round."",""How much does it cost to observe each hidden value?"",""How many hidden values am I allowed to observe in each round?"",""How is your bonus determined?""]","[""True"",""$1.00"",""As many or as few as I wish"",""5% of my score on a random round""]",11939,,,124373,,,survey-multi-choice,,70
,,,"[True, True, True, False]",,,,,"[""True or false: The hidden values will change each time I start a new round."",""How much does it cost to observe each hidden value?"",""How many hidden values am I allowed to observe in each round?"",""How is your bonus determined?""]","[""True"",""$1.00"",""As many or as few as I wish"",""5% of my best score on any round""]",31889,,,117891,,,survey-multi-choice,,71
,,,"[True, True, True, True]",,,,,"[""True or false: The hidden values will change each time I start a new round."",""How much does it cost to observe each hidden value?"",""How many hidden values am I allowed to observe in each round?"",""How is your bonus determined?""]","[""True"",""$1.00"",""As many or as few as I wish"",""5% of my score on a random round""]",8520,,,142014,,,survey-multi-choice,,71
,,,"[True, True, True, True, False]",,,,,"[""True or false: The hidden values will change each time I start a new round."",""How much does it cost to observe each hidden value?"",""How many hidden values am I allowed to observe in each round?"",""How is your bonus determined?"",""What does the feedback teach you?""]","[""True"",""$1.00"",""As many or as few as I wish"",""5% of my score on a random round"",""The length of the delay is based on how much more money I could have earned by planning and deciding better.""]",204986,,,425407,,,survey-multi-choice,,72
,,,"[True, True, True, True, True]",,,,,"[""True or false: The hidden values will change each time I start a new round."",""How much does it cost to observe each hidden value?"",""How many hidden values am I allowed to observe in each round?"",""How is your bonus determined?"",""What does the feedback teach you?""]","[""True"",""$1.00"",""As many or as few as I wish"",""5% of my score on a random round"",""All of the above.""]",12288,,,477107,,,survey-multi-choice,,72
,,,"[True, True, True, False]",,,,,"[""True or false: The hidden values will change each time I start a new round."",""How much does it cost to observe each hidden value?"",""How many hidden values am I allowed to observe in each round?"",""How is your bonus determined?""]","[""True"",""$1.00"",""As many or as few as I wish"",""10% of my best score on any round""]",28629,,,220394,,,survey-multi-choice,,73
,,,"[True, True, True, False]",,,,,"[""True or false: The hidden values will change each time I start a new round."",""How much does it cost to observe each hidden value?"",""How many hidden values am I allowed to observe in each round?"",""How is your bonus determined?""]","[""True"",""$1.00"",""As many or as few as I wish"",""5% of my best score on any round""]",16436,,,282682,,,survey-multi-choice,,73
,,,"[True, True, True, True]",,,,,"[""True or false: The hidden values will change each time I start a new round."",""How much does it cost to observe each hidden value?"",""How many hidden values am I allowed to observe in each round?"",""How is your bonus determined?""]","[""True"",""$1.00"",""As many or as few as I wish"",""5% of my score on a random round""]",9104,,,301151,,,survey-multi-choice,,73
,,,"[True, True, False, True]",,,,,"[""True or false: The hidden values will change each time I start a new round."",""How much does it cost to observe each hidden value?"",""How many hidden values am I allowed to observe in each round?"",""How is your bonus determined?""]","[""True"",""$1.00"",""At most 15"",""5% of my score on a random round""]",84321,,,160449,,,survey-multi-choice,,74
,,,"[True, True, False, True]",,,,,"[""True or false: The hidden values will change each time I start a new round."",""How much does it cost to observe each hidden value?"",""How many hidden values am I allowed to observe in each round?"",""How is your bonus determined?""]","[""True"",""$1.00"",""At most 1"",""5% of my score on a random round""]",8563,,,179671,,,survey-multi-choice,,74
,,,"[True, True, False, True]",,,,,"[""True or false: The hidden values will change each time I start a new round."",""How much does it cost to observe each hidden value?"",""How many hidden values am I allowed to observe in each round?"",""How is your bonus determined?""]","[""True"",""$1.00"",""At most 5"",""5% of my score on a random round""]",7425,,,196584,,,survey-multi-choice,,74
,,,"[True, True, True, True]",,,,,"[""True or false: The hidden values will change each time I start a new round."",""How much does it cost to observe each hidden value?"",""How many hidden values am I allowed to observe in each round?"",""How is your bonus determined?""]","[""True"",""$1.00"",""As many or as few as I wish"",""5% of my score on a random round""]",65999,,,267786,,,survey-multi-choice,,74
,,,"[True, True, True, True]",,,,,"[""True or false: The hidden values will change each time I start a new round."",""How much does it cost to observe each hidden value?"",""How many hidden values am I allowed to observe in each round?"",""How is your bonus determined?""]","[""True"",""$1.00"",""As many or as few as I wish"",""5% of my score on a random round""]",12642,,,122185,,,survey-multi-choice,,75
,,,"[True, True, True, True]",,,,,"[""True or false: The hidden values will change each time I start a new round."",""How much does it cost to observe each hidden value?"",""How many hidden values am I allowed to observe in each round?"",""How is your bonus determined?""]","[""True"",""$1.00"",""As many or as few as I wish"",""5% of my score on a random round""]",19386,,,112905,,,survey-multi-choice,,76
,,,"[True, True, True, True]",,,,,"[""True or false: The hidden values will change each time I start a new round."",""How much does it cost to observe each hidden value?"",""How many hidden values am I allowed to observe in each round?"",""How is your bonus determined?""]","[""True"",""$1.00"",""As many or as few as I wish"",""5% of my score on a random round""]",19337,,,138934,,,survey-multi-choice,,77
,,,"[True, True, True, True]",,,,,"[""True or false: The hidden values will change each time I start a new round."",""How much does it cost to observe each hidden value?"",""How many hidden values am I allowed to observe in each round?"",""How is your bonus determined?""]","[""True"",""$1.00"",""As many or as few as I wish"",""5% of my score on a random round""]",19662,,,165376,,,survey-multi-choice,,78
,,,"[True, True, True, False, True]",,,,,"[""True or false: The hidden values will change each time I start a new round."",""How much does it cost to observe each hidden value?"",""How many hidden values am I allowed to observe in each round?"",""How is your bonus determined?"",""What does the feedback teach you?""]","[""True"",""$1.00"",""As many or as few as I wish"",""5% of my best score on any round"",""All of the above.""]",25910,,,104551,,,survey-multi-choice,,79
,,,"[True, True, True, True, True]",,,,,"[""True or false: The hidden values will change each time I start a new round."",""How much does it cost to observe each hidden value?"",""How many hidden values am I allowed to observe in each round?"",""How is your bonus determined?"",""What does the feedback teach you?""]","[""True"",""$1.00"",""As many or as few as I wish"",""5% of my score on a random round"",""All of the above.""]",16958,,,150823,,,survey-multi-choice,,79
,,,"[True, True, True, True]",,,,,"[""True or false: The hidden values will change each time I start a new round."",""How much does it cost to observe each hidden value?"",""How many hidden values am I allowed to observe in each round?"",""How is your bonus determined?""]","[""True"",""$1.00"",""As many or as few as I wish"",""5% of my score on a random round""]",14209,,,64423,,,survey-multi-choice,,80
,,,"[True, False, True, True]",,,,,"[""True or false: The hidden values will change each time I start a new round."",""How much does it cost to observe each hidden value?"",""How many hidden values am I allowed to observe in each round?"",""How is your bonus determined?""]","[""True"",""$0.01"",""As many or as few as I wish"",""5% of my score on a random round""]",17910,,,79807,,,survey-multi-choice,,81
,,,"[True, True, True, True]",,,,,"[""True or false: The hidden values will change each time I start a new round."",""How much does it cost to observe each hidden value?"",""How many hidden values am I allowed to observe in each round?"",""How is your bonus determined?""]","[""True"",""$1.00"",""As many or as few as I wish"",""5% of my score on a random round""]",12363,,,111153,,,survey-multi-choice,,81
,,,"[True, True, True, True]",,,,,"[""True or false: The hidden values will change each time I start a new round."",""How much does it cost to observe each hidden value?"",""How many hidden values am I allowed to observe in each round?"",""How is your bonus determined?""]","[""True"",""$1.00"",""As many or as few as I wish"",""5% of my score on a random round""]",14346,,,101380,,,survey-multi-choice,,82
,,,"[True, True, False, True]",,,,,"[""True or false: The hidden values will change each time I start a new round."",""How much does it cost to observe each hidden value?"",""How many hidden values am I allowed to observe in each round?"",""How is your bonus determined?""]","[""True"",""$1.00"",""At most 1"",""5% of my score on a random round""]",20208,,,127560,,,survey-multi-choice,,83
,,,"[True, True, True, True]",,,,,"[""True or false: The hidden values will change each time I start a new round."",""How much does it cost to observe each hidden value?"",""How many hidden values am I allowed to observe in each round?"",""How is your bonus determined?""]","[""True"",""$1.00"",""As many or as few as I wish"",""5% of my score on a random round""]",14643,,,231978,,,survey-multi-choice,,83
,,,"[True, True, True, True, True]",,,,,"[""True or false: The hidden values will change each time I start a new round."",""How much does it cost to observe each hidden value?"",""How many hidden values am I allowed to observe in each round?"",""How is your bonus determined?"",""What does the feedback teach you?""]","[""True"",""$1.00"",""As many or as few as I wish"",""5% of my score on a random round"",""All of the above.""]",26795,,,168178,,,survey-multi-choice,,84
,,,"[True, True, True, False, False]",,,,,"[""True or false: The hidden values will change each time I start a new round."",""How much does it cost to observe each hidden value?"",""How many hidden values am I allowed to observe in each round?"",""How is your bonus determined?"",""What does the feedback teach you?""]","[""True"",""$1.00"",""As many or as few as I wish"",""5% of my best score on any round"",""The length of the delay is based on how much more money I could have earned by planning and deciding better.""]",34356,,,197808,,,survey-multi-choice,,85
,,,"[True, True, True, True, False]",,,,,"[""True or false: The hidden values will change each time I start a new round."",""How much does it cost to observe each hidden value?"",""How many hidden values am I allowed to observe in each round?"",""How is your bonus determined?"",""What does the feedback teach you?""]","[""True"",""$1.00"",""As many or as few as I wish"",""5% of my score on a random round"",""The length of the delay is based on how much more money I could have earned by planning and deciding better.""]",18635,,,269335,,,survey-multi-choice,,85
,,,"[True, True, True, True, True]",,,,,"[""True or false: The hidden values will change each time I start a new round."",""How much does it cost to observe each hidden value?"",""How many hidden values am I allowed to observe in each round?"",""How is your bonus determined?"",""What does the feedback teach you?""]","[""True"",""$1.00"",""As many or as few as I wish"",""5% of my score on a random round"",""All of the above.""]",9376,,,286339,,,survey-multi-choice,,85
,,,"[True, True, True, True]",,,,,"[""True or false: The hidden values will change each time I start a new round."",""How much does it cost to observe each hidden value?"",""How many hidden values am I allowed to observe in each round?"",""How is your bonus determined?""]","[""True"",""$1.00"",""As many or as few as I wish"",""5% of my score on a random round""]",31103,,,134460,,,survey-multi-choice,,86
,,,"[True, True, True, False, True]",,,,,"[""True or false: The hidden values will change each time I start a new round."",""How much does it cost to observe each hidden value?"",""How many hidden values am I allowed to observe in each round?"",""How is your bonus determined?"",""What does the feedback teach you?""]","[""True"",""$1.00"",""As many or as few as I wish"",""5% of my best score on any round"",""All of the above.""]",28041,,,109936,,,survey-multi-choice,,87
,,,"[True, True, True, True, False]",,,,,"[""True or false: The hidden values will change each time I start a new round."",""How much does it cost to observe each hidden value?"",""How many hidden values am I allowed to observe in each round?"",""How is your bonus determined?"",""What does the feedback teach you?""]","[""True"",""$1.00"",""As many or as few as I wish"",""5% of my score on a random round"",""Whether I chose the move that was best according to the information I had.""]",141096,,,348259,,,survey-multi-choice,,87
,,,"[True, True, True, True, True]",,,,,"[""True or false: The hidden values will change each time I start a new round."",""How much does it cost to observe each hidden value?"",""How many hidden values am I allowed to observe in each round?"",""How is your bonus determined?"",""What does the feedback teach you?""]","[""True"",""$1.00"",""As many or as few as I wish"",""5% of my score on a random round"",""All of the above.""]",29475,,,385056,,,survey-multi-choice,,87
,,,"[True, True, True, True, True]",,,,,"[""True or false: The hidden values will change each time I start a new round."",""How much does it cost to observe each hidden value?"",""How many hidden values am I allowed to observe in each round?"",""How is your bonus determined?"",""What does the feedback teach you?""]","[""True"",""$1.00"",""As many or as few as I wish"",""5% of my score on a random round"",""All of the above.""]",27410,,,121039,,,survey-multi-choice,,88
,,,"[True, True, True, True]",,,,,"[""True or false: The hidden values will change each time I start a new round."",""How much does it cost to observe each hidden value?"",""How many hidden values am I allowed to observe in each round?"",""How is your bonus determined?""]","[""True"",""$1.00"",""As many or as few as I wish"",""5% of my score on a random round""]",24106,,,171881,,,survey-multi-choice,,89
,,,"[True, True, True, True]",,,,,"[""True or false: The hidden values will change each time I start a new round."",""How much does it cost to observe each hidden value?"",""How many hidden values am I allowed to observe in each round?"",""How is your bonus determined?""]","[""True"",""$1.00"",""As many or as few as I wish"",""5% of my score on a random round""]",11880,,,122486,,,survey-multi-choice,,90
,,,"[True, True, True, True]",,,,,"[""True or false: The hidden values will change each time I start a new round."",""How much does it cost to observe each hidden value?"",""How many hidden values am I allowed to observe in each round?"",""How is your bonus determined?""]","[""True"",""$1.00"",""As many or as few as I wish"",""5% of my score on a random round""]",17538,,,129536,,,survey-multi-choice,,91
,,,"[True, True, True, False]",,,,,"[""True or false: The hidden values will change each time I start a new round."",""How much does it cost to observe each hidden value?"",""How many hidden values am I allowed to observe in each round?"",""How is your bonus determined?""]","[""True"",""$1.00"",""As many or as few as I wish"",""10% of my best score on any round""]",13459,,,105984,,,survey-multi-choice,,92
,,,"[True, True, True, True]",,,,,"[""True or false: The hidden values will change each time I start a new round."",""How much does it cost to observe each hidden value?"",""How many hidden values am I allowed to observe in each round?"",""How is your bonus determined?""]","[""True"",""$1.00"",""As many or as few as I wish"",""5% of my score on a random round""]",16170,,,160944,,,survey-multi-choice,,92
,,,"[True, True, True, True]",,,,,"[""True or false: The hidden values will change each time I start a new round."",""How much does it cost to observe each hidden value?"",""How many hidden values am I allowed to observe in each round?"",""How is your bonus determined?""]","[""True"",""$1.00"",""As many or as few as I wish"",""5% of my score on a random round""]",11552,,,85591,,,survey-multi-choice,,93
,,,"[True, True, True, True]",,,,,"[""True or false: The hidden values will change each time I start a new round."",""How much does it cost to observe each hidden value?"",""How many hidden values am I allowed to observe in each round?"",""How is your bonus determined?""]","[""True"",""$1.00"",""As many or as few as I wish"",""5% of my score on a random round""]",17856,,,86545,,,survey-multi-choice,,94
,,,"[True, True, True, True]",,,,,"[""True or false: The hidden values will change each time I start a new round."",""How much does it cost to observe each hidden value?"",""How many hidden values am I allowed to observe in each round?"",""How is your bonus determined?""]","[""True"",""$1.00"",""As many or as few as I wish"",""5% of my score on a random round""]",24559,,,92141,,,survey-multi-choice,,95
,,,"[True, True, True, False, True]",,,,,"[""True or false: The hidden values will change each time I start a new round."",""How much does it cost to observe each hidden value?"",""How many hidden values am I allowed to observe in each round?"",""How is your bonus determined?"",""What does the feedback teach you?""]","[""True"",""$1.00"",""As many or as few as I wish"",""10% of my best score on any round"",""All of the above.""]",24625,,,102243,,,survey-multi-choice,,96
,,,"[True, True, True, True, False]",,,,,"[""True or false: The hidden values will change each time I start a new round."",""How much does it cost to observe each hidden value?"",""How many hidden values am I allowed to observe in each round?"",""How is your bonus determined?"",""What does the feedback teach you?""]","[""True"",""$1.00"",""As many or as few as I wish"",""5% of my score on a random round"",""Whether I chose the move that was best according to the information I had.""]",18789,,,155591,,,survey-multi-choice,,96
,,,"[True, True, True, True, False]",,,,,"[""True or false: The hidden values will change each time I start a new round."",""How much does it cost to observe each hidden value?"",""How many hidden values am I allowed to observe in each round?"",""How is your bonus determined?"",""What does the feedback teach you?""]","[""True"",""$1.00"",""As many or as few as I wish"",""5% of my score on a random round"",""The length of the delay is based on how much more money I could have earned by planning and deciding better.""]",19104,,,202151,,,survey-multi-choice,,96
,,,"[True, True, True, True, False]",,,,,"[""True or false: The hidden values will change each time I start a new round."",""How much does it cost to observe each hidden value?"",""How many hidden values am I allowed to observe in each round?"",""How is your bonus determined?"",""What does the feedback teach you?""]","[""True"",""$1.00"",""As many or as few as I wish"",""5% of my score on a random round"",""Whether I observed the rewards of relevant locations.""]",12208,,,239146,,,survey-multi-choice,,96
,,,"[True, True, True, True, True]",,,,,"[""True or false: The hidden values will change each time I start a new round."",""How much does it cost to observe each hidden value?"",""How many hidden values am I allowed to observe in each round?"",""How is your bonus determined?"",""What does the feedback teach you?""]","[""True"",""$1.00"",""As many or as few as I wish"",""5% of my score on a random round"",""All of the above.""]",13695,,,264165,,,survey-multi-choice,,96
,,,"[True, True, True, True]",,,,,"[""True or false: The hidden values will change each time I start a new round."",""How much does it cost to observe each hidden value?"",""How many hidden values am I allowed to observe in each round?"",""How is your bonus determined?""]","[""True"",""$1.00"",""As many or as few as I wish"",""5% of my score on a random round""]",34115,,,150980,,,survey-multi-choice,,97
,,,"[True, True, True, True, False]",,,,,"[""True or false: The hidden values will change each time I start a new round."",""How much does it cost to observe each hidden value?"",""How many hidden values am I allowed to observe in each round?"",""How is your bonus determined?"",""What does the feedback teach you?""]","[""True"",""$1.00"",""As many or as few as I wish"",""5% of my score on a random round"",""Whether I chose the move that was best according to the information I had.""]",83305,,,149960,,,survey-multi-choice,,98
,,,"[True, True, True, True, True]",,,,,"[""True or false: The hidden values will change each time I start a new round."",""How much does it cost to observe each hidden value?"",""How many hidden values am I allowed to observe in each round?"",""How is your bonus determined?"",""What does the feedback teach you?""]","[""True"",""$1.00"",""As many or as few as I wish"",""5% of my score on a random round"",""All of the above.""]",13477,,,205126,,,survey-multi-choice,,98
,,,"[True, True, True, True, False]",,,,,"[""True or false: The hidden values will change each time I start a new round."",""How much does it cost to observe each hidden value?"",""How many hidden values am I allowed to observe in each round?"",""How is your bonus determined?"",""What does the feedback teach you?""]","[""True"",""$1.00"",""As many or as few as I wish"",""5% of my score on a random round"",""Whether I chose the move that was best according to the information I had.""]",81280,,,435614,,,survey-multi-choice,,99
,,,"[True, True, True, True, False]",,,,,"[""True or false: The hidden values will change each time I start a new round."",""How much does it cost to observe each hidden value?"",""How many hidden values am I allowed to observe in each round?"",""How is your bonus determined?"",""What does the feedback teach you?""]","[""True"",""$1.00"",""As many or as few as I wish"",""5% of my score on a random round"",""The length of the delay is based on how much more money I could have earned by planning and deciding better.""]",29422,,,543860,,,survey-multi-choice,,99
,,,"[True, True, True, True, True]",,,,,"[""True or false: The hidden values will change each time I start a new round."",""How much does it cost to observe each hidden value?"",""How many hidden values am I allowed to observe in each round?"",""How is your bonus determined?"",""What does the feedback teach you?""]","[""True"",""$1.00"",""As many or as few as I wish"",""5% of my score on a random round"",""All of the above.""]",67102,,,758567,,,survey-multi-choice,,99
,,,"[True, True, True, True, True]",,,,,"[""True or false: The hidden values will change each time I start a new round."",""How much does it cost to observe each hidden value?"",""How many hidden values am I allowed to observe in each round?"",""How is your bonus determined?"",""What does the feedback teach you?""]","[""True"",""$1.00"",""As many or as few as I wish"",""5% of my score on a random round"",""All of the above.""]",18442,,,185424,,,survey-multi-choice,,100
,,,"[True, True, True, True]",,,,,"[""True or false: The hidden values will change each time I start a new round."",""How much does it cost to observe each hidden value?"",""How many hidden values am I allowed to observe in each round?"",""How is your bonus determined?""]","[""True"",""$1.00"",""As many or as few as I wish"",""5% of my score on a random round""]",13392,,,1117797,,,survey-multi-choice,,101
,,,"[True, False, True, False]",,,,,"[""True or false: The hidden values will change each time I start a new round."",""How much does it cost to observe each hidden value?"",""How many hidden values am I allowed to observe in each round?"",""How is your bonus determined?""]","[""True"",""$0.05"",""As many or as few as I wish"",""10% of my total score on all rounds""]",13714,,,44915,,,survey-multi-choice,,102
,,,"[True, True, True, True]",,,,,"[""True or false: The hidden values will change each time I start a new round."",""How much does it cost to observe each hidden value?"",""How many hidden values am I allowed to observe in each round?"",""How is your bonus determined?""]","[""True"",""$1.00"",""As many or as few as I wish"",""5% of my score on a random round""]",14637,,,141666,,,survey-multi-choice,,102
,,,"[True, True, True, True]",,,,,"[""True or false: The hidden values will change each time I start a new round."",""How much does it cost to observe each hidden value?"",""How many hidden values am I allowed to observe in each round?"",""How is your bonus determined?""]","[""True"",""$1.00"",""As many or as few as I wish"",""5% of my score on a random round""]",39095,,,301144,,,survey-multi-choice,,103
,,,"[True, True, True, True, False]",,,,,"[""True or false: The hidden values will change each time I start a new round."",""How much does it cost to observe each hidden value?"",""How many hidden values am I allowed to observe in each round?"",""How is your bonus determined?"",""What does the feedback teach you?""]","[""True"",""$1.00"",""As many or as few as I wish"",""5% of my score on a random round"",""The length of the delay is based on how much more money I could have earned by planning and deciding better.""]",28857,,,190311,,,survey-multi-choice,,104
,,,"[True, True, True, True, True]",,,,,"[""True or false: The hidden values will change each time I start a new round."",""How much does it cost to observe each hidden value?"",""How many hidden values am I allowed to observe in each round?"",""How is your bonus determined?"",""What does the feedback teach you?""]","[""True"",""$1.00"",""As many or as few as I wish"",""5% of my score on a random round"",""All of the above.""]",12854,,,245228,,,survey-multi-choice,,104
,,,"[True, True, True, True, False]",,,,,"[""True or false: The hidden values will change each time I start a new round."",""How much does it cost to observe each hidden value?"",""How many hidden values am I allowed to observe in each round?"",""How is your bonus determined?"",""What does the feedback teach you?""]","[""True"",""$1.00"",""As many or as few as I wish"",""5% of my score on a random round"",""The length of the delay is based on how much more money I could have earned by planning and deciding better.""]",141573,,,634028,,,survey-multi-choice,,105
,,,"[True, True, True, True, False]",,,,,"[""True or false: The hidden values will change each time I start a new round."",""How much does it cost to observe each hidden value?"",""How many hidden values am I allowed to observe in each round?"",""How is your bonus determined?"",""What does the feedback teach you?""]","[""True"",""$1.00"",""As many or as few as I wish"",""5% of my score on a random round"",""Whether I chose the move that was best according to the information I had.""]",12483,,,655531,,,survey-multi-choice,,105
,,,"[True, True, True, True, False]",,,,,"[""True or false: The hidden values will change each time I start a new round."",""How much does it cost to observe each hidden value?"",""How many hidden values am I allowed to observe in each round?"",""How is your bonus determined?"",""What does the feedback teach you?""]","[""True"",""$1.00"",""As many or as few as I wish"",""5% of my score on a random round"",""Whether I observed the rewards of relevant locations.""]",8445,,,672116,,,survey-multi-choice,,105
,,,"[True, True, True, True, True]",,,,,"[""True or false: The hidden values will change each time I start a new round."",""How much does it cost to observe each hidden value?"",""How many hidden values am I allowed to observe in each round?"",""How is your bonus determined?"",""What does the feedback teach you?""]","[""True"",""$1.00"",""As many or as few as I wish"",""5% of my score on a random round"",""All of the above.""]",13194,,,692213,,,survey-multi-choice,,105
,,,"[True, True, True, True]",,,,,"[""True or false: The hidden values will change each time I start a new round."",""How much does it cost to observe each hidden value?"",""How many hidden values am I allowed to observe in each round?"",""How is your bonus determined?""]","[""True"",""$1.00"",""As many or as few as I wish"",""5% of my score on a random round""]",11463,,,80192,,,survey-multi-choice,,106
,,,"[True, True, True, True, True]",,,,,"[""True or false: The hidden values will change each time I start a new round."",""How much does it cost to observe each hidden value?"",""How many hidden values am I allowed to observe in each round?"",""How is your bonus determined?"",""What does the feedback teach you?""]","[""True"",""$1.00"",""As many or as few as I wish"",""5% of my score on a random round"",""All of the above.""]",45464,,,207065,,,survey-multi-choice,,107
,,,"[True, True, True, True, True]",,,,,"[""True or false: The hidden values will change each time I start a new round."",""How much does it cost to observe each hidden value?"",""How many hidden values am I allowed to observe in each round?"",""How is your bonus determined?"",""What does the feedback teach you?""]","[""True"",""$1.00"",""As many or as few as I wish"",""5% of my score on a random round"",""All of the above.""]",30654,,,104472,,,survey-multi-choice,,108
,,,"[True, False, True, True, True]",,,,,"[""True or false: The hidden values will change each time I start a new round."",""How much does it cost to observe each hidden value?"",""How many hidden values am I allowed to observe in each round?"",""How is your bonus determined?"",""What does the feedback teach you?""]","[""True"",""$0.01"",""As many or as few as I wish"",""5% of my score on a random round"",""All of the above.""]",33178,,,162730,,,survey-multi-choice,,109
,,,"[True, False, True, False, True]",,,,,"[""True or false: The hidden values will change each time I start a new round."",""How much does it cost to observe each hidden value?"",""How many hidden values am I allowed to observe in each round?"",""How is your bonus determined?"",""What does the feedback teach you?""]","[""True"",""$0.01"",""As many or as few as I wish"",""5% of my best score on any round"",""All of the above.""]",51431,,,256783,,,survey-multi-choice,,109
,,,"[True, True, True, True, False]",,,,,"[""True or false: The hidden values will change each time I start a new round."",""How much does it cost to observe each hidden value?"",""How many hidden values am I allowed to observe in each round?"",""How is your bonus determined?"",""What does the feedback teach you?""]","[""True"",""$1.00"",""As many or as few as I wish"",""5% of my score on a random round"",""Whether I chose the move that was best according to the information I had.""]",26310,,,373146,,,survey-multi-choice,,109
,,,"[True, True, True, True, True]",,,,,"[""True or false: The hidden values will change each time I start a new round."",""How much does it cost to observe each hidden value?"",""How many hidden values am I allowed to observe in each round?"",""How is your bonus determined?"",""What does the feedback teach you?""]","[""True"",""$1.00"",""As many or as few as I wish"",""5% of my score on a random round"",""All of the above.""]",127672,,,542747,,,survey-multi-choice,,109
,,,"[True, False, True, True]",,,,,"[""True or false: The hidden values will change each time I start a new round."",""How much does it cost to observe each hidden value?"",""How many hidden values am I allowed to observe in each round?"",""How is your bonus determined?""]","[""True"",""$0.01"",""As many or as few as I wish"",""5% of my score on a random round""]",50243,,,265305,,,survey-multi-choice,,110
,,,"[True, True, True, True]",,,,,"[""True or false: The hidden values will change each time I start a new round."",""How much does it cost to observe each hidden value?"",""How many hidden values am I allowed to observe in each round?"",""How is your bonus determined?""]","[""True"",""$1.00"",""As many or as few as I wish"",""5% of my score on a random round""]",34503,,,513008,,,survey-multi-choice,,110
,,,"[True, True, True, False]",,,,,"[""True or false: The hidden values will change each time I start a new round."",""How much does it cost to observe each hidden value?"",""How many hidden values am I allowed to observe in each round?"",""How is your bonus determined?""]","[""True"",""$1.00"",""As many or as few as I wish"",""5% of my best score on any round""]",13075,,,72052,,,survey-multi-choice,,111
,,,"[True, True, True, True]",,,,,"[""True or false: The hidden values will change each time I start a new round."",""How much does it cost to observe each hidden value?"",""How many hidden values am I allowed to observe in each round?"",""How is your bonus determined?""]","[""True"",""$1.00"",""As many or as few as I wish"",""5% of my score on a random round""]",9105,,,103268,,,survey-multi-choice,,111
,,,"[True, True, True, True]",,,,,"[""True or false: The hidden values will change each time I start a new round."",""How much does it cost to observe each hidden value?"",""How many hidden values am I allowed to observe in each round?"",""How is your bonus determined?""]","[""True"",""$1.00"",""As many or as few as I wish"",""5% of my score on a random round""]",66426,,,383773,,,survey-multi-choice,,112
,,,"[True, True, True, True, True]",,,,,"[""True or false: The hidden values will change each time I start a new round."",""How much does it cost to observe each hidden value?"",""How many hidden values am I allowed to observe in each round?"",""How is your bonus determined?"",""What does the feedback teach you?""]","[""True"",""$1.00"",""As many or as few as I wish"",""5% of my score on a random round"",""All of the above.""]",48722,,,229932,,,survey-multi-choice,,113
,,,"[True, True, True, False]",,,,,"[""True or false: The hidden values will change each time I start a new round."",""How much does it cost to observe each hidden value?"",""How many hidden values am I allowed to observe in each round?"",""How is your bonus determined?""]","[""True"",""$1.00"",""As many or as few as I wish"",""5% of my best score on any round""]",27636,,,168950,,,survey-multi-choice,,114
,,,"[True, True, True, True]",,,,,"[""True or false: The hidden values will change each time I start a new round."",""How much does it cost to observe each hidden value?"",""How many hidden values am I allowed to observe in each round?"",""How is your bonus determined?""]","[""True"",""$1.00"",""As many or as few as I wish"",""5% of my score on a random round""]",14335,,,231877,,,survey-multi-choice,,114
,,,"[True, True, True, False]",,,,,"[""True or false: The hidden values will change each time I start a new round."",""How much does it cost to observe each hidden value?"",""How many hidden values am I allowed to observe in each round?"",""How is your bonus determined?""]","[""True"",""$1.00"",""As many or as few as I wish"",""5% of my best score on any round""]",30938,,,203156,,,survey-multi-choice,,115
,,,"[True, True, True, True]",,,,,"[""True or false: The hidden values will change each time I start a new round."",""How much does it cost to observe each hidden value?"",""How many hidden values am I allowed to observe in each round?"",""How is your bonus determined?""]","[""True"",""$1.00"",""As many or as few as I wish"",""5% of my score on a random round""]",8062,,,260087,,,survey-multi-choice,,115
,,,"[True, True, True, True]",,,,,"[""True or false: The hidden values will change each time I start a new round."",""How much does it cost to observe each hidden value?"",""How many hidden values am I allowed to observe in each round?"",""How is your bonus determined?""]","[""True"",""$1.00"",""As many or as few as I wish"",""5% of my score on a random round""]",20075,,,177690,,,survey-multi-choice,,116
,,,"[True, True, True, True, True]",,,,,"[""True or false: The hidden values will change each time I start a new round."",""How much does it cost to observe each hidden value?"",""How many hidden values am I allowed to observe in each round?"",""How is your bonus determined?"",""What does the feedback teach you?""]","[""True"",""$1.00"",""As many or as few as I wish"",""5% of my score on a random round"",""All of the above.""]",36269,,,246126,,,survey-multi-choice,,117
,,,"[True, True, True, True]",,,,,"[""True or false: The hidden values will change each time I start a new round."",""How much does it cost to observe each hidden value?"",""How many hidden values am I allowed to observe in each round?"",""How is your bonus determined?""]","[""True"",""$1.00"",""As many or as few as I wish"",""5% of my score on a random round""]",106472,,,754762,,,survey-multi-choice,,118
,,,"[True, True, True, True]",,,,,"[""True or false: The hidden values will change each time I start a new round."",""How much does it cost to observe each hidden value?"",""How many hidden values am I allowed to observe in each round?"",""How is your bonus determined?""]","[""True"",""$1.00"",""As many or as few as I wish"",""5% of my score on a random round""]",60607,,,82162,,,survey-multi-choice,,119
,,,"[True, True, True, True]",,,,,"[""True or false: The hidden values will change each time I start a new round."",""How much does it cost to observe each hidden value?"",""How many hidden values am I allowed to observe in each round?"",""How is your bonus determined?""]","[""True"",""$1.00"",""As many or as few as I wish"",""5% of my score on a random round""]",21332,,,202123,,,survey-multi-choice,,120
,,,"[True, True, True, False]",,,,,"[""True or false: The hidden values will change each time I start a new round."",""How much does it cost to observe each hidden value?"",""How many hidden values am I allowed to observe in each round?"",""How is your bonus determined?""]","[""True"",""$1.00"",""As many or as few as I wish"",""5% of my best score on any round""]",24668,,,269534,,,survey-multi-choice,,121
,,,"[True, True, True, True]",,,,,"[""True or false: The hidden values will change each time I start a new round."",""How much does it cost to observe each hidden value?"",""How many hidden values am I allowed to observe in each round?"",""How is your bonus determined?""]","[""True"",""$1.00"",""As many or as few as I wish"",""5% of my score on a random round""]",16686,,,410328,,,survey-multi-choice,,121
,,,"[True, True, True, True, True]",,,,,"[""True or false: The hidden values will change each time I start a new round."",""How much does it cost to observe each hidden value?"",""How many hidden values am I allowed to observe in each round?"",""How is your bonus determined?"",""What does the feedback teach you?""]","[""True"",""$1.00"",""As many or as few as I wish"",""5% of my score on a random round"",""All of the above.""]",22835,,,344338,,,survey-multi-choice,,122
,,,"[True, True, True, True]",,,,,"[""True or false: The hidden values will change each time I start a new round."",""How much does it cost to observe each hidden value?"",""How many hidden values am I allowed to observe in each round?"",""How is your bonus determined?""]","[""True"",""$1.00"",""As many or as few as I wish"",""5% of my score on a random round""]",22862,,,196608,,,survey-multi-choice,,123
,,,"[False, True, True, False]",,,,,"[""True or false: The hidden values will change each time I start a new round."",""How much does it cost to observe each hidden value?"",""How many hidden values am I allowed to observe in each round?"",""How is your bonus determined?""]","[""False"",""$1.00"",""As many or as few as I wish"",""5% of my best score on any round""]",18181,,,103769,,,survey-multi-choice,,124
,,,"[False, True, True, True]",,,,,"[""True or false: The hidden values will change each time I start a new round."",""How much does it cost to observe each hidden value?"",""How many hidden values am I allowed to observe in each round?"",""How is your bonus determined?""]","[""False"",""$1.00"",""As many or as few as I wish"",""5% of my score on a random round""]",10663,,,179457,,,survey-multi-choice,,124
,,,"[True, True, True, True]",,,,,"[""True or false: The hidden values will change each time I start a new round."",""How much does it cost to observe each hidden value?"",""How many hidden values am I allowed to observe in each round?"",""How is your bonus determined?""]","[""True"",""$1.00"",""As many or as few as I wish"",""5% of my score on a random round""]",9604,,,424811,,,survey-multi-choice,,124
,,,"[True, True, True, True]",,,,,"[""True or false: The hidden values will change each time I start a new round."",""How much does it cost to observe each hidden value?"",""How many hidden values am I allowed to observe in each round?"",""How is your bonus determined?""]","[""True"",""$1.00"",""As many or as few as I wish"",""5% of my score on a random round""]",13018,,,87312,,,survey-multi-choice,,125
,,,"[True, True, True, True]",,,,,"[""True or false: The hidden values will change each time I start a new round."",""How much does it cost to observe each hidden value?"",""How many hidden values am I allowed to observe in each round?"",""How is your bonus determined?""]","[""True"",""$1.00"",""As many or as few as I wish"",""5% of my score on a random round""]",15795,,,165574,,,survey-multi-choice,,126
,,,"[True, False, True, True]",,,,,"[""True or false: The hidden values will change each time I start a new round."",""How much does it cost to observe each hidden value?"",""How many hidden values am I allowed to observe in each round?"",""How is your bonus determined?""]","[""True"",""$0.01"",""As many or as few as I wish"",""5% of my score on a random round""]",28844,,,101446,,,survey-multi-choice,,127
,,,"[True, True, True, True]",,,,,"[""True or false: The hidden values will change each time I start a new round."",""How much does it cost to observe each hidden value?"",""How many hidden values am I allowed to observe in each round?"",""How is your bonus determined?""]","[""True"",""$1.00"",""As many or as few as I wish"",""5% of my score on a random round""]",10291,,,142006,,,survey-multi-choice,,127
,,,"[True, True, True, False]",,,,,"[""True or false: The hidden values will change each time I start a new round."",""How much does it cost to observe each hidden value?"",""How many hidden values am I allowed to observe in each round?"",""How is your bonus determined?""]","[""True"",""$1.00"",""As many or as few as I wish"",""5% of my best score on any round""]",14404,,,87672,,,survey-multi-choice,,128
,,,"[True, True, True, True]",,,,,"[""True or false: The hidden values will change each time I start a new round."",""How much does it cost to observe each hidden value?"",""How many hidden values am I allowed to observe in each round?"",""How is your bonus determined?""]","[""True"",""$1.00"",""As many or as few as I wish"",""5% of my score on a random round""]",7893,,,119459,,,survey-multi-choice,,128
,,,"[True, True, True, False]",,,,,"[""True or false: The hidden values will change each time I start a new round."",""How much does it cost to observe each hidden value?"",""How many hidden values am I allowed to observe in each round?"",""How is your bonus determined?""]","[""True"",""$1.00"",""As many or as few as I wish"",""5% of my best score on any round""]",22125,,,164349,,,survey-multi-choice,,129
,,,"[True, True, True, True]",,,,,"[""True or false: The hidden values will change each time I start a new round."",""How much does it cost to observe each hidden value?"",""How many hidden values am I allowed to observe in each round?"",""How is your bonus determined?""]","[""True"",""$1.00"",""As many or as few as I wish"",""5% of my score on a random round""]",18161,,,249801,,,survey-multi-choice,,129
,,,"[True, True, True, True]",,,,,"[""True or false: The hidden values will change each time I start a new round."",""How much does it cost to observe each hidden value?"",""How many hidden values am I allowed to observe in each round?"",""How is your bonus determined?""]","[""True"",""$1.00"",""As many or as few as I wish"",""5% of my score on a random round""]",13582,,,185544,,,survey-multi-choice,,130
,,,"[True, True, True, False]",,,,,"[""True or false: The hidden values will change each time I start a new round."",""How much does it cost to observe each hidden value?"",""How many hidden values am I allowed to observe in each round?"",""How is your bonus determined?""]","[""True"",""$1.00"",""As many or as few as I wish"",""5% of my best score on any round""]",15579,,,64902,,,survey-multi-choice,,131
,,,"[True, True, True, True]",,,,,"[""True or false: The hidden values will change each time I start a new round."",""How much does it cost to observe each hidden value?"",""How many hidden values am I allowed to observe in each round?"",""How is your bonus determined?""]","[""True"",""$1.00"",""As many or as few as I wish"",""5% of my score on a random round""]",7808,,,115729,,,survey-multi-choice,,131
,,,"[True, True, True, False, True]",,,,,"[""True or false: The hidden values will change each time I start a new round."",""How much does it cost to observe each hidden value?"",""How many hidden values am I allowed to observe in each round?"",""How is your bonus determined?"",""What does the feedback teach you?""]","[""True"",""$1.00"",""As many or as few as I wish"",""10% of my best score on any round"",""All of the above.""]",39908,,,209298,,,survey-multi-choice,,132
,,,"[True, True, True, True, True]",,,,,"[""True or false: The hidden values will change each time I start a new round."",""How much does it cost to observe each hidden value?"",""How many hidden values am I allowed to observe in each round?"",""How is your bonus determined?"",""What does the feedback teach you?""]","[""True"",""$1.00"",""As many or as few as I wish"",""5% of my score on a random round"",""All of the above.""]",37800,,,300362,,,survey-multi-choice,,132
,,,"[True, True, True, True]",,,,,"[""True or false: The hidden values will change each time I start a new round."",""How much does it cost to observe each hidden value?"",""How many hidden values am I allowed to observe in each round?"",""How is your bonus determined?""]","[""True"",""$1.00"",""As many or as few as I wish"",""5% of my score on a random round""]",15808,,,92568,,,survey-multi-choice,,133
,,,"[True, True, True, True, False]",,,,,"[""True or false: The hidden values will change each time I start a new round."",""How much does it cost to observe each hidden value?"",""How many hidden values am I allowed to observe in each round?"",""How is your bonus determined?"",""What does the feedback teach you?""]","[""True"",""$1.00"",""As many or as few as I wish"",""5% of my score on a random round"",""Whether I chose the move that was best according to the information I had.""]",71838,,,430727,,,survey-multi-choice,,134
