action_times,actions,button_pressed,correct,delays,key_press,path,queries,questions,responses,rt,score,stimulus,time_elapsed,trial_index,trial_i,trial_type,view_history,pid
,,,"[True, True, True, True]",,,,,"[""True or false: The hidden values will change each time I start a new round."",""How much does it cost to observe each hidden value?"",""How many hidden values am I allowed to observe in each round?"",""How is your bonus determined?""]","[""True"",""$1.00"",""As many or as few as I wish"",""5% of my score on a random round""]",77067,,,155911,,,survey-multi-choice,,0
,,,"[True, True, True, True]",,,,,"[""True or false: The hidden values will change each time I start a new round."",""How much does it cost to observe each hidden value?"",""How many hidden values am I allowed to observe in each round?"",""How is your bonus determined?""]","[""True"",""$1.00"",""As many or as few as I wish"",""5% of my score on a random round""]",11889,,,136859,,,survey-multi-choice,,1
,,,"[True, True, True, True, True]",,,,,"[""True or false: The hidden values will change each time I start a new round."",""How much does it cost to observe each hidden value?"",""How many hidden values am I allowed to observe in each round?"",""How is your bonus determined?"",""What does the feedback teach you?""]","[""True"",""$1.00"",""As many or as few as I wish"",""5% of my score on a random round"",""All of the above.""]",62648,,,257640,,,survey-multi-choice,,2
,,,"[True, True, True, True, True]",,,,,"[""True or false: The hidden values will change each time I start a new round."",""How much does it cost to observe each hidden value?"",""How many hidden values am I allowed to observe in each round?"",""How is your bonus determined?"",""What does the feedback teach you?""]","[""True"",""$1.00"",""As many or as few as I wish"",""5% of my score on a random round"",""All of the above.""]",27301,,,98209,,,survey-multi-choice,,3
,,,"[True, True, True, True, True]",,,,,"[""True or false: The hidden values will change each time I start a new round."",""How much does it cost to observe each hidden value?"",""How many hidden values am I allowed to observe in each round?"",""How is your bonus determined?"",""What does the feedback teach you?""]","[""True"",""$1.00"",""As many or as few as I wish"",""5% of my score on a random round"",""All of the above.""]",102726,,,273515,,,survey-multi-choice,,4
,,,"[True, True, True, False]",,,,,"[""True or false: The hidden values will change each time I start a new round."",""How much does it cost to observe each hidden value?"",""How many hidden values am I allowed to observe in each round?"",""How is your bonus determined?""]","[""True"",""$1.00"",""As many or as few as I wish"",""5% of my best score on any round""]",30700,,,186254,,,survey-multi-choice,,5
,,,"[True, True, True, True]",,,,,"[""True or false: The hidden values will change each time I start a new round."",""How much does it cost to observe each hidden value?"",""How many hidden values am I allowed to observe in each round?"",""How is your bonus determined?""]","[""True"",""$1.00"",""As many or as few as I wish"",""5% of my score on a random round""]",17595,,,325678,,,survey-multi-choice,,5
,,,"[True, True, True, False, True]",,,,,"[""True or false: The hidden values will change each time I start a new round."",""How much does it cost to observe each hidden value?"",""How many hidden values am I allowed to observe in each round?"",""How is your bonus determined?"",""What does the feedback teach you?""]","[""True"",""$1.00"",""As many or as few as I wish"",""10% of my total score on all rounds"",""All of the above.""]",30693,,,154088,,,survey-multi-choice,,6
,,,"[True, True, True, True, False]",,,,,"[""True or false: The hidden values will change each time I start a new round."",""How much does it cost to observe each hidden value?"",""How many hidden values am I allowed to observe in each round?"",""How is your bonus determined?"",""What does the feedback teach you?""]","[""True"",""$1.00"",""As many or as few as I wish"",""5% of my score on a random round"",""Whether I observed the rewards of relevant locations.""]",23749,,,272656,,,survey-multi-choice,,6
,,,"[True, True, True, True, False]",,,,,"[""True or false: The hidden values will change each time I start a new round."",""How much does it cost to observe each hidden value?"",""How many hidden values am I allowed to observe in each round?"",""How is your bonus determined?"",""What does the feedback teach you?""]","[""True"",""$1.00"",""As many or as few as I wish"",""5% of my score on a random round"",""Whether I chose the move that was best according to the information I had.""]",13408,,,340072,,,survey-multi-choice,,6
,,,"[True, True, True, True, False]",,,,,"[""True or false: The hidden values will change each time I start a new round."",""How much does it cost to observe each hidden value?"",""How many hidden values am I allowed to observe in each round?"",""How is your bonus determined?"",""What does the feedback teach you?""]","[""True"",""$1.00"",""As many or as few as I wish"",""5% of my score on a random round"",""The length of the delay is based on how much more money I could have earned by planning and deciding better.""]",18334,,,366790,,,survey-multi-choice,,6
,,,"[True, True, True, True, True]",,,,,"[""True or false: The hidden values will change each time I start a new round."",""How much does it cost to observe each hidden value?"",""How many hidden values am I allowed to observe in each round?"",""How is your bonus determined?"",""What does the feedback teach you?""]","[""True"",""$1.00"",""As many or as few as I wish"",""5% of my score on a random round"",""All of the above.""]",24920,,,471059,,,survey-multi-choice,,6
,,,"[True, True, True, True, True]",,,,,"[""True or false: The hidden values will change each time I start a new round."",""How much does it cost to observe each hidden value?"",""How many hidden values am I allowed to observe in each round?"",""How is your bonus determined?"",""What does the feedback teach you?""]","[""True"",""$1.00"",""As many or as few as I wish"",""5% of my score on a random round"",""All of the above.""]",29262,,,173985,,,survey-multi-choice,,7
,,,"[True, True, True, True, True]",,,,,"[""True or false: The hidden values will change each time I start a new round."",""How much does it cost to observe each hidden value?"",""How many hidden values am I allowed to observe in each round?"",""How is your bonus determined?"",""What does the feedback teach you?""]","[""True"",""$1.00"",""As many or as few as I wish"",""5% of my score on a random round"",""All of the above.""]",25152,,,239761,,,survey-multi-choice,,8
,,,"[True, True, True, True]",,,,,"[""True or false: The hidden values will change each time I start a new round."",""How much does it cost to observe each hidden value?"",""How many hidden values am I allowed to observe in each round?"",""How is your bonus determined?""]","[""True"",""$1.00"",""As many or as few as I wish"",""5% of my score on a random round""]",16879,,,148135,,,survey-multi-choice,,9
,,,"[True, True, True, True, True]",,,,,"[""True or false: The hidden values will change each time I start a new round."",""How much does it cost to observe each hidden value?"",""How many hidden values am I allowed to observe in each round?"",""How is your bonus determined?"",""What does the feedback teach you?""]","[""True"",""$1.00"",""As many or as few as I wish"",""5% of my score on a random round"",""All of the above.""]",27645,,,151219,,,survey-multi-choice,,10
,,,"[True, True, True, True, False]",,,,,"[""True or false: The hidden values will change each time I start a new round."",""How much does it cost to observe each hidden value?"",""How many hidden values am I allowed to observe in each round?"",""How is your bonus determined?"",""What does the feedback teach you?""]","[""True"",""$1.00"",""As many or as few as I wish"",""5% of my score on a random round"",""Whether I observed the rewards of relevant locations.""]",24025,,,188281,,,survey-multi-choice,,11
,,,"[True, True, True, True, True]",,,,,"[""True or false: The hidden values will change each time I start a new round."",""How much does it cost to observe each hidden value?"",""How many hidden values am I allowed to observe in each round?"",""How is your bonus determined?"",""What does the feedback teach you?""]","[""True"",""$1.00"",""As many or as few as I wish"",""5% of my score on a random round"",""All of the above.""]",9572,,,216958,,,survey-multi-choice,,11
,,,"[False, True, False, False, True]",,,,,"[""True or false: The hidden values will change each time I start a new round."",""How much does it cost to observe each hidden value?"",""How many hidden values am I allowed to observe in each round?"",""How is your bonus determined?"",""What does the feedback teach you?""]","[""False"",""$1.00"",""At most 1"",""5% of my best score on any round"",""All of the above.""]",47527,,,246319,,,survey-multi-choice,,12
,,,"[True, True, True, False, True]",,,,,"[""True or false: The hidden values will change each time I start a new round."",""How much does it cost to observe each hidden value?"",""How many hidden values am I allowed to observe in each round?"",""How is your bonus determined?"",""What does the feedback teach you?""]","[""True"",""$1.00"",""As many or as few as I wish"",""5% of my best score on any round"",""All of the above.""]",184121,,,509129,,,survey-multi-choice,,12
,,,"[True, True, True, True, True]",,,,,"[""True or false: The hidden values will change each time I start a new round."",""How much does it cost to observe each hidden value?"",""How many hidden values am I allowed to observe in each round?"",""How is your bonus determined?"",""What does the feedback teach you?""]","[""True"",""$1.00"",""As many or as few as I wish"",""5% of my score on a random round"",""All of the above.""]",103062,,,744286,,,survey-multi-choice,,12
,,,"[True, True, True, True]",,,,,"[""True or false: The hidden values will change each time I start a new round."",""How much does it cost to observe each hidden value?"",""How many hidden values am I allowed to observe in each round?"",""How is your bonus determined?""]","[""True"",""$1.00"",""As many or as few as I wish"",""5% of my score on a random round""]",17568,,,186417,,,survey-multi-choice,,13
,,,"[True, True, True, True, False]",,,,,"[""True or false: The hidden values will change each time I start a new round."",""How much does it cost to observe each hidden value?"",""How many hidden values am I allowed to observe in each round?"",""How is your bonus determined?"",""What does the feedback teach you?""]","[""True"",""$1.00"",""As many or as few as I wish"",""5% of my score on a random round"",""The length of the delay is based on how much more money I could have earned by planning and deciding better.""]",33171,,,130255,,,survey-multi-choice,,14
,,,"[True, True, True, True, False]",,,,,"[""True or false: The hidden values will change each time I start a new round."",""How much does it cost to observe each hidden value?"",""How many hidden values am I allowed to observe in each round?"",""How is your bonus determined?"",""What does the feedback teach you?""]","[""True"",""$1.00"",""As many or as few as I wish"",""5% of my score on a random round"",""The length of the delay is based on how much more money I could have earned by planning and deciding better.""]",14355,,,161405,,,survey-multi-choice,,14
,,,"[True, True, True, True, True]",,,,,"[""True or false: The hidden values will change each time I start a new round."",""How much does it cost to observe each hidden value?"",""How many hidden values am I allowed to observe in each round?"",""How is your bonus determined?"",""What does the feedback teach you?""]","[""True"",""$1.00"",""As many or as few as I wish"",""5% of my score on a random round"",""All of the above.""]",12667,,,180305,,,survey-multi-choice,,14
,,,"[True, True, True, True]",,,,,"[""True or false: The hidden values will change each time I start a new round."",""How much does it cost to observe each hidden value?"",""How many hidden values am I allowed to observe in each round?"",""How is your bonus determined?""]","[""True"",""$1.00"",""As many or as few as I wish"",""5% of my score on a random round""]",8569,,,65647,,,survey-multi-choice,,15
,,,"[True, True, True, True, True]",,,,,"[""True or false: The hidden values will change each time I start a new round."",""How much does it cost to observe each hidden value?"",""How many hidden values am I allowed to observe in each round?"",""How is your bonus determined?"",""What does the feedback teach you?""]","[""True"",""$1.00"",""As many or as few as I wish"",""5% of my score on a random round"",""All of the above.""]",36922,,,256085,,,survey-multi-choice,,16
,,,"[True, True, True, True, False]",,,,,"[""True or false: The hidden values will change each time I start a new round."",""How much does it cost to observe each hidden value?"",""How many hidden values am I allowed to observe in each round?"",""How is your bonus determined?"",""What does the feedback teach you?""]","[""True"",""$1.00"",""As many or as few as I wish"",""5% of my score on a random round"",""The length of the delay is based on how much more money I could have earned by planning and deciding better.""]",23312,,,103965,,,survey-multi-choice,,17
,,,"[True, True, True, True, True]",,,,,"[""True or false: The hidden values will change each time I start a new round."",""How much does it cost to observe each hidden value?"",""How many hidden values am I allowed to observe in each round?"",""How is your bonus determined?"",""What does the feedback teach you?""]","[""True"",""$1.00"",""As many or as few as I wish"",""5% of my score on a random round"",""All of the above.""]",12639,,,125071,,,survey-multi-choice,,17
,,,"[True, False, False, True]",,,,,"[""True or false: The hidden values will change each time I start a new round."",""How much does it cost to observe each hidden value?"",""How many hidden values am I allowed to observe in each round?"",""How is your bonus determined?""]","[""True"",""$0.05"",""At most 5"",""5% of my score on a random round""]",19846,,,88996,,,survey-multi-choice,,18
,,,"[True, True, True, True]",,,,,"[""True or false: The hidden values will change each time I start a new round."",""How much does it cost to observe each hidden value?"",""How many hidden values am I allowed to observe in each round?"",""How is your bonus determined?""]","[""True"",""$1.00"",""As many or as few as I wish"",""5% of my score on a random round""]",8812,,,130846,,,survey-multi-choice,,18
,,,"[True, False, False, False]",,,,,"[""True or false: The hidden values will change each time I start a new round."",""How much does it cost to observe each hidden value?"",""How many hidden values am I allowed to observe in each round?"",""How is your bonus determined?""]","[""True"",""$0.05"",""At most 5"",""5% of my best score on any round""]",59130,,,112670,,,survey-multi-choice,,19
,,,"[True, True, False, False]",,,,,"[""True or false: The hidden values will change each time I start a new round."",""How much does it cost to observe each hidden value?"",""How many hidden values am I allowed to observe in each round?"",""How is your bonus determined?""]","[""True"",""$1.00"",""At most 5"",""5% of my best score on any round""]",9008,,,138340,,,survey-multi-choice,,19
,,,"[True, True, True, True]",,,,,"[""True or false: The hidden values will change each time I start a new round."",""How much does it cost to observe each hidden value?"",""How many hidden values am I allowed to observe in each round?"",""How is your bonus determined?""]","[""True"",""$1.00"",""As many or as few as I wish"",""5% of my score on a random round""]",20223,,,233798,,,survey-multi-choice,,19
,,,"[True, True, True, False]",,,,,"[""True or false: The hidden values will change each time I start a new round."",""How much does it cost to observe each hidden value?"",""How many hidden values am I allowed to observe in each round?"",""How is your bonus determined?""]","[""True"",""$1.00"",""As many or as few as I wish"",""5% of my best score on any round""]",16730,,,175709,,,survey-multi-choice,,20
,,,"[True, True, True, False]",,,,,"[""True or false: The hidden values will change each time I start a new round."",""How much does it cost to observe each hidden value?"",""How many hidden values am I allowed to observe in each round?"",""How is your bonus determined?""]","[""True"",""$1.00"",""As many or as few as I wish"",""5% of my best score on any round""]",14466,,,211251,,,survey-multi-choice,,20
,,,"[True, True, True, False]",,,,,"[""True or false: The hidden values will change each time I start a new round."",""How much does it cost to observe each hidden value?"",""How many hidden values am I allowed to observe in each round?"",""How is your bonus determined?""]","[""True"",""$1.00"",""As many or as few as I wish"",""10% of my total score on all rounds""]",21926,,,261875,,,survey-multi-choice,,20
,,,"[True, True, True, True]",,,,,"[""True or false: The hidden values will change each time I start a new round."",""How much does it cost to observe each hidden value?"",""How many hidden values am I allowed to observe in each round?"",""How is your bonus determined?""]","[""True"",""$1.00"",""As many or as few as I wish"",""5% of my score on a random round""]",12980,,,339835,,,survey-multi-choice,,20
,,,"[True, True, True, True]",,,,,"[""True or false: The hidden values will change each time I start a new round."",""How much does it cost to observe each hidden value?"",""How many hidden values am I allowed to observe in each round?"",""How is your bonus determined?""]","[""True"",""$1.00"",""As many or as few as I wish"",""5% of my score on a random round""]",15128,,,61075,,,survey-multi-choice,,21
,,,"[True, True, False, True]",,,,,"[""True or false: The hidden values will change each time I start a new round."",""How much does it cost to observe each hidden value?"",""How many hidden values am I allowed to observe in each round?"",""How is your bonus determined?""]","[""True"",""$1.00"",""At most 1"",""5% of my score on a random round""]",15393,,,101606,,,survey-multi-choice,,22
,,,"[True, True, True, True]",,,,,"[""True or false: The hidden values will change each time I start a new round."",""How much does it cost to observe each hidden value?"",""How many hidden values am I allowed to observe in each round?"",""How is your bonus determined?""]","[""True"",""$1.00"",""As many or as few as I wish"",""5% of my score on a random round""]",13309,,,157742,,,survey-multi-choice,,22
,,,"[True, True, True, True]",,,,,"[""True or false: The hidden values will change each time I start a new round."",""How much does it cost to observe each hidden value?"",""How many hidden values am I allowed to observe in each round?"",""How is your bonus determined?""]","[""True"",""$1.00"",""As many or as few as I wish"",""5% of my score on a random round""]",20239,,,237142,,,survey-multi-choice,,23
,,,"[True, False, True, True]",,,,,"[""True or false: The hidden values will change each time I start a new round."",""How much does it cost to observe each hidden value?"",""How many hidden values am I allowed to observe in each round?"",""How is your bonus determined?""]","[""True"",""$0.01"",""As many or as few as I wish"",""5% of my score on a random round""]",20242,,,74989,,,survey-multi-choice,,24
,,,"[True, True, True, True]",,,,,"[""True or false: The hidden values will change each time I start a new round."",""How much does it cost to observe each hidden value?"",""How many hidden values am I allowed to observe in each round?"",""How is your bonus determined?""]","[""True"",""$1.00"",""As many or as few as I wish"",""5% of my score on a random round""]",11004,,,122757,,,survey-multi-choice,,24
,,,"[True, False, True, True]",,,,,"[""True or false: The hidden values will change each time I start a new round."",""How much does it cost to observe each hidden value?"",""How many hidden values am I allowed to observe in each round?"",""How is your bonus determined?""]","[""True"",""$0.05"",""As many or as few as I wish"",""5% of my score on a random round""]",41859,,,144981,,,survey-multi-choice,,25
,,,"[True, True, True, True]",,,,,"[""True or false: The hidden values will change each time I start a new round."",""How much does it cost to observe each hidden value?"",""How many hidden values am I allowed to observe in each round?"",""How is your bonus determined?""]","[""True"",""$1.00"",""As many or as few as I wish"",""5% of my score on a random round""]",15601,,,207706,,,survey-multi-choice,,25
,,,"[True, True, True, True, True]",,,,,"[""True or false: The hidden values will change each time I start a new round."",""How much does it cost to observe each hidden value?"",""How many hidden values am I allowed to observe in each round?"",""How is your bonus determined?"",""What does the feedback teach you?""]","[""True"",""$1.00"",""As many or as few as I wish"",""5% of my score on a random round"",""All of the above.""]",40671,,,181206,,,survey-multi-choice,,26
,,,"[True, True, True, False]",,,,,"[""True or false: The hidden values will change each time I start a new round."",""How much does it cost to observe each hidden value?"",""How many hidden values am I allowed to observe in each round?"",""How is your bonus determined?""]","[""True"",""$1.00"",""As many or as few as I wish"",""10% of my best score on any round""]",25505,,,81740,,,survey-multi-choice,,27
,,,"[True, True, False, False]",,,,,"[""True or false: The hidden values will change each time I start a new round."",""How much does it cost to observe each hidden value?"",""How many hidden values am I allowed to observe in each round?"",""How is your bonus determined?""]","[""True"",""$1.00"",""At most 10"",""5% of my best score on any round""]",21098,,,159187,,,survey-multi-choice,,27
,,,"[True, True, True, True]",,,,,"[""True or false: The hidden values will change each time I start a new round."",""How much does it cost to observe each hidden value?"",""How many hidden values am I allowed to observe in each round?"",""How is your bonus determined?""]","[""True"",""$1.00"",""As many or as few as I wish"",""5% of my score on a random round""]",15173,,,242153,,,survey-multi-choice,,27
,,,"[True, True, True, True]",,,,,"[""True or false: The hidden values will change each time I start a new round."",""How much does it cost to observe each hidden value?"",""How many hidden values am I allowed to observe in each round?"",""How is your bonus determined?""]","[""True"",""$1.00"",""As many or as few as I wish"",""5% of my score on a random round""]",19382,,,164321,,,survey-multi-choice,,28
,,,"[True, True, True, True, False]",,,,,"[""True or false: The hidden values will change each time I start a new round."",""How much does it cost to observe each hidden value?"",""How many hidden values am I allowed to observe in each round?"",""How is your bonus determined?"",""What does the feedback teach you?""]","[""True"",""$1.00"",""As many or as few as I wish"",""5% of my score on a random round"",""Whether I chose the move that was best according to the information I had.""]",253561,,,349777,,,survey-multi-choice,,29
,,,"[True, True, True, True, True]",,,,,"[""True or false: The hidden values will change each time I start a new round."",""How much does it cost to observe each hidden value?"",""How many hidden values am I allowed to observe in each round?"",""How is your bonus determined?"",""What does the feedback teach you?""]","[""True"",""$1.00"",""As many or as few as I wish"",""5% of my score on a random round"",""All of the above.""]",9420,,,371331,,,survey-multi-choice,,29
,,,"[True, True, True, True, True]",,,,,"[""True or false: The hidden values will change each time I start a new round."",""How much does it cost to observe each hidden value?"",""How many hidden values am I allowed to observe in each round?"",""How is your bonus determined?"",""What does the feedback teach you?""]","[""True"",""$1.00"",""As many or as few as I wish"",""5% of my score on a random round"",""All of the above.""]",20856,,,120594,,,survey-multi-choice,,30
,,,"[True, True, True, True]",,,,,"[""True or false: The hidden values will change each time I start a new round."",""How much does it cost to observe each hidden value?"",""How many hidden values am I allowed to observe in each round?"",""How is your bonus determined?""]","[""True"",""$1.00"",""As many or as few as I wish"",""5% of my score on a random round""]",107365,,,294603,,,survey-multi-choice,,31
,,,"[True, True, True, True, True]",,,,,"[""True or false: The hidden values will change each time I start a new round."",""How much does it cost to observe each hidden value?"",""How many hidden values am I allowed to observe in each round?"",""How is your bonus determined?"",""What does the feedback teach you?""]","[""True"",""$1.00"",""As many or as few as I wish"",""5% of my score on a random round"",""All of the above.""]",31602,,,222963,,,survey-multi-choice,,32
,,,"[True, False, True, False, True]",,,,,"[""True or false: The hidden values will change each time I start a new round."",""How much does it cost to observe each hidden value?"",""How many hidden values am I allowed to observe in each round?"",""How is your bonus determined?"",""What does the feedback teach you?""]","[""True"",""$0.01"",""As many or as few as I wish"",""10% of my total score on all rounds"",""All of the above.""]",22439,,,115027,,,survey-multi-choice,,33
,,,"[True, True, True, True, False]",,,,,"[""True or false: The hidden values will change each time I start a new round."",""How much does it cost to observe each hidden value?"",""How many hidden values am I allowed to observe in each round?"",""How is your bonus determined?"",""What does the feedback teach you?""]","[""True"",""$1.00"",""As many or as few as I wish"",""5% of my score on a random round"",""Whether I chose the move that was best according to the information I had.""]",17906,,,225337,,,survey-multi-choice,,33
,,,"[True, True, True, True, False]",,,,,"[""True or false: The hidden values will change each time I start a new round."",""How much does it cost to observe each hidden value?"",""How many hidden values am I allowed to observe in each round?"",""How is your bonus determined?"",""What does the feedback teach you?""]","[""True"",""$1.00"",""As many or as few as I wish"",""5% of my score on a random round"",""Whether I observed the rewards of relevant locations.""]",12641,,,255873,,,survey-multi-choice,,33
,,,"[True, True, True, True, True]",,,,,"[""True or false: The hidden values will change each time I start a new round."",""How much does it cost to observe each hidden value?"",""How many hidden values am I allowed to observe in each round?"",""How is your bonus determined?"",""What does the feedback teach you?""]","[""True"",""$1.00"",""As many or as few as I wish"",""5% of my score on a random round"",""All of the above.""]",10216,,,273363,,,survey-multi-choice,,33
,,,"[True, True, False, True, True]",,,,,"[""True or false: The hidden values will change each time I start a new round."",""How much does it cost to observe each hidden value?"",""How many hidden values am I allowed to observe in each round?"",""How is your bonus determined?"",""What does the feedback teach you?""]","[""True"",""$1.00"",""At most 1"",""5% of my score on a random round"",""All of the above.""]",33369,,,193925,,,survey-multi-choice,,34
,,,"[True, True, False, True, False]",,,,,"[""True or false: The hidden values will change each time I start a new round."",""How much does it cost to observe each hidden value?"",""How many hidden values am I allowed to observe in each round?"",""How is your bonus determined?"",""What does the feedback teach you?""]","[""True"",""$1.00"",""At most 1"",""5% of my score on a random round"",""Whether I chose the move that was best according to the information I had.""]",25847,,,244708,,,survey-multi-choice,,34
,,,"[True, True, False, True, False]",,,,,"[""True or false: The hidden values will change each time I start a new round."",""How much does it cost to observe each hidden value?"",""How many hidden values am I allowed to observe in each round?"",""How is your bonus determined?"",""What does the feedback teach you?""]","[""True"",""$1.00"",""At most 1"",""5% of my score on a random round"",""Whether I chose the move that was best according to the information I had.""]",12662,,,305120,,,survey-multi-choice,,34
,,,"[True, True, False, True, True]",,,,,"[""True or false: The hidden values will change each time I start a new round."",""How much does it cost to observe each hidden value?"",""How many hidden values am I allowed to observe in each round?"",""How is your bonus determined?"",""What does the feedback teach you?""]","[""True"",""$1.00"",""At most 1"",""5% of my score on a random round"",""All of the above.""]",9588,,,332093,,,survey-multi-choice,,34
,,,"[True, True, False, True, False]",,,,,"[""True or false: The hidden values will change each time I start a new round."",""How much does it cost to observe each hidden value?"",""How many hidden values am I allowed to observe in each round?"",""How is your bonus determined?"",""What does the feedback teach you?""]","[""True"",""$1.00"",""At most 1"",""5% of my score on a random round"",""The length of the delay is based on how much more money I could have earned by planning and deciding better.""]",8989,,,357993,,,survey-multi-choice,,34
,,,"[True, True, True, True, False]",,,,,"[""True or false: The hidden values will change each time I start a new round."",""How much does it cost to observe each hidden value?"",""How many hidden values am I allowed to observe in each round?"",""How is your bonus determined?"",""What does the feedback teach you?""]","[""True"",""$1.00"",""As many or as few as I wish"",""5% of my score on a random round"",""Whether I chose the move that was best according to the information I had.""]",10886,,,386698,,,survey-multi-choice,,34
,,,"[True, True, True, True, True]",,,,,"[""True or false: The hidden values will change each time I start a new round."",""How much does it cost to observe each hidden value?"",""How many hidden values am I allowed to observe in each round?"",""How is your bonus determined?"",""What does the feedback teach you?""]","[""True"",""$1.00"",""As many or as few as I wish"",""5% of my score on a random round"",""All of the above.""]",12291,,,406410,,,survey-multi-choice,,34
,,,"[True, True, True, True, True]",,,,,"[""True or false: The hidden values will change each time I start a new round."",""How much does it cost to observe each hidden value?"",""How many hidden values am I allowed to observe in each round?"",""How is your bonus determined?"",""What does the feedback teach you?""]","[""True"",""$1.00"",""As many or as few as I wish"",""5% of my score on a random round"",""All of the above.""]",23423,,,107783,,,survey-multi-choice,,35
,,,"[True, True, True, True]",,,,,"[""True or false: The hidden values will change each time I start a new round."",""How much does it cost to observe each hidden value?"",""How many hidden values am I allowed to observe in each round?"",""How is your bonus determined?""]","[""True"",""$1.00"",""As many or as few as I wish"",""5% of my score on a random round""]",69778,,,109743,,,survey-multi-choice,,36
,,,"[True, False, True, False]",,,,,"[""True or false: The hidden values will change each time I start a new round."",""How much does it cost to observe each hidden value?"",""How many hidden values am I allowed to observe in each round?"",""How is your bonus determined?""]","[""True"",""$0.01"",""As many or as few as I wish"",""5% of my best score on any round""]",23023,,,50599,,,survey-multi-choice,,37
,,,"[True, True, True, True]",,,,,"[""True or false: The hidden values will change each time I start a new round."",""How much does it cost to observe each hidden value?"",""How many hidden values am I allowed to observe in each round?"",""How is your bonus determined?""]","[""True"",""$1.00"",""As many or as few as I wish"",""5% of my score on a random round""]",13337,,,79607,,,survey-multi-choice,,37
,,,"[True, True, True, True]",,,,,"[""True or false: The hidden values will change each time I start a new round."",""How much does it cost to observe each hidden value?"",""How many hidden values am I allowed to observe in each round?"",""How is your bonus determined?""]","[""True"",""$1.00"",""As many or as few as I wish"",""5% of my score on a random round""]",17525,,,136488,,,survey-multi-choice,,38
,,,"[True, True, True, True]",,,,,"[""True or false: The hidden values will change each time I start a new round."",""How much does it cost to observe each hidden value?"",""How many hidden values am I allowed to observe in each round?"",""How is your bonus determined?""]","[""True"",""$1.00"",""As many or as few as I wish"",""5% of my score on a random round""]",26410,,,139330,,,survey-multi-choice,,39
,,,"[True, True, True, True]",,,,,"[""True or false: The hidden values will change each time I start a new round."",""How much does it cost to observe each hidden value?"",""How many hidden values am I allowed to observe in each round?"",""How is your bonus determined?""]","[""True"",""$1.00"",""As many or as few as I wish"",""5% of my score on a random round""]",26061,,,151796,,,survey-multi-choice,,40
,,,"[True, True, True, True]",,,,,"[""True or false: The hidden values will change each time I start a new round."",""How much does it cost to observe each hidden value?"",""How many hidden values am I allowed to observe in each round?"",""How is your bonus determined?""]","[""True"",""$1.00"",""As many or as few as I wish"",""5% of my score on a random round""]",15153,,,108456,,,survey-multi-choice,,41
,,,"[True, True, True, True, True]",,,,,"[""True or false: The hidden values will change each time I start a new round."",""How much does it cost to observe each hidden value?"",""How many hidden values am I allowed to observe in each round?"",""How is your bonus determined?"",""What does the feedback teach you?""]","[""True"",""$1.00"",""As many or as few as I wish"",""5% of my score on a random round"",""All of the above.""]",31627,,,129466,,,survey-multi-choice,,42
,,,"[True, True, True, False]",,,,,"[""True or false: The hidden values will change each time I start a new round."",""How much does it cost to observe each hidden value?"",""How many hidden values am I allowed to observe in each round?"",""How is your bonus determined?""]","[""True"",""$1.00"",""As many or as few as I wish"",""5% of my best score on any round""]",17461,,,59707,,,survey-multi-choice,,43
,,,"[True, True, True, True]",,,,,"[""True or false: The hidden values will change each time I start a new round."",""How much does it cost to observe each hidden value?"",""How many hidden values am I allowed to observe in each round?"",""How is your bonus determined?""]","[""True"",""$1.00"",""As many or as few as I wish"",""5% of my score on a random round""]",6698,,,89037,,,survey-multi-choice,,43
,,,"[False, False, False, False]",,,,,"[""True or false: The hidden values will change each time I start a new round."",""How much does it cost to observe each hidden value?"",""How many hidden values am I allowed to observe in each round?"",""How is your bonus determined?""]","[""False"",""$0.01"",""At most 1"",""10% of my best score on any round""]",21261,,,92663,,,survey-multi-choice,,44
,,,"[True, True, True, False]",,,,,"[""True or false: The hidden values will change each time I start a new round."",""How much does it cost to observe each hidden value?"",""How many hidden values am I allowed to observe in each round?"",""How is your bonus determined?""]","[""True"",""$1.00"",""As many or as few as I wish"",""5% of my best score on any round""]",13316,,,167958,,,survey-multi-choice,,44
,,,"[True, True, True, True]",,,,,"[""True or false: The hidden values will change each time I start a new round."",""How much does it cost to observe each hidden value?"",""How many hidden values am I allowed to observe in each round?"",""How is your bonus determined?""]","[""True"",""$1.00"",""As many or as few as I wish"",""5% of my score on a random round""]",11856,,,237802,,,survey-multi-choice,,44
,,,"[True, True, True, True, False]",,,,,"[""True or false: The hidden values will change each time I start a new round."",""How much does it cost to observe each hidden value?"",""How many hidden values am I allowed to observe in each round?"",""How is your bonus determined?"",""What does the feedback teach you?""]","[""True"",""$1.00"",""As many or as few as I wish"",""5% of my score on a random round"",""Whether I chose the move that was best according to the information I had.""]",76355,,,479204,,,survey-multi-choice,,45
,,,"[True, True, True, True, True]",,,,,"[""True or false: The hidden values will change each time I start a new round."",""How much does it cost to observe each hidden value?"",""How many hidden values am I allowed to observe in each round?"",""How is your bonus determined?"",""What does the feedback teach you?""]","[""True"",""$1.00"",""As many or as few as I wish"",""5% of my score on a random round"",""All of the above.""]",115903,,,730190,,,survey-multi-choice,,45
,,,"[True, True, True, False]",,,,,"[""True or false: The hidden values will change each time I start a new round."",""How much does it cost to observe each hidden value?"",""How many hidden values am I allowed to observe in each round?"",""How is your bonus determined?""]","[""True"",""$1.00"",""As many or as few as I wish"",""5% of my best score on any round""]",41876,,,229423,,,survey-multi-choice,,46
,,,"[True, True, True, False]",,,,,"[""True or false: The hidden values will change each time I start a new round."",""How much does it cost to observe each hidden value?"",""How many hidden values am I allowed to observe in each round?"",""How is your bonus determined?""]","[""True"",""$1.00"",""As many or as few as I wish"",""10% of my best score on any round""]",36943,,,282450,,,survey-multi-choice,,46
,,,"[True, True, True, True]",,,,,"[""True or false: The hidden values will change each time I start a new round."",""How much does it cost to observe each hidden value?"",""How many hidden values am I allowed to observe in each round?"",""How is your bonus determined?""]","[""True"",""$1.00"",""As many or as few as I wish"",""5% of my score on a random round""]",12229,,,356243,,,survey-multi-choice,,46
,,,"[True, False, True, False]",,,,,"[""True or false: The hidden values will change each time I start a new round."",""How much does it cost to observe each hidden value?"",""How many hidden values am I allowed to observe in each round?"",""How is your bonus determined?""]","[""True"",""$0.05"",""As many or as few as I wish"",""5% of my best score on any round""]",34684,,,116271,,,survey-multi-choice,,47
,,,"[True, True, True, True]",,,,,"[""True or false: The hidden values will change each time I start a new round."",""How much does it cost to observe each hidden value?"",""How many hidden values am I allowed to observe in each round?"",""How is your bonus determined?""]","[""True"",""$1.00"",""As many or as few as I wish"",""5% of my score on a random round""]",8451,,,172005,,,survey-multi-choice,,47
,,,"[True, True, True, True]",,,,,"[""True or false: The hidden values will change each time I start a new round."",""How much does it cost to observe each hidden value?"",""How many hidden values am I allowed to observe in each round?"",""How is your bonus determined?""]","[""True"",""$1.00"",""As many or as few as I wish"",""5% of my score on a random round""]",13270,,,103230,,,survey-multi-choice,,48
,,,"[True, True, True, True]",,,,,"[""True or false: The hidden values will change each time I start a new round."",""How much does it cost to observe each hidden value?"",""How many hidden values am I allowed to observe in each round?"",""How is your bonus determined?""]","[""True"",""$1.00"",""As many or as few as I wish"",""5% of my score on a random round""]",19724,,,284246,,,survey-multi-choice,,49
,,,"[True, True, True, True]",,,,,"[""True or false: The hidden values will change each time I start a new round."",""How much does it cost to observe each hidden value?"",""How many hidden values am I allowed to observe in each round?"",""How is your bonus determined?""]","[""True"",""$1.00"",""As many or as few as I wish"",""5% of my score on a random round""]",24003,,,128181,,,survey-multi-choice,,50
,,,"[True, True, True, True, True]",,,,,"[""True or false: The hidden values will change each time I start a new round."",""How much does it cost to observe each hidden value?"",""How many hidden values am I allowed to observe in each round?"",""How is your bonus determined?"",""What does the feedback teach you?""]","[""True"",""$1.00"",""As many or as few as I wish"",""5% of my score on a random round"",""All of the above.""]",24196,,,160580,,,survey-multi-choice,,51
,,,"[True, True, True, True, False]",,,,,"[""True or false: The hidden values will change each time I start a new round."",""How much does it cost to observe each hidden value?"",""How many hidden values am I allowed to observe in each round?"",""How is your bonus determined?"",""What does the feedback teach you?""]","[""True"",""$1.00"",""As many or as few as I wish"",""5% of my score on a random round"",""The length of the delay is based on how much more money I could have earned by planning and deciding better.""]",27122,,,205133,,,survey-multi-choice,,52
,,,"[True, True, True, True, True]",,,,,"[""True or false: The hidden values will change each time I start a new round."",""How much does it cost to observe each hidden value?"",""How many hidden values am I allowed to observe in each round?"",""How is your bonus determined?"",""What does the feedback teach you?""]","[""True"",""$1.00"",""As many or as few as I wish"",""5% of my score on a random round"",""All of the above.""]",24461,,,280087,,,survey-multi-choice,,52
,,,"[True, True, False, False]",,,,,"[""True or false: The hidden values will change each time I start a new round."",""How much does it cost to observe each hidden value?"",""How many hidden values am I allowed to observe in each round?"",""How is your bonus determined?""]","[""True"",""$1.00"",""At most 1"",""5% of my best score on any round""]",47342,,,224556,,,survey-multi-choice,,53
,,,"[True, True, True, True]",,,,,"[""True or false: The hidden values will change each time I start a new round."",""How much does it cost to observe each hidden value?"",""How many hidden values am I allowed to observe in each round?"",""How is your bonus determined?""]","[""True"",""$1.00"",""As many or as few as I wish"",""5% of my score on a random round""]",31306,,,310532,,,survey-multi-choice,,53
,,,"[True, True, True, False, True]",,,,,"[""True or false: The hidden values will change each time I start a new round."",""How much does it cost to observe each hidden value?"",""How many hidden values am I allowed to observe in each round?"",""How is your bonus determined?"",""What does the feedback teach you?""]","[""True"",""$1.00"",""As many or as few as I wish"",""10% of my best score on any round"",""All of the above.""]",24293,,,84171,,,survey-multi-choice,,54
,,,"[True, True, True, True, True]",,,,,"[""True or false: The hidden values will change each time I start a new round."",""How much does it cost to observe each hidden value?"",""How many hidden values am I allowed to observe in each round?"",""How is your bonus determined?"",""What does the feedback teach you?""]","[""True"",""$1.00"",""As many or as few as I wish"",""5% of my score on a random round"",""All of the above.""]",17168,,,190285,,,survey-multi-choice,,54
,,,"[True, True, True, True]",,,,,"[""True or false: The hidden values will change each time I start a new round."",""How much does it cost to observe each hidden value?"",""How many hidden values am I allowed to observe in each round?"",""How is your bonus determined?""]","[""True"",""$1.00"",""As many or as few as I wish"",""5% of my score on a random round""]",30052,,,150253,,,survey-multi-choice,,55
,,,"[True, False, True, False]",,,,,"[""True or false: The hidden values will change each time I start a new round."",""How much does it cost to observe each hidden value?"",""How many hidden values am I allowed to observe in each round?"",""How is your bonus determined?""]","[""True"",""$0.05"",""As many or as few as I wish"",""5% of my best score on any round""]",19523,,,67087,,,survey-multi-choice,,56
,,,"[True, True, True, False]",,,,,"[""True or false: The hidden values will change each time I start a new round."",""How much does it cost to observe each hidden value?"",""How many hidden values am I allowed to observe in each round?"",""How is your bonus determined?""]","[""True"",""$1.00"",""As many or as few as I wish"",""5% of my best score on any round""]",16192,,,120950,,,survey-multi-choice,,56
,,,"[True, True, True, False]",,,,,"[""True or false: The hidden values will change each time I start a new round."",""How much does it cost to observe each hidden value?"",""How many hidden values am I allowed to observe in each round?"",""How is your bonus determined?""]","[""True"",""$1.00"",""As many or as few as I wish"",""5% of my best score on any round""]",13383,,,162779,,,survey-multi-choice,,56
,,,"[True, True, True, True]",,,,,"[""True or false: The hidden values will change each time I start a new round."",""How much does it cost to observe each hidden value?"",""How many hidden values am I allowed to observe in each round?"",""How is your bonus determined?""]","[""True"",""$1.00"",""As many or as few as I wish"",""5% of my score on a random round""]",9362,,,207284,,,survey-multi-choice,,56
,,,"[True, False, True, True]",,,,,"[""True or false: The hidden values will change each time I start a new round."",""How much does it cost to observe each hidden value?"",""How many hidden values am I allowed to observe in each round?"",""How is your bonus determined?""]","[""True"",""$0.05"",""As many or as few as I wish"",""5% of my score on a random round""]",39604,,,196084,,,survey-multi-choice,,57
,,,"[True, True, True, True]",,,,,"[""True or false: The hidden values will change each time I start a new round."",""How much does it cost to observe each hidden value?"",""How many hidden values am I allowed to observe in each round?"",""How is your bonus determined?""]","[""True"",""$1.00"",""As many or as few as I wish"",""5% of my score on a random round""]",9521,,,249083,,,survey-multi-choice,,57
,,,"[True, False, True, True]",,,,,"[""True or false: The hidden values will change each time I start a new round."",""How much does it cost to observe each hidden value?"",""How many hidden values am I allowed to observe in each round?"",""How is your bonus determined?""]","[""True"",""$0.05"",""As many or as few as I wish"",""5% of my score on a random round""]",35832,,,203397,,,survey-multi-choice,,58
,,,"[True, True, True, True]",,,,,"[""True or false: The hidden values will change each time I start a new round."",""How much does it cost to observe each hidden value?"",""How many hidden values am I allowed to observe in each round?"",""How is your bonus determined?""]","[""True"",""$1.00"",""As many or as few as I wish"",""5% of my score on a random round""]",21990,,,307474,,,survey-multi-choice,,58
,,,"[True, True, True, True]",,,,,"[""True or false: The hidden values will change each time I start a new round."",""How much does it cost to observe each hidden value?"",""How many hidden values am I allowed to observe in each round?"",""How is your bonus determined?""]","[""True"",""$1.00"",""As many or as few as I wish"",""5% of my score on a random round""]",19313,,,126076,,,survey-multi-choice,,59
,,,"[True, True, True, True, True]",,,,,"[""True or false: The hidden values will change each time I start a new round."",""How much does it cost to observe each hidden value?"",""How many hidden values am I allowed to observe in each round?"",""How is your bonus determined?"",""What does the feedback teach you?""]","[""True"",""$1.00"",""As many or as few as I wish"",""5% of my score on a random round"",""All of the above.""]",36965,,,183992,,,survey-multi-choice,,60
,,,"[True, False, True, True, True]",,,,,"[""True or false: The hidden values will change each time I start a new round."",""How much does it cost to observe each hidden value?"",""How many hidden values am I allowed to observe in each round?"",""How is your bonus determined?"",""What does the feedback teach you?""]","[""True"",""$0.01"",""As many or as few as I wish"",""5% of my score on a random round"",""All of the above.""]",19512,,,91275,,,survey-multi-choice,,61
,,,"[True, True, True, True, True]",,,,,"[""True or false: The hidden values will change each time I start a new round."",""How much does it cost to observe each hidden value?"",""How many hidden values am I allowed to observe in each round?"",""How is your bonus determined?"",""What does the feedback teach you?""]","[""True"",""$1.00"",""As many or as few as I wish"",""5% of my score on a random round"",""All of the above.""]",7631,,,135342,,,survey-multi-choice,,61
,,,"[True, True, True, True, False]",,,,,"[""True or false: The hidden values will change each time I start a new round."",""How much does it cost to observe each hidden value?"",""How many hidden values am I allowed to observe in each round?"",""How is your bonus determined?"",""What does the feedback teach you?""]","[""True"",""$1.00"",""As many or as few as I wish"",""5% of my score on a random round"",""Whether I chose the move that was best according to the information I had.""]",42987,,,181345,,,survey-multi-choice,,62
,,,"[True, True, True, True, False]",,,,,"[""True or false: The hidden values will change each time I start a new round."",""How much does it cost to observe each hidden value?"",""How many hidden values am I allowed to observe in each round?"",""How is your bonus determined?"",""What does the feedback teach you?""]","[""True"",""$1.00"",""As many or as few as I wish"",""5% of my score on a random round"",""The length of the delay is based on how much more money I could have earned by planning and deciding better.""]",20119,,,257772,,,survey-multi-choice,,62
,,,"[True, True, True, True, True]",,,,,"[""True or false: The hidden values will change each time I start a new round."",""How much does it cost to observe each hidden value?"",""How many hidden values am I allowed to observe in each round?"",""How is your bonus determined?"",""What does the feedback teach you?""]","[""True"",""$1.00"",""As many or as few as I wish"",""5% of my score on a random round"",""All of the above.""]",17421,,,283583,,,survey-multi-choice,,62
,,,"[True, True, True, True, True]",,,,,"[""True or false: The hidden values will change each time I start a new round."",""How much does it cost to observe each hidden value?"",""How many hidden values am I allowed to observe in each round?"",""How is your bonus determined?"",""What does the feedback teach you?""]","[""True"",""$1.00"",""As many or as few as I wish"",""5% of my score on a random round"",""All of the above.""]",62325,,,296934,,,survey-multi-choice,,63
,,,"[True, True, True, True]",,,,,"[""True or false: The hidden values will change each time I start a new round."",""How much does it cost to observe each hidden value?"",""How many hidden values am I allowed to observe in each round?"",""How is your bonus determined?""]","[""True"",""$1.00"",""As many or as few as I wish"",""5% of my score on a random round""]",59658,,,256361,,,survey-multi-choice,,64
,,,"[True, True, True, False, True]",,,,,"[""True or false: The hidden values will change each time I start a new round."",""How much does it cost to observe each hidden value?"",""How many hidden values am I allowed to observe in each round?"",""How is your bonus determined?"",""What does the feedback teach you?""]","[""True"",""$1.00"",""As many or as few as I wish"",""5% of my best score on any round"",""All of the above.""]",53669,,,173727,,,survey-multi-choice,,65
,,,"[True, True, True, False, False]",,,,,"[""True or false: The hidden values will change each time I start a new round."",""How much does it cost to observe each hidden value?"",""How many hidden values am I allowed to observe in each round?"",""How is your bonus determined?"",""What does the feedback teach you?""]","[""True"",""$1.00"",""As many or as few as I wish"",""5% of my best score on any round"",""Whether I chose the move that was best according to the information I had.""]",19624,,,249119,,,survey-multi-choice,,65
,,,"[True, True, True, True, False]",,,,,"[""True or false: The hidden values will change each time I start a new round."",""How much does it cost to observe each hidden value?"",""How many hidden values am I allowed to observe in each round?"",""How is your bonus determined?"",""What does the feedback teach you?""]","[""True"",""$1.00"",""As many or as few as I wish"",""5% of my score on a random round"",""The length of the delay is based on how much more money I could have earned by planning and deciding better.""]",20826,,,350486,,,survey-multi-choice,,65
,,,"[True, True, True, True, True]",,,,,"[""True or false: The hidden values will change each time I start a new round."",""How much does it cost to observe each hidden value?"",""How many hidden values am I allowed to observe in each round?"",""How is your bonus determined?"",""What does the feedback teach you?""]","[""True"",""$1.00"",""As many or as few as I wish"",""5% of my score on a random round"",""All of the above.""]",11463,,,389374,,,survey-multi-choice,,65
,,,"[True, True, True, True, True]",,,,,"[""True or false: The hidden values will change each time I start a new round."",""How much does it cost to observe each hidden value?"",""How many hidden values am I allowed to observe in each round?"",""How is your bonus determined?"",""What does the feedback teach you?""]","[""True"",""$1.00"",""As many or as few as I wish"",""5% of my score on a random round"",""All of the above.""]",30561,,,108825,,,survey-multi-choice,,66
,,,"[True, True, True, True, True]",,,,,"[""True or false: The hidden values will change each time I start a new round."",""How much does it cost to observe each hidden value?"",""How many hidden values am I allowed to observe in each round?"",""How is your bonus determined?"",""What does the feedback teach you?""]","[""True"",""$1.00"",""As many or as few as I wish"",""5% of my score on a random round"",""All of the above.""]",44896,,,212522,,,survey-multi-choice,,67
,,,"[True, True, True, True, True]",,,,,"[""True or false: The hidden values will change each time I start a new round."",""How much does it cost to observe each hidden value?"",""How many hidden values am I allowed to observe in each round?"",""How is your bonus determined?"",""What does the feedback teach you?""]","[""True"",""$1.00"",""As many or as few as I wish"",""5% of my score on a random round"",""All of the above.""]",38478,,,136311,,,survey-multi-choice,,68
,,,"[False, True, True, True]",,,,,"[""True or false: The hidden values will change each time I start a new round."",""How much does it cost to observe each hidden value?"",""How many hidden values am I allowed to observe in each round?"",""How is your bonus determined?""]","[""False"",""$1.00"",""As many or as few as I wish"",""5% of my score on a random round""]",11418,,,291545,,,survey-multi-choice,,69
,,,"[True, True, True, True]",,,,,"[""True or false: The hidden values will change each time I start a new round."",""How much does it cost to observe each hidden value?"",""How many hidden values am I allowed to observe in each round?"",""How is your bonus determined?""]","[""True"",""$1.00"",""As many or as few as I wish"",""5% of my score on a random round""]",11812,,,343318,,,survey-multi-choice,,69
,,,"[True, True, True, True, False]",,,,,"[""True or false: The hidden values will change each time I start a new round."",""How much does it cost to observe each hidden value?"",""How many hidden values am I allowed to observe in each round?"",""How is your bonus determined?"",""What does the feedback teach you?""]","[""True"",""$1.00"",""As many or as few as I wish"",""5% of my score on a random round"",""Whether I chose the move that was best according to the information I had.""]",30300,,,213144,,,survey-multi-choice,,70
,,,"[True, True, True, True, True]",,,,,"[""True or false: The hidden values will change each time I start a new round."",""How much does it cost to observe each hidden value?"",""How many hidden values am I allowed to observe in each round?"",""How is your bonus determined?"",""What does the feedback teach you?""]","[""True"",""$1.00"",""As many or as few as I wish"",""5% of my score on a random round"",""All of the above.""]",10820,,,273928,,,survey-multi-choice,,70
,,,"[True, True, True, True]",,,,,"[""True or false: The hidden values will change each time I start a new round."",""How much does it cost to observe each hidden value?"",""How many hidden values am I allowed to observe in each round?"",""How is your bonus determined?""]","[""True"",""$1.00"",""As many or as few as I wish"",""5% of my score on a random round""]",16677,,,110596,,,survey-multi-choice,,71
,,,"[True, True, True, True]",,,,,"[""True or false: The hidden values will change each time I start a new round."",""How much does it cost to observe each hidden value?"",""How many hidden values am I allowed to observe in each round?"",""How is your bonus determined?""]","[""True"",""$1.00"",""As many or as few as I wish"",""5% of my score on a random round""]",19772,,,134086,,,survey-multi-choice,,72
,,,"[True, True, True, True]",,,,,"[""True or false: The hidden values will change each time I start a new round."",""How much does it cost to observe each hidden value?"",""How many hidden values am I allowed to observe in each round?"",""How is your bonus determined?""]","[""True"",""$1.00"",""As many or as few as I wish"",""5% of my score on a random round""]",18088,,,192083,,,survey-multi-choice,,73
,,,"[True, True, True, True, True]",,,,,"[""True or false: The hidden values will change each time I start a new round."",""How much does it cost to observe each hidden value?"",""How many hidden values am I allowed to observe in each round?"",""How is your bonus determined?"",""What does the feedback teach you?""]","[""True"",""$1.00"",""As many or as few as I wish"",""5% of my score on a random round"",""All of the above.""]",40798,,,135753,,,survey-multi-choice,,74
,,,"[False, True, True, True]",,,,,"[""True or false: The hidden values will change each time I start a new round."",""How much does it cost to observe each hidden value?"",""How many hidden values am I allowed to observe in each round?"",""How is your bonus determined?""]","[""False"",""$1.00"",""As many or as few as I wish"",""5% of my score on a random round""]",31298,,,163936,,,survey-multi-choice,,75
,,,"[True, True, True, True]",,,,,"[""True or false: The hidden values will change each time I start a new round."",""How much does it cost to observe each hidden value?"",""How many hidden values am I allowed to observe in each round?"",""How is your bonus determined?""]","[""True"",""$1.00"",""As many or as few as I wish"",""5% of my score on a random round""]",15642,,,283041,,,survey-multi-choice,,75
,,,"[True, True, True, True]",,,,,"[""True or false: The hidden values will change each time I start a new round."",""How much does it cost to observe each hidden value?"",""How many hidden values am I allowed to observe in each round?"",""How is your bonus determined?""]","[""True"",""$1.00"",""As many or as few as I wish"",""5% of my score on a random round""]",11708,,,55884,,,survey-multi-choice,,76
,,,"[True, True, True, True, True]",,,,,"[""True or false: The hidden values will change each time I start a new round."",""How much does it cost to observe each hidden value?"",""How many hidden values am I allowed to observe in each round?"",""How is your bonus determined?"",""What does the feedback teach you?""]","[""True"",""$1.00"",""As many or as few as I wish"",""5% of my score on a random round"",""All of the above.""]",32367,,,120855,,,survey-multi-choice,,77
,,,"[True, True, False, True]",,,,,"[""True or false: The hidden values will change each time I start a new round."",""How much does it cost to observe each hidden value?"",""How many hidden values am I allowed to observe in each round?"",""How is your bonus determined?""]","[""True"",""$1.00"",""At most 5"",""5% of my score on a random round""]",34937,,,204950,,,survey-multi-choice,,78
,,,"[True, True, True, True]",,,,,"[""True or false: The hidden values will change each time I start a new round."",""How much does it cost to observe each hidden value?"",""How many hidden values am I allowed to observe in each round?"",""How is your bonus determined?""]","[""True"",""$1.00"",""As many or as few as I wish"",""5% of my score on a random round""]",7587,,,268421,,,survey-multi-choice,,78
,,,"[True, False, True, True]",,,,,"[""True or false: The hidden values will change each time I start a new round."",""How much does it cost to observe each hidden value?"",""How many hidden values am I allowed to observe in each round?"",""How is your bonus determined?""]","[""True"",""$0.05"",""As many or as few as I wish"",""5% of my score on a random round""]",23189,,,178384,,,survey-multi-choice,,79
,,,"[True, True, True, True]",,,,,"[""True or false: The hidden values will change each time I start a new round."",""How much does it cost to observe each hidden value?"",""How many hidden values am I allowed to observe in each round?"",""How is your bonus determined?""]","[""True"",""$1.00"",""As many or as few as I wish"",""5% of my score on a random round""]",14568,,,218868,,,survey-multi-choice,,79
,,,"[True, True, True, True]",,,,,"[""True or false: The hidden values will change each time I start a new round."",""How much does it cost to observe each hidden value?"",""How many hidden values am I allowed to observe in each round?"",""How is your bonus determined?""]","[""True"",""$1.00"",""As many or as few as I wish"",""5% of my score on a random round""]",13173,,,146012,,,survey-multi-choice,,80
,,,"[True, False, False, False]",,,,,"[""True or false: The hidden values will change each time I start a new round."",""How much does it cost to observe each hidden value?"",""How many hidden values am I allowed to observe in each round?"",""How is your bonus determined?""]","[""True"",""$0.05"",""At most 1"",""5% of my best score on any round""]",28442,,,80837,,,survey-multi-choice,,81
,,,"[True, True, True, False]",,,,,"[""True or false: The hidden values will change each time I start a new round."",""How much does it cost to observe each hidden value?"",""How many hidden values am I allowed to observe in each round?"",""How is your bonus determined?""]","[""True"",""$1.00"",""As many or as few as I wish"",""5% of my best score on any round""]",11480,,,142098,,,survey-multi-choice,,81
,,,"[True, True, True, True]",,,,,"[""True or false: The hidden values will change each time I start a new round."",""How much does it cost to observe each hidden value?"",""How many hidden values am I allowed to observe in each round?"",""How is your bonus determined?""]","[""True"",""$1.00"",""As many or as few as I wish"",""5% of my score on a random round""]",6869,,,168933,,,survey-multi-choice,,81
,,,"[True, True, True, False]",,,,,"[""True or false: The hidden values will change each time I start a new round."",""How much does it cost to observe each hidden value?"",""How many hidden values am I allowed to observe in each round?"",""How is your bonus determined?""]","[""True"",""$1.00"",""As many or as few as I wish"",""5% of my best score on any round""]",26069,,,129093,,,survey-multi-choice,,82
,,,"[True, True, True, True]",,,,,"[""True or false: The hidden values will change each time I start a new round."",""How much does it cost to observe each hidden value?"",""How many hidden values am I allowed to observe in each round?"",""How is your bonus determined?""]","[""True"",""$1.00"",""As many or as few as I wish"",""5% of my score on a random round""]",12058,,,172972,,,survey-multi-choice,,82
,,,"[True, True, True, False]",,,,,"[""True or false: The hidden values will change each time I start a new round."",""How much does it cost to observe each hidden value?"",""How many hidden values am I allowed to observe in each round?"",""How is your bonus determined?""]","[""True"",""$1.00"",""As many or as few as I wish"",""10% of my total score on all rounds""]",24583,,,125439,,,survey-multi-choice,,83
,,,"[True, True, True, True]",,,,,"[""True or false: The hidden values will change each time I start a new round."",""How much does it cost to observe each hidden value?"",""How many hidden values am I allowed to observe in each round?"",""How is your bonus determined?""]","[""True"",""$1.00"",""As many or as few as I wish"",""5% of my score on a random round""]",14873,,,187034,,,survey-multi-choice,,83
,,,"[True, True, True, True]",,,,,"[""True or false: The hidden values will change each time I start a new round."",""How much does it cost to observe each hidden value?"",""How many hidden values am I allowed to observe in each round?"",""How is your bonus determined?""]","[""True"",""$1.00"",""As many or as few as I wish"",""5% of my score on a random round""]",22037,,,242776,,,survey-multi-choice,,84
,,,"[True, True, True, False, True]",,,,,"[""True or false: The hidden values will change each time I start a new round."",""How much does it cost to observe each hidden value?"",""How many hidden values am I allowed to observe in each round?"",""How is your bonus determined?"",""What does the feedback teach you?""]","[""True"",""$1.00"",""As many or as few as I wish"",""5% of my best score on any round"",""All of the above.""]",24609,,,109866,,,survey-multi-choice,,85
,,,"[True, True, True, True, True]",,,,,"[""True or false: The hidden values will change each time I start a new round."",""How much does it cost to observe each hidden value?"",""How many hidden values am I allowed to observe in each round?"",""How is your bonus determined?"",""What does the feedback teach you?""]","[""True"",""$1.00"",""As many or as few as I wish"",""5% of my score on a random round"",""All of the above.""]",7251,,,160962,,,survey-multi-choice,,85
,,,"[True, True, True, True]",,,,,"[""True or false: The hidden values will change each time I start a new round."",""How much does it cost to observe each hidden value?"",""How many hidden values am I allowed to observe in each round?"",""How is your bonus determined?""]","[""True"",""$1.00"",""As many or as few as I wish"",""5% of my score on a random round""]",18691,,,178982,,,survey-multi-choice,,86
,,,"[True, True, True, False]",,,,,"[""True or false: The hidden values will change each time I start a new round."",""How much does it cost to observe each hidden value?"",""How many hidden values am I allowed to observe in each round?"",""How is your bonus determined?""]","[""True"",""$1.00"",""As many or as few as I wish"",""5% of my best score on any round""]",43885,,,409014,,,survey-multi-choice,,87
,,,"[True, True, True, True]",,,,,"[""True or false: The hidden values will change each time I start a new round."",""How much does it cost to observe each hidden value?"",""How many hidden values am I allowed to observe in each round?"",""How is your bonus determined?""]","[""True"",""$1.00"",""As many or as few as I wish"",""5% of my score on a random round""]",16548,,,528938,,,survey-multi-choice,,87
,,,"[True, True, True, True]",,,,,"[""True or false: The hidden values will change each time I start a new round."",""How much does it cost to observe each hidden value?"",""How many hidden values am I allowed to observe in each round?"",""How is your bonus determined?""]","[""True"",""$1.00"",""As many or as few as I wish"",""5% of my score on a random round""]",65296,,,146855,,,survey-multi-choice,,88
,,,"[True, True, False, True]",,,,,"[""True or false: The hidden values will change each time I start a new round."",""How much does it cost to observe each hidden value?"",""How many hidden values am I allowed to observe in each round?"",""How is your bonus determined?""]","[""True"",""$1.00"",""At most 1"",""5% of my score on a random round""]",13012,,,63709,,,survey-multi-choice,,89
,,,"[True, True, True, True]",,,,,"[""True or false: The hidden values will change each time I start a new round."",""How much does it cost to observe each hidden value?"",""How many hidden values am I allowed to observe in each round?"",""How is your bonus determined?""]","[""True"",""$1.00"",""As many or as few as I wish"",""5% of my score on a random round""]",10712,,,112520,,,survey-multi-choice,,89
,,,"[True, True, True, True]",,,,,"[""True or false: The hidden values will change each time I start a new round."",""How much does it cost to observe each hidden value?"",""How many hidden values am I allowed to observe in each round?"",""How is your bonus determined?""]","[""True"",""$1.00"",""As many or as few as I wish"",""5% of my score on a random round""]",20837,,,233215,,,survey-multi-choice,,90
,,,"[True, True, True, True]",,,,,"[""True or false: The hidden values will change each time I start a new round."",""How much does it cost to observe each hidden value?"",""How many hidden values am I allowed to observe in each round?"",""How is your bonus determined?""]","[""True"",""$1.00"",""As many or as few as I wish"",""5% of my score on a random round""]",18114,,,164831,,,survey-multi-choice,,91
,,,"[True, True, True, True]",,,,,"[""True or false: The hidden values will change each time I start a new round."",""How much does it cost to observe each hidden value?"",""How many hidden values am I allowed to observe in each round?"",""How is your bonus determined?""]","[""True"",""$1.00"",""As many or as few as I wish"",""5% of my score on a random round""]",13993,,,116483,,,survey-multi-choice,,92
,,,"[True, True, True, True]",,,,,"[""True or false: The hidden values will change each time I start a new round."",""How much does it cost to observe each hidden value?"",""How many hidden values am I allowed to observe in each round?"",""How is your bonus determined?""]","[""True"",""$1.00"",""As many or as few as I wish"",""5% of my score on a random round""]",18262,,,106719,,,survey-multi-choice,,93
,,,"[True, True, True, False]",,,,,"[""True or false: The hidden values will change each time I start a new round."",""How much does it cost to observe each hidden value?"",""How many hidden values am I allowed to observe in each round?"",""How is your bonus determined?""]","[""True"",""$1.00"",""As many or as few as I wish"",""5% of my best score on any round""]",15240,,,48446,,,survey-multi-choice,,94
,,,"[False, True, True, True]",,,,,"[""True or false: The hidden values will change each time I start a new round."",""How much does it cost to observe each hidden value?"",""How many hidden values am I allowed to observe in each round?"",""How is your bonus determined?""]","[""False"",""$1.00"",""As many or as few as I wish"",""5% of my score on a random round""]",21142,,,90604,,,survey-multi-choice,,94
,,,"[True, True, True, True]",,,,,"[""True or false: The hidden values will change each time I start a new round."",""How much does it cost to observe each hidden value?"",""How many hidden values am I allowed to observe in each round?"",""How is your bonus determined?""]","[""True"",""$1.00"",""As many or as few as I wish"",""5% of my score on a random round""]",11471,,,132682,,,survey-multi-choice,,94
,,,"[True, True, True, True]",,,,,"[""True or false: The hidden values will change each time I start a new round."",""How much does it cost to observe each hidden value?"",""How many hidden values am I allowed to observe in each round?"",""How is your bonus determined?""]","[""True"",""$1.00"",""As many or as few as I wish"",""5% of my score on a random round""]",13211,,,104112,,,survey-multi-choice,,95
,,,"[True, True, True, False, False]",,,,,"[""True or false: The hidden values will change each time I start a new round."",""How much does it cost to observe each hidden value?"",""How many hidden values am I allowed to observe in each round?"",""How is your bonus determined?"",""What does the feedback teach you?""]","[""True"",""$1.00"",""As many or as few as I wish"",""5% of my best score on any round"",""Whether I chose the move that was best according to the information I had.""]",44097,,,167707,,,survey-multi-choice,,96
,,,"[True, True, True, False, False]",,,,,"[""True or false: The hidden values will change each time I start a new round."",""How much does it cost to observe each hidden value?"",""How many hidden values am I allowed to observe in each round?"",""How is your bonus determined?"",""What does the feedback teach you?""]","[""True"",""$1.00"",""As many or as few as I wish"",""5% of my best score on any round"",""The length of the delay is based on how much more money I could have earned by planning and deciding better.""]",136655,,,384949,,,survey-multi-choice,,96
,,,"[True, True, True, False, True]",,,,,"[""True or false: The hidden values will change each time I start a new round."",""How much does it cost to observe each hidden value?"",""How many hidden values am I allowed to observe in each round?"",""How is your bonus determined?"",""What does the feedback teach you?""]","[""True"",""$1.00"",""As many or as few as I wish"",""5% of my best score on any round"",""All of the above.""]",6963,,,409728,,,survey-multi-choice,,96
,,,"[True, True, True, False, False]",,,,,"[""True or false: The hidden values will change each time I start a new round."",""How much does it cost to observe each hidden value?"",""How many hidden values am I allowed to observe in each round?"",""How is your bonus determined?"",""What does the feedback teach you?""]","[""True"",""$1.00"",""As many or as few as I wish"",""5% of my best score on any round"",""Whether I chose the move that was best according to the information I had.""]",12396,,,463951,,,survey-multi-choice,,96
,,,"[True, True, True, False, False]",,,,,"[""True or false: The hidden values will change each time I start a new round."",""How much does it cost to observe each hidden value?"",""How many hidden values am I allowed to observe in each round?"",""How is your bonus determined?"",""What does the feedback teach you?""]","[""True"",""$1.00"",""As many or as few as I wish"",""5% of my best score on any round"",""Whether I observed the rewards of relevant locations.""]",17962,,,498098,,,survey-multi-choice,,96
,,,"[True, True, False, False, True]",,,,,"[""True or false: The hidden values will change each time I start a new round."",""How much does it cost to observe each hidden value?"",""How many hidden values am I allowed to observe in each round?"",""How is your bonus determined?"",""What does the feedback teach you?""]","[""True"",""$1.00"",""At most 1"",""5% of my best score on any round"",""All of the above.""]",11295,,,582697,,,survey-multi-choice,,96
,,,"[True, True, True, True, True]",,,,,"[""True or false: The hidden values will change each time I start a new round."",""How much does it cost to observe each hidden value?"",""How many hidden values am I allowed to observe in each round?"",""How is your bonus determined?"",""What does the feedback teach you?""]","[""True"",""$1.00"",""As many or as few as I wish"",""5% of my score on a random round"",""All of the above.""]",51519,,,659300,,,survey-multi-choice,,96
,,,"[True, True, True, True, True]",,,,,"[""True or false: The hidden values will change each time I start a new round."",""How much does it cost to observe each hidden value?"",""How many hidden values am I allowed to observe in each round?"",""How is your bonus determined?"",""What does the feedback teach you?""]","[""True"",""$1.00"",""As many or as few as I wish"",""5% of my score on a random round"",""All of the above.""]",39701,,,52722,,,survey-multi-choice,,97
,,,"[True, True, True, True]",,,,,"[""True or false: The hidden values will change each time I start a new round."",""How much does it cost to observe each hidden value?"",""How many hidden values am I allowed to observe in each round?"",""How is your bonus determined?""]","[""True"",""$1.00"",""As many or as few as I wish"",""5% of my score on a random round""]",11939,,,124373,,,survey-multi-choice,,98
,,,"[True, True, True, False]",,,,,"[""True or false: The hidden values will change each time I start a new round."",""How much does it cost to observe each hidden value?"",""How many hidden values am I allowed to observe in each round?"",""How is your bonus determined?""]","[""True"",""$1.00"",""As many or as few as I wish"",""5% of my best score on any round""]",31889,,,117891,,,survey-multi-choice,,99
,,,"[True, True, True, True]",,,,,"[""True or false: The hidden values will change each time I start a new round."",""How much does it cost to observe each hidden value?"",""How many hidden values am I allowed to observe in each round?"",""How is your bonus determined?""]","[""True"",""$1.00"",""As many or as few as I wish"",""5% of my score on a random round""]",8520,,,142014,,,survey-multi-choice,,99
,,,"[True, True, True, True, False]",,,,,"[""True or false: The hidden values will change each time I start a new round."",""How much does it cost to observe each hidden value?"",""How many hidden values am I allowed to observe in each round?"",""How is your bonus determined?"",""What does the feedback teach you?""]","[""True"",""$1.00"",""As many or as few as I wish"",""5% of my score on a random round"",""The length of the delay is based on how much more money I could have earned by planning and deciding better.""]",204986,,,425407,,,survey-multi-choice,,100
,,,"[True, True, True, True, True]",,,,,"[""True or false: The hidden values will change each time I start a new round."",""How much does it cost to observe each hidden value?"",""How many hidden values am I allowed to observe in each round?"",""How is your bonus determined?"",""What does the feedback teach you?""]","[""True"",""$1.00"",""As many or as few as I wish"",""5% of my score on a random round"",""All of the above.""]",12288,,,477107,,,survey-multi-choice,,100
,,,"[True, True, True, False]",,,,,"[""True or false: The hidden values will change each time I start a new round."",""How much does it cost to observe each hidden value?"",""How many hidden values am I allowed to observe in each round?"",""How is your bonus determined?""]","[""True"",""$1.00"",""As many or as few as I wish"",""10% of my best score on any round""]",28629,,,220394,,,survey-multi-choice,,101
,,,"[True, True, True, False]",,,,,"[""True or false: The hidden values will change each time I start a new round."",""How much does it cost to observe each hidden value?"",""How many hidden values am I allowed to observe in each round?"",""How is your bonus determined?""]","[""True"",""$1.00"",""As many or as few as I wish"",""5% of my best score on any round""]",16436,,,282682,,,survey-multi-choice,,101
,,,"[True, True, True, True]",,,,,"[""True or false: The hidden values will change each time I start a new round."",""How much does it cost to observe each hidden value?"",""How many hidden values am I allowed to observe in each round?"",""How is your bonus determined?""]","[""True"",""$1.00"",""As many or as few as I wish"",""5% of my score on a random round""]",9104,,,301151,,,survey-multi-choice,,101
,,,"[True, True, False, True]",,,,,"[""True or false: The hidden values will change each time I start a new round."",""How much does it cost to observe each hidden value?"",""How many hidden values am I allowed to observe in each round?"",""How is your bonus determined?""]","[""True"",""$1.00"",""At most 15"",""5% of my score on a random round""]",84321,,,160449,,,survey-multi-choice,,102
,,,"[True, True, False, True]",,,,,"[""True or false: The hidden values will change each time I start a new round."",""How much does it cost to observe each hidden value?"",""How many hidden values am I allowed to observe in each round?"",""How is your bonus determined?""]","[""True"",""$1.00"",""At most 1"",""5% of my score on a random round""]",8563,,,179671,,,survey-multi-choice,,102
,,,"[True, True, False, True]",,,,,"[""True or false: The hidden values will change each time I start a new round."",""How much does it cost to observe each hidden value?"",""How many hidden values am I allowed to observe in each round?"",""How is your bonus determined?""]","[""True"",""$1.00"",""At most 5"",""5% of my score on a random round""]",7425,,,196584,,,survey-multi-choice,,102
,,,"[True, True, True, True]",,,,,"[""True or false: The hidden values will change each time I start a new round."",""How much does it cost to observe each hidden value?"",""How many hidden values am I allowed to observe in each round?"",""How is your bonus determined?""]","[""True"",""$1.00"",""As many or as few as I wish"",""5% of my score on a random round""]",65999,,,267786,,,survey-multi-choice,,102
,,,"[True, True, True, True]",,,,,"[""True or false: The hidden values will change each time I start a new round."",""How much does it cost to observe each hidden value?"",""How many hidden values am I allowed to observe in each round?"",""How is your bonus determined?""]","[""True"",""$1.00"",""As many or as few as I wish"",""5% of my score on a random round""]",12642,,,122185,,,survey-multi-choice,,103
,,,"[True, True, True, True]",,,,,"[""True or false: The hidden values will change each time I start a new round."",""How much does it cost to observe each hidden value?"",""How many hidden values am I allowed to observe in each round?"",""How is your bonus determined?""]","[""True"",""$1.00"",""As many or as few as I wish"",""5% of my score on a random round""]",19386,,,112905,,,survey-multi-choice,,104
,,,"[True, True, True, True]",,,,,"[""True or false: The hidden values will change each time I start a new round."",""How much does it cost to observe each hidden value?"",""How many hidden values am I allowed to observe in each round?"",""How is your bonus determined?""]","[""True"",""$1.00"",""As many or as few as I wish"",""5% of my score on a random round""]",19337,,,138934,,,survey-multi-choice,,105
,,,"[True, False, True, True, True]",,,,,"[""True or false: The hidden values will change each time I start a new round."",""How much does it cost to observe each hidden value?"",""How many hidden values am I allowed to observe in each round?"",""How is your bonus determined?"",""What does the feedback teach you?""]","[""True"",""$0.01"",""As many or as few as I wish"",""5% of my score on a random round"",""All of the above.""]",155781,,,215162,,,survey-multi-choice,,106
,,,"[True, True, True, True, True]",,,,,"[""True or false: The hidden values will change each time I start a new round."",""How much does it cost to observe each hidden value?"",""How many hidden values am I allowed to observe in each round?"",""How is your bonus determined?"",""What does the feedback teach you?""]","[""True"",""$1.00"",""As many or as few as I wish"",""5% of my score on a random round"",""All of the above.""]",55526,,,330780,,,survey-multi-choice,,106
,,,"[True, True, True, True]",,,,,"[""True or false: The hidden values will change each time I start a new round."",""How much does it cost to observe each hidden value?"",""How many hidden values am I allowed to observe in each round?"",""How is your bonus determined?""]","[""True"",""$1.00"",""As many or as few as I wish"",""5% of my score on a random round""]",26776,,,501761,,,survey-multi-choice,,107
,,,"[True, True, True, True]",,,,,"[""True or false: The hidden values will change each time I start a new round."",""How much does it cost to observe each hidden value?"",""How many hidden values am I allowed to observe in each round?"",""How is your bonus determined?""]","[""True"",""$1.00"",""As many or as few as I wish"",""5% of my score on a random round""]",19662,,,165376,,,survey-multi-choice,,108
,,,"[True, True, True, False, True]",,,,,"[""True or false: The hidden values will change each time I start a new round."",""How much does it cost to observe each hidden value?"",""How many hidden values am I allowed to observe in each round?"",""How is your bonus determined?"",""What does the feedback teach you?""]","[""True"",""$1.00"",""As many or as few as I wish"",""5% of my best score on any round"",""All of the above.""]",25910,,,104551,,,survey-multi-choice,,109
,,,"[True, True, True, True, True]",,,,,"[""True or false: The hidden values will change each time I start a new round."",""How much does it cost to observe each hidden value?"",""How many hidden values am I allowed to observe in each round?"",""How is your bonus determined?"",""What does the feedback teach you?""]","[""True"",""$1.00"",""As many or as few as I wish"",""5% of my score on a random round"",""All of the above.""]",16958,,,150823,,,survey-multi-choice,,109
,,,"[True, True, True, False]",,,,,"[""True or false: The hidden values will change each time I start a new round."",""How much does it cost to observe each hidden value?"",""How many hidden values am I allowed to observe in each round?"",""How is your bonus determined?""]","[""True"",""$1.00"",""As many or as few as I wish"",""10% of my best score on any round""]",9549,,,70584,,,survey-multi-choice,,110
,,,"[True, True, True, True]",,,,,"[""True or false: The hidden values will change each time I start a new round."",""How much does it cost to observe each hidden value?"",""How many hidden values am I allowed to observe in each round?"",""How is your bonus determined?""]","[""True"",""$1.00"",""As many or as few as I wish"",""5% of my score on a random round""]",11100,,,110372,,,survey-multi-choice,,110
,,,"[True, True, True, True]",,,,,"[""True or false: The hidden values will change each time I start a new round."",""How much does it cost to observe each hidden value?"",""How many hidden values am I allowed to observe in each round?"",""How is your bonus determined?""]","[""True"",""$1.00"",""As many or as few as I wish"",""5% of my score on a random round""]",14209,,,64423,,,survey-multi-choice,,111
,,,"[True, False, True, True]",,,,,"[""True or false: The hidden values will change each time I start a new round."",""How much does it cost to observe each hidden value?"",""How many hidden values am I allowed to observe in each round?"",""How is your bonus determined?""]","[""True"",""$0.01"",""As many or as few as I wish"",""5% of my score on a random round""]",17910,,,79807,,,survey-multi-choice,,112
,,,"[True, True, True, True]",,,,,"[""True or false: The hidden values will change each time I start a new round."",""How much does it cost to observe each hidden value?"",""How many hidden values am I allowed to observe in each round?"",""How is your bonus determined?""]","[""True"",""$1.00"",""As many or as few as I wish"",""5% of my score on a random round""]",12363,,,111153,,,survey-multi-choice,,112
,,,"[True, True, True, True]",,,,,"[""True or false: The hidden values will change each time I start a new round."",""How much does it cost to observe each hidden value?"",""How many hidden values am I allowed to observe in each round?"",""How is your bonus determined?""]","[""True"",""$1.00"",""As many or as few as I wish"",""5% of my score on a random round""]",14346,,,101380,,,survey-multi-choice,,113
,,,"[True, True, True, True, True]",,,,,"[""True or false: The hidden values will change each time I start a new round."",""How much does it cost to observe each hidden value?"",""How many hidden values am I allowed to observe in each round?"",""How is your bonus determined?"",""What does the feedback teach you?""]","[""True"",""$1.00"",""As many or as few as I wish"",""5% of my score on a random round"",""All of the above.""]",20322,,,823521,,,survey-multi-choice,,114
,,,"[True, True, False, True]",,,,,"[""True or false: The hidden values will change each time I start a new round."",""How much does it cost to observe each hidden value?"",""How many hidden values am I allowed to observe in each round?"",""How is your bonus determined?""]","[""True"",""$1.00"",""At most 1"",""5% of my score on a random round""]",20208,,,127560,,,survey-multi-choice,,115
,,,"[True, True, True, True]",,,,,"[""True or false: The hidden values will change each time I start a new round."",""How much does it cost to observe each hidden value?"",""How many hidden values am I allowed to observe in each round?"",""How is your bonus determined?""]","[""True"",""$1.00"",""As many or as few as I wish"",""5% of my score on a random round""]",14643,,,231978,,,survey-multi-choice,,115
,,,"[True, True, True, True, True]",,,,,"[""True or false: The hidden values will change each time I start a new round."",""How much does it cost to observe each hidden value?"",""How many hidden values am I allowed to observe in each round?"",""How is your bonus determined?"",""What does the feedback teach you?""]","[""True"",""$1.00"",""As many or as few as I wish"",""5% of my score on a random round"",""All of the above.""]",26795,,,168178,,,survey-multi-choice,,116
,,,"[True, True, True, False, False]",,,,,"[""True or false: The hidden values will change each time I start a new round."",""How much does it cost to observe each hidden value?"",""How many hidden values am I allowed to observe in each round?"",""How is your bonus determined?"",""What does the feedback teach you?""]","[""True"",""$1.00"",""As many or as few as I wish"",""5% of my best score on any round"",""The length of the delay is based on how much more money I could have earned by planning and deciding better.""]",34356,,,197808,,,survey-multi-choice,,117
,,,"[True, True, True, True, False]",,,,,"[""True or false: The hidden values will change each time I start a new round."",""How much does it cost to observe each hidden value?"",""How many hidden values am I allowed to observe in each round?"",""How is your bonus determined?"",""What does the feedback teach you?""]","[""True"",""$1.00"",""As many or as few as I wish"",""5% of my score on a random round"",""The length of the delay is based on how much more money I could have earned by planning and deciding better.""]",18635,,,269335,,,survey-multi-choice,,117
,,,"[True, True, True, True, True]",,,,,"[""True or false: The hidden values will change each time I start a new round."",""How much does it cost to observe each hidden value?"",""How many hidden values am I allowed to observe in each round?"",""How is your bonus determined?"",""What does the feedback teach you?""]","[""True"",""$1.00"",""As many or as few as I wish"",""5% of my score on a random round"",""All of the above.""]",9376,,,286339,,,survey-multi-choice,,117
,,,"[True, True, True, True]",,,,,"[""True or false: The hidden values will change each time I start a new round."",""How much does it cost to observe each hidden value?"",""How many hidden values am I allowed to observe in each round?"",""How is your bonus determined?""]","[""True"",""$1.00"",""As many or as few as I wish"",""5% of my score on a random round""]",31103,,,134460,,,survey-multi-choice,,118
,,,"[True, True, True, False]",,,,,"[""True or false: The hidden values will change each time I start a new round."",""How much does it cost to observe each hidden value?"",""How many hidden values am I allowed to observe in each round?"",""How is your bonus determined?""]","[""True"",""$1.00"",""As many or as few as I wish"",""5% of my best score on any round""]",46730,,,521001,,,survey-multi-choice,,119
,,,"[True, True, True, True]",,,,,"[""True or false: The hidden values will change each time I start a new round."",""How much does it cost to observe each hidden value?"",""How many hidden values am I allowed to observe in each round?"",""How is your bonus determined?""]","[""True"",""$1.00"",""As many or as few as I wish"",""5% of my score on a random round""]",15388,,,547462,,,survey-multi-choice,,119
,,,"[True, True, True, False, True]",,,,,"[""True or false: The hidden values will change each time I start a new round."",""How much does it cost to observe each hidden value?"",""How many hidden values am I allowed to observe in each round?"",""How is your bonus determined?"",""What does the feedback teach you?""]","[""True"",""$1.00"",""As many or as few as I wish"",""5% of my best score on any round"",""All of the above.""]",28041,,,109936,,,survey-multi-choice,,120
,,,"[True, True, True, True, False]",,,,,"[""True or false: The hidden values will change each time I start a new round."",""How much does it cost to observe each hidden value?"",""How many hidden values am I allowed to observe in each round?"",""How is your bonus determined?"",""What does the feedback teach you?""]","[""True"",""$1.00"",""As many or as few as I wish"",""5% of my score on a random round"",""Whether I chose the move that was best according to the information I had.""]",141096,,,348259,,,survey-multi-choice,,120
,,,"[True, True, True, True, True]",,,,,"[""True or false: The hidden values will change each time I start a new round."",""How much does it cost to observe each hidden value?"",""How many hidden values am I allowed to observe in each round?"",""How is your bonus determined?"",""What does the feedback teach you?""]","[""True"",""$1.00"",""As many or as few as I wish"",""5% of my score on a random round"",""All of the above.""]",29475,,,385056,,,survey-multi-choice,,120
,,,"[True, True, True, True]",,,,,"[""True or false: The hidden values will change each time I start a new round."",""How much does it cost to observe each hidden value?"",""How many hidden values am I allowed to observe in each round?"",""How is your bonus determined?""]","[""True"",""$1.00"",""As many or as few as I wish"",""5% of my score on a random round""]",14882,,,108915,,,survey-multi-choice,,121
,,,"[True, True, True, True, True]",,,,,"[""True or false: The hidden values will change each time I start a new round."",""How much does it cost to observe each hidden value?"",""How many hidden values am I allowed to observe in each round?"",""How is your bonus determined?"",""What does the feedback teach you?""]","[""True"",""$1.00"",""As many or as few as I wish"",""5% of my score on a random round"",""All of the above.""]",27410,,,121039,,,survey-multi-choice,,122
,,,"[True, True, True, True]",,,,,"[""True or false: The hidden values will change each time I start a new round."",""How much does it cost to observe each hidden value?"",""How many hidden values am I allowed to observe in each round?"",""How is your bonus determined?""]","[""True"",""$1.00"",""As many or as few as I wish"",""5% of my score on a random round""]",16124,,,242883,,,survey-multi-choice,,123
,,,"[True, True, True, True]",,,,,"[""True or false: The hidden values will change each time I start a new round."",""How much does it cost to observe each hidden value?"",""How many hidden values am I allowed to observe in each round?"",""How is your bonus determined?""]","[""True"",""$1.00"",""As many or as few as I wish"",""5% of my score on a random round""]",24106,,,171881,,,survey-multi-choice,,124
,,,"[True, True, True, True]",,,,,"[""True or false: The hidden values will change each time I start a new round."",""How much does it cost to observe each hidden value?"",""How many hidden values am I allowed to observe in each round?"",""How is your bonus determined?""]","[""True"",""$1.00"",""As many or as few as I wish"",""5% of my score on a random round""]",11880,,,122486,,,survey-multi-choice,,125
,,,"[True, True, True, True]",,,,,"[""True or false: The hidden values will change each time I start a new round."",""How much does it cost to observe each hidden value?"",""How many hidden values am I allowed to observe in each round?"",""How is your bonus determined?""]","[""True"",""$1.00"",""As many or as few as I wish"",""5% of my score on a random round""]",17538,,,129536,,,survey-multi-choice,,126
,,,"[True, True, True, False]",,,,,"[""True or false: The hidden values will change each time I start a new round."",""How much does it cost to observe each hidden value?"",""How many hidden values am I allowed to observe in each round?"",""How is your bonus determined?""]","[""True"",""$1.00"",""As many or as few as I wish"",""10% of my best score on any round""]",40576,,,273598,,,survey-multi-choice,,127
,,,"[True, True, True, True]",,,,,"[""True or false: The hidden values will change each time I start a new round."",""How much does it cost to observe each hidden value?"",""How many hidden values am I allowed to observe in each round?"",""How is your bonus determined?""]","[""True"",""$1.00"",""As many or as few as I wish"",""5% of my score on a random round""]",9218,,,313333,,,survey-multi-choice,,127
,,,"[True, True, True, True]",,,,,"[""True or false: The hidden values will change each time I start a new round."",""How much does it cost to observe each hidden value?"",""How many hidden values am I allowed to observe in each round?"",""How is your bonus determined?""]","[""True"",""$1.00"",""As many or as few as I wish"",""5% of my score on a random round""]",16978,,,225354,,,survey-multi-choice,,128
,,,"[True, True, True, False]",,,,,"[""True or false: The hidden values will change each time I start a new round."",""How much does it cost to observe each hidden value?"",""How many hidden values am I allowed to observe in each round?"",""How is your bonus determined?""]","[""True"",""$1.00"",""As many or as few as I wish"",""10% of my best score on any round""]",13459,,,105984,,,survey-multi-choice,,129
,,,"[True, True, True, True]",,,,,"[""True or false: The hidden values will change each time I start a new round."",""How much does it cost to observe each hidden value?"",""How many hidden values am I allowed to observe in each round?"",""How is your bonus determined?""]","[""True"",""$1.00"",""As many or as few as I wish"",""5% of my score on a random round""]",16170,,,160944,,,survey-multi-choice,,129
,,,"[True, True, True, True]",,,,,"[""True or false: The hidden values will change each time I start a new round."",""How much does it cost to observe each hidden value?"",""How many hidden values am I allowed to observe in each round?"",""How is your bonus determined?""]","[""True"",""$1.00"",""As many or as few as I wish"",""5% of my score on a random round""]",11552,,,85591,,,survey-multi-choice,,130
,,,"[True, True, True, True]",,,,,"[""True or false: The hidden values will change each time I start a new round."",""How much does it cost to observe each hidden value?"",""How many hidden values am I allowed to observe in each round?"",""How is your bonus determined?""]","[""True"",""$1.00"",""As many or as few as I wish"",""5% of my score on a random round""]",17856,,,86545,,,survey-multi-choice,,131
,,,"[True, True, True, True]",,,,,"[""True or false: The hidden values will change each time I start a new round."",""How much does it cost to observe each hidden value?"",""How many hidden values am I allowed to observe in each round?"",""How is your bonus determined?""]","[""True"",""$1.00"",""As many or as few as I wish"",""5% of my score on a random round""]",14385,,,117925,,,survey-multi-choice,,132
