action_times,actions,block,path,queries,rewards,rt,score,simulation_mode,state_rewards,time_elapsed,trial_index,trial_time,trial_id,trial_type,pid
"[11407, 13565, 16237]","[u'up', u'up', u'right']",pre_test,"[u'0', u'1', u'2', u'3']","{u'mouseover': {u'state': {u'target': [], u'time': []}, u'edge': {u'target': [], u'time': []}}, u'click': {u'state': {u'target': [], u'time': []}, u'edge': {u'target': [], u'time': []}}, u'mouseout': {u'state': {u'target': [], u'time': []}, u'edge': {u'target': [], u'time': []}}}","[-4, 4, 24]","[11399, 1638, 2141]",24.0,"[None, None, None]","[u'', -4, 4, 24, 24, -2, -4, 48, -24, -4, 8, -48, 48]",105163,0.0,27011.0,-4.8746661358e+18,mouselab-mdp,0
"[14286, 63761, 65379]","[u'left', u'left', u'up']",training,"[u'0', u'9', u'10', u'11']","{u'mouseover': {u'state': {u'target': [], u'time': []}, u'edge': {u'target': [], u'time': []}}, u'click': {u'state': {u'target': [], u'time': []}, u'edge': {u'target': [], u'time': []}}, u'mouseout': {u'state': {u'target': [], u'time': []}, u'edge': {u'target': [], u'time': []}}}","[-4, 4, 48]","[14277, 6954, 1091]",48.0,"[None, None, None]","[u'', -2, -4, 48, 24, 2, 4, -48, 48, -4, 4, 48, 24]",200161,1.0,79154.0,7.94655219151e+18,mouselab-mdp,0
"[9878, 54493, 55901]","[u'left', u'left', u'down']",training,"[u'0', u'9', u'10', u'12']","{u'mouseover': {u'state': {u'target': [], u'time': []}, u'edge': {u'target': [], u'time': []}}, u'click': {u'state': {u'target': [], u'time': []}, u'edge': {u'target': [], u'time': []}}, u'mouseout': {u'state': {u'target': [], u'time': []}, u'edge': {u'target': [], u'time': []}}}","[-2, -4, 24]","[9873, 2089, 895]",18.0,"[None, None, None]","[u'', 4, 4, -48, 48, -2, 4, -48, -24, -2, -4, -48, 24]",261346,2.0,60098.0,-5.00680981918e+18,mouselab-mdp,0
"[31434, 32468, 33765]","[u'left', u'left', u'up']",training,"[u'0', u'9', u'10', u'11']","{u'mouseover': {u'state': {u'target': [], u'time': []}, u'edge': {u'target': [], u'time': []}}, u'click': {u'state': {u'target': [u'4', u'3', u'7', u'8', u'11', u'12', u'10'], u'time': [10966, 13031, 16311, 18456, 21099, 23029, 27564]}, u'edge': {u'target': [], u'time': []}}, u'mouseout': {u'state': {u'target': [], u'time': []}, u'edge': {u'target': [], u'time': []}}}","[-2, 8, 24]","[31430, 506, 769]",23.0,"[None, None, None]","[u'', 2, 4, -24, -48, -2, -4, -24, -24, -2, 8, 24, -24]",299462,3.0,37033.0,1.18238643611e+16,mouselab-mdp,0
"[10192, 30207, 31577]","[u'left', u'left', u'up']",training,"[u'0', u'9', u'10', u'11']","{u'mouseover': {u'state': {u'target': [], u'time': []}, u'edge': {u'target': [], u'time': []}}, u'click': {u'state': {u'target': [u'11'], u'time': [5847]}, u'edge': {u'target': [], u'time': []}}, u'mouseout': {u'state': {u'target': [], u'time': []}, u'edge': {u'target': [], u'time': []}}}","[-2, -4, 24]","[10187, 1486, 855]",17.0,"[None, None, None]","[u'', -2, -8, 24, 48, -2, 8, -24, -24, -2, -4, 24, -24]",335391,4.0,34849.0,-3.60340228201e+18,mouselab-mdp,0
"[18065, 23322, 25184]","[u'up', u'up', u'left']",training,"[u'0', u'1', u'2', u'4']","{u'mouseover': {u'state': {u'target': [], u'time': []}, u'edge': {u'target': [], u'time': []}}, u'click': {u'state': {u'target': [u'4', u'3', u'7', u'8', u'12', u'11'], u'time': [4583, 6340, 7913, 9808, 11826, 13486]}, u'edge': {u'target': [], u'time': []}}, u'mouseout': {u'state': {u'target': [], u'time': []}, u'edge': {u'target': [], u'time': []}}}","[-2, 4, 24]","[18061, 724, 1338]",20.0,"[None, None, None]","[u'', -2, 4, -24, 24, -2, -4, -48, -48, 4, -8, 24, 24]",363618,5.0,27146.0,2.82020194745e+17,mouselab-mdp,0
"[11089, 24940, 25731]","[u'up', u'up', u'right']",training,"[u'0', u'1', u'2', u'3']","{u'mouseover': {u'state': {u'target': [], u'time': []}, u'edge': {u'target': [], u'time': []}}, u'click': {u'state': {u'target': [u'11', u'4', u'2'], u'time': [3448, 4651, 7785]}, u'edge': {u'target': [], u'time': []}}, u'mouseout': {u'state': {u'target': [], u'time': []}, u'edge': {u'target': [], u'time': []}}}","[-2, 8, -24]","[11085, 1324, 267]",-21.0,"[None, None, None]","[u'', -2, 8, -24, 24, -4, 8, 48, 24, -2, -4, 24, -48]",394512,6.0,29818.0,2.56147591953e+18,mouselab-mdp,0
"[18753, 19834, 21394]","[u'up', u'up', u'left']",training,"[u'0', u'1', u'2', u'4']","{u'mouseover': {u'state': {u'target': [], u'time': []}, u'edge': {u'target': [], u'time': []}}, u'click': {u'state': {u'target': [u'12', u'11', u'4', u'3', u'7', u'8', u'2'], u'time': [3663, 5207, 6526, 7855, 9079, 10296, 15495]}, u'edge': {u'target': [], u'time': []}}, u'mouseout': {u'state': {u'target': [], u'time': []}, u'edge': {u'target': [], u'time': []}}}","[2, 4, 24]","[18750, 559, 1035]",23.0,"[None, None, None]","[u'', 2, 4, -24, 24, 4, 8, -48, -48, -4, -4, -48, -24]",418764,7.0,23173.0,-7.78403282575e+18,mouselab-mdp,0
"[15106, 15919, 17637]","[u'up', u'up', u'left']",training,"[u'0', u'1', u'2', u'4']","{u'mouseover': {u'state': {u'target': [], u'time': []}, u'edge': {u'target': [], u'time': []}}, u'click': {u'state': {u'target': [u'11', u'12', u'4', u'3'], u'time': [2581, 4492, 6414, 11402]}, u'edge': {u'target': [], u'time': []}}, u'mouseout': {u'state': {u'target': [], u'time': []}, u'edge': {u'target': [], u'time': []}}}","[4, 8, 48]","[15103, 288, 1209]",56.0,"[None, None, None]","[u'', 4, 8, -24, 48, 2, 8, -48, -48, 2, -4, 24, -48]",439699,8.0,19855.0,-6.66851853783e+18,mouselab-mdp,0
"[12377, 14186, 16170]","[u'left', u'left', u'down']",training,"[u'0', u'9', u'10', u'12']","{u'mouseover': {u'state': {u'target': [], u'time': []}, u'edge': {u'target': [], u'time': []}}, u'click': {u'state': {u'target': [u'11', u'12', u'4'], u'time': [2254, 3554, 7445]}, u'edge': {u'target': [], u'time': []}}, u'mouseout': {u'state': {u'target': [], u'time': []}, u'edge': {u'target': [], u'time': []}}}","[4, 4, 48]","[12373, 1287, 1469]",53.0,"[None, None, None]","[u'', 2, 4, 24, -24, 4, 8, 24, -24, 4, 4, 24, 48]",458584,9.0,17814.0,5.95911582726e+18,mouselab-mdp,0
"[20376, 21480, 23223]","[u'right', u'right', u'down']",training,"[u'0', u'5', u'6', u'8']","{u'mouseover': {u'state': {u'target': [], u'time': []}, u'edge': {u'target': [], u'time': []}}, u'click': {u'state': {u'target': [u'11', u'12', u'4', u'3', u'7', u'8'], u'time': [2617, 5764, 8655, 10373, 12646, 14150]}, u'edge': {u'target': [], u'time': []}}, u'mouseout': {u'state': {u'target': [], u'time': []}, u'edge': {u'target': [], u'time': []}}}","[-4, -8, 48]","[20370, 590, 1215]",30.0,"[None, None, None]","[u'', 4, 8, -24, -24, -4, -8, -48, 48, 2, -8, -24, -48]",487610,10.0,27956.0,2.63044322054e+18,mouselab-mdp,0
"[16916, 17706, 19463]","[u'left', u'left', u'up']",test,"[u'0', u'9', u'10', u'11']","{u'mouseover': {u'state': {u'target': [], u'time': []}, u'edge': {u'target': [], u'time': []}}, u'click': {u'state': {u'target': [u'11', u'12', u'4', u'3'], u'time': [4429, 7360, 10242, 12019]}, u'edge': {u'target': [], u'time': []}}, u'mouseout': {u'state': {u'target': [], u'time': []}, u'edge': {u'target': [], u'time': []}}}","[4, -4, 48]","[16912, 273, 1231]",44.0,"[None, None, None]","[u'', 4, -4, -48, 24, -2, -4, 24, 48, 4, -4, 48, -48]",538779,11.0,21885.0,3.20588371627e+17,mouselab-mdp,0
"[11297, 12250, 15328]","[u'up', u'up', u'right']",test,"[u'0', u'1', u'2', u'3']","{u'mouseover': {u'state': {u'target': [], u'time': []}, u'edge': {u'target': [], u'time': []}}, u'click': {u'state': {u'target': [u'11', u'12', u'4', u'3'], u'time': [2590, 4028, 5726, 7239]}, u'edge': {u'target': [], u'time': []}}, u'mouseout': {u'state': {u'target': [], u'time': []}, u'edge': {u'target': [], u'time': []}}}","[2, -4, 24]","[11294, 434, 2561]",18.0,"[None, None, None]","[u'', 2, -4, 24, 24, -4, 4, -24, -24, -2, 4, -24, -48]",557567,12.0,17714.0,7.86254308938e+18,mouselab-mdp,0
"[18266, 19139, 20753]","[u'right', u'right', u'up']",test,"[u'0', u'5', u'6', u'7']","{u'mouseover': {u'state': {u'target': [], u'time': []}, u'edge': {u'target': [], u'time': []}}, u'click': {u'state': {u'target': [u'7', u'8', u'3', u'4', u'11', u'12'], u'time': [3203, 4609, 6502, 7950, 9823, 11445]}, u'edge': {u'target': [], u'time': []}}, u'mouseout': {u'state': {u'target': [], u'time': []}, u'edge': {u'target': [], u'time': []}}}","[-2, -8, 48]","[18262, 356, 1087]",32.0,"[None, None, None]","[u'', 4, 4, 48, -48, -2, -8, 48, -24, -4, -8, 24, -48]",583673,13.0,25027.0,-4.67008033733e+18,mouselab-mdp,0
"[17069, 18066, 19844]","[u'left', u'left', u'up']",test,"[u'0', u'9', u'10', u'11']","{u'mouseover': {u'state': {u'target': [], u'time': []}, u'edge': {u'target': [], u'time': []}}, u'click': {u'state': {u'target': [u'4', u'3', u'7', u'8', u'12', u'11'], u'time': [2717, 4315, 6646, 8490, 10266, 11829]}, u'edge': {u'target': [], u'time': []}}, u'mouseout': {u'state': {u'target': [], u'time': []}, u'edge': {u'target': [], u'time': []}}}","[-2, 8, 48]","[17063, 472, 1251]",48.0,"[None, None, None]","[u'', 4, -4, -48, -48, 4, 8, 24, -24, -2, 8, 48, -48]",607539,14.0,22796.0,-6.97855305918e+18,mouselab-mdp,0
"[8921, 9828, 11719]","[u'left', u'left', u'up']",test,"[u'0', u'9', u'10', u'11']","{u'mouseover': {u'state': {u'target': [], u'time': []}, u'edge': {u'target': [], u'time': []}}, u'click': {u'state': {u'target': [u'11', u'12'], u'time': [3257, 4683]}, u'edge': {u'target': [], u'time': []}}, u'mouseout': {u'state': {u'target': [], u'time': []}, u'edge': {u'target': [], u'time': []}}}","[-4, -4, 48]","[8916, 385, 1377]",38.0,"[None, None, None]","[u'', 2, -4, -24, -24, 4, -8, -48, -48, -4, -4, 48, 48]",622777,15.0,14172.0,-7.91360722647e+18,mouselab-mdp,0
"[20891, 21782, 23922]","[u'left', u'left', u'up']",test,"[u'0', u'9', u'10', u'11']","{u'mouseover': {u'state': {u'target': [], u'time': []}, u'edge': {u'target': [], u'time': []}}, u'click': {u'state': {u'target': [u'4', u'11', u'12', u'8'], u'time': [2128, 4450, 8314, 10924]}, u'edge': {u'target': [], u'time': []}}, u'mouseout': {u'state': {u'target': [], u'time': []}, u'edge': {u'target': [], u'time': []}}}","[-2, -8, 48]","[20885, 377, 1617]",34.0,"[None, None, None]","[u'', -2, 8, 24, -48, 2, 4, -24, 24, -2, -8, 48, -24]",650113,16.0,26246.0,6.28255860945e+18,mouselab-mdp,0
"[6120, 6933, 8073]","[u'left', u'left', u'up']",test,"[u'0', u'9', u'10', u'11']","{u'mouseover': {u'state': {u'target': [], u'time': []}, u'edge': {u'target': [], u'time': []}}, u'click': {u'state': {u'target': [u'11'], u'time': [2117]}, u'edge': {u'target': [], u'time': []}}, u'mouseout': {u'state': {u'target': [], u'time': []}, u'edge': {u'target': [], u'time': []}}}","[-4, -4, 48]","[6117, 295, 616]",39.0,"[None, None, None]","[u'', -4, 8, 48, 24, 2, -8, -48, -24, -4, -4, 48, -24]",661076,17.0,9881.0,3.41976950562e+18,mouselab-mdp,0
"[26839, 27717, 29309]","[u'right', u'right', u'down']",test,"[u'0', u'5', u'6', u'8']","{u'mouseover': {u'state': {u'target': [], u'time': []}, u'edge': {u'target': [], u'time': []}}, u'click': {u'state': {u'target': [u'11', u'12', u'8', u'7', u'3', u'4', u'10'], u'time': [2462, 4694, 6540, 8986, 10557, 11906, 19830]}, u'edge': {u'target': [], u'time': []}}, u'mouseout': {u'state': {u'target': [], u'time': []}, u'edge': {u'target': [], u'time': []}}}","[4, 8, 24]","[26836, 353, 1077]",29.0,"[None, None, None]","[u'', 2, 4, 24, -24, 4, 8, -48, 24, 4, -8, -24, 24]",692729,18.0,30570.0,8.9509461883e+18,mouselab-mdp,0
"[12998, 13796, 14952]","[u'left', u'left', u'up']",test,"[u'0', u'9', u'10', u'11']","{u'mouseover': {u'state': {u'target': [], u'time': []}, u'edge': {u'target': [], u'time': []}}, u'click': {u'state': {u'target': [u'4', u'3', u'7', u'8', u'12', u'11'], u'time': [2491, 4236, 5373, 6808, 8422, 9762]}, u'edge': {u'target': [], u'time': []}}, u'mouseout': {u'state': {u'target': [], u'time': []}, u'edge': {u'target': [], u'time': []}}}","[4, -8, 48]","[12994, 276, 633]",38.0,"[None, None, None]","[u'', -4, 4, -24, -24, -4, -8, 24, -24, 4, -8, 48, -48]",710646,19.0,16849.0,4.60924718032e+17,mouselab-mdp,0
"[14783, 15686, 17408]","[u'right', u'right', u'up']",test,"[u'0', u'5', u'6', u'7']","{u'mouseover': {u'state': {u'target': [], u'time': []}, u'edge': {u'target': [], u'time': []}}, u'click': {u'state': {u'target': [u'4', u'3', u'7', u'8'], u'time': [2296, 4478, 6120, 8012]}, u'edge': {u'target': [], u'time': []}}, u'mouseout': {u'state': {u'target': [], u'time': []}, u'edge': {u'target': [], u'time': []}}}","[4, 8, 48]","[14778, 376, 1200]",56.0,"[None, None, None]","[u'', -2, -8, -24, -24, 4, 8, 48, 24, -2, 8, -24, -48]",730644,20.0,18925.0,4.07975241014e+18,mouselab-mdp,0
"[19027, 20139, 21699]","[u'right', u'right', u'up']",test,"[u'0', u'5', u'6', u'7']","{u'mouseover': {u'state': {u'target': [], u'time': []}, u'edge': {u'target': [], u'time': []}}, u'click': {u'state': {u'target': [u'4', u'3', u'11', u'12', u'7', u'8', u'2'], u'time': [2330, 3591, 6514, 8027, 9571, 10697, 12970]}, u'edge': {u'target': [], u'time': []}}, u'mouseout': {u'state': {u'target': [], u'time': []}, u'edge': {u'target': [], u'time': []}}}","[2, -4, 24]","[19024, 588, 1032]",15.0,"[None, None, None]","[u'', -4, -4, -24, 24, 2, -4, 24, -48, -2, 8, -48, -48]",755661,21.0,23943.0,-1.38962569557e+18,mouselab-mdp,0
"[19597, 20722, 21756]","[u'up', u'up', u'right']",test,"[u'0', u'1', u'2', u'3']","{u'mouseover': {u'state': {u'target': [], u'time': []}, u'edge': {u'target': [], u'time': []}}, u'click': {u'state': {u'target': [u'4', u'7', u'12', u'11', u'10', u'8', u'3'], u'time': [2720, 4865, 6989, 8504, 10252, 13103, 17754]}, u'edge': {u'target': [], u'time': []}}, u'mouseout': {u'state': {u'target': [], u'time': []}, u'edge': {u'target': [], u'time': []}}}","[-4, 4, 48]","[19592, 600, 518]",41.0,"[None, None, None]","[u'', -4, 4, 48, -48, -4, 4, -24, 24, -4, -8, 24, 24]",781185,22.0,24447.0,-5.99530113684e+18,mouselab-mdp,0
"[7097, 8123, 9559]","[u'up', u'up', u'right']",test,"[u'0', u'1', u'2', u'3']","{u'mouseover': {u'state': {u'target': [], u'time': []}, u'edge': {u'target': [], u'time': []}}, u'click': {u'state': {u'target': [u'4', u'3'], u'time': [2159, 3518]}, u'edge': {u'target': [], u'time': []}}, u'mouseout': {u'state': {u'target': [], u'time': []}, u'edge': {u'target': [], u'time': []}}}","[2, 8, 48]","[7093, 499, 926]",56.0,"[None, None, None]","[u'', 2, 8, 48, 24, -2, 4, 24, 24, -2, -4, -48, -24]",794095,23.0,11844.0,-8.92386760362e+18,mouselab-mdp,0
"[11157, 12166, 13149]","[u'left', u'left', u'down']",test,"[u'0', u'9', u'10', u'12']","{u'mouseover': {u'state': {u'target': [], u'time': []}, u'edge': {u'target': [], u'time': []}}, u'click': {u'state': {u'target': [u'4', u'3', u'11', u'12'], u'time': [2066, 3462, 5122, 6579]}, u'edge': {u'target': [], u'time': []}}, u'mouseout': {u'state': {u'target': [], u'time': []}, u'edge': {u'target': [], u'time': []}}}","[2, -8, 48]","[11154, 484, 467]",38.0,"[None, None, None]","[u'', 4, 8, -24, 24, -2, 4, -24, 48, 2, -8, 24, 48]",810159,24.0,14991.0,8.86605250045e+18,mouselab-mdp,0
"[10842, 11969, 12960]","[u'left', u'left', u'down']",test,"[u'0', u'9', u'10', u'12']","{u'mouseover': {u'state': {u'target': [], u'time': []}, u'edge': {u'target': [], u'time': []}}, u'click': {u'state': {u'target': [u'4', u'3', u'11', u'12'], u'time': [1857, 5623, 7721, 8963]}, u'edge': {u'target': [], u'time': []}}, u'mouseout': {u'state': {u'target': [], u'time': []}, u'edge': {u'target': [], u'time': []}}}","[2, -4, 48]","[10838, 603, 476]",42.0,"[None, None, None]","[u'', 2, 4, -48, 48, -4, 4, -48, -48, 2, -4, 24, 48]",827324,25.0,16096.0,-5.8494341666e+18,mouselab-mdp,0
"[6042, 6958, 7879]","[u'up', u'up', u'right']",test,"[u'0', u'1', u'2', u'3']","{u'mouseover': {u'state': {u'target': [], u'time': []}, u'edge': {u'target': [], u'time': []}}, u'click': {u'state': {u'target': [u'4', u'3'], u'time': [1872, 4095]}, u'edge': {u'target': [], u'time': []}}, u'mouseout': {u'state': {u'target': [], u'time': []}, u'edge': {u'target': [], u'time': []}}}","[2, -4, 48]","[6039, 397, 402]",44.0,"[None, None, None]","[u'', 2, -4, 48, 24, -2, -4, 24, 24, 2, -8, -24, 24]",839266,26.0,10870.0,5.56601214792e+17,mouselab-mdp,0
"[6854, 7796, 9450]","[u'up', u'up', u'left']",test,"[u'0', u'1', u'2', u'4']","{u'mouseover': {u'state': {u'target': [], u'time': []}, u'edge': {u'target': [], u'time': []}}, u'click': {u'state': {u'target': [u'4', u'3'], u'time': [2290, 3697]}, u'edge': {u'target': [], u'time': []}}, u'mouseout': {u'state': {u'target': [], u'time': []}, u'edge': {u'target': [], u'time': []}}}","[2, 4, 48]","[6850, 429, 1133]",52.0,"[None, None, None]","[u'', 2, 4, -24, 48, -4, 8, -48, 48, 2, -4, 24, -24]",852215,27.0,11879.0,-8.3276713645e+18,mouselab-mdp,0
"[9487, 10320, 12086]","[u'right', u'right', u'down']",test,"[u'0', u'5', u'6', u'8']","{u'mouseover': {u'state': {u'target': [], u'time': []}, u'edge': {u'target': [], u'time': []}}, u'click': {u'state': {u'target': [u'4', u'3', u'7', u'8'], u'time': [2076, 4122, 6403, 7849]}, u'edge': {u'target': [], u'time': []}}, u'mouseout': {u'state': {u'target': [], u'time': []}, u'edge': {u'target': [], u'time': []}}}","[-2, 8, 48]","[9483, 306, 1242]",50.0,"[None, None, None]","[u'', -4, -8, 24, -24, -2, 8, 24, 48, 4, -4, 24, -48]",868141,28.0,14857.0,-1.10044903072e+18,mouselab-mdp,0
"[16343, 17386, 18543]","[u'right', u'right', u'down']",test,"[u'0', u'5', u'6', u'8']","{u'mouseover': {u'state': {u'target': [], u'time': []}, u'edge': {u'target': [], u'time': []}}, u'click': {u'state': {u'target': [u'11', u'4', u'3'], u'time': [5292, 8593, 10184]}, u'edge': {u'target': [], u'time': []}}, u'mouseout': {u'state': {u'target': [], u'time': []}, u'edge': {u'target': [], u'time': []}}}","[-2, 8, 24]","[16339, 531, 637]",27.0,"[None, None, None]","[u'', 2, 8, -24, -48, -2, 8, 48, 24, 4, 8, -24, -48]",890839,29.0,21622.0,7.70857757142e+18,mouselab-mdp,0
"[2730, 3704, 4981]","[u'up', u'up', u'left']",test,"[u'0', u'1', u'2', u'4']","{u'mouseover': {u'state': {u'target': [], u'time': []}, u'edge': {u'target': [], u'time': []}}, u'click': {u'state': {u'target': [], u'time': []}, u'edge': {u'target': [], u'time': []}}, u'mouseout': {u'state': {u'target': [], u'time': []}, u'edge': {u'target': [], u'time': []}}}","[2, -4, -48]","[2726, 460, 757]",-50.0,"[None, None, None]","[u'', 2, -4, 24, -48, -4, 4, 48, 48, 4, 4, -48, -24]",905758,30.0,13846.0,1.70803683189e+18,mouselab-mdp,0
"[16480, 17458, 18765]","[u'left', u'left', u'up']",pre_test,"[u'0', u'9', u'10', u'11']","{u'mouseover': {u'state': {u'target': [], u'time': []}, u'edge': {u'target': [], u'time': []}}, u'click': {u'state': {u'target': [u'9', u'5', u'11', u'12'], u'time': [5604, 7656, 11627, 14737]}, u'edge': {u'target': [], u'time': []}}, u'mouseout': {u'state': {u'target': [], u'time': []}, u'edge': {u'target': [], u'time': []}}}","[4, 4, 48]","[16472, 444, 797]",52.0,"[None, None, None]","[u'', -4, 8, 48, -24, -2, -4, 24, -48, 4, 4, 48, -48]",72748,0.0,23233.0,7.26324481059e+18,mouselab-mdp,1
"[23785, 24520, 25366]","[u'up', u'up', u'left']",training,"[u'0', u'1', u'2', u'4']","{u'mouseover': {u'state': {u'target': [], u'time': []}, u'edge': {u'target': [], u'time': []}}, u'click': {u'state': {u'target': [u'1', u'7', u'3', u'4', u'11'], u'time': [5975, 12391, 13736, 15152, 19733]}, u'edge': {u'target': [], u'time': []}}, u'mouseout': {u'state': {u'target': [], u'time': []}, u'edge': {u'target': [], u'time': []}}}","[2, 4, 48]","[23781, 221, 332]",49.0,"[None, None, None]","[u'', 2, 4, -24, 48, -4, 8, -48, 48, 2, -4, 24, -24]",108771,1.0,27651.0,-8.3276713645e+18,mouselab-mdp,1
"[16196, 17075, 18378]","[u'left', u'left', u'down']",training,"[u'0', u'9', u'10', u'12']","{u'mouseover': {u'state': {u'target': [], u'time': []}, u'edge': {u'target': [], u'time': []}}, u'click': {u'state': {u'target': [u'12', u'8', u'4'], u'time': [2143, 6199, 10926]}, u'edge': {u'target': [], u'time': []}}, u'mouseout': {u'state': {u'target': [], u'time': []}, u'edge': {u'target': [], u'time': []}}}","[-4, 8, 48]","[16191, 345, 787]",49.0,"[None, None, None]","[u'', -4, 4, 24, 24, -2, -4, 48, -24, -4, 8, -48, 48]",129685,2.0,19812.0,-4.8746661358e+18,mouselab-mdp,1
"[16967, 25549, 26918]","[u'left', u'left', u'down']",training,"[u'0', u'9', u'10', u'12']","{u'mouseover': {u'state': {u'target': [], u'time': []}, u'edge': {u'target': [], u'time': []}}, u'click': {u'state': {u'target': [u'4', u'7', u'12', u'8', u'11', u'3'], u'time': [1775, 5389, 8137, 10300, 12473, 13721]}, u'edge': {u'target': [], u'time': []}}, u'mouseout': {u'state': {u'target': [], u'time': []}, u'edge': {u'target': [], u'time': []}}}","[4, -8, 24]","[16963, 3057, 853]",14.0,"[None, None, None]","[u'', 2, 4, 24, -24, 4, 8, -48, 24, 4, -8, -24, 24]",159356,3.0,28578.0,8.9509461883e+18,mouselab-mdp,1
"[16442, 17038, 18259]","[u'up', u'up', u'left']",training,"[u'0', u'1', u'2', u'4']","{u'mouseover': {u'state': {u'target': [], u'time': []}, u'edge': {u'target': [], u'time': []}}, u'click': {u'state': {u'target': [u'4', u'2', u'1'], u'time': [2267, 9482, 14684]}, u'edge': {u'target': [], u'time': []}}, u'mouseout': {u'state': {u'target': [], u'time': []}, u'edge': {u'target': [], u'time': []}}}","[4, 4, 48]","[16439, 74, 694]",53.0,"[None, None, None]","[u'', 4, 4, -48, 48, -2, 4, -48, -24, -2, -4, -48, 24]",180791,4.0,20363.0,-5.00680981918e+18,mouselab-mdp,1
"[25674, 26398, 27075]","[u'left', u'left', u'down']",training,"[u'0', u'9', u'10', u'12']","{u'mouseover': {u'state': {u'target': [], u'time': []}, u'edge': {u'target': [], u'time': []}}, u'click': {u'state': {u'target': [u'3', u'11', u'12', u'10', u'9', u'4'], u'time': [1896, 4116, 8523, 12735, 17356, 22419]}, u'edge': {u'target': [], u'time': []}}, u'mouseout': {u'state': {u'target': [], u'time': []}, u'edge': {u'target': [], u'time': []}}}","[-4, 4, 48]","[25667, 202, 150]",42.0,"[None, None, None]","[u'', -4, 4, 24, 24, 2, 8, -24, 24, -4, 4, -24, 48]",210492,5.0,28598.0,5.34744023932e+18,mouselab-mdp,1
"[16108, 16906, 17592]","[u'right', u'right', u'up']",training,"[u'0', u'5', u'6', u'7']","{u'mouseover': {u'state': {u'target': [], u'time': []}, u'edge': {u'target': [], u'time': []}}, u'click': {u'state': {u'target': [u'8', u'11', u'3', u'4', u'6', u'7'], u'time': [1588, 4151, 5404, 6614, 12323, 13245]}, u'edge': {u'target': [], u'time': []}}, u'mouseout': {u'state': {u'target': [], u'time': []}, u'edge': {u'target': [], u'time': []}}}","[-4, 8, 48]","[16102, 265, 174]",46.0,"[None, None, None]","[u'', -2, 8, -24, 24, -4, 8, 48, 24, -2, -4, 24, -48]",230292,6.0,18720.0,2.56147591953e+18,mouselab-mdp,1
"[24984, 25707, 26816]","[u'right', u'right', u'down']",training,"[u'0', u'5', u'6', u'8']","{u'mouseover': {u'state': {u'target': [], u'time': []}, u'edge': {u'target': [], u'time': []}}, u'click': {u'state': {u'target': [u'11', u'12', u'7', u'8', u'6', u'5', u'4', u'3'], u'time': [2538, 5768, 8565, 10374, 14722, 19389, 19938, 20897]}, u'edge': {u'target': [], u'time': []}}, u'mouseout': {u'state': {u'target': [], u'time': []}, u'edge': {u'target': [], u'time': []}}}","[-2, -8, 48]","[24978, 206, 581]",30.0,"[None, None, None]","[u'', -4, -4, -48, -48, -2, -8, 24, 48, 2, 4, -24, -48]",259729,7.0,28331.0,-1.84824368346e+18,mouselab-mdp,1
"[15160, 15913, 17223]","[u'left', u'left', u'up']",training,"[u'0', u'9', u'10', u'11']","{u'mouseover': {u'state': {u'target': [], u'time': []}, u'edge': {u'target': [], u'time': []}}, u'click': {u'state': {u'target': [u'4', u'3', u'11', u'12', u'7', u'8'], u'time': [1575, 2927, 6276, 8169, 11152, 12360]}, u'edge': {u'target': [], u'time': []}}, u'mouseout': {u'state': {u'target': [], u'time': []}, u'edge': {u'target': [], u'time': []}}}","[-2, 8, 24]","[15154, 234, 798]",24.0,"[None, None, None]","[u'', 2, 4, -24, -48, -2, -4, -24, -24, -2, 8, 24, -24]",279708,8.0,18865.0,1.18238643611e+16,mouselab-mdp,1
"[16130, 16888, 18752]","[u'left', u'left', u'up']",training,"[u'0', u'9', u'10', u'11']","{u'mouseover': {u'state': {u'target': [], u'time': []}, u'edge': {u'target': [], u'time': []}}, u'click': {u'state': {u'target': [u'4', u'3', u'11', u'12', u'2', u'10'], u'time': [1481, 3022, 7361, 11662, 12073, 13845]}, u'edge': {u'target': [], u'time': []}}, u'mouseout': {u'state': {u'target': [], u'time': []}, u'edge': {u'target': [], u'time': []}}}","[-4, 4, 48]","[16124, 244, 1336]",42.0,"[None, None, None]","[u'', -2, -4, 48, 24, 2, 4, -48, 48, -4, 4, 48, 24]",301023,9.0,20220.0,7.94655219151e+18,mouselab-mdp,1
"[16628, 17319, 19352]","[u'left', u'left', u'up']",training,"[u'0', u'9', u'10', u'11']","{u'mouseover': {u'state': {u'target': [], u'time': []}, u'edge': {u'target': [], u'time': []}}, u'click': {u'state': {u'target': [u'7', u'6', u'8', u'10', u'2', u'11'], u'time': [1615, 5343, 9573, 9965, 14110, 14935]}, u'edge': {u'target': [], u'time': []}}, u'mouseout': {u'state': {u'target': [], u'time': []}, u'edge': {u'target': [], u'time': []}}}","[4, 4, 48]","[16622, 160, 1516]",50.0,"[None, None, None]","[u'', -4, -8, -48, -48, -4, -4, 48, 24, 4, 4, 48, -48]",323246,10.0,21128.0,-9.06308480017e+18,mouselab-mdp,1
"[17877, 18580, 19398]","[u'left', u'left', u'down']",test,"[u'0', u'9', u'10', u'12']","{u'mouseover': {u'state': {u'target': [], u'time': []}, u'edge': {u'target': [], u'time': []}}, u'click': {u'state': {u'target': [u'11', u'7', u'12', u'10'], u'time': [3619, 8229, 12293, 16130]}, u'edge': {u'target': [], u'time': []}}, u'mouseout': {u'state': {u'target': [], u'time': []}, u'edge': {u'target': [], u'time': []}}}","[-4, 4, 48]","[17873, 174, 295]",44.0,"[None, None, None]","[u'', 2, -4, 24, -48, -4, -8, -48, -48, -4, 4, -48, 48]",364302,11.0,20948.0,2.1183359843e+18,mouselab-mdp,1
"[16221, 16751, 17379]","[u'right', u'right', u'down']",test,"[u'0', u'5', u'6', u'8']","{u'mouseover': {u'state': {u'target': [], u'time': []}, u'edge': {u'target': [], u'time': []}}, u'click': {u'state': {u'target': [u'4', u'3', u'12', u'11', u'7', u'8'], u'time': [1171, 4985, 8510, 11654, 14074, 14907]}, u'edge': {u'target': [], u'time': []}}, u'mouseout': {u'state': {u'target': [], u'time': []}, u'edge': {u'target': [], u'time': []}}}","[-4, -8, 48]","[16217, 7, 92]",30.0,"[None, None, None]","[u'', 4, 8, -24, -24, -4, -8, -48, 48, 2, -8, -24, -48]",384124,12.0,18731.0,2.63044322054e+18,mouselab-mdp,1
"[13002, 13890, 14899]","[u'left', u'left', u'up']",test,"[u'0', u'9', u'10', u'11']","{u'mouseover': {u'state': {u'target': [], u'time': []}, u'edge': {u'target': [], u'time': []}}, u'click': {u'state': {u'target': [u'7', u'8', u'12', u'11', u'10', u'4', u'3'], u'time': [1459, 2972, 4693, 5690, 9219, 10856, 11764]}, u'edge': {u'target': [], u'time': []}}, u'mouseout': {u'state': {u'target': [], u'time': []}, u'edge': {u'target': [], u'time': []}}}","[4, -8, 48]","[12999, 366, 495]",37.0,"[None, None, None]","[u'', -4, 4, -24, -24, -4, -8, 24, -24, 4, -8, 48, -48]",401570,13.0,16399.0,4.60924718032e+17,mouselab-mdp,1
"[7238, 8022, 9069]","[u'right', u'right', u'up']",test,"[u'0', u'5', u'6', u'7']","{u'mouseover': {u'state': {u'target': [], u'time': []}, u'edge': {u'target': [], u'time': []}}, u'click': {u'state': {u'target': [u'11', u'12', u'7', u'6'], u'time': [2241, 3475, 5091, 6252]}, u'edge': {u'target': [], u'time': []}}, u'mouseout': {u'state': {u'target': [], u'time': []}, u'edge': {u'target': [], u'time': []}}}","[-4, 4, 48]","[7234, 261, 524]",44.0,"[None, None, None]","[u'', 2, -4, 24, -48, -4, 4, 48, 48, 4, 4, -48, -24]",412868,14.0,10193.0,1.70803683189e+18,mouselab-mdp,1
"[4969, 5720, 6517]","[u'up', u'up', u'left']",test,"[u'0', u'1', u'2', u'4']","{u'mouseover': {u'state': {u'target': [], u'time': []}, u'edge': {u'target': [], u'time': []}}, u'click': {u'state': {u'target': [u'4', u'3'], u'time': [665, 1935]}, u'edge': {u'target': [], u'time': []}}, u'mouseout': {u'state': {u'target': [], u'time': []}, u'edge': {u'target': [], u'time': []}}}","[-2, -8, 48]","[4964, 239, 286]",36.0,"[None, None, None]","[u'', -2, -8, 24, 48, -2, 8, -24, -24, -2, -4, 24, -24]",424791,15.0,10839.0,-3.60340228201e+18,mouselab-mdp,1
"[8031, 8677, 9476]","[u'right', u'right', u'down']",test,"[u'0', u'5', u'6', u'8']","{u'mouseover': {u'state': {u'target': [], u'time': []}, u'edge': {u'target': [], u'time': []}}, u'click': {u'state': {u'target': [u'4', u'3', u'11', u'12', u'7', u'8'], u'time': [1128, 2648, 4145, 4937, 5925, 6553]}, u'edge': {u'target': [], u'time': []}}, u'mouseout': {u'state': {u'target': [], u'time': []}, u'edge': {u'target': [], u'time': []}}}","[2, 4, 48]","[8027, 127, 269]",48.0,"[None, None, None]","[u'', 4, -8, 24, 24, 2, 4, 24, 48, -2, 4, 24, -48]",436313,16.0,10423.0,6.72269827856e+18,mouselab-mdp,1
"[10360, 11092, 11853]","[u'right', u'right', u'down']",test,"[u'0', u'5', u'6', u'8']","{u'mouseover': {u'state': {u'target': [], u'time': []}, u'edge': {u'target': [], u'time': []}}, u'click': {u'state': {u'target': [u'4', u'3', u'11', u'12', u'10', u'8', u'6'], u'time': [2138, 2836, 3759, 4771, 7339, 8492, 9395]}, u'edge': {u'target': [], u'time': []}}, u'mouseout': {u'state': {u'target': [], u'time': []}, u'edge': {u'target': [], u'time': []}}}","[-2, 4, 48]","[10355, 218, 249]",43.0,"[None, None, None]","[u'', 4, 8, -24, 24, -2, 4, -24, 48, 2, -8, 24, 48]",450179,17.0,12764.0,8.86605250045e+18,mouselab-mdp,1
"[9095, 9726, 10401]","[u'left', u'left', u'down']",test,"[u'0', u'9', u'10', u'12']","{u'mouseover': {u'state': {u'target': [], u'time': []}, u'edge': {u'target': [], u'time': []}}, u'click': {u'state': {u'target': [u'11', u'12', u'7', u'8', u'10', u'3', u'4'], u'time': [1058, 1814, 3366, 4030, 5508, 7225, 7959]}, u'edge': {u'target': [], u'time': []}}, u'mouseout': {u'state': {u'target': [], u'time': []}, u'edge': {u'target': [], u'time': []}}}","[4, 4, 48]","[9090, 116, 159]",49.0,"[None, None, None]","[u'', 2, 4, 24, -24, 4, 8, 24, -24, 4, 4, 24, 48]",463067,18.0,11791.0,5.95911582726e+18,mouselab-mdp,1
"[5059, 5715, 6532]","[u'up', u'up', u'right']",test,"[u'0', u'1', u'2', u'3']","{u'mouseover': {u'state': {u'target': [], u'time': []}, u'edge': {u'target': [], u'time': []}}, u'click': {u'state': {u'target': [u'11', u'12', u'3', u'2'], u'time': [1070, 1787, 3070, 4115]}, u'edge': {u'target': [], u'time': []}}, u'mouseout': {u'state': {u'target': [], u'time': []}, u'edge': {u'target': [], u'time': []}}}","[2, 8, 48]","[5055, 140, 295]",54.0,"[None, None, None]","[u'', 2, 8, 48, -24, -4, -4, -48, 24, -4, -8, -48, -24]",474191,19.0,10046.0,2.37271076103e+18,mouselab-mdp,1
"[3743, 4410, 5119]","[u'up', u'up', u'left']",test,"[u'0', u'1', u'2', u'4']","{u'mouseover': {u'state': {u'target': [], u'time': []}, u'edge': {u'target': [], u'time': []}}, u'click': {u'state': {u'target': [u'4', u'3', u'2'], u'time': [1155, 2021, 2605]}, u'edge': {u'target': [], u'time': []}}, u'mouseout': {u'state': {u'target': [], u'time': []}, u'edge': {u'target': [], u'time': []}}}","[2, 4, 48]","[3739, 148, 188]",51.0,"[None, None, None]","[u'', 2, 4, -48, 48, -4, 4, -48, -48, 2, -4, 24, 48]",483706,20.0,8437.0,-5.8494341666e+18,mouselab-mdp,1
"[7547, 8257, 8896]","[u'up', u'up', u'right']",test,"[u'0', u'1', u'2', u'3']","{u'mouseover': {u'state': {u'target': [], u'time': []}, u'edge': {u'target': [], u'time': []}}, u'click': {u'state': {u'target': [u'7', u'11', u'12', u'8', u'3', u'4'], u'time': [610, 2400, 3810, 4629, 5567, 6360]}, u'edge': {u'target': [], u'time': []}}, u'mouseout': {u'state': {u'target': [], u'time': []}, u'edge': {u'target': [], u'time': []}}}","[2, 8, 48]","[7541, 201, 118]",52.0,"[None, None, None]","[u'', 2, 8, 48, 24, -2, 4, 24, 24, -2, -4, -48, -24]",494895,21.0,10083.0,-8.92386760362e+18,mouselab-mdp,1
"[8352, 9135, 9997]","[u'up', u'up', u'right']",test,"[u'0', u'1', u'2', u'3']","{u'mouseover': {u'state': {u'target': [], u'time': []}, u'edge': {u'target': [], u'time': []}}, u'click': {u'state': {u'target': [u'4', u'3', u'8', u'12', u'7', u'11'], u'time': [581, 1285, 2711, 4124, 5010, 6275]}, u'edge': {u'target': [], u'time': []}}, u'mouseout': {u'state': {u'target': [], u'time': []}, u'edge': {u'target': [], u'time': []}}}","[-2, -4, 24]","[8347, 262, 341]",12.0,"[None, None, None]","[u'', -2, -4, 24, -48, -4, 8, -24, -24, 4, -4, -48, 24]",507055,22.0,11044.0,1.39930365593e+18,mouselab-mdp,1
"[6496, 7156, 7931]","[u'right', u'right', u'up']",test,"[u'0', u'5', u'6', u'7']","{u'mouseover': {u'state': {u'target': [], u'time': []}, u'edge': {u'target': [], u'time': []}}, u'click': {u'state': {u'target': [u'11', u'12', u'10', u'7', u'6'], u'time': [916, 1906, 2880, 4716, 5356]}, u'edge': {u'target': [], u'time': []}}, u'mouseout': {u'state': {u'target': [], u'time': []}, u'edge': {u'target': [], u'time': []}}}","[-2, 4, 48]","[6491, 139, 254]",45.0,"[None, None, None]","[u'', -4, 4, 24, -24, -2, 4, 48, -24, -4, -8, -48, 48]",517663,23.0,9511.0,8.58865579534e+17,mouselab-mdp,1
"[7827, 8413, 9194]","[u'left', u'left', u'down']",test,"[u'0', u'9', u'10', u'12']","{u'mouseover': {u'state': {u'target': [], u'time': []}, u'edge': {u'target': [], u'time': []}}, u'click': {u'state': {u'target': [u'4', u'3', u'2', u'11', u'12', u'10'], u'time': [889, 2766, 4109, 5195, 5812, 6841]}, u'edge': {u'target': [], u'time': []}}, u'mouseout': {u'state': {u'target': [], u'time': []}, u'edge': {u'target': [], u'time': []}}}","[4, 8, 48]","[7823, 70, 258]",54.0,"[None, None, None]","[u'', 2, -8, -24, 48, -2, -4, -24, -24, 4, 8, 24, 48]",529074,24.0,10337.0,6.51676073779e+18,mouselab-mdp,1
"[11636, 12379, 13090]","[u'left', u'left', u'down']",test,"[u'0', u'9', u'10', u'12']","{u'mouseover': {u'state': {u'target': [], u'time': []}, u'edge': {u'target': [], u'time': []}}, u'click': {u'state': {u'target': [u'11', u'12', u'10', u'8', u'7', u'4', u'3', u'6'], u'time': [780, 1580, 2477, 3885, 4814, 6230, 6830, 9317]}, u'edge': {u'target': [], u'time': []}}, u'mouseout': {u'state': {u'target': [], u'time': []}, u'edge': {u'target': [], u'time': []}}}","[-2, -8, 48]","[11632, 219, 189]",30.0,"[None, None, None]","[u'', 4, -8, -48, -48, -4, 4, 24, 24, -2, -8, -24, 48]",544367,25.0,14207.0,-4.56949664606e+18,mouselab-mdp,1
"[7947, 8522, 9183]","[u'left', u'left', u'down']",test,"[u'0', u'9', u'10', u'12']","{u'mouseover': {u'state': {u'target': [], u'time': []}, u'edge': {u'target': [], u'time': []}}, u'click': {u'state': {u'target': [u'4', u'3', u'12', u'10', u'8', u'7'], u'time': [781, 1624, 3247, 4503, 5910, 6598]}, u'edge': {u'target': [], u'time': []}}, u'mouseout': {u'state': {u'target': [], u'time': []}, u'edge': {u'target': [], u'time': []}}}","[-4, -4, 48]","[7942, 57, 151]",34.0,"[None, None, None]","[u'', 2, -4, -24, -24, 4, -8, -48, -48, -4, -4, 48, 48]",555817,26.0,10389.0,-7.91360722647e+18,mouselab-mdp,1
"[3632, 4206, 4918]","[u'left', u'left', u'down']",test,"[u'0', u'9', u'10', u'12']","{u'mouseover': {u'state': {u'target': [], u'time': []}, u'edge': {u'target': [], u'time': []}}, u'click': {u'state': {u'target': [u'11', u'12', u'10'], u'time': [631, 1565, 2543]}, u'edge': {u'target': [], u'time': []}}, u'mouseout': {u'state': {u'target': [], u'time': []}, u'edge': {u'target': [], u'time': []}}}","[4, 8, 48]","[3627, 62, 190]",57.0,"[None, None, None]","[u'', -2, -4, 48, -48, 2, 4, -48, 24, 4, 8, -48, 48]",566375,27.0,9489.0,-2.81709899867e+18,mouselab-mdp,1
"[6471, 7055, 7706]","[u'up', u'up', u'left']",test,"[u'0', u'1', u'2', u'4']","{u'mouseover': {u'state': {u'target': [], u'time': []}, u'edge': {u'target': [], u'time': []}}, u'click': {u'state': {u'target': [u'11', u'12', u'7', u'8', u'4', u'3'], u'time': [919, 1571, 2445, 3018, 4361, 4890]}, u'edge': {u'target': [], u'time': []}}, u'mouseout': {u'state': {u'target': [], u'time': []}, u'edge': {u'target': [], u'time': []}}}","[2, 4, 24]","[6467, 59, 133]",24.0,"[None, None, None]","[u'', 2, 4, -24, 24, 4, 8, -48, -48, -4, -4, -48, -24]",576612,28.0,9145.0,-7.78403282575e+18,mouselab-mdp,1
"[10586, 11196, 13013]","[u'right', u'right', u'up']",test,"[u'0', u'5', u'6', u'7']","{u'mouseover': {u'state': {u'target': [], u'time': []}, u'edge': {u'target': [], u'time': []}}, u'click': {u'state': {u'target': [u'11', u'12', u'3', u'2', u'8', u'7', u'6', u'1', u'5'], u'time': [536, 1136, 2404, 3600, 4653, 5172, 5862, 9039, 9635]}, u'edge': {u'target': [], u'time': []}}, u'mouseout': {u'state': {u'target': [], u'time': []}, u'edge': {u'target': [], u'time': []}}}","[2, -4, 48]","[10581, 90, 1294]",37.0,"[None, None, None]","[u'', -2, -4, 48, -24, 2, -4, 48, 24, -2, -8, -24, -24]",591923,29.0,14223.0,2.59386444745e+18,mouselab-mdp,1
"[8168, 8830, 9960]","[u'left', u'left', u'up']",test,"[u'0', u'9', u'10', u'11']","{u'mouseover': {u'state': {u'target': [], u'time': []}, u'edge': {u'target': [], u'time': []}}, u'click': {u'state': {u'target': [u'4', u'3', u'11', u'10', u'7', u'8', u'12', u'6'], u'time': [468, 1117, 2153, 3089, 3935, 4676, 5867, 6718]}, u'edge': {u'target': [], u'time': []}}, u'mouseout': {u'state': {u'target': [], u'time': []}, u'edge': {u'target': [], u'time': []}}}","[4, -4, 48]","[8163, 146, 607]",40.0,"[None, None, None]","[u'', -2, -8, -48, -48, -4, -8, 24, 24, 4, -4, 48, -24]",604210,30.0,11184.0,-3.02731726069e+18,mouselab-mdp,1
"[9001, 11666, 14867]","[u'up', u'up', u'right']",pre_test,"[u'0', u'1', u'2', u'3']","{u'mouseover': {u'state': {u'target': [], u'time': []}, u'edge': {u'target': [], u'time': []}}, u'click': {u'state': {u'target': [], u'time': []}, u'edge': {u'target': [], u'time': []}}, u'mouseout': {u'state': {u'target': [], u'time': []}, u'edge': {u'target': [], u'time': []}}}","[-4, 4, 24]","[8994, 2143, 2694]",24.0,"[None, None, None]","[u'', -4, 4, 24, 24, -2, -4, 48, -24, -4, 8, -48, 48]",70038,0.0,18839.0,-4.8746661358e+18,mouselab-mdp,2
"[3030, 49417, 51074]","[u'left', u'left', u'down']",training,"[u'0', u'9', u'10', u'12']","{u'mouseover': {u'state': {u'target': [], u'time': []}, u'edge': {u'target': [], u'time': []}}, u'click': {u'state': {u'target': [], u'time': []}, u'edge': {u'target': [], u'time': []}}, u'mouseout': {u'state': {u'target': [], u'time': []}, u'edge': {u'target': [], u'time': []}}}","[-2, 4, -48]","[3024, 3859, 1156]",-46.0,"[None, None, None]","[u'', 4, -4, 48, -48, -2, -8, 24, 24, -2, 4, 48, -48]",133883,1.0,54570.0,8.0458297312e+18,mouselab-mdp,2
"[12013, 63753, 66811]","[u'left', u'left', u'up']",training,"[u'0', u'9', u'10', u'11']","{u'mouseover': {u'state': {u'target': [], u'time': []}, u'edge': {u'target': [], u'time': []}}, u'click': {u'state': {u'target': [u'2'], u'time': [6175]}, u'edge': {u'target': [], u'time': []}}, u'mouseout': {u'state': {u'target': [], u'time': []}, u'edge': {u'target': [], u'time': []}}}","[4, 4, 48]","[12008, 10207, 2540]",55.0,"[None, None, None]","[u'', -4, -8, -48, -48, -4, -4, 48, 24, 4, 4, 48, -48]",204539,2.0,69568.0,-9.06308480017e+18,mouselab-mdp,2
"[18425, 20029, 21739]","[u'right', u'right', u'up']",training,"[u'0', u'5', u'6', u'7']","{u'mouseover': {u'state': {u'target': [], u'time': []}, u'edge': {u'target': [], u'time': []}}, u'click': {u'state': {u'target': [u'7'], u'time': [6507]}, u'edge': {u'target': [], u'time': []}}, u'mouseout': {u'state': {u'target': [], u'time': []}, u'edge': {u'target': [], u'time': []}}}","[-4, 8, 48]","[18421, 1086, 1192]",51.0,"[None, None, None]","[u'', -2, 8, -24, 24, -4, 8, 48, 24, -2, -4, 24, -48]",229740,3.0,24106.0,2.56147591953e+18,mouselab-mdp,2
"[5171, 6428, 7445]","[u'left', u'left', u'down']",training,"[u'0', u'9', u'10', u'12']","{u'mouseover': {u'state': {u'target': [], u'time': []}, u'edge': {u'target': [], u'time': []}}, u'click': {u'state': {u'target': [u'12'], u'time': [2920]}, u'edge': {u'target': [], u'time': []}}, u'mouseout': {u'state': {u'target': [], u'time': []}, u'edge': {u'target': [], u'time': []}}}","[-4, 8, 48]","[5167, 744, 506]",51.0,"[None, None, None]","[u'', 2, 4, 24, -24, 4, -8, 48, -24, -4, 8, -48, 48]",240073,4.0,9254.0,5.01038116734e+18,mouselab-mdp,2
"[4553, 5494, 6370]","[u'left', u'left', u'up']",training,"[u'0', u'9', u'10', u'11']","{u'mouseover': {u'state': {u'target': [], u'time': []}, u'edge': {u'target': [], u'time': []}}, u'click': {u'state': {u'target': [u'11'], u'time': [2899]}, u'edge': {u'target': [], u'time': []}}, u'mouseout': {u'state': {u'target': [], u'time': []}, u'edge': {u'target': [], u'time': []}}}","[-2, 8, 48]","[4548, 421, 365]",53.0,"[None, None, None]","[u'', 4, -4, -48, -48, 4, 8, 24, -24, -2, 8, 48, -48]",252524,5.0,11366.0,-6.97855305918e+18,mouselab-mdp,2
"[3728, 45916, 47145]","[u'left', u'left', u'up']",training,"[u'0', u'9', u'10', u'11']","{u'mouseover': {u'state': {u'target': [], u'time': []}, u'edge': {u'target': [], u'time': []}}, u'click': {u'state': {u'target': [u'3'], u'time': [1759]}, u'edge': {u'target': [], u'time': []}}, u'mouseout': {u'state': {u'target': [], u'time': []}, u'edge': {u'target': [], u'time': []}}}","[2, -8, 48]","[3722, 1662, 717]",41.0,"[None, None, None]","[u'', 4, 4, -48, 48, 4, 4, -24, -24, 2, -8, 48, -24]",304261,6.0,50652.0,3.80267392762e+18,mouselab-mdp,2
"[4167, 46312, 47391]","[u'left', u'left', u'up']",training,"[u'0', u'9', u'10', u'11']","{u'mouseover': {u'state': {u'target': [], u'time': []}, u'edge': {u'target': [], u'time': []}}, u'click': {u'state': {u'target': [u'12'], u'time': [1943]}, u'edge': {u'target': [], u'time': []}}, u'mouseout': {u'state': {u'target': [], u'time': []}, u'edge': {u'target': [], u'time': []}}}","[-2, 8, -48]","[4162, 1626, 562]",-43.0,"[None, None, None]","[u'', -4, -4, -24, 24, 2, -4, 24, -48, -2, 8, -48, -48]",355911,7.0,50566.0,-1.38962569557e+18,mouselab-mdp,2
"[7757, 26080, 28378]","[u'left', u'left', u'up']",training,"[u'0', u'9', u'10', u'11']","{u'mouseover': {u'state': {u'target': [], u'time': []}, u'edge': {u'target': [], u'time': []}}, u'click': {u'state': {u'target': [u'3', u'11'], u'time': [2991, 6219]}, u'edge': {u'target': [], u'time': []}}, u'mouseout': {u'state': {u'target': [], u'time': []}, u'edge': {u'target': [], u'time': []}}}","[2, -4, 24]","[7752, 1798, 1787]",20.0,"[None, None, None]","[u'', 4, 8, -24, 48, 2, 8, -48, -48, 2, -4, 24, -48]",387843,8.0,30853.0,-6.66851853783e+18,mouselab-mdp,2
"[7570, 8677, 9578]","[u'up', u'up', u'left']",training,"[u'0', u'1', u'2', u'4']","{u'mouseover': {u'state': {u'target': [], u'time': []}, u'edge': {u'target': [], u'time': []}}, u'click': {u'state': {u'target': [u'8', u'4'], u'time': [2592, 5068]}, u'edge': {u'target': [], u'time': []}}, u'mouseout': {u'state': {u'target': [], u'time': []}, u'edge': {u'target': [], u'time': []}}}","[-2, -8, 48]","[7565, 599, 393]",36.0,"[None, None, None]","[u'', -2, -8, 24, 48, -2, 8, -24, -24, -2, -4, 24, -24]",400795,9.0,11874.0,-3.60340228201e+18,mouselab-mdp,2
"[6689, 27124, 27904]","[u'up', u'up', u'right']",training,"[u'0', u'1', u'2', u'3']","{u'mouseover': {u'state': {u'target': [], u'time': []}, u'edge': {u'target': [], u'time': []}}, u'click': {u'state': {u'target': [u'3', u'12'], u'time': [2621, 4848]}, u'edge': {u'target': [], u'time': []}}, u'mouseout': {u'state': {u'target': [], u'time': []}, u'edge': {u'target': [], u'time': []}}}","[4, -8, 24]","[6684, 3901, 282]",18.0,"[None, None, None]","[u'', 4, -8, 24, 48, 4, -8, -24, 48, -2, -8, 24, -24]",431833,10.0,29962.0,6.60860815513e+18,mouselab-mdp,2
"[15240, 15950, 18008]","[u'up', u'up', u'right']",test,"[u'0', u'1', u'2', u'3']","{u'mouseover': {u'state': {u'target': [], u'time': []}, u'edge': {u'target': [], u'time': []}}, u'click': {u'state': {u'target': [u'4', u'8', u'11', u'12', u'7', u'3'], u'time': [3139, 5251, 8610, 9625, 11303, 12399]}, u'edge': {u'target': [], u'time': []}}, u'mouseout': {u'state': {u'target': [], u'time': []}, u'edge': {u'target': [], u'time': []}}}","[2, 8, 48]","[15232, 177, 1551]",52.0,"[None, None, None]","[u'', 2, 8, 48, -24, -4, -4, -48, 24, -4, -8, -48, -24]",478859,11.0,20834.0,2.37271076103e+18,mouselab-mdp,2
"[5340, 6388, 7399]","[u'right', u'right', u'up']",test,"[u'0', u'5', u'6', u'7']","{u'mouseover': {u'state': {u'target': [], u'time': []}, u'edge': {u'target': [], u'time': []}}, u'click': {u'state': {u'target': [u'7'], u'time': [2785]}, u'edge': {u'target': [], u'time': []}}, u'mouseout': {u'state': {u'target': [], u'time': []}, u'edge': {u'target': [], u'time': []}}}","[4, 8, 48]","[5335, 524, 501]",59.0,"[None, None, None]","[u'', -2, -8, -24, -24, 4, 8, 48, 24, -2, 8, -24, -48]",490361,12.0,10426.0,4.07975241014e+18,mouselab-mdp,2
"[9238, 10447, 11787]","[u'right', u'right', u'up']",test,"[u'0', u'5', u'6', u'7']","{u'mouseover': {u'state': {u'target': [], u'time': []}, u'edge': {u'target': [], u'time': []}}, u'click': {u'state': {u'target': [u'7', u'11', u'4', u'3', u'8', u'12'], u'time': [720, 3375, 4459, 5218, 6210, 6955]}, u'edge': {u'target': [], u'time': []}}, u'mouseout': {u'state': {u'target': [], u'time': []}, u'edge': {u'target': [], u'time': []}}}","[-4, 4, 48]","[9232, 694, 828]",42.0,"[None, None, None]","[u'', 2, -4, 24, -48, -4, 4, 48, 48, 4, 4, -48, -24]",505621,13.0,14182.0,1.70803683189e+18,mouselab-mdp,2
"[13436, 14183, 16083]","[u'right', u'right', u'down']",test,"[u'0', u'5', u'6', u'8']","{u'mouseover': {u'state': {u'target': [], u'time': []}, u'edge': {u'target': [], u'time': []}}, u'click': {u'state': {u'target': [u'3', u'12', u'11', u'7', u'8'], u'time': [4906, 7287, 8825, 9849, 10661]}, u'edge': {u'target': [], u'time': []}}, u'mouseout': {u'state': {u'target': [], u'time': []}, u'edge': {u'target': [], u'time': []}}}","[-2, -8, 48]","[13431, 237, 1386]",33.0,"[None, None, None]","[u'', -4, -4, -48, -48, -2, -8, 24, 48, 2, 4, -24, -48]",525615,14.0,18909.0,-1.84824368346e+18,mouselab-mdp,2
"[4365, 5312, 6192]","[u'right', u'right', u'down']",test,"[u'0', u'5', u'6', u'8']","{u'mouseover': {u'state': {u'target': [], u'time': []}, u'edge': {u'target': [], u'time': []}}, u'click': {u'state': {u'target': [u'8'], u'time': [2433]}, u'edge': {u'target': [], u'time': []}}, u'mouseout': {u'state': {u'target': [], u'time': []}, u'edge': {u'target': [], u'time': []}}}","[-2, 4, 24]","[4356, 433, 377]",25.0,"[None, None, None]","[u'', 2, 8, 48, 24, -2, 4, 24, 24, -2, -4, -48, -24]",536206,15.0,9508.0,-8.92386760362e+18,mouselab-mdp,2
"[3563, 4869, 5790]","[u'up', u'up', u'left']",test,"[u'0', u'1', u'2', u'4']","{u'mouseover': {u'state': {u'target': [], u'time': []}, u'edge': {u'target': [], u'time': []}}, u'click': {u'state': {u'target': [u'3'], u'time': [1367]}, u'edge': {u'target': [], u'time': []}}, u'mouseout': {u'state': {u'target': [], u'time': []}, u'edge': {u'target': [], u'time': []}}}","[4, -8, 24]","[3558, 796, 415]",19.0,"[None, None, None]","[u'', 4, -8, 24, 24, 2, 4, 24, 48, -2, 4, 24, -48]",548737,16.0,11443.0,6.72269827856e+18,mouselab-mdp,2
"[4929, 6025, 6906]","[u'left', u'left', u'down']",test,"[u'0', u'9', u'10', u'12']","{u'mouseover': {u'state': {u'target': [], u'time': []}, u'edge': {u'target': [], u'time': []}}, u'click': {u'state': {u'target': [u'12'], u'time': [1549]}, u'edge': {u'target': [], u'time': []}}, u'mouseout': {u'state': {u'target': [], u'time': []}, u'edge': {u'target': [], u'time': []}}}","[-4, -8, 24]","[4924, 572, 375]",11.0,"[None, None, None]","[u'', -2, 4, 24, -24, -4, 4, -24, 24, -4, -8, -24, 24]",560169,17.0,10349.0,-3.14224207546e+18,mouselab-mdp,2
"[7291, 8100, 9070]","[u'right', u'right', u'down']",test,"[u'0', u'5', u'6', u'8']","{u'mouseover': {u'state': {u'target': [], u'time': []}, u'edge': {u'target': [], u'time': []}}, u'click': {u'state': {u'target': [u'3', u'8'], u'time': [2840, 4213]}, u'edge': {u'target': [], u'time': []}}, u'mouseout': {u'state': {u'target': [], u'time': []}, u'edge': {u'target': [], u'time': []}}}","[-4, 8, 48]","[7288, 288, 456]",50.0,"[None, None, None]","[u'', 2, 4, -24, 48, -4, 8, -48, 48, 2, -4, 24, -24]",573422,18.0,12175.0,-8.3276713645e+18,mouselab-mdp,2
"[5479, 6447, 7224]","[u'right', u'right', u'up']",test,"[u'0', u'5', u'6', u'7']","{u'mouseover': {u'state': {u'target': [], u'time': []}, u'edge': {u'target': [], u'time': []}}, u'click': {u'state': {u'target': [u'8', u'4'], u'time': [475, 2956]}, u'edge': {u'target': [], u'time': []}}, u'mouseout': {u'state': {u'target': [], u'time': []}, u'edge': {u'target': [], u'time': []}}}","[-4, 8, -48]","[5474, 448, 271]",-46.0,"[None, None, None]","[u'', -2, 4, 48, 24, -4, 8, -48, 24, 4, -8, 24, 24]",585883,19.0,11380.0,-1.46177589383e+18,mouselab-mdp,2
"[4551, 5440, 6229]","[u'right', u'right', u'up']",test,"[u'0', u'5', u'6', u'7']","{u'mouseover': {u'state': {u'target': [], u'time': []}, u'edge': {u'target': [], u'time': []}}, u'click': {u'state': {u'target': [u'7'], u'time': [2882]}, u'edge': {u'target': [], u'time': []}}, u'mouseout': {u'state': {u'target': [], u'time': []}, u'edge': {u'target': [], u'time': []}}}","[2, 4, 24]","[4545, 372, 273]",29.0,"[None, None, None]","[u'', -2, 4, -48, -24, 2, 4, 24, 24, -2, -4, 48, -24]",596627,20.0,9666.0,7.45732429498e+18,mouselab-mdp,2
"[3280, 4678, 5787]","[u'left', u'left', u'up']",test,"[u'0', u'9', u'10', u'11']","{u'mouseover': {u'state': {u'target': [], u'time': []}, u'edge': {u'target': [], u'time': []}}, u'click': {u'state': {u'target': [u'11'], u'time': [1813]}, u'edge': {u'target': [], u'time': []}}, u'mouseout': {u'state': {u'target': [], u'time': []}, u'edge': {u'target': [], u'time': []}}}","[4, 8, 24]","[3276, 878, 599]",35.0,"[None, None, None]","[u'', 2, -8, -24, 48, -2, -4, -24, -24, 4, 8, 24, 48]",608469,21.0,10751.0,6.51676073779e+18,mouselab-mdp,2
"[12296, 13303, 14331]","[u'up', u'up', u'right']",test,"[u'0', u'1', u'2', u'3']","{u'mouseover': {u'state': {u'target': [], u'time': []}, u'edge': {u'target': [], u'time': []}}, u'click': {u'state': {u'target': [u'5', u'10', u'4', u'3'], u'time': [1785, 4379, 6357, 7786]}, u'edge': {u'target': [], u'time': []}}, u'mouseout': {u'state': {u'target': [], u'time': []}, u'edge': {u'target': [], u'time': []}}}","[-2, -4, 24]","[12292, 501, 524]",14.0,"[None, None, None]","[u'', -2, -4, 24, -48, -4, 8, -24, -24, 4, -4, -48, 24]",626207,22.0,16658.0,1.39930365593e+18,mouselab-mdp,2
"[3160, 4098, 5097]","[u'right', u'right', u'down']",test,"[u'0', u'5', u'6', u'8']","{u'mouseover': {u'state': {u'target': [], u'time': []}, u'edge': {u'target': [], u'time': []}}, u'click': {u'state': {u'target': [u'8'], u'time': [1180]}, u'edge': {u'target': [], u'time': []}}, u'mouseout': {u'state': {u'target': [], u'time': []}, u'edge': {u'target': [], u'time': []}}}","[-4, 4, 24]","[3156, 428, 491]",23.0,"[None, None, None]","[u'', -4, 4, 48, -48, -4, 4, -24, 24, -4, -8, 24, 24]",635891,23.0,8594.0,-5.99530113684e+18,mouselab-mdp,2
"[2459, 3955, 5107]","[u'right', u'right', u'up']",test,"[u'0', u'5', u'6', u'7']","{u'mouseover': {u'state': {u'target': [], u'time': []}, u'edge': {u'target': [], u'time': []}}, u'click': {u'state': {u'target': [], u'time': []}, u'edge': {u'target': [], u'time': []}}, u'mouseout': {u'state': {u'target': [], u'time': []}, u'edge': {u'target': [], u'time': []}}}","[-2, 8, 24]","[2454, 982, 645]",30.0,"[None, None, None]","[u'', 2, -4, 24, -24, -2, 8, 24, 48, 4, -4, 48, 48]",646363,24.0,9401.0,5.2467434854e+18,mouselab-mdp,2
"[1213, 2312, 3332]","[u'up', u'up', u'left']",test,"[u'0', u'1', u'2', u'4']","{u'mouseover': {u'state': {u'target': [], u'time': []}, u'edge': {u'target': [], u'time': []}}, u'click': {u'state': {u'target': [], u'time': []}, u'edge': {u'target': [], u'time': []}}, u'mouseout': {u'state': {u'target': [], u'time': []}, u'edge': {u'target': [], u'time': []}}}","[2, -4, 24]","[1207, 581, 512]",22.0,"[None, None, None]","[u'', 2, -4, 48, 24, -2, -4, 24, 24, 2, -8, -24, 24]",655726,25.0,8287.0,5.56601214792e+17,mouselab-mdp,2
"[860, 1955, 2985]","[u'left', u'left', u'down']",test,"[u'0', u'9', u'10', u'12']","{u'mouseover': {u'state': {u'target': [], u'time': []}, u'edge': {u'target': [], u'time': []}}, u'click': {u'state': {u'target': [], u'time': []}, u'edge': {u'target': [], u'time': []}}, u'mouseout': {u'state': {u'target': [], u'time': []}, u'edge': {u'target': [], u'time': []}}}","[2, -8, -48]","[850, 573, 516]",-54.0,"[None, None, None]","[u'', 4, 8, -24, -24, -4, -8, -48, 48, 2, -8, -24, -48]",668417,26.0,11608.0,2.63044322054e+18,mouselab-mdp,2
"[6190, 7051, 8378]","[u'left', u'left', u'up']",test,"[u'0', u'9', u'10', u'11']","{u'mouseover': {u'state': {u'target': [], u'time': []}, u'edge': {u'target': [], u'time': []}}, u'click': {u'state': {u'target': [u'8', u'3', u'4', u'11'], u'time': [1684, 3074, 4051, 4819]}, u'edge': {u'target': [], u'time': []}}, u'mouseout': {u'state': {u'target': [], u'time': []}, u'edge': {u'target': [], u'time': []}}}","[-2, 8, 48]","[6186, 354, 825]",50.0,"[None, None, None]","[u'', 2, 4, -48, -24, -4, -8, 24, -48, -2, 8, 48, -24]",680299,27.0,10786.0,-8.80678964296e+18,mouselab-mdp,2
"[9708, 10616, 11463]","[u'left', u'left', u'down']",test,"[u'0', u'9', u'10', u'12']","{u'mouseover': {u'state': {u'target': [], u'time': []}, u'edge': {u'target': [], u'time': []}}, u'click': {u'state': {u'target': [u'12', u'11', u'8', u'7', u'3', u'4'], u'time': [2042, 3417, 4702, 5692, 6846, 7896]}, u'edge': {u'target': [], u'time': []}}, u'mouseout': {u'state': {u'target': [], u'time': []}, u'edge': {u'target': [], u'time': []}}}","[4, -8, 24]","[9704, 396, 343]",14.0,"[None, None, None]","[u'', 2, 4, 24, -24, 4, 8, -48, 24, 4, -8, -24, 24]",694678,28.0,13291.0,8.9509461883e+18,mouselab-mdp,2
"[5418, 6327, 7367]","[u'right', u'right', u'down']",test,"[u'0', u'5', u'6', u'8']","{u'mouseover': {u'state': {u'target': [], u'time': []}, u'edge': {u'target': [], u'time': []}}, u'click': {u'state': {u'target': [u'8'], u'time': [2824]}, u'edge': {u'target': [], u'time': []}}, u'mouseout': {u'state': {u'target': [], u'time': []}, u'edge': {u'target': [], u'time': []}}}","[2, 4, 24]","[5414, 388, 529]",29.0,"[None, None, None]","[u'', -2, -4, 48, -48, 2, 4, -48, 24, 4, 8, -48, 48]",706340,29.0,10583.0,-2.81709899867e+18,mouselab-mdp,2
"[5176, 6092, 6950]","[u'up', u'up', u'left']",test,"[u'0', u'1', u'2', u'4']","{u'mouseover': {u'state': {u'target': [], u'time': []}, u'edge': {u'target': [], u'time': []}}, u'click': {u'state': {u'target': [u'7', u'8', u'4'], u'time': [1379, 2320, 3743]}, u'edge': {u'target': [], u'time': []}}, u'mouseout': {u'state': {u'target': [], u'time': []}, u'edge': {u'target': [], u'time': []}}}","[-4, 8, 24]","[5169, 404, 342]",25.0,"[None, None, None]","[u'', -4, 8, 48, 24, 2, -8, -48, -24, -4, -4, 48, -24]",717281,30.0,9847.0,3.41976950562e+18,mouselab-mdp,2
"[27340, 28684, 29708]","[u'up', u'up', u'right']",pre_test,"[u'0', u'1', u'2', u'3']","{u'mouseover': {u'state': {u'target': [], u'time': []}, u'edge': {u'target': [], u'time': []}}, u'click': {u'state': {u'target': [u'5', u'9', u'1', u'10', u'6', u'2', u'4', u'3'], u'time': [7509, 10481, 12153, 16968, 18500, 19838, 24116, 25579]}, u'edge': {u'target': [], u'time': []}}, u'mouseout': {u'state': {u'target': [], u'time': []}, u'edge': {u'target': [], u'time': []}}}","[2, 8, 24]","[27332, 830, 507]",26.0,"[None, None, None]","[u'', 2, 8, 24, -24, 2, -8, -24, -24, 4, -8, 48, 48]",139240,0.0,35018.0,-3.20049588135e+18,mouselab-mdp,3
"[40633, 42120, 43273]","[u'right', u'right', u'up']",training,"[u'0', u'5', u'6', u'7']","{u'mouseover': {u'state': {u'target': [], u'time': []}, u'edge': {u'target': [], u'time': []}}, u'click': {u'state': {u'target': [u'9', u'5', u'1', u'4', u'7', u'6', u'8'], u'time': [7827, 15120, 20892, 24981, 26915, 33498, 38094]}, u'edge': {u'target': [], u'time': []}}, u'mouseout': {u'state': {u'target': [], u'time': []}, u'edge': {u'target': [], u'time': []}}}","[-2, 4, 48]","[40623, 971, 637]",43.0,"[None, None, None]","[u'', -4, 4, 24, -24, -2, 4, 48, -24, -4, -8, -48, 48]",208196,1.0,45513.0,8.58865579534e+17,mouselab-mdp,3
"[53171, 54389, 55428]","[u'up', u'up', u'right']",training,"[u'0', u'1', u'2', u'3']","{u'mouseover': {u'state': {u'target': [], u'time': []}, u'edge': {u'target': [], u'time': []}}, u'click': {u'state': {u'target': [u'5', u'11', u'12', u'10', u'7', u'3', u'1', u'2', u'9', u'4'], u'time': [7521, 11772, 16396, 16743, 21445, 25235, 31191, 32879, 37842, 46404]}, u'edge': {u'target': [], u'time': []}}, u'mouseout': {u'state': {u'target': [], u'time': []}, u'edge': {u'target': [], u'time': []}}}","[-4, 8, 48]","[53167, 697, 518]",42.0,"[None, None, None]","[u'', -4, 8, 48, 24, 2, -8, -48, -24, -4, -4, 48, -24]",266768,2.0,57491.0,3.41976950562e+18,mouselab-mdp,3
"[39631, 40480, 41359]","[u'right', u'right', u'down']",training,"[u'0', u'5', u'6', u'8']","{u'mouseover': {u'state': {u'target': [], u'time': []}, u'edge': {u'target': [], u'time': []}}, u'click': {u'state': {u'target': [u'4', u'3', u'7', u'8', u'12', u'11', u'10', u'6', u'5', u'9'], u'time': [7547, 9352, 10735, 11663, 15439, 20205, 21039, 25446, 31566, 35984]}, u'edge': {u'target': [], u'time': []}}, u'mouseout': {u'state': {u'target': [], u'time': []}, u'edge': {u'target': [], u'time': []}}}","[-2, 4, 48]","[39627, 336, 372]",40.0,"[None, None, None]","[u'', 4, 8, -24, 24, -2, 4, -24, 48, 2, -8, 24, 48]",310863,3.0,42992.0,8.86605250045e+18,mouselab-mdp,3
"[43868, 44716, 45547]","[u'up', u'up', u'left']",training,"[u'0', u'1', u'2', u'4']","{u'mouseover': {u'state': {u'target': [], u'time': []}, u'edge': {u'target': [], u'time': []}}, u'click': {u'state': {u'target': [u'11', u'7', u'4', u'10', u'2', u'1', u'8', u'12', u'3'], u'time': [1813, 4870, 6100, 17795, 21680, 29610, 31283, 34851, 42531]}, u'edge': {u'target': [], u'time': []}}, u'mouseout': {u'state': {u'target': [], u'time': []}, u'edge': {u'target': [], u'time': []}}}","[-2, -8, 48]","[43865, 336, 319]",29.0,"[None, None, None]","[u'', -2, -8, 24, 48, -2, 8, -24, -24, -2, -4, 24, -24]",360043,4.0,48107.0,-3.60340228201e+18,mouselab-mdp,3
"[19770, 20858, 21786]","[u'left', u'left', u'up']",training,"[u'0', u'9', u'10', u'11']","{u'mouseover': {u'state': {u'target': [], u'time': []}, u'edge': {u'target': [], u'time': []}}, u'click': {u'state': {u'target': [u'11', u'7', u'4', u'12', u'8', u'3', u'10'], u'time': [1885, 3060, 3777, 5884, 6806, 7675, 18207]}, u'edge': {u'target': [], u'time': []}}, u'mouseout': {u'state': {u'target': [], u'time': []}, u'edge': {u'target': [], u'time': []}}}","[-2, 8, 24]","[19765, 576, 414]",23.0,"[None, None, None]","[u'', 2, 4, -24, -48, -2, -4, -24, -24, -2, 8, 24, -24]",384409,5.0,23274.0,1.18238643611e+16,mouselab-mdp,3
"[10389, 11416, 12312]","[u'right', u'right', u'up']",training,"[u'0', u'5', u'6', u'7']","{u'mouseover': {u'state': {u'target': [], u'time': []}, u'edge': {u'target': [], u'time': []}}, u'click': {u'state': {u'target': [u'11', u'4', u'7', u'12'], u'time': [968, 2333, 3165, 9243]}, u'edge': {u'target': [], u'time': []}}, u'mouseout': {u'state': {u'target': [], u'time': []}, u'edge': {u'target': [], u'time': []}}}","[-2, -8, 48]","[10386, 516, 375]",34.0,"[None, None, None]","[u'', 4, 4, 48, -48, -2, -8, 48, -24, -4, -8, 24, -48]",399049,6.0,13591.0,-4.67008033733e+18,mouselab-mdp,3
"[5231, 6015, 6909]","[u'left', u'left', u'up']",training,"[u'0', u'9', u'10', u'11']","{u'mouseover': {u'state': {u'target': [], u'time': []}, u'edge': {u'target': [], u'time': []}}, u'click': {u'state': {u'target': [u'11', u'4'], u'time': [1678, 4396]}, u'edge': {u'target': [], u'time': []}}, u'mouseout': {u'state': {u'target': [], u'time': []}, u'edge': {u'target': [], u'time': []}}}","[4, 4, 48]","[5227, 268, 382]",54.0,"[None, None, None]","[u'', -4, -8, -48, -48, -4, -4, 48, 24, 4, 4, 48, -48]",411287,7.0,11181.0,-9.06308480017e+18,mouselab-mdp,3
"[18248, 19128, 19946]","[u'left', u'left', u'down']",training,"[u'0', u'9', u'10', u'12']","{u'mouseover': {u'state': {u'target': [], u'time': []}, u'edge': {u'target': [], u'time': []}}, u'click': {u'state': {u'target': [u'11', u'7', u'4', u'3', u'8', u'12', u'2', u'10', u'1', u'9'], u'time': [2145, 3029, 3783, 4622, 5776, 6552, 8219, 9112, 10504, 14302]}, u'edge': {u'target': [], u'time': []}}, u'mouseout': {u'state': {u'target': [], u'time': []}, u'edge': {u'target': [], u'time': []}}}","[4, -4, 24]","[18245, 362, 298]",14.0,"[None, None, None]","[u'', -2, -4, 24, -48, -4, 8, -24, -24, 4, -4, -48, 24]",433752,8.0,21401.0,1.39930365593e+18,mouselab-mdp,3
"[5095, 6009, 7016]","[u'left', u'left', u'up']",training,"[u'0', u'9', u'10', u'11']","{u'mouseover': {u'state': {u'target': [], u'time': []}, u'edge': {u'target': [], u'time': []}}, u'click': {u'state': {u'target': [u'11'], u'time': [1905]}, u'edge': {u'target': [], u'time': []}}, u'mouseout': {u'state': {u'target': [], u'time': []}, u'edge': {u'target': [], u'time': []}}}","[-4, 4, 48]","[5082, 393, 491]",47.0,"[None, None, None]","[u'', -2, -4, 48, 24, 2, 4, -48, 48, -4, 4, 48, 24]",443076,9.0,8230.0,7.94655219151e+18,mouselab-mdp,3
"[19389, 20253, 21325]","[u'right', u'right', u'up']",training,"[u'0', u'5', u'6', u'7']","{u'mouseover': {u'state': {u'target': [], u'time': []}, u'edge': {u'target': [], u'time': []}}, u'click': {u'state': {u'target': [u'11', u'7', u'3', u'2', u'6', u'1', u'5'], u'time': [3836, 5147, 8363, 12159, 12783, 13965, 16565]}, u'edge': {u'target': [], u'time': []}}, u'mouseout': {u'state': {u'target': [], u'time': []}, u'edge': {u'target': [], u'time': []}}}","[2, -4, 48]","[19382, 358, 563]",39.0,"[None, None, None]","[u'', -2, -4, 48, -24, 2, -4, 48, 24, -2, -8, -24, -24]",467412,10.0,23276.0,2.59386444745e+18,mouselab-mdp,3
"[6968, 8040, 9031]","[u'right', u'right', u'up']",test,"[u'0', u'5', u'6', u'7']","{u'mouseover': {u'state': {u'target': [], u'time': []}, u'edge': {u'target': [], u'time': []}}, u'click': {u'state': {u'target': [u'11', u'7'], u'time': [1841, 3090]}, u'edge': {u'target': [], u'time': []}}, u'mouseout': {u'state': {u'target': [], u'time': []}, u'edge': {u'target': [], u'time': []}}}","[4, -8, 48]","[6964, 553, 471]",42.0,"[None, None, None]","[u'', 2, 4, 24, -24, 4, -8, 48, -24, -4, 8, -48, 48]",966617,11.0,10775.0,5.01038116734e+18,mouselab-mdp,3
"[4813, 5661, 6511]","[u'up', u'up', u'left']",test,"[u'0', u'1', u'2', u'4']","{u'mouseover': {u'state': {u'target': [], u'time': []}, u'edge': {u'target': [], u'time': []}}, u'click': {u'state': {u'target': [u'11', u'7', u'4'], u'time': [1413, 2613, 3549]}, u'edge': {u'target': [], u'time': []}}, u'mouseout': {u'state': {u'target': [], u'time': []}, u'edge': {u'target': [], u'time': []}}}","[4, 8, 48]","[4806, 336, 338]",57.0,"[None, None, None]","[u'', 4, 8, -24, 48, 2, 8, -48, -48, 2, -4, 24, -48]",978617,12.0,10926.0,-6.66851853783e+18,mouselab-mdp,3
"[12132, 13091, 14019]","[u'left', u'left', u'down']",test,"[u'0', u'9', u'10', u'12']","{u'mouseover': {u'state': {u'target': [], u'time': []}, u'edge': {u'target': [], u'time': []}}, u'click': {u'state': {u'target': [u'11', u'7', u'4', u'3', u'8', u'12'], u'time': [4100, 5129, 5978, 7602, 9009, 10308]}, u'edge': {u'target': [], u'time': []}}, u'mouseout': {u'state': {u'target': [], u'time': []}, u'edge': {u'target': [], u'time': []}}}","[-4, 4, 48]","[12126, 438, 407]",42.0,"[None, None, None]","[u'', 2, -4, 24, -48, -4, -8, -48, -48, -4, 4, -48, 48]",995319,13.0,15619.0,2.1183359843e+18,mouselab-mdp,3
"[7270, 8132, 9091]","[u'up', u'up', u'right']",test,"[u'0', u'1', u'2', u'3']","{u'mouseover': {u'state': {u'target': [], u'time': []}, u'edge': {u'target': [], u'time': []}}, u'click': {u'state': {u'target': [u'11', u'7', u'4', u'3'], u'time': [2436, 3427, 4209, 6018]}, u'edge': {u'target': [], u'time': []}}, u'mouseout': {u'state': {u'target': [], u'time': []}, u'edge': {u'target': [], u'time': []}}}","[-2, 4, 48]","[7267, 343, 438]",46.0,"[None, None, None]","[u'', -2, 4, 48, 24, -4, 8, -48, 24, 4, -8, 24, 24]",1006951,14.0,10580.0,-1.46177589383e+18,mouselab-mdp,3
"[3822, 4588, 5437]","[u'right', u'right', u'up']",test,"[u'0', u'5', u'6', u'7']","{u'mouseover': {u'state': {u'target': [], u'time': []}, u'edge': {u'target': [], u'time': []}}, u'click': {u'state': {u'target': [u'11', u'7'], u'time': [1261, 2148]}, u'edge': {u'target': [], u'time': []}}, u'mouseout': {u'state': {u'target': [], u'time': []}, u'edge': {u'target': [], u'time': []}}}","[4, 8, 48]","[3818, 250, 338]",58.0,"[None, None, None]","[u'', -2, -8, -24, -24, 4, 8, 48, 24, -2, 8, -24, -48]",1019477,15.0,11404.0,4.07975241014e+18,mouselab-mdp,3
"[3215, 3966, 4782]","[u'left', u'left', u'up']",test,"[u'0', u'9', u'10', u'11']","{u'mouseover': {u'state': {u'target': [], u'time': []}, u'edge': {u'target': [], u'time': []}}, u'click': {u'state': {u'target': [u'11'], u'time': [1992]}, u'edge': {u'target': [], u'time': []}}, u'mouseout': {u'state': {u'target': [], u'time': []}, u'edge': {u'target': [], u'time': []}}}","[-2, 8, 48]","[3211, 240, 296]",53.0,"[None, None, None]","[u'', 4, -4, -48, -48, 4, 8, 24, -24, -2, 8, 48, -48]",1030791,16.0,10239.0,-6.97855305918e+18,mouselab-mdp,3
"[9187, 10049, 11920]","[u'left', u'left', u'up']",test,"[u'0', u'9', u'10', u'11']","{u'mouseover': {u'state': {u'target': [], u'time': []}, u'edge': {u'target': [], u'time': []}}, u'click': {u'state': {u'target': [u'11', u'7', u'4', u'3', u'12', u'8'], u'time': [1733, 2806, 3673, 4683, 5709, 6683]}, u'edge': {u'target': [], u'time': []}}, u'mouseout': {u'state': {u'target': [], u'time': []}, u'edge': {u'target': [], u'time': []}}}","[2, 4, 24]","[9178, 360, 1364]",24.0,"[None, None, None]","[u'', -2, -4, -48, -48, 2, -8, -24, -24, 2, 4, 24, 24]",1045267,17.0,13409.0,-7.65696612779e+18,mouselab-mdp,3
"[7694, 8479, 9327]","[u'left', u'left', u'down']",test,"[u'0', u'9', u'10', u'12']","{u'mouseover': {u'state': {u'target': [], u'time': []}, u'edge': {u'target': [], u'time': []}}, u'click': {u'state': {u'target': [u'11', u'7', u'4', u'3', u'12'], u'time': [2133, 3448, 4388, 5286, 6301]}, u'edge': {u'target': [], u'time': []}}, u'mouseout': {u'state': {u'target': [], u'time': []}, u'edge': {u'target': [], u'time': []}}}","[4, -8, 48]","[7690, 263, 331]",39.0,"[None, None, None]","[u'', -4, 8, -24, -48, -4, 8, -48, 48, 4, -8, -24, 48]",1056945,18.0,10637.0,-1.41484517897e+18,mouselab-mdp,3
"[2616, 3350, 4168]","[u'left', u'left', u'up']",test,"[u'0', u'9', u'10', u'11']","{u'mouseover': {u'state': {u'target': [], u'time': []}, u'edge': {u'target': [], u'time': []}}, u'click': {u'state': {u'target': [u'11'], u'time': [1497]}, u'edge': {u'target': [], u'time': []}}, u'mouseout': {u'state': {u'target': [], u'time': []}, u'edge': {u'target': [], u'time': []}}}","[4, -8, 48]","[2612, 228, 299]",43.0,"[None, None, None]","[u'', -4, 4, -24, -24, -4, -8, 24, -24, 4, -8, 48, -48]",1068370,19.0,10311.0,4.60924718032e+17,mouselab-mdp,3
"[14747, 15546, 16377]","[u'right', u'right', u'down']",test,"[u'0', u'5', u'6', u'8']","{u'mouseover': {u'state': {u'target': [], u'time': []}, u'edge': {u'target': [], u'time': []}}, u'click': {u'state': {u'target': [u'3', u'7', u'4', u'8', u'12', u'11', u'6'], u'time': [2668, 4529, 5493, 6443, 7287, 8056, 13456]}, u'edge': {u'target': [], u'time': []}}, u'mouseout': {u'state': {u'target': [], u'time': []}, u'edge': {u'target': [], u'time': []}}}","[4, 8, 24]","[14743, 285, 321]",29.0,"[None, None, None]","[u'', 2, 4, 24, -24, 4, 8, -48, 24, 4, -8, -24, 24]",1087153,20.0,17720.0,8.9509461883e+18,mouselab-mdp,3
"[3739, 4457, 5240]","[u'up', u'up', u'right']",test,"[u'0', u'1', u'2', u'3']","{u'mouseover': {u'state': {u'target': [], u'time': []}, u'edge': {u'target': [], u'time': []}}, u'click': {u'state': {u'target': [u'11', u'3'], u'time': [1726, 2710]}, u'edge': {u'target': [], u'time': []}}, u'mouseout': {u'state': {u'target': [], u'time': []}, u'edge': {u'target': [], u'time': []}}}","[-4, 4, 48]","[3731, 215, 267]",46.0,"[None, None, None]","[u'', -4, 4, 48, -48, -4, 4, -24, 24, -4, -8, 24, 24]",1097538,21.0,9321.0,-5.99530113684e+18,mouselab-mdp,3
"[5084, 5915, 6762]","[u'right', u'right', u'up']",test,"[u'0', u'5', u'6', u'7']","{u'mouseover': {u'state': {u'target': [], u'time': []}, u'edge': {u'target': [], u'time': []}}, u'click': {u'state': {u'target': [u'11', u'7'], u'time': [3034, 3970]}, u'edge': {u'target': [], u'time': []}}, u'mouseout': {u'state': {u'target': [], u'time': []}, u'edge': {u'target': [], u'time': []}}}","[-4, 4, 48]","[5080, 324, 340]",46.0,"[None, None, None]","[u'', 2, -4, 24, -48, -4, 4, 48, 48, 4, 4, -48, -24]",1108303,22.0,9691.0,1.70803683189e+18,mouselab-mdp,3
"[3178, 3978, 4794]","[u'left', u'left', u'up']",test,"[u'0', u'9', u'10', u'11']","{u'mouseover': {u'state': {u'target': [], u'time': []}, u'edge': {u'target': [], u'time': []}}, u'click': {u'state': {u'target': [u'3', u'11'], u'time': [947, 1939]}, u'edge': {u'target': [], u'time': []}}, u'mouseout': {u'state': {u'target': [], u'time': []}, u'edge': {u'target': [], u'time': []}}}","[-2, -8, 48]","[3174, 291, 296]",36.0,"[None, None, None]","[u'', -2, 8, 24, -48, 2, 4, -24, 24, -2, -8, 48, -24]",1118975,23.0,9610.0,6.28255860945e+18,mouselab-mdp,3
"[5858, 6737, 7617]","[u'right', u'right', u'up']",test,"[u'0', u'5', u'6', u'7']","{u'mouseover': {u'state': {u'target': [], u'time': []}, u'edge': {u'target': [], u'time': []}}, u'click': {u'state': {u'target': [u'4', u'11', u'7'], u'time': [2666, 3761, 4684]}, u'edge': {u'target': [], u'time': []}}, u'mouseout': {u'state': {u'target': [], u'time': []}, u'edge': {u'target': [], u'time': []}}}","[-2, -4, 48]","[5852, 360, 365]",39.0,"[None, None, None]","[u'', -4, 4, 24, 24, -2, -4, 48, -24, -4, 8, -48, 48]",1132223,24.0,12192.0,-4.8746661358e+18,mouselab-mdp,3
"[8451, 9218, 10033]","[u'right', u'right', u'down']",test,"[u'0', u'5', u'6', u'8']","{u'mouseover': {u'state': {u'target': [], u'time': []}, u'edge': {u'target': [], u'time': []}}, u'click': {u'state': {u'target': [u'4', u'7', u'11', u'3', u'12', u'8'], u'time': [1633, 2754, 3805, 5001, 6267, 7139]}, u'edge': {u'target': [], u'time': []}}, u'mouseout': {u'state': {u'target': [], u'time': []}, u'edge': {u'target': [], u'time': []}}}","[-2, -8, 48]","[8427, 248, 303]",32.0,"[None, None, None]","[u'', -4, -4, -48, -48, -2, -8, 24, 48, 2, 4, -24, -48]",1145550,25.0,12241.0,-1.84824368346e+18,mouselab-mdp,3
"[3399, 4151, 4967]","[u'right', u'right', u'up']",test,"[u'0', u'5', u'6', u'7']","{u'mouseover': {u'state': {u'target': [], u'time': []}, u'edge': {u'target': [], u'time': []}}, u'click': {u'state': {u'target': [u'4', u'7'], u'time': [1305, 2287]}, u'edge': {u'target': [], u'time': []}}, u'mouseout': {u'state': {u'target': [], u'time': []}, u'edge': {u'target': [], u'time': []}}}","[-2, 8, 48]","[3396, 242, 295]",52.0,"[None, None, None]","[u'', 2, 8, -24, -48, -2, 8, 48, 24, 4, 8, -24, -48]",1155919,26.0,9303.0,7.70857757142e+18,mouselab-mdp,3
"[2002, 2753, 3614]","[u'left', u'left', u'up']",test,"[u'0', u'9', u'10', u'11']","{u'mouseover': {u'state': {u'target': [], u'time': []}, u'edge': {u'target': [], u'time': []}}, u'click': {u'state': {u'target': [u'11'], u'time': [840]}, u'edge': {u'target': [], u'time': []}}, u'mouseout': {u'state': {u'target': [], u'time': []}, u'edge': {u'target': [], u'time': []}}}","[4, -4, 48]","[2001, 220, 358]",47.0,"[None, None, None]","[u'', 2, -4, 24, -24, -2, 8, 24, 48, 4, -4, 48, 48]",1166811,27.0,9821.0,5.2467434854e+18,mouselab-mdp,3
"[2112, 2864, 3729]","[u'left', u'left', u'up']",test,"[u'0', u'9', u'10', u'11']","{u'mouseover': {u'state': {u'target': [], u'time': []}, u'edge': {u'target': [], u'time': []}}, u'click': {u'state': {u'target': [u'11'], u'time': [879]}, u'edge': {u'target': [], u'time': []}}, u'mouseout': {u'state': {u'target': [], u'time': []}, u'edge': {u'target': [], u'time': []}}}","[4, -4, 48]","[2109, 243, 343]",47.0,"[None, None, None]","[u'', -2, -8, -48, -48, -4, -8, 24, 24, 4, -4, 48, -24]",1177820,28.0,9904.0,-3.02731726069e+18,mouselab-mdp,3
"[9060, 9939, 11364]","[u'left', u'left', u'up']",test,"[u'0', u'9', u'10', u'11']","{u'mouseover': {u'state': {u'target': [], u'time': []}, u'edge': {u'target': [], u'time': []}}, u'click': {u'state': {u'target': [u'4', u'11', u'7', u'3', u'8', u'12'], u'time': [1739, 2601, 3713, 4777, 5763, 6694]}, u'edge': {u'target': [], u'time': []}}, u'mouseout': {u'state': {u'target': [], u'time': []}, u'edge': {u'target': [], u'time': []}}}","[4, -8, 24]","[9053, 364, 909]",14.0,"[None, None, None]","[u'', -2, 4, -24, 24, -2, -4, -48, -48, 4, -8, 24, 24]",1192396,29.0,13475.0,2.82020194745e+17,mouselab-mdp,3
"[3419, 4250, 5083]","[u'left', u'left', u'up']",test,"[u'0', u'9', u'10', u'11']","{u'mouseover': {u'state': {u'target': [], u'time': []}, u'edge': {u'target': [], u'time': []}}, u'click': {u'state': {u'target': [u'11'], u'time': [2137]}, u'edge': {u'target': [], u'time': []}}, u'mouseout': {u'state': {u'target': [], u'time': []}, u'edge': {u'target': [], u'time': []}}}","[4, -8, 48]","[3417, 318, 320]",43.0,"[None, None, None]","[u'', 4, -4, -24, 24, 2, 4, -24, -48, 4, -8, 48, -48]",1201418,30.0,7945.0,4.25168764169e+18,mouselab-mdp,3
"[10857, 18553, 21005]","[u'up', u'up', u'left']",pre_test,"[u'0', u'1', u'2', u'4']","{u'mouseover': {u'state': {u'target': [], u'time': []}, u'edge': {u'target': [], u'time': []}}, u'click': {u'state': {u'target': [u'5', u'1', u'9'], u'time': [4620, 6062, 7181]}, u'edge': {u'target': [], u'time': []}}, u'mouseout': {u'state': {u'target': [], u'time': []}, u'edge': {u'target': [], u'time': []}}}","[4, -4, 24]","[10816, 7097, 1926]",21.0,"[None, None, None]","[u'', 4, -4, -48, 24, -2, -4, 24, 48, 4, -4, 48, -48]",64269,0.0,24030.0,3.20588371627e+17,mouselab-mdp,4
"[18171, 60020, 61721]","[u'up', u'up', u'left']",training,"[u'0', u'1', u'2', u'4']","{u'mouseover': {u'state': {u'target': [], u'time': []}, u'edge': {u'target': [], u'time': []}}, u'click': {u'state': {u'target': [u'1', u'9', u'5'], u'time': [4347, 11638, 17221]}, u'edge': {u'target': [], u'time': []}}, u'mouseout': {u'state': {u'target': [], u'time': []}, u'edge': {u'target': [], u'time': []}}}","[2, 4, 24]","[18142, 1303, 1155]",27.0,"[None, None, None]","[u'', 2, 4, -24, 24, 4, 8, -48, -48, -4, -4, -48, -24]",136250,1.0,63686.0,-7.78403282575e+18,mouselab-mdp,4
"[9922, 51107, 52870]","[u'right', u'right', u'up']",training,"[u'0', u'5', u'6', u'7']","{u'mouseover': {u'state': {u'target': [], u'time': []}, u'edge': {u'target': [], u'time': []}}, u'click': {u'state': {u'target': [u'5'], u'time': [7168]}, u'edge': {u'target': [], u'time': []}}, u'mouseout': {u'state': {u'target': [], u'time': []}, u'edge': {u'target': [], u'time': []}}}","[4, 8, 24]","[9907, 646, 1229]",35.0,"[None, None, None]","[u'', 4, -4, -48, -48, 4, 8, 24, -24, -2, 8, 48, -48]",192432,2.0,54920.0,-6.97855305918e+18,mouselab-mdp,4
"[2521, 46953, 48141]","[u'up', u'up', u'right']",training,"[u'0', u'1', u'2', u'3']","{u'mouseover': {u'state': {u'target': [], u'time': []}, u'edge': {u'target': [], u'time': []}}, u'click': {u'state': {u'target': [], u'time': []}, u'edge': {u'target': [], u'time': []}}, u'mouseout': {u'state': {u'target': [], u'time': []}, u'edge': {u'target': [], u'time': []}}}","[4, -4, -24]","[2500, 1854, 666]",-24.0,"[None, None, None]","[u'', 4, -4, -24, 24, 2, 4, -24, -48, 4, -8, 48, -48]",245842,3.0,52072.0,4.25168764169e+18,mouselab-mdp,4
"[9957, 54534, 55905]","[u'left', u'left', u'up']",training,"[u'0', u'9', u'10', u'11']","{u'mouseover': {u'state': {u'target': [], u'time': []}, u'edge': {u'target': [], u'time': []}}, u'click': {u'state': {u'target': [u'9'], u'time': [7794]}, u'edge': {u'target': [], u'time': []}}, u'mouseout': {u'state': {u'target': [], u'time': []}, u'edge': {u'target': [], u'time': []}}}","[4, -4, 48]","[9945, 4043, 849]",47.0,"[None, None, None]","[u'', -2, -8, -48, -48, -4, -8, 24, 24, 4, -4, 48, -24]",305636,4.0,58504.0,-3.02731726069e+18,mouselab-mdp,4
"[18876, 20139, 21670]","[u'right', u'right', u'up']",training,"[u'0', u'5', u'6', u'7']","{u'mouseover': {u'state': {u'target': [], u'time': []}, u'edge': {u'target': [], u'time': []}}, u'click': {u'state': {u'target': [u'11', u'4', u'7', u'8'], u'time': [9851, 11885, 13659, 17717]}, u'edge': {u'target': [], u'time': []}}, u'mouseout': {u'state': {u'target': [], u'time': []}, u'edge': {u'target': [], u'time': []}}}","[-2, -4, 48]","[18865, 741, 985]",38.0,"[None, None, None]","[u'', -4, 4, 24, 24, -2, -4, 48, -24, -4, 8, -48, 48]",331025,5.0,24127.0,-4.8746661358e+18,mouselab-mdp,4
"[6728, 7719, 8653]","[u'right', u'right', u'up']",training,"[u'0', u'5', u'6', u'7']","{u'mouseover': {u'state': {u'target': [], u'time': []}, u'edge': {u'target': [], u'time': []}}, u'click': {u'state': {u'target': [u'7', u'4'], u'time': [1415, 4664]}, u'edge': {u'target': [], u'time': []}}, u'mouseout': {u'state': {u'target': [], u'time': []}, u'edge': {u'target': [], u'time': []}}}","[-4, -4, 48]","[6719, 464, 398]",38.0,"[None, None, None]","[u'', -4, -8, -48, -48, -4, -4, 48, 24, 4, 4, 48, -48]",345064,6.0,12870.0,-9.06308480017e+18,mouselab-mdp,4
"[5532, 6554, 7453]","[u'left', u'left', u'down']",training,"[u'0', u'9', u'10', u'12']","{u'mouseover': {u'state': {u'target': [], u'time': []}, u'edge': {u'target': [], u'time': []}}, u'click': {u'state': {u'target': [u'12'], u'time': [1418]}, u'edge': {u'target': [], u'time': []}}, u'mouseout': {u'state': {u'target': [], u'time': []}, u'edge': {u'target': [], u'time': []}}}","[4, 4, 48]","[5519, 501, 370]",55.0,"[None, None, None]","[u'', 2, 4, 24, -24, 4, 8, 24, -24, 4, 4, 24, 48]",356275,7.0,10026.0,5.95911582726e+18,mouselab-mdp,4
"[11936, 13315, 14869]","[u'left', u'left', u'up']",training,"[u'0', u'9', u'10', u'11']","{u'mouseover': {u'state': {u'target': [], u'time': []}, u'edge': {u'target': [], u'time': []}}, u'click': {u'state': {u'target': [u'12', u'11', u'7', u'8', u'3', u'4'], u'time': [1644, 2847, 4233, 6895, 8518, 9790]}, u'edge': {u'target': [], u'time': []}}, u'mouseout': {u'state': {u'target': [], u'time': []}, u'edge': {u'target': [], u'time': []}}}","[4, -4, 24]","[11922, 837, 976]",18.0,"[None, None, None]","[u'', 2, 8, -48, -24, 2, 8, -24, -48, 4, -4, 24, -48]",375742,8.0,18129.0,4.95354184513e+17,mouselab-mdp,4
"[14444, 15348, 16271]","[u'right', u'right', u'down']",training,"[u'0', u'5', u'6', u'8']","{u'mouseover': {u'state': {u'target': [], u'time': []}, u'edge': {u'target': [], u'time': []}}, u'click': {u'state': {u'target': [u'4', u'3', u'7', u'8', u'12', u'11'], u'time': [1266, 2193, 3055, 4320, 8635, 12182]}, u'edge': {u'target': [], u'time': []}}, u'mouseout': {u'state': {u'target': [], u'time': []}, u'edge': {u'target': [], u'time': []}}}","[-2, -8, 48]","[14424, 378, 371]",32.0,"[None, None, None]","[u'', -4, -4, -48, -48, -2, -8, 24, 48, 2, 4, -24, -48]",394783,9.0,17807.0,-1.84824368346e+18,mouselab-mdp,4
"[10609, 18576, 19491]","[u'up', u'up', u'right']",training,"[u'0', u'1', u'2', u'3']","{u'mouseover': {u'state': {u'target': [], u'time': []}, u'edge': {u'target': [], u'time': []}}, u'click': {u'state': {u'target': [u'4', u'11', u'12', u'8', u'7', u'3'], u'time': [1624, 2647, 3608, 5012, 6273, 7346]}, u'edge': {u'target': [], u'time': []}}, u'mouseout': {u'state': {u'target': [], u'time': []}, u'edge': {u'target': [], u'time': []}}}","[-2, -4, 24]","[10573, 3397, 376]",12.0,"[None, None, None]","[u'', -2, -4, 24, -48, -4, 8, -24, -24, 4, -4, -48, 24]",417466,10.0,21287.0,1.39930365593e+18,mouselab-mdp,4
"[9087, 10204, 11207]","[u'up', u'up', u'left']",test,"[u'0', u'1', u'2', u'4']","{u'mouseover': {u'state': {u'target': [], u'time': []}, u'edge': {u'target': [], u'time': []}}, u'click': {u'state': {u'target': [u'4', u'11', u'12', u'8', u'7', u'3'], u'time': [1782, 2780, 3638, 4855, 5916, 6743]}, u'edge': {u'target': [], u'time': []}}, u'mouseout': {u'state': {u'target': [], u'time': []}, u'edge': {u'target': [], u'time': []}}}","[4, 4, 48]","[9078, 578, 462]",50.0,"[None, None, None]","[u'', 4, 4, -48, 48, 4, 4, -24, -24, 2, -8, 48, -24]",444078,11.0,12740.0,3.80267392762e+18,mouselab-mdp,4
"[7432, 8448, 9890]","[u'right', u'right', u'up']",test,"[u'0', u'5', u'6', u'7']","{u'mouseover': {u'state': {u'target': [], u'time': []}, u'edge': {u'target': [], u'time': []}}, u'click': {u'state': {u'target': [u'3', u'4', u'11', u'12', u'8', u'7'], u'time': [1036, 2132, 2897, 4044, 5133, 6118]}, u'edge': {u'target': [], u'time': []}}, u'mouseout': {u'state': {u'target': [], u'time': []}, u'edge': {u'target': [], u'time': []}}}","[-4, 4, 48]","[7400, 483, 912]",42.0,"[None, None, None]","[u'', 2, -4, 24, -48, -4, 4, 48, 48, 4, 4, -48, -24]",456862,12.0,11553.0,1.70803683189e+18,mouselab-mdp,4
"[9739, 10534, 11366]","[u'left', u'left', u'down']",test,"[u'0', u'9', u'10', u'12']","{u'mouseover': {u'state': {u'target': [], u'time': []}, u'edge': {u'target': [], u'time': []}}, u'click': {u'state': {u'target': [u'3', u'4', u'11', u'12', u'8', u'7'], u'time': [1331, 2414, 3520, 4825, 7551, 8564]}, u'edge': {u'target': [], u'time': []}}, u'mouseout': {u'state': {u'target': [], u'time': []}, u'edge': {u'target': [], u'time': []}}}","[-4, 4, 48]","[9731, 260, 288]",42.0,"[None, None, None]","[u'', 2, -4, 24, -48, -4, -8, -48, -48, -4, 4, -48, 48]",470748,13.0,12667.0,2.1183359843e+18,mouselab-mdp,4
"[10585, 11562, 12564]","[u'right', u'right', u'down']",test,"[u'0', u'5', u'6', u'8']","{u'mouseover': {u'state': {u'target': [], u'time': []}, u'edge': {u'target': [], u'time': []}}, u'click': {u'state': {u'target': [u'12', u'11', u'4', u'3', u'7', u'8'], u'time': [1978, 3216, 4031, 4912, 6288, 7404]}, u'edge': {u'target': [], u'time': []}}, u'mouseout': {u'state': {u'target': [], u'time': []}, u'edge': {u'target': [], u'time': []}}}","[4, 8, 24]","[10566, 427, 470]",30.0,"[None, None, None]","[u'', 2, 4, 24, -24, 4, 8, -48, 24, 4, -8, -24, 24]",485908,14.0,13905.0,8.9509461883e+18,mouselab-mdp,4
"[7152, 7972, 8813]","[u'right', u'right', u'down']",test,"[u'0', u'5', u'6', u'8']","{u'mouseover': {u'state': {u'target': [], u'time': []}, u'edge': {u'target': [], u'time': []}}, u'click': {u'state': {u'target': [u'4', u'11', u'12', u'8'], u'time': [1979, 3217, 4397, 5861]}, u'edge': {u'target': [], u'time': []}}, u'mouseout': {u'state': {u'target': [], u'time': []}, u'edge': {u'target': [], u'time': []}}}","[2, 4, 48]","[7141, 278, 300]",50.0,"[None, None, None]","[u'', 4, -8, 24, 24, 2, 4, 24, 48, -2, 4, 24, -48]",497218,15.0,10096.0,6.72269827856e+18,mouselab-mdp,4
"[8049, 8864, 9793]","[u'up', u'up', u'right']",test,"[u'0', u'1', u'2', u'3']","{u'mouseover': {u'state': {u'target': [], u'time': []}, u'edge': {u'target': [], u'time': []}}, u'click': {u'state': {u'target': [u'7', u'8', u'12', u'11', u'4', u'3'], u'time': [1455, 2432, 3695, 4755, 5800, 6898]}, u'edge': {u'target': [], u'time': []}}, u'mouseout': {u'state': {u'target': [], u'time': []}, u'edge': {u'target': [], u'time': []}}}","[-2, 4, 48]","[8035, 285, 390]",44.0,"[None, None, None]","[u'', -2, 4, 48, 24, -4, 8, -48, 24, 4, -8, 24, 24]",509816,16.0,11311.0,-1.46177589383e+18,mouselab-mdp,4
"[4572, 5253, 6357]","[u'left', u'left', u'up']",test,"[u'0', u'9', u'10', u'11']","{u'mouseover': {u'state': {u'target': [], u'time': []}, u'edge': {u'target': [], u'time': []}}, u'click': {u'state': {u'target': [u'3', u'4', u'11'], u'time': [871, 1983, 2828]}, u'edge': {u'target': [], u'time': []}}, u'mouseout': {u'state': {u'target': [], u'time': []}, u'edge': {u'target': [], u'time': []}}}","[-2, -8, 48]","[4561, 151, 565]",35.0,"[None, None, None]","[u'', -2, 8, 24, -48, 2, 4, -24, 24, -2, -8, 48, -24]",519691,17.0,8624.0,6.28255860945e+18,mouselab-mdp,4
"[9803, 10606, 11352]","[u'up', u'up', u'right']",test,"[u'0', u'1', u'2', u'3']","{u'mouseover': {u'state': {u'target': [], u'time': []}, u'edge': {u'target': [], u'time': []}}, u'click': {u'state': {u'target': [u'12', u'7', u'8', u'3', u'4', u'11'], u'time': [1355, 3387, 4566, 5891, 6998, 7924]}, u'edge': {u'target': [], u'time': []}}, u'mouseout': {u'state': {u'target': [], u'time': []}, u'edge': {u'target': [], u'time': []}}}","[2, -4, 24]","[9780, 273, 220]",16.0,"[None, None, None]","[u'', 2, -4, 24, 24, -4, 4, -24, -24, -2, 4, -24, -48]",533969,18.0,12965.0,7.86254308938e+18,mouselab-mdp,4
"[4261, 5103, 6363]","[u'right', u'right', u'up']",test,"[u'0', u'5', u'6', u'7']","{u'mouseover': {u'state': {u'target': [], u'time': []}, u'edge': {u'target': [], u'time': []}}, u'click': {u'state': {u'target': [u'4', u'3', u'7'], u'time': [1347, 2284, 3110]}, u'edge': {u'target': [], u'time': []}}, u'mouseout': {u'state': {u'target': [], u'time': []}, u'edge': {u'target': [], u'time': []}}}","[4, 8, 48]","[4249, 317, 718]",57.0,"[None, None, None]","[u'', -2, -8, -24, -24, 4, 8, 48, 24, -2, 8, -24, -48]",542869,19.0,7709.0,4.07975241014e+18,mouselab-mdp,4
"[5691, 6419, 7210]","[u'up', u'up', u'right']",test,"[u'0', u'1', u'2', u'3']","{u'mouseover': {u'state': {u'target': [], u'time': []}, u'edge': {u'target': [], u'time': []}}, u'click': {u'state': {u'target': [u'8', u'7', u'3'], u'time': [1448, 2863, 4246]}, u'edge': {u'target': [], u'time': []}}, u'mouseout': {u'state': {u'target': [], u'time': []}, u'edge': {u'target': [], u'time': []}}}","[2, 8, 48]","[5644, 208, 272]",55.0,"[None, None, None]","[u'', 2, 8, 48, 24, -2, 4, 24, 24, -2, -4, -48, -24]",552619,20.0,8496.0,-8.92386760362e+18,mouselab-mdp,4
"[6011, 6778, 7728]","[u'left', u'left', u'up']",test,"[u'0', u'9', u'10', u'11']","{u'mouseover': {u'state': {u'target': [], u'time': []}, u'edge': {u'target': [], u'time': []}}, u'click': {u'state': {u'target': [u'3', u'4', u'11'], u'time': [2130, 3383, 4575]}, u'edge': {u'target': [], u'time': []}}, u'mouseout': {u'state': {u'target': [], u'time': []}, u'edge': {u'target': [], u'time': []}}}","[-2, -4, 48]","[6000, 241, 409]",39.0,"[None, None, None]","[u'', -2, 4, -48, -24, 2, 4, 24, 24, -2, -4, 48, -24]",563370,21.0,9482.0,7.45732429498e+18,mouselab-mdp,4
"[3183, 3850, 4558]","[u'left', u'left', u'down']",test,"[u'0', u'9', u'10', u'12']","{u'mouseover': {u'state': {u'target': [], u'time': []}, u'edge': {u'target': [], u'time': []}}, u'click': {u'state': {u'target': [u'12'], u'time': [1878]}, u'edge': {u'target': [], u'time': []}}, u'mouseout': {u'state': {u'target': [], u'time': []}, u'edge': {u'target': [], u'time': []}}}","[2, -8, 48]","[3162, 143, 179]",41.0,"[None, None, None]","[u'', 4, 8, -24, 24, -2, 4, -24, 48, 2, -8, 24, 48]",574240,22.0,9603.0,8.86605250045e+18,mouselab-mdp,4
"[8431, 9276, 10145]","[u'left', u'left', u'down']",test,"[u'0', u'9', u'10', u'12']","{u'mouseover': {u'state': {u'target': [], u'time': []}, u'edge': {u'target': [], u'time': []}}, u'click': {u'state': {u'target': [u'12', u'11', u'4', u'3', u'7', u'8'], u'time': [813, 2193, 3447, 4460, 5451, 6626]}, u'edge': {u'target': [], u'time': []}}, u'mouseout': {u'state': {u'target': [], u'time': []}, u'edge': {u'target': [], u'time': []}}}","[-4, -8, 24]","[8414, 320, 339]",6.0,"[None, None, None]","[u'', -2, 4, 24, -24, -4, 4, -24, 24, -4, -8, -24, 24]",587697,23.0,12228.0,-3.14224207546e+18,mouselab-mdp,4
"[9652, 10481, 11683]","[u'right', u'right', u'up']",test,"[u'0', u'5', u'6', u'7']","{u'mouseover': {u'state': {u'target': [], u'time': []}, u'edge': {u'target': [], u'time': []}}, u'click': {u'state': {u'target': [u'3', u'4', u'11', u'12', u'8', u'7'], u'time': [1364, 2703, 4533, 5998, 7109, 8352]}, u'edge': {u'target': [], u'time': []}}, u'mouseout': {u'state': {u'target': [], u'time': []}, u'edge': {u'target': [], u'time': []}}}","[-4, 8, 48]","[9639, 300, 661]",46.0,"[None, None, None]","[u'', -2, 8, -24, 24, -4, 8, 48, 24, -2, -4, 24, -48]",602858,24.0,13927.0,2.56147591953e+18,mouselab-mdp,4
"[6905, 7720, 9517]","[u'left', u'left', u'up']",test,"[u'0', u'9', u'10', u'11']","{u'mouseover': {u'state': {u'target': [], u'time': []}, u'edge': {u'target': [], u'time': []}}, u'click': {u'state': {u'target': [u'8', u'7', u'3', u'4', u'11'], u'time': [1556, 2607, 3525, 4550, 5422]}, u'edge': {u'target': [], u'time': []}}, u'mouseout': {u'state': {u'target': [], u'time': []}, u'edge': {u'target': [], u'time': []}}}","[4, -8, 48]","[6894, 283, 1270]",39.0,"[None, None, None]","[u'', 2, 8, 24, -24, 2, -8, -24, -24, 4, -8, 48, 48]",615248,25.0,11169.0,-3.20049588135e+18,mouselab-mdp,4
"[6045, 6807, 8606]","[u'left', u'left', u'up']",test,"[u'0', u'9', u'10', u'11']","{u'mouseover': {u'state': {u'target': [], u'time': []}, u'edge': {u'target': [], u'time': []}}, u'click': {u'state': {u'target': [u'7', u'8', u'11'], u'time': [2563, 3675, 4876]}, u'edge': {u'target': [], u'time': []}}, u'mouseout': {u'state': {u'target': [], u'time': []}, u'edge': {u'target': [], u'time': []}}}","[4, -8, 48]","[6033, 231, 1235]",41.0,"[None, None, None]","[u'', -4, 4, -24, -24, -4, -8, 24, -24, 4, -8, 48, -48]",626603,26.0,10172.0,4.60924718032e+17,mouselab-mdp,4
"[7047, 7773, 8572]","[u'right', u'right', u'down']",test,"[u'0', u'5', u'6', u'8']","{u'mouseover': {u'state': {u'target': [], u'time': []}, u'edge': {u'target': [], u'time': []}}, u'click': {u'state': {u'target': [u'11', u'4', u'3', u'8'], u'time': [980, 2703, 4008, 5423]}, u'edge': {u'target': [], u'time': []}}, u'mouseout': {u'state': {u'target': [], u'time': []}, u'edge': {u'target': [], u'time': []}}}","[-2, 8, 48]","[7038, 209, 268]",50.0,"[None, None, None]","[u'', -4, -8, 24, -24, -2, 8, 24, 48, 4, -4, 24, -48]",638704,27.0,10749.0,-1.10044903072e+18,mouselab-mdp,4
"[4190, 5074, 5992]","[u'up', u'up', u'right']",test,"[u'0', u'1', u'2', u'3']","{u'mouseover': {u'state': {u'target': [], u'time': []}, u'edge': {u'target': [], u'time': []}}, u'click': {u'state': {u'target': [u'4', u'3'], u'time': [1820, 2893]}, u'edge': {u'target': [], u'time': []}}, u'mouseout': {u'state': {u'target': [], u'time': []}, u'edge': {u'target': [], u'time': []}}}","[4, -4, 48]","[4181, 340, 383]",46.0,"[None, None, None]","[u'', 4, -4, 48, -48, -2, -8, 24, 24, -2, 4, 48, -48]",648409,28.0,8371.0,8.0458297312e+18,mouselab-mdp,4
"[5947, 6829, 8111]","[u'up', u'up', u'left']",test,"[u'0', u'1', u'2', u'4']","{u'mouseover': {u'state': {u'target': [], u'time': []}, u'edge': {u'target': [], u'time': []}}, u'click': {u'state': {u'target': [u'12', u'11', u'4'], u'time': [1820, 2878, 4633]}, u'edge': {u'target': [], u'time': []}}, u'mouseout': {u'state': {u'target': [], u'time': []}, u'edge': {u'target': [], u'time': []}}}","[-2, -8, 48]","[5922, 354, 749]",35.0,"[None, None, None]","[u'', -2, -8, 24, 48, -2, 8, -24, -24, -2, -4, 24, -24]",659466,29.0,9810.0,-3.60340228201e+18,mouselab-mdp,4
"[10295, 11003, 11972]","[u'left', u'left', u'up']",test,"[u'0', u'9', u'10', u'11']","{u'mouseover': {u'state': {u'target': [], u'time': []}, u'edge': {u'target': [], u'time': []}}, u'click': {u'state': {u'target': [u'8', u'4', u'12', u'3', u'11', u'7'], u'time': [1778, 3298, 4522, 5630, 6907, 8128]}, u'edge': {u'target': [], u'time': []}}, u'mouseout': {u'state': {u'target': [], u'time': []}, u'edge': {u'target': [], u'time': []}}}","[-2, 8, 24]","[10283, 168, 438]",24.0,"[None, None, None]","[u'', 2, 4, -24, -48, -2, -4, -24, -24, -2, 8, 24, -24]",674897,30.0,14034.0,1.18238643611e+16,mouselab-mdp,4
"[29968, 30639, 31391]","[u'left', u'left', u'up']",pre_test,"[u'0', u'9', u'10', u'11']","{u'mouseover': {u'state': {u'target': [], u'time': []}, u'edge': {u'target': [], u'time': []}}, u'click': {u'state': {u'target': [u'5', u'6', u'8', u'7', u'1', u'2', u'3', u'4', u'9', u'10', u'11', u'12'], u'time': [8783, 10470, 11140, 12140, 14285, 14958, 15460, 16340, 19222, 19718, 20196, 20860]}, u'edge': {u'target': [], u'time': []}}, u'mouseout': {u'state': {u'target': [], u'time': []}, u'edge': {u'target': [], u'time': []}}}","[4, -8, 48]","[29960, 122, 238]",32.0,"[None, None, None]","[u'', 4, -4, -24, 24, 2, 4, -24, -48, 4, -8, 48, -48]",68692,0.0,35887.0,4.25168764169e+18,mouselab-mdp,5
"[19028, 19972, 20660]","[u'up', u'up', u'left']",training,"[u'0', u'1', u'2', u'4']","{u'mouseover': {u'state': {u'target': [], u'time': []}, u'edge': {u'target': [], u'time': []}}, u'click': {u'state': {u'target': [u'5', u'6', u'8', u'7', u'1', u'2', u'3', u'4', u'9', u'10', u'11', u'12'], u'time': [2394, 2977, 3448, 4064, 4722, 5258, 5913, 6539, 7155, 7659, 8097, 8713]}, u'edge': {u'target': [], u'time': []}}, u'mouseout': {u'state': {u'target': [], u'time': []}, u'edge': {u'target': [], u'time': []}}}","[-2, -8, 48]","[19022, 394, 147]",26.0,"[None, None, None]","[u'', -2, -8, 24, 48, -2, 8, -24, -24, -2, -4, 24, -24]",99115,1.0,22716.0,-3.60340228201e+18,mouselab-mdp,5
"[11084, 11827, 12507]","[u'left', u'left', u'up']",training,"[u'0', u'9', u'10', u'11']","{u'mouseover': {u'state': {u'target': [], u'time': []}, u'edge': {u'target': [], u'time': []}}, u'click': {u'state': {u'target': [u'12', u'10', u'11', u'9', u'1', u'2', u'4', u'3', u'5', u'6', u'8', u'7'], u'time': [1184, 1593, 2017, 2497, 3113, 3577, 4207, 4824, 5275, 5770, 6152, 6664]}, u'edge': {u'target': [], u'time': []}}, u'mouseout': {u'state': {u'target': [], u'time': []}, u'edge': {u'target': [], u'time': []}}}","[4, -4, 24]","[11078, 193, 140]",12.0,"[None, None, None]","[u'', 2, 8, -48, -24, 2, 8, -24, -48, 4, -4, 24, -48]",114219,2.0,13940.0,4.95354184513e+17,mouselab-mdp,5
"[22537, 23185, 23841]","[u'up', u'up', u'left']",training,"[u'0', u'1', u'2', u'4']","{u'mouseover': {u'state': {u'target': [], u'time': []}, u'edge': {u'target': [], u'time': []}}, u'click': {u'state': {u'target': [u'9', u'10', u'11', u'12', u'1', u'2', u'4', u'3', u'7', u'6', u'5', u'8'], u'time': [974, 1454, 1870, 2486, 3093, 3534, 3996, 4541, 4974, 5359, 6031, 6510]}, u'edge': {u'target': [], u'time': []}}, u'mouseout': {u'state': {u'target': [], u'time': []}, u'edge': {u'target': [], u'time': []}}}","[-2, 4, 24]","[22533, 101, 140]",14.0,"[None, None, None]","[u'', -2, 4, -24, 24, -2, -4, -48, -48, 4, -8, 24, 24]",140570,3.0,25152.0,2.82020194745e+17,mouselab-mdp,5
"[9642, 10298, 11050]","[u'left', u'left', u'up']",training,"[u'0', u'9', u'10', u'11']","{u'mouseover': {u'state': {u'target': [], u'time': []}, u'edge': {u'target': [], u'time': []}}, u'click': {u'state': {u'target': [u'12', u'10', u'11', u'9', u'1', u'2', u'5', u'3', u'4', u'7', u'6', u'8'], u'time': [622, 1079, 1623, 2184, 2701, 3118, 3750, 4382, 4911, 5647, 6287, 6910]}, u'edge': {u'target': [], u'time': []}}, u'mouseout': {u'state': {u'target': [], u'time': []}, u'edge': {u'target': [], u'time': []}}}","[4, -4, 48]","[9637, 132, 234]",36.0,"[None, None, None]","[u'', -2, -8, -48, -48, -4, -8, 24, 24, 4, -4, 48, -24]",154009,4.0,12290.0,-3.02731726069e+18,mouselab-mdp,5
"[23542, 24205, 24829]","[u'right', u'right', u'up']",training,"[u'0', u'5', u'6', u'7']","{u'mouseover': {u'state': {u'target': [], u'time': []}, u'edge': {u'target': [], u'time': []}}, u'click': {u'state': {u'target': [u'11', u'10', u'12', u'9', u'1', u'2', u'4', u'3', u'5', u'7', u'6', u'8'], u'time': [961, 1507, 2066, 2589, 3090, 3707, 4179, 4820, 5772, 6235, 6724, 7243]}, u'edge': {u'target': [], u'time': []}}, u'mouseout': {u'state': {u'target': [], u'time': []}, u'edge': {u'target': [], u'time': []}}}","[2, -4, 24]","[23536, 122, 95]",10.0,"[None, None, None]","[u'', -4, -4, -24, 24, 2, -4, 24, -48, -2, 8, -48, -48]",180992,5.0,25821.0,-1.38962569557e+18,mouselab-mdp,5
"[10651, 11259, 11931]","[u'up', u'up', u'right']",training,"[u'0', u'1', u'2', u'3']","{u'mouseover': {u'state': {u'target': [], u'time': []}, u'edge': {u'target': [], u'time': []}}, u'click': {u'state': {u'target': [u'12', u'11', u'4', u'3', u'7', u'8'], u'time': [2670, 3142, 3759, 4270, 5015, 5624]}, u'edge': {u'target': [], u'time': []}}, u'mouseout': {u'state': {u'target': [], u'time': []}, u'edge': {u'target': [], u'time': []}}}","[4, 4, 48]","[10646, 85, 140]",50.0,"[None, None, None]","[u'', 4, 4, 48, -48, -2, -8, 48, -24, -4, -8, 24, -48]",195816,6.0,13651.0,-4.67008033733e+18,mouselab-mdp,5
"[5693, 6317, 7093]","[u'up', u'up', u'right']",training,"[u'0', u'1', u'2', u'3']","{u'mouseover': {u'state': {u'target': [], u'time': []}, u'edge': {u'target': [], u'time': []}}, u'click': {u'state': {u'target': [u'12', u'11', u'4', u'3', u'7', u'8'], u'time': [400, 944, 1392, 1912, 2512, 3410]}, u'edge': {u'target': [], u'time': []}}, u'mouseout': {u'state': {u'target': [], u'time': []}, u'edge': {u'target': [], u'time': []}}}","[-2, -4, 48]","[5685, 97, 244]",36.0,"[None, None, None]","[u'', -2, -4, 48, -24, 2, -4, 48, 24, -2, -8, -24, -24]",205600,7.0,8645.0,2.59386444745e+18,mouselab-mdp,5
"[4614, 5302, 5966]","[u'right', u'right', u'down']",training,"[u'0', u'5', u'6', u'8']","{u'mouseover': {u'state': {u'target': [], u'time': []}, u'edge': {u'target': [], u'time': []}}, u'click': {u'state': {u'target': [u'12', u'11', u'4', u'3', u'7', u'8'], u'time': [674, 1282, 1850, 2362, 2954, 3666]}, u'edge': {u'target': [], u'time': []}}, u'mouseout': {u'state': {u'target': [], u'time': []}, u'edge': {u'target': [], u'time': []}}}","[-2, 8, 48]","[4610, 159, 123]",48.0,"[None, None, None]","[u'', -4, -8, 24, -24, -2, 8, 24, 48, 4, -4, 24, -48]",216415,8.0,9750.0,-1.10044903072e+18,mouselab-mdp,5
"[6808, 7400, 8064]","[u'up', u'up', u'right']",training,"[u'0', u'1', u'2', u'3']","{u'mouseover': {u'state': {u'target': [], u'time': []}, u'edge': {u'target': [], u'time': []}}, u'click': {u'state': {u'target': [u'11', u'12', u'4', u'3', u'7', u'8'], u'time': [340, 1123, 1923, 2435, 2979, 3523]}, u'edge': {u'target': [], u'time': []}}, u'mouseout': {u'state': {u'target': [], u'time': []}, u'edge': {u'target': [], u'time': []}}}","[-2, -4, 24]","[6804, 49, 146]",12.0,"[None, None, None]","[u'', -2, -4, 24, -48, -4, 8, -24, -24, 4, -4, -48, 24]",226791,9.0,9232.0,1.39930365593e+18,mouselab-mdp,5
"[5355, 5955, 6570]","[u'left', u'left', u'down']",training,"[u'0', u'9', u'10', u'12']","{u'mouseover': {u'state': {u'target': [], u'time': []}, u'edge': {u'target': [], u'time': []}}, u'click': {u'state': {u'target': [u'12', u'11', u'4', u'3', u'7', u'8'], u'time': [918, 1517, 2006, 2829, 3750, 4455]}, u'edge': {u'target': [], u'time': []}}, u'mouseout': {u'state': {u'target': [], u'time': []}, u'edge': {u'target': [], u'time': []}}}","[-4, -8, 48]","[5350, 76, 91]",30.0,"[None, None, None]","[u'', -4, 4, 24, -24, -2, 4, 48, -24, -4, -8, -48, 48]",236374,10.0,8442.0,8.58865579534e+17,mouselab-mdp,5
"[5582, 6158, 6830]","[u'right', u'right', u'down']",test,"[u'0', u'5', u'6', u'8']","{u'mouseover': {u'state': {u'target': [], u'time': []}, u'edge': {u'target': [], u'time': []}}, u'click': {u'state': {u'target': [u'11', u'12', u'4', u'3', u'7', u'8'], u'time': [1417, 1937, 2481, 3025, 3553, 4177]}, u'edge': {u'target': [], u'time': []}}, u'mouseout': {u'state': {u'target': [], u'time': []}, u'edge': {u'target': [], u'time': []}}}","[2, 4, 48]","[5575, 30, 152]",48.0,"[None, None, None]","[u'', 4, -8, 24, 24, 2, 4, 24, 48, -2, 4, 24, -48]",262254,11.0,9534.0,6.72269827856e+18,mouselab-mdp,5
"[4236, 4811, 5475]","[u'up', u'up', u'left']",test,"[u'0', u'1', u'2', u'4']","{u'mouseover': {u'state': {u'target': [], u'time': []}, u'edge': {u'target': [], u'time': []}}, u'click': {u'state': {u'target': [u'11', u'12', u'4', u'3', u'7', u'8'], u'time': [287, 775, 1318, 1824, 2319, 2983]}, u'edge': {u'target': [], u'time': []}}, u'mouseout': {u'state': {u'target': [], u'time': []}, u'edge': {u'target': [], u'time': []}}}","[2, 4, 48]","[4230, 39, 136]",48.0,"[None, None, None]","[u'', 2, 4, -24, 48, -4, 8, -48, 48, 2, -4, 24, -24]",272813,12.0,9403.0,-8.3276713645e+18,mouselab-mdp,5
"[3977, 4577, 5169]","[u'up', u'up', u'left']",test,"[u'0', u'1', u'2', u'4']","{u'mouseover': {u'state': {u'target': [], u'time': []}, u'edge': {u'target': [], u'time': []}}, u'click': {u'state': {u'target': [u'11', u'12', u'4', u'3', u'7', u'8'], u'time': [292, 884, 1579, 2116, 2556, 3052]}, u'edge': {u'target': [], u'time': []}}, u'mouseout': {u'state': {u'target': [], u'time': []}, u'edge': {u'target': [], u'time': []}}}","[4, 4, 48]","[3973, 57, 64]",50.0,"[None, None, None]","[u'', 4, 4, -48, 48, -2, 4, -48, -24, -2, -4, -48, 24]",282365,13.0,8385.0,-5.00680981918e+18,mouselab-mdp,5
"[4345, 4906, 5537]","[u'up', u'up', u'right']",test,"[u'0', u'1', u'2', u'3']","{u'mouseover': {u'state': {u'target': [], u'time': []}, u'edge': {u'target': [], u'time': []}}, u'click': {u'state': {u'target': [u'12', u'11', u'4', u'3', u'7', u'8'], u'time': [636, 1188, 1780, 2349, 2812, 3372]}, u'edge': {u'target': [], u'time': []}}, u'mouseout': {u'state': {u'target': [], u'time': []}, u'edge': {u'target': [], u'time': []}}}","[-4, 4, 48]","[4339, 24, 120]",42.0,"[None, None, None]","[u'', -4, 4, 48, -48, -4, 4, -24, 24, -4, -8, 24, 24]",292765,14.0,9328.0,-5.99530113684e+18,mouselab-mdp,5
