A11C01B5PXL1QW:3AMW0RGHOD2G3VP2TXZFZUZ55ESPNU,0,1522870541216,"{""rt"": 26562, ""trial_type"": ""survey-text"", ""responses"": ""{\""Q0\"":\""male\"",\""Q1\"":\""28\"",\""Q2\"":\""United States\"",\""Q3\"":\""self-employed\"",\""Q4\"":\""3\""}"", ""internal_node_id"": ""0.0-0.0"", ""time_elapsed"": 26714, ""trial_index"": 0}"
A11C01B5PXL1QW:3AMW0RGHOD2G3VP2TXZFZUZ55ESPNU,1,1522870544062,"{""rt"": 1838, ""trial_type"": ""text"", ""internal_node_id"": ""0.0-2.0"", ""time_elapsed"": 29562, ""key_press"": 32, ""trial_index"": 1}"
A12SMSQ6D5227J:3IOEN3P9S7J5FI089E28WNVL78X16S,0,1522869716567,"{""rt"": 9631, ""trial_type"": ""survey-text"", ""responses"": ""{\""Q0\"":\""female\"",\""Q1\"":\""36\"",\""Q2\"":\""USA\"",\""Q3\"":\""self employed\"",\""Q4\"":\""4\""}"", ""internal_node_id"": ""0.0-0.0"", ""time_elapsed"": 9642, ""trial_index"": 0}"
A12SMSQ6D5227J:3IOEN3P9S7J5FI089E28WNVL78X16S,1,1522869720039,"{""rt"": 2468, ""trial_type"": ""text"", ""internal_node_id"": ""0.0-2.0"", ""time_elapsed"": 13114, ""key_press"": 32, ""trial_index"": 1}"
A13V95MSIU0JN3:3WYP994K17R25OBBL39HAA6VEUEY6X,0,1522885453693,"{""rt"": 69978, ""trial_type"": ""survey-text"", ""responses"": ""{\""Q0\"":\""Male\"",\""Q1\"":\""25\"",\""Q2\"":\""United States\"",\""Q3\"":\""Full-Time Student/Part-Time Employment\"",\""Q4\"":\""1\""}"", ""internal_node_id"": ""0.0-0.0"", ""time_elapsed"": 69992, ""trial_index"": 0}"
A13V95MSIU0JN3:3WYP994K17R25OBBL39HAA6VEUEY6X,1,1522885458912,"{""rt"": 4216, ""trial_type"": ""text"", ""internal_node_id"": ""0.0-2.0"", ""time_elapsed"": 75212, ""key_press"": 32, ""trial_index"": 1}"
A15A09BRS1Q8W0:33F859I566DMP52H7UM1ZQXK2Y4BHM,0,1522873400848,"{""rt"": 12242, ""trial_type"": ""survey-text"", ""responses"": ""{\""Q0\"":\""male\"",\""Q1\"":\""31\"",\""Q2\"":\""usa\"",\""Q3\"":\""full-time\"",\""Q4\"":\""2\""}"", ""internal_node_id"": ""0.0-0.0"", ""time_elapsed"": 12287, ""trial_index"": 0}"
A15A09BRS1Q8W0:33F859I566DMP52H7UM1ZQXK2Y4BHM,1,1522873403496,"{""rt"": 1641, ""trial_type"": ""text"", ""internal_node_id"": ""0.0-2.0"", ""time_elapsed"": 14937, ""key_press"": 32, ""trial_index"": 1}"
A1768BFPFQ8AP1:339ANSOTR52NE3HVJPHFY5HPP5SIK6,0,1522869679184,"{""rt"": 19155, ""trial_type"": ""survey-text"", ""responses"": ""{\""Q0\"":\""Male\"",\""Q1\"":\""30\"",\""Q2\"":\""USA\"",\""Q3\"":\""Employed Full-Time\"",\""Q4\"":\""3\""}"", ""internal_node_id"": ""0.0-0.0"", ""time_elapsed"": 19166, ""trial_index"": 0}"
A1768BFPFQ8AP1:339ANSOTR52NE3HVJPHFY5HPP5SIK6,1,1522869687311,"{""rt"": 7125, ""trial_type"": ""text"", ""internal_node_id"": ""0.0-2.0"", ""time_elapsed"": 27293, ""key_press"": 32, ""trial_index"": 1}"
A1CLCA00V8025R:3K4J6M3CXET36Z2EHA4NJF1D5G6AGR,0,1522869445633,"{""rt"": 14117, ""trial_type"": ""survey-text"", ""responses"": ""{\""Q0\"":\""Male\"",\""Q1\"":\""50\"",\""Q2\"":\""USA\"",\""Q3\"":\""Employed full time\"",\""Q4\"":\""1\""}"", ""internal_node_id"": ""0.0-0.0"", ""time_elapsed"": 14131, ""trial_index"": 0}"
A1CLCA00V8025R:3K4J6M3CXET36Z2EHA4NJF1D5G6AGR,1,1522869463359,"{""rt"": 16716, ""trial_type"": ""text"", ""internal_node_id"": ""0.0-1.0-0.0"", ""time_elapsed"": 31858, ""key_press"": 32, ""trial_index"": 1}"
A1CLCA00V8025R:3K4J6M3CXET36Z2EHA4NJF1D5G6AGR,2,1522869478160,"{""rt"": 13791, ""trial_type"": ""text"", ""internal_node_id"": ""0.0-1.0-1.0"", ""time_elapsed"": 46659, ""key_press"": 32, ""trial_index"": 2}"
A1CLCA00V8025R:3K4J6M3CXET36Z2EHA4NJF1D5G6AGR,3,1522869485909,"{""rt"": 6743, ""trial_type"": ""text"", ""internal_node_id"": ""0.0-1.0-2.0"", ""time_elapsed"": 54407, ""key_press"": 32, ""trial_index"": 3}"
A1CLCA00V8025R:3K4J6M3CXET36Z2EHA4NJF1D5G6AGR,4,1522869505466,"{""rt"": [7579, 5716, 1384], ""trial_type"": ""mouselab-mdp"", ""trialTime"": 18299, ""rewards"": [-2, -8, -24], ""stateRewards"": ["""", 4, -8, -48, -48, -4, 4, 24, 24, -2, -8, -24, 48], ""actionTimes"": [7588, 13856, 15790], ""trial_id"": -4569496646062697500, ""time_elapsed"": 73965, ""actions"": [""left"", ""left"", ""up""], ""trialIndex"": 0, ""score"": -36, ""trial_index"": 4, ""simulationMode"": [null, null, null], ""queries"": {""mouseover"": {""state"": {""target"": [], ""time"": []}, ""edge"": {""target"": [], ""time"": []}}, ""click"": {""state"": {""target"": [""5"", ""9""], ""time"": [1373, 4210]}, ""edge"": {""target"": [], ""time"": []}}, ""mouseout"": {""state"": {""target"": [], ""time"": []}, ""edge"": {""target"": [], ""time"": []}}}, ""path"": [""0"", ""9"", ""10"", ""11""], ""internal_node_id"": ""0.0-1.0-3.0-0.0"", ""block"": ""test""}"
A1CLCA00V8025R:3K4J6M3CXET36Z2EHA4NJF1D5G6AGR,5,1522869517755,"{""rt"": [2755, 1108, 558], ""trial_type"": ""mouselab-mdp"", ""trialTime"": 11074, ""rewards"": [-2, -4, -24], ""stateRewards"": ["""", 2, 4, -24, -48, -2, -4, -24, -24, -2, 8, 24, -24], ""actionTimes"": [2765, 4442, 5550], ""trial_id"": 11823864361136648, ""time_elapsed"": 86254, ""actions"": [""right"", ""right"", ""down""], ""trialIndex"": 1, ""score"": -30, ""trial_index"": 5, ""simulationMode"": [null, null, null], ""queries"": {""mouseover"": {""state"": {""target"": [], ""time"": []}, ""edge"": {""target"": [], ""time"": []}}, ""click"": {""state"": {""target"": [], ""time"": []}, ""edge"": {""target"": [], ""time"": []}}, ""mouseout"": {""state"": {""target"": [], ""time"": []}, ""edge"": {""target"": [], ""time"": []}}}, ""path"": [""0"", ""5"", ""6"", ""8""], ""internal_node_id"": ""0.0-1.0-3.0-1.0"", ""block"": ""test""}"
A1CLCA00V8025R:3K4J6M3CXET36Z2EHA4NJF1D5G6AGR,6,1522869530114,"{""rt"": [688, 1002, 570], ""trial_type"": ""mouselab-mdp"", ""trialTime"": 11158, ""rewards"": [-4, -8, -48], ""stateRewards"": ["""", 2, -4, 24, -48, -4, -8, -48, -48, -4, 4, -48, 48], ""actionTimes"": [699, 2253, 3369], ""trial_id"": 2118335984300500500, ""time_elapsed"": 98613, ""actions"": [""right"", ""right"", ""up""], ""trialIndex"": 2, ""score"": -60, ""trial_index"": 6, ""simulationMode"": [null, null, null], ""queries"": {""mouseover"": {""state"": {""target"": [], ""time"": []}, ""edge"": {""target"": [], ""time"": []}}, ""click"": {""state"": {""target"": [], ""time"": []}, ""edge"": {""target"": [], ""time"": []}}, ""mouseout"": {""state"": {""target"": [], ""time"": []}, ""edge"": {""target"": [], ""time"": []}}}, ""path"": [""0"", ""5"", ""6"", ""7""], ""internal_node_id"": ""0.0-1.0-3.0-2.0"", ""block"": ""test""}"
A1CLCA00V8025R:3K4J6M3CXET36Z2EHA4NJF1D5G6AGR,7,1522869541071,"{""rt"": [500, 817, 611], ""trial_type"": ""mouselab-mdp"", ""trialTime"": 9750, ""rewards"": [-4, 4, 24], ""stateRewards"": ["""", -4, 4, 24, -24, -2, 4, 48, -24, -4, -8, -48, 48], ""actionTimes"": [511, 1886, 3046], ""trial_id"": 858865579533637100, ""time_elapsed"": 109570, ""actions"": [""up"", ""up"", ""right""], ""trialIndex"": 3, ""score"": 24, ""trial_index"": 7, ""simulationMode"": [null, null, null], ""queries"": {""mouseover"": {""state"": {""target"": [], ""time"": []}, ""edge"": {""target"": [], ""time"": []}}, ""click"": {""state"": {""target"": [], ""time"": []}, ""edge"": {""target"": [], ""time"": []}}, ""mouseout"": {""state"": {""target"": [], ""time"": []}, ""edge"": {""target"": [], ""time"": []}}}, ""path"": [""0"", ""1"", ""2"", ""3""], ""internal_node_id"": ""0.0-1.0-3.0-3.0"", ""block"": ""test""}"
A1CLCA00V8025R:3K4J6M3CXET36Z2EHA4NJF1D5G6AGR,8,1522869551095,"{""rt"": [404, 576, 1704], ""trial_type"": ""mouselab-mdp"", ""trialTime"": 8225, ""rewards"": [-2, 4, -48], ""stateRewards"": ["""", -2, 4, -48, -24, 2, 4, 24, 24, -2, -4, 48, -24], ""actionTimes"": [414, 1532, 3776], ""trial_id"": 7457324294976434000, ""time_elapsed"": 119593, ""actions"": [""up"", ""up"", ""right""], ""trialIndex"": 4, ""score"": -46, ""trial_index"": 8, ""simulationMode"": [null, null, null], ""queries"": {""mouseover"": {""state"": {""target"": [], ""time"": []}, ""edge"": {""target"": [], ""time"": []}}, ""click"": {""state"": {""target"": [], ""time"": []}, ""edge"": {""target"": [], ""time"": []}}, ""mouseout"": {""state"": {""target"": [], ""time"": []}, ""edge"": {""target"": [], ""time"": []}}}, ""path"": [""0"", ""1"", ""2"", ""3""], ""internal_node_id"": ""0.0-1.0-3.0-4.0"", ""block"": ""test""}"
A1CLCA00V8025R:3K4J6M3CXET36Z2EHA4NJF1D5G6AGR,9,1522869562590,"{""rt"": [463, 477, 321], ""trial_type"": ""mouselab-mdp"", ""trialTime"": 10302, ""rewards"": [2, -4, -24], ""stateRewards"": ["""", 2, -4, 24, -24, -2, 8, 24, 48, 4, -4, 48, 48], ""actionTimes"": [472, 1482, 2359], ""trial_id"": 5246743485396079000, ""time_elapsed"": 131089, ""actions"": [""up"", ""up"", ""left""], ""trialIndex"": 5, ""score"": -26, ""trial_index"": 9, ""simulationMode"": [null, null, null], ""queries"": {""mouseover"": {""state"": {""target"": [], ""time"": []}, ""edge"": {""target"": [], ""time"": []}}, ""click"": {""state"": {""target"": [], ""time"": []}, ""edge"": {""target"": [], ""time"": []}}, ""mouseout"": {""state"": {""target"": [], ""time"": []}, ""edge"": {""target"": [], ""time"": []}}}, ""path"": [""0"", ""1"", ""2"", ""4""], ""internal_node_id"": ""0.0-1.0-3.0-5.0"", ""block"": ""test""}"
A1CLCA00V8025R:3K4J6M3CXET36Z2EHA4NJF1D5G6AGR,10,1522869574597,"{""rt"": [371, 482, 403], ""trial_type"": ""mouselab-mdp"", ""trialTime"": 10777, ""rewards"": [4, -8, 48], ""stateRewards"": ["""", -4, 4, -24, -24, -4, -8, 24, -24, 4, -8, 48, -48], ""actionTimes"": [380, 1403, 2341], ""trial_id"": 460924718031657700, ""time_elapsed"": 143096, ""actions"": [""left"", ""left"", ""up""], ""trialIndex"": 6, ""score"": 44, ""trial_index"": 10, ""simulationMode"": [null, null, null], ""queries"": {""mouseover"": {""state"": {""target"": [], ""time"": []}, ""edge"": {""target"": [], ""time"": []}}, ""click"": {""state"": {""target"": [], ""time"": []}, ""edge"": {""target"": [], ""time"": []}}, ""mouseout"": {""state"": {""target"": [], ""time"": []}, ""edge"": {""target"": [], ""time"": []}}}, ""path"": [""0"", ""9"", ""10"", ""11""], ""internal_node_id"": ""0.0-1.0-3.0-6.0"", ""block"": ""test""}"
A1CLCA00V8025R:3K4J6M3CXET36Z2EHA4NJF1D5G6AGR,11,1522869586718,"{""rt"": [426, 594, 498], ""trial_type"": ""mouselab-mdp"", ""trialTime"": 10917, ""rewards"": [2, -8, -24], ""stateRewards"": ["""", 2, -4, 48, 24, -2, -4, 24, 24, 2, -8, -24, 24], ""actionTimes"": [436, 1586, 2623], ""trial_id"": 556601214791588500, ""time_elapsed"": 155216, ""actions"": [""left"", ""left"", ""up""], ""trialIndex"": 7, ""score"": -30, ""trial_index"": 11, ""simulationMode"": [null, null, null], ""queries"": {""mouseover"": {""state"": {""target"": [], ""time"": []}, ""edge"": {""target"": [], ""time"": []}}, ""click"": {""state"": {""target"": [], ""time"": []}, ""edge"": {""target"": [], ""time"": []}}, ""mouseout"": {""state"": {""target"": [], ""time"": []}, ""edge"": {""target"": [], ""time"": []}}}, ""path"": [""0"", ""9"", ""10"", ""11""], ""internal_node_id"": ""0.0-1.0-3.0-7.0"", ""block"": ""test""}"
A1CLCA00V8025R:3K4J6M3CXET36Z2EHA4NJF1D5G6AGR,12,1522869598564,"{""rt"": [4199, 407, 427], ""trial_type"": ""mouselab-mdp"", ""trialTime"": 9214, ""rewards"": [2, 4, -48], ""stateRewards"": ["""", 4, -4, -24, 24, 2, 4, -24, -48, 4, -8, 48, -48], ""actionTimes"": [4207, 5170, 6141], ""trial_id"": 4251687641687985000, ""time_elapsed"": 167063, ""actions"": [""right"", ""right"", ""down""], ""trialIndex"": 8, ""score"": -43, ""trial_index"": 12, ""simulationMode"": [null, null, null], ""queries"": {""mouseover"": {""state"": {""target"": [], ""time"": []}, ""edge"": {""target"": [], ""time"": []}}, ""click"": {""state"": {""target"": [""5""], ""time"": [2963]}, ""edge"": {""target"": [], ""time"": []}}, ""mouseout"": {""state"": {""target"": [], ""time"": []}, ""edge"": {""target"": [], ""time"": []}}}, ""path"": [""0"", ""5"", ""6"", ""8""], ""internal_node_id"": ""0.0-1.0-3.0-8.0"", ""block"": ""test""}"
A1CLCA00V8025R:3K4J6M3CXET36Z2EHA4NJF1D5G6AGR,13,1522869608555,"{""rt"": [1418, 338, 269], ""trial_type"": ""mouselab-mdp"", ""trialTime"": 8794, ""rewards"": [2, 8, -24], ""stateRewards"": ["""", 2, 8, -48, -24, 2, 8, -24, -48, 4, -4, 24, -48], ""actionTimes"": [1429, 2306, 3121], ""trial_id"": 495354184512700500, ""time_elapsed"": 177054, ""actions"": [""right"", ""right"", ""up""], ""trialIndex"": 9, ""score"": -14, ""trial_index"": 13, ""simulationMode"": [null, null, null], ""queries"": {""mouseover"": {""state"": {""target"": [], ""time"": []}, ""edge"": {""target"": [], ""time"": []}}, ""click"": {""state"": {""target"": [], ""time"": []}, ""edge"": {""target"": [], ""time"": []}}, ""mouseout"": {""state"": {""target"": [], ""time"": []}, ""edge"": {""target"": [], ""time"": []}}}, ""path"": [""0"", ""5"", ""6"", ""7""], ""internal_node_id"": ""0.0-1.0-3.0-9.0"", ""block"": ""test""}"
A1CLCA00V8025R:3K4J6M3CXET36Z2EHA4NJF1D5G6AGR,14,1522869618401,"{""rt"": [2104, 305, 169], ""trial_type"": ""mouselab-mdp"", ""trialTime"": 8660, ""rewards"": [-2, -4, -48], ""stateRewards"": ["""", -2, -4, -48, -48, 2, -8, -24, -24, 2, 4, 24, 24], ""actionTimes"": [2114, 2961, 3675], ""trial_id"": -7656966127788694000, ""time_elapsed"": 186900, ""actions"": [""up"", ""up"", ""left""], ""trialIndex"": 10, ""score"": -55, ""trial_index"": 14, ""simulationMode"": [null, null, null], ""queries"": {""mouseover"": {""state"": {""target"": [], ""time"": []}, ""edge"": {""target"": [], ""time"": []}}, ""click"": {""state"": {""target"": [""3""], ""time"": [649]}, ""edge"": {""target"": [], ""time"": []}}, ""mouseout"": {""state"": {""target"": [], ""time"": []}, ""edge"": {""target"": [], ""time"": []}}}, ""path"": [""0"", ""1"", ""2"", ""4""], ""internal_node_id"": ""0.0-1.0-3.0-10.0"", ""block"": ""test""}"
A1CLCA00V8025R:3K4J6M3CXET36Z2EHA4NJF1D5G6AGR,15,1522869628760,"{""rt"": [1546, 262, 216], ""trial_type"": ""mouselab-mdp"", ""trialTime"": 9158, ""rewards"": [4, -4, -48], ""stateRewards"": ["""", 4, -4, -48, -48, 4, 8, 24, -24, -2, 8, 48, -48], ""actionTimes"": [1554, 2360, 3115], ""trial_id"": -6978553059181346000, ""time_elapsed"": 197259, ""actions"": [""up"", ""up"", ""left""], ""trialIndex"": 11, ""score"": -49, ""trial_index"": 15, ""simulationMode"": [null, null, null], ""queries"": {""mouseover"": {""state"": {""target"": [], ""time"": []}, ""edge"": {""target"": [], ""time"": []}}, ""click"": {""state"": {""target"": [""3""], ""time"": [368]}, ""edge"": {""target"": [], ""time"": []}}, ""mouseout"": {""state"": {""target"": [], ""time"": []}, ""edge"": {""target"": [], ""time"": []}}}, ""path"": [""0"", ""1"", ""2"", ""4""], ""internal_node_id"": ""0.0-1.0-3.0-11.0"", ""block"": ""test""}"
A1CLCA00V8025R:3K4J6M3CXET36Z2EHA4NJF1D5G6AGR,16,1522869639358,"{""rt"": [1721, 214, 91], ""trial_type"": ""mouselab-mdp"", ""trialTime"": 9408, ""rewards"": [2, 4, -24], ""stateRewards"": ["""", 2, 4, 24, -24, 4, 8, 24, -24, 4, 4, 24, 48], ""actionTimes"": [1730, 2497, 3140], ""trial_id"": 5959115827255457000, ""time_elapsed"": 207857, ""actions"": [""up"", ""up"", ""left""], ""trialIndex"": 12, ""score"": -19, ""trial_index"": 16, ""simulationMode"": [null, null, null], ""queries"": {""mouseover"": {""state"": {""target"": [], ""time"": []}, ""edge"": {""target"": [], ""time"": []}}, ""click"": {""state"": {""target"": [""3""], ""time"": [486]}, ""edge"": {""target"": [], ""time"": []}}, ""mouseout"": {""state"": {""target"": [], ""time"": []}, ""edge"": {""target"": [], ""time"": []}}}, ""path"": [""0"", ""1"", ""2"", ""4""], ""internal_node_id"": ""0.0-1.0-3.0-12.0"", ""block"": ""test""}"
A1CLCA00V8025R:3K4J6M3CXET36Z2EHA4NJF1D5G6AGR,17,1522869650895,"{""rt"": [1878, 252, 121], ""trial_type"": ""mouselab-mdp"", ""trialTime"": 10335, ""rewards"": [-4, 8, 48], ""stateRewards"": ["""", -2, 8, -24, 24, -4, 8, 48, 24, -2, -4, 24, -48], ""actionTimes"": [1888, 2692, 3361], ""trial_id"": 2561475919526080000, ""time_elapsed"": 219394, ""actions"": [""right"", ""right"", ""up""], ""trialIndex"": 13, ""score"": 51, ""trial_index"": 17, ""simulationMode"": [null, null, null], ""queries"": {""mouseover"": {""state"": {""target"": [], ""time"": []}, ""edge"": {""target"": [], ""time"": []}}, ""click"": {""state"": {""target"": [""12""], ""time"": [632]}, ""edge"": {""target"": [], ""time"": []}}, ""mouseout"": {""state"": {""target"": [], ""time"": []}, ""edge"": {""target"": [], ""time"": []}}}, ""path"": [""0"", ""5"", ""6"", ""7""], ""internal_node_id"": ""0.0-1.0-3.0-13.0"", ""block"": ""test""}"
A1CLCA00V8025R:3K4J6M3CXET36Z2EHA4NJF1D5G6AGR,18,1522869660677,"{""rt"": [1245, 158, 59], ""trial_type"": ""mouselab-mdp"", ""trialTime"": 8548, ""rewards"": [2, 4, 24], ""stateRewards"": ["""", -2, 8, 24, -48, 2, 4, -24, 24, -2, -8, 48, -24], ""actionTimes"": [1255, 1947, 2547], ""trial_id"": 6282558609452272000, ""time_elapsed"": 229176, ""actions"": [""right"", ""right"", ""down""], ""trialIndex"": 14, ""score"": 29, ""trial_index"": 18, ""simulationMode"": [null, null, null], ""queries"": {""mouseover"": {""state"": {""target"": [], ""time"": []}, ""edge"": {""target"": [], ""time"": []}}, ""click"": {""state"": {""target"": [""4""], ""time"": [423]}, ""edge"": {""target"": [], ""time"": []}}, ""mouseout"": {""state"": {""target"": [], ""time"": []}, ""edge"": {""target"": [], ""time"": []}}}, ""path"": [""0"", ""5"", ""6"", ""8""], ""internal_node_id"": ""0.0-1.0-3.0-14.0"", ""block"": ""test""}"
A1CLCA00V8025R:3K4J6M3CXET36Z2EHA4NJF1D5G6AGR,19,1522869671259,"{""rt"": [1278, 131, 58], ""trial_type"": ""mouselab-mdp"", ""trialTime"": 9483, ""rewards"": [-4, 8, -48], ""stateRewards"": ["""", -4, 8, -24, -48, -4, 8, -48, 48, 4, -8, -24, 48], ""actionTimes"": [1284, 1973, 2567], ""trial_id"": -1414845178968030700, ""time_elapsed"": 239758, ""actions"": [""right"", ""right"", ""up""], ""trialIndex"": 15, ""score"": -45, ""trial_index"": 19, ""simulationMode"": [null, null, null], ""queries"": {""mouseover"": {""state"": {""target"": [], ""time"": []}, ""edge"": {""target"": [], ""time"": []}}, ""click"": {""state"": {""target"": [""11""], ""time"": [631]}, ""edge"": {""target"": [], ""time"": []}}, ""mouseout"": {""state"": {""target"": [], ""time"": []}, ""edge"": {""target"": [], ""time"": []}}}, ""path"": [""0"", ""5"", ""6"", ""7""], ""internal_node_id"": ""0.0-1.0-3.0-15.0"", ""block"": ""test""}"
A1CLCA00V8025R:3K4J6M3CXET36Z2EHA4NJF1D5G6AGR,20,1522869681845,"{""rt"": [968, 199, 159], ""trial_type"": ""mouselab-mdp"", ""trialTime"": 9400, ""rewards"": [-2, -4, 48], ""stateRewards"": ["""", -2, -4, 48, -24, 2, -4, 48, 24, -2, -8, -24, -24], ""actionTimes"": [978, 1722, 2432], ""trial_id"": 2593864447454748000, ""time_elapsed"": 250344, ""actions"": [""up"", ""up"", ""right""], ""trialIndex"": 16, ""score"": 42, ""trial_index"": 20, ""simulationMode"": [null, null, null], ""queries"": {""mouseover"": {""state"": {""target"": [], ""time"": []}, ""edge"": {""target"": [], ""time"": []}}, ""click"": {""state"": {""target"": [], ""time"": []}, ""edge"": {""target"": [], ""time"": []}}, ""mouseout"": {""state"": {""target"": [], ""time"": []}, ""edge"": {""target"": [], ""time"": []}}}, ""path"": [""0"", ""1"", ""2"", ""3""], ""internal_node_id"": ""0.0-1.0-3.0-16.0"", ""block"": ""test""}"
A1CLCA00V8025R:3K4J6M3CXET36Z2EHA4NJF1D5G6AGR,21,1522869691778,"{""rt"": [341, 61, 275], ""trial_type"": ""mouselab-mdp"", ""trialTime"": 8741, ""rewards"": [4, -4, 24], ""stateRewards"": ["""", -2, -4, 24, -48, -4, 8, -24, -24, 4, -4, -48, 24], ""actionTimes"": [351, 962, 1759], ""trial_id"": 1399303655934214400, ""time_elapsed"": 260276, ""actions"": [""left"", ""left"", ""down""], ""trialIndex"": 17, ""score"": 24, ""trial_index"": 21, ""simulationMode"": [null, null, null], ""queries"": {""mouseover"": {""state"": {""target"": [], ""time"": []}, ""edge"": {""target"": [], ""time"": []}}, ""click"": {""state"": {""target"": [], ""time"": []}, ""edge"": {""target"": [], ""time"": []}}, ""mouseout"": {""state"": {""target"": [], ""time"": []}, ""edge"": {""target"": [], ""time"": []}}}, ""path"": [""0"", ""9"", ""10"", ""12""], ""internal_node_id"": ""0.0-1.0-3.0-17.0"", ""block"": ""test""}"
A1CLCA00V8025R:3K4J6M3CXET36Z2EHA4NJF1D5G6AGR,22,1522869702410,"{""rt"": [457, 122, 64], ""trial_type"": ""mouselab-mdp"", ""trialTime"": 9534, ""rewards"": [4, 4, -48], ""stateRewards"": ["""", 4, 4, 48, -48, -2, -8, 48, -24, -4, -8, 24, -48], ""actionTimes"": [463, 1133, 1726], ""trial_id"": -4670080337334774000, ""time_elapsed"": 270909, ""actions"": [""up"", ""up"", ""left""], ""trialIndex"": 18, ""score"": -40, ""trial_index"": 22, ""simulationMode"": [null, null, null], ""queries"": {""mouseover"": {""state"": {""target"": [], ""time"": []}, ""edge"": {""target"": [], ""time"": []}}, ""click"": {""state"": {""target"": [], ""time"": []}, ""edge"": {""target"": [], ""time"": []}}, ""mouseout"": {""state"": {""target"": [], ""time"": []}, ""edge"": {""target"": [], ""time"": []}}}, ""path"": [""0"", ""1"", ""2"", ""4""], ""internal_node_id"": ""0.0-1.0-3.0-18.0"", ""block"": ""test""}"
A1CLCA00V8025R:3K4J6M3CXET36Z2EHA4NJF1D5G6AGR,23,1522869712934,"{""rt"": [871, 237, 121], ""trial_type"": ""mouselab-mdp"", ""trialTime"": 9325, ""rewards"": [-2, -4, 24], ""stateRewards"": ["""", 4, -4, -48, 24, -2, -4, 24, 48, 4, -4, 48, -48], ""actionTimes"": [880, 1668, 2319], ""trial_id"": 320588371626771840, ""time_elapsed"": 281433, ""actions"": [""right"", ""right"", ""up""], ""trialIndex"": 19, ""score"": 18, ""trial_index"": 23, ""simulationMode"": [null, null, null], ""queries"": {""mouseover"": {""state"": {""target"": [], ""time"": []}, ""edge"": {""target"": [], ""time"": []}}, ""click"": {""state"": {""target"": [], ""time"": []}, ""edge"": {""target"": [], ""time"": []}}, ""mouseout"": {""state"": {""target"": [], ""time"": []}, ""edge"": {""target"": [], ""time"": []}}}, ""path"": [""0"", ""5"", ""6"", ""7""], ""internal_node_id"": ""0.0-1.0-3.0-19.0"", ""block"": ""test""}"
A1CLCA00V8025R:3K4J6M3CXET36Z2EHA4NJF1D5G6AGR,24,1522869724952,"{""rt"": [2868, 124, 368], ""trial_type"": ""mouselab-mdp"", ""trialTime"": 10821, ""rewards"": [-2, 4, 24], ""stateRewards"": ["""", -2, 4, 48, 24, -4, 8, -48, 24, 4, -8, 24, 24], ""actionTimes"": [2878, 3551, 4462], ""trial_id"": -1461775893828862000, ""time_elapsed"": 293450, ""actions"": [""up"", ""up"", ""left""], ""trialIndex"": 20, ""score"": 25, ""trial_index"": 24, ""simulationMode"": [null, null, null], ""queries"": {""mouseover"": {""state"": {""target"": [], ""time"": []}, ""edge"": {""target"": [], ""time"": []}}, ""click"": {""state"": {""target"": [""4""], ""time"": [730]}, ""edge"": {""target"": [], ""time"": []}}, ""mouseout"": {""state"": {""target"": [], ""time"": []}, ""edge"": {""target"": [], ""time"": []}}}, ""path"": [""0"", ""1"", ""2"", ""4""], ""internal_node_id"": ""0.0-1.0-3.0-20.0"", ""block"": ""test""}"
A1CLCA00V8025R:3K4J6M3CXET36Z2EHA4NJF1D5G6AGR,25,1522869735425,"{""rt"": [2652, 251, 177], ""trial_type"": ""mouselab-mdp"", ""trialTime"": 9287, ""rewards"": [-4, -4, -48], ""stateRewards"": ["""", -4, -4, -48, -48, -2, -8, 24, 48, 2, 4, -24, -48], ""actionTimes"": [2662, 3470, 4181], ""trial_id"": -1848243683464450000, ""time_elapsed"": 303924, ""actions"": [""up"", ""up"", ""right""], ""trialIndex"": 21, ""score"": -57, ""trial_index"": 25, ""simulationMode"": [null, null, null], ""queries"": {""mouseover"": {""state"": {""target"": [], ""time"": []}, ""edge"": {""target"": [], ""time"": []}}, ""click"": {""state"": {""target"": [""11""], ""time"": [550]}, ""edge"": {""target"": [], ""time"": []}}, ""mouseout"": {""state"": {""target"": [], ""time"": []}, ""edge"": {""target"": [], ""time"": []}}}, ""path"": [""0"", ""1"", ""2"", ""3""], ""internal_node_id"": ""0.0-1.0-3.0-21.0"", ""block"": ""test""}"
A1CLCA00V8025R:3K4J6M3CXET36Z2EHA4NJF1D5G6AGR,26,1522869745861,"{""rt"": [1818, 177, 270], ""trial_type"": ""mouselab-mdp"", ""trialTime"": 9239, ""rewards"": [-4, -4, 24], ""stateRewards"": ["""", -4, -8, -48, -48, -4, -4, 48, 24, 4, 4, 48, -48], ""actionTimes"": [1828, 2546, 3357], ""trial_id"": -9063084800167141000, ""time_elapsed"": 314360, ""actions"": [""right"", ""right"", ""down""], ""trialIndex"": 22, ""score"": 15, ""trial_index"": 26, ""simulationMode"": [null, null, null], ""queries"": {""mouseover"": {""state"": {""target"": [], ""time"": []}, ""edge"": {""target"": [], ""time"": []}}, ""click"": {""state"": {""target"": [""8""], ""time"": [1092]}, ""edge"": {""target"": [], ""time"": []}}, ""mouseout"": {""state"": {""target"": [], ""time"": []}, ""edge"": {""target"": [], ""time"": []}}}, ""path"": [""0"", ""5"", ""6"", ""8""], ""internal_node_id"": ""0.0-1.0-3.0-22.0"", ""block"": ""test""}"
A1CLCA00V8025R:3K4J6M3CXET36Z2EHA4NJF1D5G6AGR,27,1522869756119,"{""rt"": [1162, 683, 318], ""trial_type"": ""mouselab-mdp"", ""trialTime"": 9044, ""rewards"": [-2, -4, 24], ""stateRewards"": ["""", 4, 4, -48, 48, -2, 4, -48, -24, -2, -4, -48, 24], ""actionTimes"": [1170, 2401, 3270], ""trial_id"": -5006809819184351000, ""time_elapsed"": 324618, ""actions"": [""left"", ""left"", ""down""], ""trialIndex"": 23, ""score"": 17, ""trial_index"": 27, ""simulationMode"": [null, null, null], ""queries"": {""mouseover"": {""state"": {""target"": [], ""time"": []}, ""edge"": {""target"": [], ""time"": []}}, ""click"": {""state"": {""target"": [""12""], ""time"": [379]}, ""edge"": {""target"": [], ""time"": []}}, ""mouseout"": {""state"": {""target"": [], ""time"": []}, ""edge"": {""target"": [], ""time"": []}}}, ""path"": [""0"", ""9"", ""10"", ""12""], ""internal_node_id"": ""0.0-1.0-3.0-23.0"", ""block"": ""test""}"
A1CLCA00V8025R:3K4J6M3CXET36Z2EHA4NJF1D5G6AGR,28,1522869765612,"{""rt"": [1348, 215, 88], ""trial_type"": ""mouselab-mdp"", ""trialTime"": 8297, ""rewards"": [2, 4, 48], ""stateRewards"": ["""", 2, 4, -48, 48, -4, 4, -48, -48, 2, -4, 24, 48], ""actionTimes"": [1358, 2110, 2751], ""trial_id"": -5849434166602758000, ""time_elapsed"": 334111, ""actions"": [""up"", ""up"", ""left""], ""trialIndex"": 24, ""score"": 53, ""trial_index"": 28, ""simulationMode"": [null, null, null], ""queries"": {""mouseover"": {""state"": {""target"": [], ""time"": []}, ""edge"": {""target"": [], ""time"": []}}, ""click"": {""state"": {""target"": [""3""], ""time"": [570]}, ""edge"": {""target"": [], ""time"": []}}, ""mouseout"": {""state"": {""target"": [], ""time"": []}, ""edge"": {""target"": [], ""time"": []}}}, ""path"": [""0"", ""1"", ""2"", ""4""], ""internal_node_id"": ""0.0-1.0-3.0-24.0"", ""block"": ""test""}"
A1CLCA00V8025R:3K4J6M3CXET36Z2EHA4NJF1D5G6AGR,29,1522869776776,"{""rt"": [3202, 142, 100], ""trial_type"": ""mouselab-mdp"", ""trialTime"": 10064, ""rewards"": [-2, -4, 48], ""stateRewards"": ["""", -4, 4, 24, 24, -2, -4, 48, -24, -4, 8, -48, 48], ""actionTimes"": [3207, 3892, 4533], ""trial_id"": -4874666135804490000, ""time_elapsed"": 345275, ""actions"": [""right"", ""right"", ""up""], ""trialIndex"": 25, ""score"": 40, ""trial_index"": 29, ""simulationMode"": [null, null, null], ""queries"": {""mouseover"": {""state"": {""target"": [], ""time"": []}, ""edge"": {""target"": [], ""time"": []}}, ""click"": {""state"": {""target"": [""6"", ""7""], ""time"": [843, 1942]}, ""edge"": {""target"": [], ""time"": []}}, ""mouseout"": {""state"": {""target"": [], ""time"": []}, ""edge"": {""target"": [], ""time"": []}}}, ""path"": [""0"", ""5"", ""6"", ""7""], ""internal_node_id"": ""0.0-1.0-3.0-25.0"", ""block"": ""test""}"
A1CLCA00V8025R:3K4J6M3CXET36Z2EHA4NJF1D5G6AGR,30,1522869787264,"{""rt"": [1729, 233, 213], ""trial_type"": ""mouselab-mdp"", ""trialTime"": 9291, ""rewards"": [-2, 8, 48], ""stateRewards"": ["""", 2, 4, -48, -24, -4, -8, 24, -48, -2, 8, 48, -24], ""actionTimes"": [1739, 2505, 3253], ""trial_id"": -8806789642961306000, ""time_elapsed"": 355763, ""actions"": [""left"", ""left"", ""up""], ""trialIndex"": 26, ""score"": 53, ""trial_index"": 30, ""simulationMode"": [null, null, null], ""queries"": {""mouseover"": {""state"": {""target"": [], ""time"": []}, ""edge"": {""target"": [], ""time"": []}}, ""click"": {""state"": {""target"": [""11""], ""time"": [418]}, ""edge"": {""target"": [], ""time"": []}}, ""mouseout"": {""state"": {""target"": [], ""time"": []}, ""edge"": {""target"": [], ""time"": []}}}, ""path"": [""0"", ""9"", ""10"", ""11""], ""internal_node_id"": ""0.0-1.0-3.0-26.0"", ""block"": ""test""}"
A1CLCA00V8025R:3K4J6M3CXET36Z2EHA4NJF1D5G6AGR,31,1522869797837,"{""rt"": [2486, 170, 85], ""trial_type"": ""mouselab-mdp"", ""trialTime"": 9365, ""rewards"": [2, 8, 48], ""stateRewards"": ["""", 2, 8, 48, -24, -4, -4, -48, 24, -4, -8, -48, -24], ""actionTimes"": [2496, 3195, 3809], ""trial_id"": 2372710761025483000, ""time_elapsed"": 366336, ""actions"": [""up"", ""up"", ""right""], ""trialIndex"": 27, ""score"": 56, ""trial_index"": 31, ""simulationMode"": [null, null, null], ""queries"": {""mouseover"": {""state"": {""target"": [], ""time"": []}, ""edge"": {""target"": [], ""time"": []}}, ""click"": {""state"": {""target"": [""4"", ""3""], ""time"": [490, 1266]}, ""edge"": {""target"": [], ""time"": []}}, ""mouseout"": {""state"": {""target"": [], ""time"": []}, ""edge"": {""target"": [], ""time"": []}}}, ""path"": [""0"", ""1"", ""2"", ""3""], ""internal_node_id"": ""0.0-1.0-3.0-27.0"", ""block"": ""test""}"
A1CLCA00V8025R:3K4J6M3CXET36Z2EHA4NJF1D5G6AGR,32,1522869811063,"{""rt"": [8230, 321, 321], ""trial_type"": ""mouselab-mdp"", ""trialTime"": 12017, ""rewards"": [2, 4, 24], ""stateRewards"": ["""", 2, 4, -24, 24, 4, 8, -48, -48, -4, -4, -48, -24], ""actionTimes"": [8237, 9107, 9975], ""trial_id"": -7784032825751816000, ""time_elapsed"": 379562, ""actions"": [""up"", ""up"", ""left""], ""trialIndex"": 28, ""score"": 24, ""trial_index"": 32, ""simulationMode"": [null, null, null], ""queries"": {""mouseover"": {""state"": {""target"": [], ""time"": []}, ""edge"": {""target"": [], ""time"": []}}, ""click"": {""state"": {""target"": [""12"", ""11"", ""4"", ""3"", ""7"", ""8""], ""time"": [461, 1262, 1975, 2682, 3428, 4218]}, ""edge"": {""target"": [], ""time"": []}}, ""mouseout"": {""state"": {""target"": [], ""time"": []}, ""edge"": {""target"": [], ""time"": []}}}, ""path"": [""0"", ""1"", ""2"", ""4""], ""internal_node_id"": ""0.0-1.0-3.0-28.0"", ""block"": ""test""}"
A1CLCA00V8025R:3K4J6M3CXET36Z2EHA4NJF1D5G6AGR,33,1522869821630,"{""rt"": [5556, 176, 68], ""trial_type"": ""mouselab-mdp"", ""trialTime"": 9385, ""rewards"": [-4, 8, 48], ""stateRewards"": ["""", 2, 4, 24, -24, 4, -8, 48, -24, -4, 8, -48, 48], ""actionTimes"": [5565, 6296, 6906], ""trial_id"": 5010381167344479000, ""time_elapsed"": 390129, ""actions"": [""left"", ""left"", ""down""], ""trialIndex"": 29, ""score"": 48, ""trial_index"": 33, ""simulationMode"": [null, null, null], ""queries"": {""mouseover"": {""state"": {""target"": [], ""time"": []}, ""edge"": {""target"": [], ""time"": []}}, ""click"": {""state"": {""target"": [""11"", ""3"", ""4"", ""12""], ""time"": [1503, 2457, 3234, 4442]}, ""edge"": {""target"": [], ""time"": []}}, ""mouseout"": {""state"": {""target"": [], ""time"": []}, ""edge"": {""target"": [], ""time"": []}}}, ""path"": [""0"", ""9"", ""10"", ""12""], ""internal_node_id"": ""0.0-1.0-3.0-29.0"", ""block"": ""test""}"
A1CLCA00V8025R:3K4J6M3CXET36Z2EHA4NJF1D5G6AGR,34,1522869845172,"{""rt"": 22525, ""trial_type"": ""survey-multi-choice"", ""responses"": ""[\""$-4 to $4\"",\""$-48 to $48\"",\""$1\"",\""1 cent for every $1 you make in the game plus 45 cents\""]"", ""internal_node_id"": ""0.0-1.0-4.0"", ""time_elapsed"": 413671, ""questions"": ""[\""What is the range of node values in the first step?\"",\""What is the range of node values in the last step?\"",\""What is the cost of clicking?\"",\""How much REAL money do you earn?\""]"", ""correct"": null, ""trial_index"": 34}"
A1CLCA00V8025R:3K4J6M3CXET36Z2EHA4NJF1D5G6AGR,35,1522869883557,"{""rt"": 37378, ""trial_type"": ""survey-text"", ""responses"": ""{\""Q0\"":\""guessing\"",\""Q1\"":\""same\"",\""Q2\"":\""when i reached the end\"",\""Q3\"":\""right\"",\""Q4\"":\""towards the end I realized its better to pay for the sneak peek\""}"", ""internal_node_id"": ""0.0-1.0-5.0"", ""time_elapsed"": 452056, ""trial_index"": 35}"
A1CLCA00V8025R:3K4J6M3CXET36Z2EHA4NJF1D5G6AGR,36,1522869905473,"{""rt"": 20909, ""trial_type"": ""survey-text"", ""responses"": ""{\""Q0\"":\""pay a little upfront to get better results\"",\""Q1\"":\""no\"",\""Q2\"":\""no\""}"", ""internal_node_id"": ""0.0-1.0-6.0"", ""time_elapsed"": 473972, ""trial_index"": 36}"
A1CLCA00V8025R:3K4J6M3CXET36Z2EHA4NJF1D5G6AGR,37,1522869908214,"{""rt"": 1738, ""trial_type"": ""text"", ""internal_node_id"": ""0.0-2.0"", ""time_elapsed"": 476713, ""key_press"": 32, ""trial_index"": 37}"
A1DK1B0L0V9KHJ:3LEIZ60CDJZPSXNEFWEC8R6ZAPM9Z6,0,1522877316580,"{""rt"": 16979, ""trial_type"": ""survey-text"", ""responses"": ""{\""Q0\"":\""male\"",\""Q1\"":\""21\"",\""Q2\"":\""USA\"",\""Q3\"":\""Full time student\"",\""Q4\"":\""1\""}"", ""internal_node_id"": ""0.0-0.0"", ""time_elapsed"": 16990, ""trial_index"": 0}"
A1DK1B0L0V9KHJ:3LEIZ60CDJZPSXNEFWEC8R6ZAPM9Z6,1,1522877335344,"{""rt"": 17749, ""trial_type"": ""text"", ""internal_node_id"": ""0.0-1.0-0.0"", ""time_elapsed"": 35754, ""key_press"": 32, ""trial_index"": 1}"
A1DK1B0L0V9KHJ:3LEIZ60CDJZPSXNEFWEC8R6ZAPM9Z6,2,1522877408582,"{""rt"": 72230, ""trial_type"": ""text"", ""internal_node_id"": ""0.0-1.0-1.0"", ""time_elapsed"": 108992, ""key_press"": 32, ""trial_index"": 2}"
A1DK1B0L0V9KHJ:3LEIZ60CDJZPSXNEFWEC8R6ZAPM9Z6,3,1522877417854,"{""rt"": 8268, ""trial_type"": ""text"", ""internal_node_id"": ""0.0-1.0-2.0"", ""time_elapsed"": 118264, ""key_press"": 32, ""trial_index"": 3}"
A1DK1B0L0V9KHJ:3LEIZ60CDJZPSXNEFWEC8R6ZAPM9Z6,4,1522877434587,"{""rt"": [11891, 339, 182], ""trial_type"": ""mouselab-mdp"", ""trialTime"": 15626, ""rewards"": [-4, 4, 48], ""stateRewards"": ["""", -4, 4, 48, -48, -4, 4, -24, 24, -4, -8, 24, 24], ""actionTimes"": [11898, 12736, 13411], ""trial_id"": -5995301136843023000, ""time_elapsed"": 134997, ""actions"": [""up"", ""up"", ""right""], ""trialIndex"": 0, ""score"": 36, ""trial_index"": 4, ""simulationMode"": [null, null, null], ""queries"": {""mouseover"": {""state"": {""target"": [], ""time"": []}, ""edge"": {""target"": [], ""time"": []}}, ""click"": {""state"": {""target"": [""1"", ""2"", ""4"", ""3"", ""5"", ""6"", ""7"", ""8"", ""9"", ""10"", ""11"", ""12""], ""time"": [767, 1346, 2363, 3314, 3926, 4667, 5282, 6154, 7175, 7767, 8466, 9621]}, ""edge"": {""target"": [], ""time"": []}}, ""mouseout"": {""state"": {""target"": [], ""time"": []}, ""edge"": {""target"": [], ""time"": []}}}, ""path"": [""0"", ""1"", ""2"", ""3""], ""internal_node_id"": ""0.0-1.0-3.0-0.0"", ""block"": ""test""}"
A1DK1B0L0V9KHJ:3LEIZ60CDJZPSXNEFWEC8R6ZAPM9Z6,5,1522877450692,"{""rt"": [11837, 656, 113], ""trial_type"": ""mouselab-mdp"", ""trialTime"": 15050, ""rewards"": [-2, 8, 24], ""stateRewards"": ["""", 2, 4, -24, -48, -2, -4, -24, -24, -2, 8, 24, -24], ""actionTimes"": [11842, 13004, 13626], ""trial_id"": 11823864361136648, ""time_elapsed"": 151102, ""actions"": [""left"", ""left"", ""up""], ""trialIndex"": 1, ""score"": 18, ""trial_index"": 5, ""simulationMode"": [null, null, null], ""queries"": {""mouseover"": {""state"": {""target"": [], ""time"": []}, ""edge"": {""target"": [], ""time"": []}}, ""click"": {""state"": {""target"": [""3"", ""2"", ""4"", ""1"", ""5"", ""7"", ""6"", ""8"", ""9"", ""10"", ""11"", ""12""], ""time"": [3037, 3680, 4295, 4831, 5347, 6702, 7169, 8134, 8860, 9490, 10128, 10783]}, ""edge"": {""target"": [], ""time"": []}}, ""mouseout"": {""state"": {""target"": [], ""time"": []}, ""edge"": {""target"": [], ""time"": []}}}, ""path"": [""0"", ""9"", ""10"", ""11""], ""internal_node_id"": ""0.0-1.0-3.0-1.0"", ""block"": ""test""}"
A1DK1B0L0V9KHJ:3LEIZ60CDJZPSXNEFWEC8R6ZAPM9Z6,6,1522877463761,"{""rt"": [8615, 373, 387], ""trial_type"": ""mouselab-mdp"", ""trialTime"": 12011, ""rewards"": [-2, -4, 48], ""stateRewards"": ["""", -2, 4, -48, -24, 2, 4, 24, 24, -2, -4, 48, -24], ""actionTimes"": [8623, 9494, 10374], ""trial_id"": 7457324294976434000, ""time_elapsed"": 164171, ""actions"": [""left"", ""left"", ""up""], ""trialIndex"": 2, ""score"": 36, ""trial_index"": 6, ""simulationMode"": [null, null, null], ""queries"": {""mouseover"": {""state"": {""target"": [], ""time"": []}, ""edge"": {""target"": [], ""time"": []}}, ""click"": {""state"": {""target"": [""7"", ""8"", ""3"", ""4"", ""11"", ""12""], ""time"": [1280, 2105, 3140, 4378, 5119, 6444]}, ""edge"": {""target"": [], ""time"": []}}, ""mouseout"": {""state"": {""target"": [], ""time"": []}, ""edge"": {""target"": [], ""time"": []}}}, ""path"": [""0"", ""9"", ""10"", ""11""], ""internal_node_id"": ""0.0-1.0-3.0-2.0"", ""block"": ""test""}"
A1DK1B0L0V9KHJ:3LEIZ60CDJZPSXNEFWEC8R6ZAPM9Z6,7,1522877477874,"{""rt"": [10027, 290, 5], ""trial_type"": ""mouselab-mdp"", ""trialTime"": 13064, ""rewards"": [-4, 4, 48], ""stateRewards"": ["""", 2, -4, 24, -48, -4, 4, 48, 48, 4, 4, -48, -24], ""actionTimes"": [10029, 10836, 11350], ""trial_id"": 1708036831889561600, ""time_elapsed"": 178284, ""actions"": [""right"", ""right"", ""up""], ""trialIndex"": 3, ""score"": 41, ""trial_index"": 7, ""simulationMode"": [null, null, null], ""queries"": {""mouseover"": {""state"": {""target"": [], ""time"": []}, ""edge"": {""target"": [], ""time"": []}}, ""click"": {""state"": {""target"": [""4"", ""3"", ""1"", ""7"", ""8"", ""5"", ""6""], ""time"": [1382, 3454, 5393, 6482, 7089, 8749, 9365]}, ""edge"": {""target"": [], ""time"": []}}, ""mouseout"": {""state"": {""target"": [], ""time"": []}, ""edge"": {""target"": [], ""time"": []}}}, ""path"": [""0"", ""5"", ""6"", ""7""], ""internal_node_id"": ""0.0-1.0-3.0-3.0"", ""block"": ""test""}"
A1DK1B0L0V9KHJ:3LEIZ60CDJZPSXNEFWEC8R6ZAPM9Z6,8,1522877492759,"{""rt"": [11615, 70, 6], ""trial_type"": ""mouselab-mdp"", ""trialTime"": 13841, ""rewards"": [2, -4, 48], ""stateRewards"": ["""", -2, -4, 48, -24, 2, -4, 48, 24, -2, -8, -24, -24], ""actionTimes"": [11617, 12188, 12693], ""trial_id"": 2593864447454748000, ""time_elapsed"": 193169, ""actions"": [""right"", ""right"", ""up""], ""trialIndex"": 4, ""score"": 36, ""trial_index"": 8, ""simulationMode"": [null, null, null], ""queries"": {""mouseover"": {""state"": {""target"": [], ""time"": []}, ""edge"": {""target"": [], ""time"": []}}, ""click"": {""state"": {""target"": [""11"", ""12"", ""7"", ""8"", ""3"", ""4"", ""1"", ""2"", ""5"", ""6""], ""time"": [1176, 1793, 2510, 3326, 4828, 5593, 6635, 7012, 9673, 10312]}, ""edge"": {""target"": [], ""time"": []}}, ""mouseout"": {""state"": {""target"": [], ""time"": []}, ""edge"": {""target"": [], ""time"": []}}}, ""path"": [""0"", ""5"", ""6"", ""7""], ""internal_node_id"": ""0.0-1.0-3.0-4.0"", ""block"": ""test""}"
A1DK1B0L0V9KHJ:3LEIZ60CDJZPSXNEFWEC8R6ZAPM9Z6,9,1522877508206,"{""rt"": [10100, 514, 480], ""trial_type"": ""mouselab-mdp"", ""trialTime"": 14377, ""rewards"": [4, 8, 48], ""stateRewards"": ["""", 2, -8, -24, 48, -2, -4, -24, -24, 4, 8, 24, 48], ""actionTimes"": [10105, 11140, 12139], ""trial_id"": 6516760737789360000, ""time_elapsed"": 208616, ""actions"": [""left"", ""left"", ""down""], ""trialIndex"": 5, ""score"": 52, ""trial_index"": 9, ""simulationMode"": [null, null, null], ""queries"": {""mouseover"": {""state"": {""target"": [], ""time"": []}, ""edge"": {""target"": [], ""time"": []}}, ""click"": {""state"": {""target"": [""3"", ""7"", ""8"", ""4"", ""11"", ""12"", ""10"", ""2""], ""time"": [947, 1656, 2405, 3820, 4560, 5439, 6655, 8001]}, ""edge"": {""target"": [], ""time"": []}}, ""mouseout"": {""state"": {""target"": [], ""time"": []}, ""edge"": {""target"": [], ""time"": []}}}, ""path"": [""0"", ""9"", ""10"", ""12""], ""internal_node_id"": ""0.0-1.0-3.0-5.0"", ""block"": ""test""}"
A1DK1B0L0V9KHJ:3LEIZ60CDJZPSXNEFWEC8R6ZAPM9Z6,10,1522877524247,"{""rt"": [12257, 433, 18], ""trial_type"": ""mouselab-mdp"", ""trialTime"": 14999, ""rewards"": [-4, 8, 48], ""stateRewards"": ["""", 2, 4, 24, -24, 4, -8, 48, -24, -4, 8, -48, 48], ""actionTimes"": [12259, 13191, 13710], ""trial_id"": 5010381167344479000, ""time_elapsed"": 224657, ""actions"": [""left"", ""left"", ""down""], ""trialIndex"": 6, ""score"": 42, ""trial_index"": 10, ""simulationMode"": [null, null, null], ""queries"": {""mouseover"": {""state"": {""target"": [], ""time"": []}, ""edge"": {""target"": [], ""time"": []}}, ""click"": {""state"": {""target"": [""4"", ""2"", ""5"", ""9"", ""12"", ""11"", ""10"", ""8"", ""7"", ""6""], ""time"": [1675, 2171, 2958, 3792, 4462, 5170, 5659, 7019, 7800, 10304]}, ""edge"": {""target"": [], ""time"": []}}, ""mouseout"": {""state"": {""target"": [], ""time"": []}, ""edge"": {""target"": [], ""time"": []}}}, ""path"": [""0"", ""9"", ""10"", ""12""], ""internal_node_id"": ""0.0-1.0-3.0-6.0"", ""block"": ""test""}"
A1DK1B0L0V9KHJ:3LEIZ60CDJZPSXNEFWEC8R6ZAPM9Z6,11,1522877539704,"{""rt"": [11219, 110, 41], ""trial_type"": ""mouselab-mdp"", ""trialTime"": 14416, ""rewards"": [-4, -8, 48], ""stateRewards"": ["""", 4, 8, -24, -24, -4, -8, -48, 48, 2, -8, -24, -48], ""actionTimes"": [11221, 11828, 12390], ""trial_id"": 2630443220538220000, ""time_elapsed"": 240114, ""actions"": [""right"", ""right"", ""down""], ""trialIndex"": 7, ""score"": 29, ""trial_index"": 11, ""simulationMode"": [null, null, null], ""queries"": {""mouseover"": {""state"": {""target"": [], ""time"": []}, ""edge"": {""target"": [], ""time"": []}}, ""click"": {""state"": {""target"": [""4"", ""3"", ""11"", ""7"", ""8"", ""6"", ""12""], ""time"": [2231, 2854, 3741, 4554, 5478, 7596, 9364]}, ""edge"": {""target"": [], ""time"": []}}, ""mouseout"": {""state"": {""target"": [], ""time"": []}, ""edge"": {""target"": [], ""time"": []}}}, ""path"": [""0"", ""5"", ""6"", ""8""], ""internal_node_id"": ""0.0-1.0-3.0-7.0"", ""block"": ""test""}"
A1DK1B0L0V9KHJ:3LEIZ60CDJZPSXNEFWEC8R6ZAPM9Z6,12,1522877550277,"{""rt"": [4507, 438, 21], ""trial_type"": ""mouselab-mdp"", ""trialTime"": 9512, ""rewards"": [-4, 8, 48], ""stateRewards"": ["""", -4, 4, 24, 24, -2, -4, 48, -24, -4, 8, -48, 48], ""actionTimes"": [4510, 5462, 5995], ""trial_id"": -4874666135804490000, ""time_elapsed"": 250687, ""actions"": [""left"", ""left"", ""down""], ""trialIndex"": 8, ""score"": 49, ""trial_index"": 12, ""simulationMode"": [null, null, null], ""queries"": {""mouseover"": {""state"": {""target"": [], ""time"": []}, ""edge"": {""target"": [], ""time"": []}}, ""click"": {""state"": {""target"": [""9"", ""12"", ""10""], ""time"": [930, 1893, 3490]}, ""edge"": {""target"": [], ""time"": []}}, ""mouseout"": {""state"": {""target"": [], ""time"": []}, ""edge"": {""target"": [], ""time"": []}}}, ""path"": [""0"", ""9"", ""10"", ""12""], ""internal_node_id"": ""0.0-1.0-3.0-8.0"", ""block"": ""test""}"
A1DK1B0L0V9KHJ:3LEIZ60CDJZPSXNEFWEC8R6ZAPM9Z6,13,1522877560589,"{""rt"": [6200, 482, 304], ""trial_type"": ""mouselab-mdp"", ""trialTime"": 9266, ""rewards"": [-2, 8, 48], ""stateRewards"": ["""", -4, -8, 24, -24, -2, 8, 24, 48, 4, -4, 24, -48], ""actionTimes"": [6203, 7195, 8000], ""trial_id"": -1100449030722574200, ""time_elapsed"": 260999, ""actions"": [""right"", ""right"", ""down""], ""trialIndex"": 9, ""score"": 49, ""trial_index"": 13, ""simulationMode"": [null, null, null], ""queries"": {""mouseover"": {""state"": {""target"": [], ""time"": []}, ""edge"": {""target"": [], ""time"": []}}, ""click"": {""state"": {""target"": [""4"", ""3"", ""7"", ""8"", ""6""], ""time"": [1360, 2084, 2810, 3602, 5308]}, ""edge"": {""target"": [], ""time"": []}}, ""mouseout"": {""state"": {""target"": [], ""time"": []}, ""edge"": {""target"": [], ""time"": []}}}, ""path"": [""0"", ""5"", ""6"", ""8""], ""internal_node_id"": ""0.0-1.0-3.0-9.0"", ""block"": ""test""}"
A1DK1B0L0V9KHJ:3LEIZ60CDJZPSXNEFWEC8R6ZAPM9Z6,14,1522877570965,"{""rt"": [4666, 131, 122], ""trial_type"": ""mouselab-mdp"", ""trialTime"": 9333, ""rewards"": [-2, 4, 48], ""stateRewards"": ["""", 4, -4, 48, -48, -2, -8, 24, 24, -2, 4, 48, -48], ""actionTimes"": [4691, 5320, 5943], ""trial_id"": 8045829731203394000, ""time_elapsed"": 271375, ""actions"": [""left"", ""left"", ""up""], ""trialIndex"": 10, ""score"": 48, ""trial_index"": 14, ""simulationMode"": [null, null, null], ""queries"": {""mouseover"": {""state"": {""target"": [], ""time"": []}, ""edge"": {""target"": [], ""time"": []}}, ""click"": {""state"": {""target"": [""11"", ""10""], ""time"": [1067, 3473]}, ""edge"": {""target"": [], ""time"": []}}, ""mouseout"": {""state"": {""target"": [], ""time"": []}, ""edge"": {""target"": [], ""time"": []}}}, ""path"": [""0"", ""9"", ""10"", ""11""], ""internal_node_id"": ""0.0-1.0-3.0-10.0"", ""block"": ""test""}"
A1DK1B0L0V9KHJ:3LEIZ60CDJZPSXNEFWEC8R6ZAPM9Z6,15,1522877582400,"{""rt"": [4897, 373, 204], ""trial_type"": ""mouselab-mdp"", ""trialTime"": 10394, ""rewards"": [-4, 8, 48], ""stateRewards"": ["""", 2, 4, -24, 48, -4, 8, -48, 48, 2, -4, 24, -24], ""actionTimes"": [4900, 5790, 6502], ""trial_id"": -8327671364504025000, ""time_elapsed"": 282810, ""actions"": [""right"", ""right"", ""down""], ""trialIndex"": 11, ""score"": 48, ""trial_index"": 15, ""simulationMode"": [null, null, null], ""queries"": {""mouseover"": {""state"": {""target"": [], ""time"": []}, ""edge"": {""target"": [], ""time"": []}}, ""click"": {""state"": {""target"": [""3"", ""11"", ""8"", ""6""], ""time"": [617, 2012, 3008, 3903]}, ""edge"": {""target"": [], ""time"": []}}, ""mouseout"": {""state"": {""target"": [], ""time"": []}, ""edge"": {""target"": [], ""time"": []}}}, ""path"": [""0"", ""5"", ""6"", ""8""], ""internal_node_id"": ""0.0-1.0-3.0-11.0"", ""block"": ""test""}"
A1DK1B0L0V9KHJ:3LEIZ60CDJZPSXNEFWEC8R6ZAPM9Z6,16,1522877594389,"{""rt"": [8367, 242, 95], ""trial_type"": ""mouselab-mdp"", ""trialTime"": 10946, ""rewards"": [4, 4, 48], ""stateRewards"": ["""", 2, 4, 24, -24, 4, 8, 24, -24, 4, 4, 24, 48], ""actionTimes"": [8372, 9120, 9721], ""trial_id"": 5959115827255457000, ""time_elapsed"": 294799, ""actions"": [""left"", ""left"", ""down""], ""trialIndex"": 12, ""score"": 49, ""trial_index"": 16, ""simulationMode"": [null, null, null], ""queries"": {""mouseover"": {""state"": {""target"": [], ""time"": []}, ""edge"": {""target"": [], ""time"": []}}, ""click"": {""state"": {""target"": [""8"", ""7"", ""4"", ""3"", ""11"", ""12"", ""10""], ""time"": [643, 1827, 2848, 3891, 5277, 6079, 7129]}, ""edge"": {""target"": [], ""time"": []}}, ""mouseout"": {""state"": {""target"": [], ""time"": []}, ""edge"": {""target"": [], ""time"": []}}}, ""path"": [""0"", ""9"", ""10"", ""12""], ""internal_node_id"": ""0.0-1.0-3.0-12.0"", ""block"": ""test""}"
A1DK1B0L0V9KHJ:3LEIZ60CDJZPSXNEFWEC8R6ZAPM9Z6,17,1522877603984,"{""rt"": [5173, 92, 36], ""trial_type"": ""mouselab-mdp"", ""trialTime"": 8537, ""rewards"": [4, 4, 48], ""stateRewards"": ["""", 4, 4, -48, 48, -2, 4, -48, -24, -2, -4, -48, 24], ""actionTimes"": [5178, 5766, 6294], ""trial_id"": -5006809819184351000, ""time_elapsed"": 304393, ""actions"": [""up"", ""up"", ""left""], ""trialIndex"": 13, ""score"": 52, ""trial_index"": 17, ""simulationMode"": [null, null, null], ""queries"": {""mouseover"": {""state"": {""target"": [], ""time"": []}, ""edge"": {""target"": [], ""time"": []}}, ""click"": {""state"": {""target"": [""1"", ""3"", ""4"", ""2""], ""time"": [1077, 1902, 3209, 4472]}, ""edge"": {""target"": [], ""time"": []}}, ""mouseout"": {""state"": {""target"": [], ""time"": []}, ""edge"": {""target"": [], ""time"": []}}}, ""path"": [""0"", ""1"", ""2"", ""4""], ""internal_node_id"": ""0.0-1.0-3.0-13.0"", ""block"": ""test""}"
A1DK1B0L0V9KHJ:3LEIZ60CDJZPSXNEFWEC8R6ZAPM9Z6,18,1522877619498,"{""rt"": [11283, 275, 154], ""trial_type"": ""mouselab-mdp"", ""trialTime"": 14470, ""rewards"": [-2, -8, 48], ""stateRewards"": ["""", -2, -8, 24, 48, -2, 8, -24, -24, -2, -4, 24, -24], ""actionTimes"": [11286, 12070, 12732], ""trial_id"": -3603402282008602000, ""time_elapsed"": 319907, ""actions"": [""up"", ""up"", ""left""], ""trialIndex"": 14, ""score"": 31, ""trial_index"": 18, ""simulationMode"": [null, null, null], ""queries"": {""mouseover"": {""state"": {""target"": [], ""time"": []}, ""edge"": {""target"": [], ""time"": []}}, ""click"": {""state"": {""target"": [""11"", ""8"", ""7"", ""4"", ""2"", ""12"", ""3""], ""time"": [826, 1878, 2617, 3621, 4641, 5710, 10217]}, ""edge"": {""target"": [], ""time"": []}}, ""mouseout"": {""state"": {""target"": [], ""time"": []}, ""edge"": {""target"": [], ""time"": []}}}, ""path"": [""0"", ""1"", ""2"", ""4""], ""internal_node_id"": ""0.0-1.0-3.0-14.0"", ""block"": ""test""}"
A1DK1B0L0V9KHJ:3LEIZ60CDJZPSXNEFWEC8R6ZAPM9Z6,19,1522877643262,"{""rt"": [20368, 56, 117], ""trial_type"": ""mouselab-mdp"", ""trialTime"": 22716, ""rewards"": [2, 4, 24], ""stateRewards"": ["""", 2, -4, 24, -48, -2, -8, 24, -48, 2, 4, 24, -48], ""actionTimes"": [20375, 20950, 21578], ""trial_id"": 2653018761906401300, ""time_elapsed"": 343671, ""actions"": [""left"", ""left"", ""up""], ""trialIndex"": 15, ""score"": 18, ""trial_index"": 19, ""simulationMode"": [null, null, null], ""queries"": {""mouseover"": {""state"": {""target"": [], ""time"": []}, ""edge"": {""target"": [], ""time"": []}}, ""click"": {""state"": {""target"": [""4"", ""3"", ""8"", ""7"", ""11"", ""1"", ""12"", ""5"", ""2"", ""6"", ""9"", ""10""], ""time"": [1077, 2286, 3903, 4706, 6046, 8211, 8996, 12767, 14309, 15389, 16575, 17399]}, ""edge"": {""target"": [], ""time"": []}}, ""mouseout"": {""state"": {""target"": [], ""time"": []}, ""edge"": {""target"": [], ""time"": []}}}, ""path"": [""0"", ""9"", ""10"", ""11""], ""internal_node_id"": ""0.0-1.0-3.0-15.0"", ""block"": ""test""}"
A1DK1B0L0V9KHJ:3LEIZ60CDJZPSXNEFWEC8R6ZAPM9Z6,20,1522877655439,"{""rt"": [8580, 123, 47], ""trial_type"": ""mouselab-mdp"", ""trialTime"": 11110, ""rewards"": [-4, 4, 48], ""stateRewards"": ["""", 2, -4, 24, -48, -4, -8, -48, -48, -4, 4, -48, 48], ""actionTimes"": [8584, 9215, 9772], ""trial_id"": 2118335984300500500, ""time_elapsed"": 355849, ""actions"": [""left"", ""left"", ""down""], ""trialIndex"": 16, ""score"": 41, ""trial_index"": 20, ""simulationMode"": [null, null, null], ""queries"": {""mouseover"": {""state"": {""target"": [], ""time"": []}, ""edge"": {""target"": [], ""time"": []}}, ""click"": {""state"": {""target"": [""11"", ""8"", ""7"", ""4"", ""3"", ""12"", ""10""], ""time"": [867, 1676, 2719, 3707, 4696, 6409, 7507]}, ""edge"": {""target"": [], ""time"": []}}, ""mouseout"": {""state"": {""target"": [], ""time"": []}, ""edge"": {""target"": [], ""time"": []}}}, ""path"": [""0"", ""9"", ""10"", ""12""], ""internal_node_id"": ""0.0-1.0-3.0-16.0"", ""block"": ""test""}"
A1DK1B0L0V9KHJ:3LEIZ60CDJZPSXNEFWEC8R6ZAPM9Z6,21,1522877664614,"{""rt"": [5299, 64, 82], ""trial_type"": ""mouselab-mdp"", ""trialTime"": 8129, ""rewards"": [4, 4, 48], ""stateRewards"": ["""", 4, 4, -48, 48, 4, 4, -24, -24, 2, -8, 48, -24], ""actionTimes"": [5303, 5866, 6451], ""trial_id"": 3802673927624508000, ""time_elapsed"": 365023, ""actions"": [""up"", ""up"", ""left""], ""trialIndex"": 17, ""score"": 52, ""trial_index"": 21, ""simulationMode"": [null, null, null], ""queries"": {""mouseover"": {""state"": {""target"": [], ""time"": []}, ""edge"": {""target"": [], ""time"": []}}, ""click"": {""state"": {""target"": [""12"", ""3"", ""4"", ""2""], ""time"": [810, 1909, 2672, 4432]}, ""edge"": {""target"": [], ""time"": []}}, ""mouseout"": {""state"": {""target"": [], ""time"": []}, ""edge"": {""target"": [], ""time"": []}}}, ""path"": [""0"", ""1"", ""2"", ""4""], ""internal_node_id"": ""0.0-1.0-3.0-17.0"", ""block"": ""test""}"
A1DK1B0L0V9KHJ:3LEIZ60CDJZPSXNEFWEC8R6ZAPM9Z6,22,1522877676618,"{""rt"": [8742, 101, 119], ""trial_type"": ""mouselab-mdp"", ""trialTime"": 10949, ""rewards"": [4, 8, 48], ""stateRewards"": ["""", -2, -4, 48, -48, 2, 4, -48, 24, 4, 8, -48, 48], ""actionTimes"": [8745, 9351, 9969], ""trial_id"": -2817098998670331000, ""time_elapsed"": 377028, ""actions"": [""left"", ""left"", ""down""], ""trialIndex"": 18, ""score"": 52, ""trial_index"": 22, ""simulationMode"": [null, null, null], ""queries"": {""mouseover"": {""state"": {""target"": [], ""time"": []}, ""edge"": {""target"": [], ""time"": []}}, ""click"": {""state"": {""target"": [""4"", ""8"", ""3"", ""2"", ""1"", ""11"", ""12"", ""10""], ""time"": [713, 1445, 2305, 3509, 4265, 5496, 6256, 7169]}, ""edge"": {""target"": [], ""time"": []}}, ""mouseout"": {""state"": {""target"": [], ""time"": []}, ""edge"": {""target"": [], ""time"": []}}}, ""path"": [""0"", ""9"", ""10"", ""12""], ""internal_node_id"": ""0.0-1.0-3.0-18.0"", ""block"": ""test""}"
A1DK1B0L0V9KHJ:3LEIZ60CDJZPSXNEFWEC8R6ZAPM9Z6,23,1522877688466,"{""rt"": [8441, 284, 261], ""trial_type"": ""mouselab-mdp"", ""trialTime"": 10796, ""rewards"": [2, -4, 24], ""stateRewards"": ["""", 2, -4, 24, 24, -4, 4, -24, -24, -2, 4, -24, -48], ""actionTimes"": [8447, 9235, 10012], ""trial_id"": 7862543089384343000, ""time_elapsed"": 388875, ""actions"": [""up"", ""up"", ""right""], ""trialIndex"": 19, ""score"": 16, ""trial_index"": 23, ""simulationMode"": [null, null, null], ""queries"": {""mouseover"": {""state"": {""target"": [], ""time"": []}, ""edge"": {""target"": [], ""time"": []}}, ""click"": {""state"": {""target"": [""4"", ""3"", ""8"", ""7"", ""11"", ""12""], ""time"": [800, 1920, 3462, 4100, 5403, 6491]}, ""edge"": {""target"": [], ""time"": []}}, ""mouseout"": {""state"": {""target"": [], ""time"": []}, ""edge"": {""target"": [], ""time"": []}}}, ""path"": [""0"", ""1"", ""2"", ""3""], ""internal_node_id"": ""0.0-1.0-3.0-19.0"", ""block"": ""test""}"
A1DK1B0L0V9KHJ:3LEIZ60CDJZPSXNEFWEC8R6ZAPM9Z6,24,1522877701925,"{""rt"": [10358, 112, 116], ""trial_type"": ""mouselab-mdp"", ""trialTime"": 12419, ""rewards"": [-2, 8, 48], ""stateRewards"": ["""", 4, -4, -48, -48, 4, 8, 24, -24, -2, 8, 48, -48], ""actionTimes"": [10362, 10975, 11596], ""trial_id"": -6978553059181346000, ""time_elapsed"": 402334, ""actions"": [""left"", ""left"", ""up""], ""trialIndex"": 20, ""score"": 47, ""trial_index"": 24, ""simulationMode"": [null, null, null], ""queries"": {""mouseover"": {""state"": {""target"": [], ""time"": []}, ""edge"": {""target"": [], ""time"": []}}, ""click"": {""state"": {""target"": [""4"", ""3"", ""8"", ""7"", ""11"", ""10"", ""12""], ""time"": [1282, 2387, 3090, 3821, 5073, 7605, 9248]}, ""edge"": {""target"": [], ""time"": []}}, ""mouseout"": {""state"": {""target"": [], ""time"": []}, ""edge"": {""target"": [], ""time"": []}}}, ""path"": [""0"", ""9"", ""10"", ""11""], ""internal_node_id"": ""0.0-1.0-3.0-20.0"", ""block"": ""test""}"
A1DK1B0L0V9KHJ:3LEIZ60CDJZPSXNEFWEC8R6ZAPM9Z6,25,1522877712853,"{""rt"": [7913, 2, 67], ""trial_type"": ""mouselab-mdp"", ""trialTime"": 9876, ""rewards"": [-2, -8, 48], ""stateRewards"": ["""", -4, -4, -48, -48, -2, -8, 24, 48, 2, 4, -24, -48], ""actionTimes"": [7917, 8430, 9029], ""trial_id"": -1848243683464450000, ""time_elapsed"": 413263, ""actions"": [""right"", ""right"", ""down""], ""trialIndex"": 21, ""score"": 32, ""trial_index"": 25, ""simulationMode"": [null, null, null], ""queries"": {""mouseover"": {""state"": {""target"": [], ""time"": []}, ""edge"": {""target"": [], ""time"": []}}, ""click"": {""state"": {""target"": [""4"", ""8"", ""6"", ""11"", ""12"", ""3""], ""time"": [1127, 2076, 3276, 4453, 5300, 6787]}, ""edge"": {""target"": [], ""time"": []}}, ""mouseout"": {""state"": {""target"": [], ""time"": []}, ""edge"": {""target"": [], ""time"": []}}}, ""path"": [""0"", ""5"", ""6"", ""8""], ""internal_node_id"": ""0.0-1.0-3.0-21.0"", ""block"": ""test""}"
A1DK1B0L0V9KHJ:3LEIZ60CDJZPSXNEFWEC8R6ZAPM9Z6,26,1522877724082,"{""rt"": [8051, 55, 96], ""trial_type"": ""mouselab-mdp"", ""trialTime"": 10183, ""rewards"": [4, -4, 24], ""stateRewards"": ["""", 2, 8, -48, -24, 2, 8, -24, -48, 4, -4, 24, -48], ""actionTimes"": [8057, 8626, 9235], ""trial_id"": 495354184512700500, ""time_elapsed"": 424492, ""actions"": [""left"", ""left"", ""up""], ""trialIndex"": 22, ""score"": 18, ""trial_index"": 26, ""simulationMode"": [null, null, null], ""queries"": {""mouseover"": {""state"": {""target"": [], ""time"": []}, ""edge"": {""target"": [], ""time"": []}}, ""click"": {""state"": {""target"": [""3"", ""4"", ""7"", ""8"", ""11"", ""12""], ""time"": [944, 1775, 2620, 3357, 4338, 5040]}, ""edge"": {""target"": [], ""time"": []}}, ""mouseout"": {""state"": {""target"": [], ""time"": []}, ""edge"": {""target"": [], ""time"": []}}}, ""path"": [""0"", ""9"", ""10"", ""11""], ""internal_node_id"": ""0.0-1.0-3.0-22.0"", ""block"": ""test""}"
A1DK1B0L0V9KHJ:3LEIZ60CDJZPSXNEFWEC8R6ZAPM9Z6,27,1522877737676,"{""rt"": [10708, 94, 54], ""trial_type"": ""mouselab-mdp"", ""trialTime"": 12550, ""rewards"": [-2, 4, 24], ""stateRewards"": ["""", -2, 4, -24, 24, -2, -4, -48, -48, 4, -8, 24, 24], ""actionTimes"": [10711, 11303, 11864], ""trial_id"": 282020194745400500, ""time_elapsed"": 438086, ""actions"": [""up"", ""up"", ""left""], ""trialIndex"": 23, ""score"": 18, ""trial_index"": 27, ""simulationMode"": [null, null, null], ""queries"": {""mouseover"": {""state"": {""target"": [], ""time"": []}, ""edge"": {""target"": [], ""time"": []}}, ""click"": {""state"": {""target"": [""11"", ""8"", ""7"", ""3"", ""4"", ""12"", ""2"", ""10""], ""time"": [1001, 2215, 3032, 4310, 5072, 7105, 8741, 9449]}, ""edge"": {""target"": [], ""time"": []}}, ""mouseout"": {""state"": {""target"": [], ""time"": []}, ""edge"": {""target"": [], ""time"": []}}}, ""path"": [""0"", ""1"", ""2"", ""4""], ""internal_node_id"": ""0.0-1.0-3.0-23.0"", ""block"": ""test""}"
A1DK1B0L0V9KHJ:3LEIZ60CDJZPSXNEFWEC8R6ZAPM9Z6,28,1522877749914,"{""rt"": [9087, 98, 141], ""trial_type"": ""mouselab-mdp"", ""trialTime"": 11188, ""rewards"": [2, -4, 48], ""stateRewards"": ["""", 2, -4, 48, 24, -2, -4, 24, 24, 2, -8, -24, 24], ""actionTimes"": [9095, 9710, 10369], ""trial_id"": 556601214791588500, ""time_elapsed"": 450324, ""actions"": [""up"", ""up"", ""right""], ""trialIndex"": 24, ""score"": 39, ""trial_index"": 28, ""simulationMode"": [null, null, null], ""queries"": {""mouseover"": {""state"": {""target"": [], ""time"": []}, ""edge"": {""target"": [], ""time"": []}}, ""click"": {""state"": {""target"": [""4"", ""7"", ""8"", ""3"", ""2"", ""12"", ""11""], ""time"": [2327, 3629, 4367, 5177, 6228, 7302, 7898]}, ""edge"": {""target"": [], ""time"": []}}, ""mouseout"": {""state"": {""target"": [], ""time"": []}, ""edge"": {""target"": [], ""time"": []}}}, ""path"": [""0"", ""1"", ""2"", ""3""], ""internal_node_id"": ""0.0-1.0-3.0-24.0"", ""block"": ""test""}"
A1DK1B0L0V9KHJ:3LEIZ60CDJZPSXNEFWEC8R6ZAPM9Z6,29,1522877762658,"{""rt"": [9141, 8, 563], ""trial_type"": ""mouselab-mdp"", ""trialTime"": 11700, ""rewards"": [-2, -8, 48], ""stateRewards"": ["""", -2, 8, 24, -48, 2, 4, -24, 24, -2, -8, 48, -24], ""actionTimes"": [9143, 9652, 10740], ""trial_id"": 6282558609452272000, ""time_elapsed"": 463068, ""actions"": [""left"", ""left"", ""up""], ""trialIndex"": 25, ""score"": 31, ""trial_index"": 29, ""simulationMode"": [null, null, null], ""queries"": {""mouseover"": {""state"": {""target"": [], ""time"": []}, ""edge"": {""target"": [], ""time"": []}}, ""click"": {""state"": {""target"": [""4"", ""3"", ""12"", ""11"", ""10"", ""7"", ""8""], ""time"": [1170, 2157, 2951, 3527, 4725, 6120, 6876]}, ""edge"": {""target"": [], ""time"": []}}, ""mouseout"": {""state"": {""target"": [], ""time"": []}, ""edge"": {""target"": [], ""time"": []}}}, ""path"": [""0"", ""9"", ""10"", ""11""], ""internal_node_id"": ""0.0-1.0-3.0-25.0"", ""block"": ""test""}"
A1DK1B0L0V9KHJ:3LEIZ60CDJZPSXNEFWEC8R6ZAPM9Z6,30,1522877776564,"{""rt"": [10795, 36, 103], ""trial_type"": ""mouselab-mdp"", ""trialTime"": 12855, ""rewards"": [4, 8, 24], ""stateRewards"": ["""", 2, 4, 24, -24, 4, 8, -48, 24, 4, -8, -24, 24], ""actionTimes"": [10797, 11330, 11928], ""trial_id"": 8950946188299295000, ""time_elapsed"": 476974, ""actions"": [""right"", ""right"", ""down""], ""trialIndex"": 26, ""score"": 28, ""trial_index"": 30, ""simulationMode"": [null, null, null], ""queries"": {""mouseover"": {""state"": {""target"": [], ""time"": []}, ""edge"": {""target"": [], ""time"": []}}, ""click"": {""state"": {""target"": [""4"", ""3"", ""11"", ""8"", ""7"", ""12"", ""10"", ""6""], ""time"": [1313, 2416, 3524, 4595, 5391, 6915, 8382, 9447]}, ""edge"": {""target"": [], ""time"": []}}, ""mouseout"": {""state"": {""target"": [], ""time"": []}, ""edge"": {""target"": [], ""time"": []}}}, ""path"": [""0"", ""5"", ""6"", ""8""], ""internal_node_id"": ""0.0-1.0-3.0-26.0"", ""block"": ""test""}"
A1DK1B0L0V9KHJ:3LEIZ60CDJZPSXNEFWEC8R6ZAPM9Z6,31,1522877790497,"{""rt"": [10785, 177, 76], ""trial_type"": ""mouselab-mdp"", ""trialTime"": 12884, ""rewards"": [-2, -8, 48], ""stateRewards"": ["""", 4, -8, -48, -48, -4, 4, 24, 24, -2, -8, -24, 48], ""actionTimes"": [10791, 11485, 12068], ""trial_id"": -4569496646062697500, ""time_elapsed"": 490906, ""actions"": [""left"", ""left"", ""down""], ""trialIndex"": 27, ""score"": 31, ""trial_index"": 31, ""simulationMode"": [null, null, null], ""queries"": {""mouseover"": {""state"": {""target"": [], ""time"": []}, ""edge"": {""target"": [], ""time"": []}}, ""click"": {""state"": {""target"": [""4"", ""3"", ""11"", ""8"", ""7"", ""12"", ""10""], ""time"": [849, 1922, 2982, 3846, 4546, 5521, 6376]}, ""edge"": {""target"": [], ""time"": []}}, ""mouseout"": {""state"": {""target"": [], ""time"": []}, ""edge"": {""target"": [], ""time"": []}}}, ""path"": [""0"", ""9"", ""10"", ""12""], ""internal_node_id"": ""0.0-1.0-3.0-27.0"", ""block"": ""test""}"
A1DK1B0L0V9KHJ:3LEIZ60CDJZPSXNEFWEC8R6ZAPM9Z6,32,1522877802403,"{""rt"": [8902, 49, 116], ""trial_type"": ""mouselab-mdp"", ""trialTime"": 10861, ""rewards"": [2, 4, 48], ""stateRewards"": ["""", 4, -8, 24, 24, 2, 4, 24, 48, -2, 4, 24, -48], ""actionTimes"": [8903, 9460, 10076], ""trial_id"": 6722698278557235000, ""time_elapsed"": 502813, ""actions"": [""right"", ""right"", ""down""], ""trialIndex"": 28, ""score"": 49, ""trial_index"": 32, ""simulationMode"": [null, null, null], ""queries"": {""mouseover"": {""state"": {""target"": [], ""time"": []}, ""edge"": {""target"": [], ""time"": []}}, ""click"": {""state"": {""target"": [""11"", ""12"", ""8"", ""6"", ""2""], ""time"": [1330, 2103, 3565, 4461, 7801]}, ""edge"": {""target"": [], ""time"": []}}, ""mouseout"": {""state"": {""target"": [], ""time"": []}, ""edge"": {""target"": [], ""time"": []}}}, ""path"": [""0"", ""5"", ""6"", ""8""], ""internal_node_id"": ""0.0-1.0-3.0-28.0"", ""block"": ""test""}"
A1DK1B0L0V9KHJ:3LEIZ60CDJZPSXNEFWEC8R6ZAPM9Z6,33,1522877814241,"{""rt"": [3845, 566, 93], ""trial_type"": ""mouselab-mdp"", ""trialTime"": 10797, ""rewards"": [-2, 8, 48], ""stateRewards"": ["""", 2, -4, 24, -24, -2, 8, 24, 48, 4, -4, 48, 48], ""actionTimes"": [3852, 4924, 5519], ""trial_id"": 5246743485396079000, ""time_elapsed"": 514651, ""actions"": [""right"", ""right"", ""down""], ""trialIndex"": 29, ""score"": 51, ""trial_index"": 33, ""simulationMode"": [null, null, null], ""queries"": {""mouseover"": {""state"": {""target"": [], ""time"": []}, ""edge"": {""target"": [], ""time"": []}}, ""click"": {""state"": {""target"": [""7"", ""8"", ""6""], ""time"": [1194, 1973, 3140]}, ""edge"": {""target"": [], ""time"": []}}, ""mouseout"": {""state"": {""target"": [], ""time"": []}, ""edge"": {""target"": [], ""time"": []}}}, ""path"": [""0"", ""5"", ""6"", ""8""], ""internal_node_id"": ""0.0-1.0-3.0-29.0"", ""block"": ""test""}"
A1DK1B0L0V9KHJ:3LEIZ60CDJZPSXNEFWEC8R6ZAPM9Z6,34,1522877887949,"{""rt"": 72693, ""trial_type"": ""survey-multi-choice"", ""responses"": ""[\""$-4 to $4\"",\""$-48 to $48\"",\""$1\"",\""1.5 cents for every $10 you make in the game plus 45 cents\""]"", ""internal_node_id"": ""0.0-1.0-4.0"", ""time_elapsed"": 588359, ""questions"": ""[\""What is the range of node values in the first step?\"",\""What is the range of node values in the last step?\"",\""What is the cost of clicking?\"",\""How much REAL money do you earn?\""]"", ""correct"": null, ""trial_index"": 34}"
A1DK1B0L0V9KHJ:3LEIZ60CDJZPSXNEFWEC8R6ZAPM9Z6,35,1522878004981,"{""rt"": 116025, ""trial_type"": ""survey-text"", ""responses"": ""{\""Q0\"":\""Once I figured out the last ones were the largest in magnitude, I just started checking those. If two 48s were there, I checked one of the second nodes. If it was +8 i went, otherwise I checked the other side then decided\"",\""Q1\"":\""The first nodes were of little consequence, so it wasn't worth clicking them\"",\""Q2\"":\""Once I realized the early nodes were cheaper, it wasn't worth the $1 to reveal them\"",\""Q3\"":\""One of the end nodes\"",\""Q4\"":\""\""}"", ""internal_node_id"": ""0.0-1.0-5.0"", ""time_elapsed"": 705391, ""trial_index"": 35}"
A1DK1B0L0V9KHJ:3LEIZ60CDJZPSXNEFWEC8R6ZAPM9Z6,36,1522878048404,"{""rt"": 42413, ""trial_type"": ""survey-text"", ""responses"": ""{\""Q0\"":\""I learned that knowledge isn't always worth it. Maybe not a great lesson but oh well\"",\""Q1\"":\""nope!\"",\""Q2\"":\""\""}"", ""internal_node_id"": ""0.0-1.0-6.0"", ""time_elapsed"": 748814, ""trial_index"": 36}"
A1DK1B0L0V9KHJ:3LEIZ60CDJZPSXNEFWEC8R6ZAPM9Z6,37,1522878051107,"{""rt"": 1698, ""trial_type"": ""text"", ""internal_node_id"": ""0.0-2.0"", ""time_elapsed"": 751517, ""key_press"": 32, ""trial_index"": 37}"
A1GWM8H8W65VYM:3CN4LGXD5XOOQ17X2FG2DCMHI394YJ,0,1522886202521,"{""rt"": 24744, ""trial_type"": ""survey-text"", ""responses"": ""{\""Q0\"":\""female\"",\""Q1\"":\""43\"",\""Q2\"":\""usa\"",\""Q3\"":\""full time\"",\""Q4\"":\""4\""}"", ""internal_node_id"": ""0.0-0.0"", ""time_elapsed"": 24780, ""trial_index"": 0}"
A1GWM8H8W65VYM:3CN4LGXD5XOOQ17X2FG2DCMHI394YJ,1,1522886206144,"{""rt"": 2616, ""trial_type"": ""text"", ""internal_node_id"": ""0.0-2.0"", ""time_elapsed"": 28405, ""key_press"": 32, ""trial_index"": 1}"
A1H2OUZUEYPWQZ:3ND9UOO81K2GZ4JIT6XVEW3CTGVWLU,0,1522870120352,"{""rt"": 21226, ""trial_type"": ""survey-text"", ""responses"": ""{\""Q0\"":\""Female\"",\""Q1\"":\""29\"",\""Q2\"":\""United States\"",\""Q3\"":\""Self-Employed\"",\""Q4\"":\""5\""}"", ""internal_node_id"": ""0.0-0.0"", ""time_elapsed"": 21272, ""trial_index"": 0}"
A1H2OUZUEYPWQZ:3ND9UOO81K2GZ4JIT6XVEW3CTGVWLU,1,1522870126893,"{""rt"": 5530, ""trial_type"": ""text"", ""internal_node_id"": ""0.0-2.0"", ""time_elapsed"": 27813, ""key_press"": 32, ""trial_index"": 1}"
A1IFQKU85DQSKI:3EG49X351UCD5JL1G7NFRWZMCOKX6Q,0,1522884695334,"{""rt"": 18534, ""trial_type"": ""survey-text"", ""responses"": ""{\""Q0\"":\""Male\"",\""Q1\"":\""28\"",\""Q2\"":\""USA\"",\""Q3\"":\""Self-Employed\"",\""Q4\"":\""3\""}"", ""internal_node_id"": ""0.0-0.0"", ""time_elapsed"": 18544, ""trial_index"": 0}"
A1IFQKU85DQSKI:3EG49X351UCD5JL1G7NFRWZMCOKX6Q,1,1522884699510,"{""rt"": 3171, ""trial_type"": ""text"", ""internal_node_id"": ""0.0-2.0"", ""time_elapsed"": 22720, ""key_press"": 32, ""trial_index"": 1}"
A1J6Z70T78B35V:3A4NIXBJ76ZKUSP4P4R85Y1LVFNML1,0,1522881400914,"{""rt"": 10942, ""trial_type"": ""survey-text"", ""responses"": ""{\""Q0\"":\""female\"",\""Q1\"":\""28\"",\""Q2\"":\""usa\"",\""Q3\"":\""employed\"",\""Q4\"":\""2\""}"", ""internal_node_id"": ""0.0-0.0"", ""time_elapsed"": 10982, ""trial_index"": 0}"
A1J6Z70T78B35V:3A4NIXBJ76ZKUSP4P4R85Y1LVFNML1,1,1522881403306,"{""rt"": 1388, ""trial_type"": ""text"", ""internal_node_id"": ""0.0-2.0"", ""time_elapsed"": 13376, ""key_press"": 32, ""trial_index"": 1}"
A1L00Q877QQVWP:3A4NIXBJ76ZKUSP4P4R85Y1LVEHLMS,0,1522870975854,"{""rt"": 21159, ""trial_type"": ""survey-text"", ""responses"": ""{\""Q0\"":\""non-binary\"",\""Q1\"":\""32\"",\""Q2\"":\""United States of America\"",\""Q3\"":\""Self-Employed\"",\""Q4\"":\""4\""}"", ""internal_node_id"": ""0.0-0.0"", ""time_elapsed"": 21195, ""trial_index"": 0}"
A1L00Q877QQVWP:3A4NIXBJ76ZKUSP4P4R85Y1LVEHLMS,1,1522870984827,"{""rt"": 7970, ""trial_type"": ""text"", ""internal_node_id"": ""0.0-2.0"", ""time_elapsed"": 30168, ""key_press"": 32, ""trial_index"": 1}"
A1MWLK5NE8AS9Q:3JZQSN0I3QAY2QJMSQQFXGC42WJGFA,0,1522872111823,"{""rt"": 27238, ""trial_type"": ""survey-text"", ""responses"": ""{\""Q0\"":\""Female\"",\""Q1\"":\""23\"",\""Q2\"":\""USA\"",\""Q3\"":\""Part-time\"",\""Q4\"":\""2\""}"", ""internal_node_id"": ""0.0-0.0"", ""time_elapsed"": 27265, ""trial_index"": 0}"
A1MWLK5NE8AS9Q:3JZQSN0I3QAY2QJMSQQFXGC42WJGFA,1,1522872149104,"{""rt"": 36266, ""trial_type"": ""text"", ""internal_node_id"": ""0.0-1.0-0.0"", ""time_elapsed"": 64546, ""key_press"": 32, ""trial_index"": 1}"
A1MWLK5NE8AS9Q:3JZQSN0I3QAY2QJMSQQFXGC42WJGFA,2,1522872241277,"{""rt"": 91166, ""trial_type"": ""text"", ""internal_node_id"": ""0.0-1.0-1.0"", ""time_elapsed"": 156719, ""key_press"": 32, ""trial_index"": 2}"
A1MWLK5NE8AS9Q:3JZQSN0I3QAY2QJMSQQFXGC42WJGFA,3,1522872258414,"{""rt"": 16120, ""trial_type"": ""text"", ""internal_node_id"": ""0.0-1.0-2.0"", ""time_elapsed"": 173855, ""key_press"": 32, ""trial_index"": 3}"
A1MWLK5NE8AS9Q:3JZQSN0I3QAY2QJMSQQFXGC42WJGFA,4,1522872300598,"{""rt"": [33743, 381, 394], ""trial_type"": ""mouselab-mdp"", ""trialTime"": 41052, ""rewards"": [4, -8, 48], ""stateRewards"": ["""", 2, 4, 24, -24, 4, -8, 48, -24, -4, 8, -48, 48], ""actionTimes"": [33752, 34663, 35594], ""trial_id"": 5010381167344479000, ""time_elapsed"": 216039, ""actions"": [""right"", ""right"", ""up""], ""trialIndex"": 0, ""score"": 38, ""trial_index"": 4, ""simulationMode"": [null, null, null], ""queries"": {""mouseover"": {""state"": {""target"": [], ""time"": []}, ""edge"": {""target"": [], ""time"": []}}, ""click"": {""state"": {""target"": [""5"", ""1"", ""9"", ""7"", ""6"", ""4""], ""time"": [16816, 18710, 19813, 24292, 25368, 31696]}, ""edge"": {""target"": [], ""time"": []}}, ""mouseout"": {""state"": {""target"": [], ""time"": []}, ""edge"": {""target"": [], ""time"": []}}}, ""path"": [""0"", ""5"", ""6"", ""7""], ""internal_node_id"": ""0.0-1.0-3.0-0.0"", ""block"": ""test""}"
A1MWLK5NE8AS9Q:3JZQSN0I3QAY2QJMSQQFXGC42WJGFA,5,1522872321198,"{""rt"": [13710, 624, 450], ""trial_type"": ""mouselab-mdp"", ""trialTime"": 19503, ""rewards"": [-2, 8, 48], ""stateRewards"": ["""", -4, -8, 24, -24, -2, 8, 24, 48, 4, -4, 24, -48], ""actionTimes"": [13718, 14881, 15847], ""trial_id"": -1100449030722574200, ""time_elapsed"": 236639, ""actions"": [""right"", ""right"", ""down""], ""trialIndex"": 1, ""score"": 49, ""trial_index"": 5, ""simulationMode"": [null, null, null], ""queries"": {""mouseover"": {""state"": {""target"": [], ""time"": []}, ""edge"": {""target"": [], ""time"": []}}, ""click"": {""state"": {""target"": [""4"", ""11"", ""7"", ""8"", ""6""], ""time"": [3995, 7490, 8953, 10432, 12448]}, ""edge"": {""target"": [], ""time"": []}}, ""mouseout"": {""state"": {""target"": [], ""time"": []}, ""edge"": {""target"": [], ""time"": []}}}, ""path"": [""0"", ""5"", ""6"", ""8""], ""internal_node_id"": ""0.0-1.0-3.0-1.0"", ""block"": ""test""}"
A1MWLK5NE8AS9Q:3JZQSN0I3QAY2QJMSQQFXGC42WJGFA,6,1522872345496,"{""rt"": [20081, 320, 296], ""trial_type"": ""mouselab-mdp"", ""trialTime"": 23222, ""rewards"": [4, 8, 24], ""stateRewards"": ["""", 2, 4, 24, -24, 4, 8, -48, 24, 4, -8, -24, 24], ""actionTimes"": [20086, 20925, 21738], ""trial_id"": 8950946188299295000, ""time_elapsed"": 260938, ""actions"": [""right"", ""right"", ""down""], ""trialIndex"": 2, ""score"": 26, ""trial_index"": 6, ""simulationMode"": [null, null, null], ""queries"": {""mouseover"": {""state"": {""target"": [], ""time"": []}, ""edge"": {""target"": [], ""time"": []}}, ""click"": {""state"": {""target"": [""12"", ""11"", ""8"", ""7"", ""6"", ""5"", ""4"", ""3"", ""2"", ""1""], ""time"": [3692, 4953, 7083, 8289, 11928, 12837, 14330, 15501, 17210, 18053]}, ""edge"": {""target"": [], ""time"": []}}, ""mouseout"": {""state"": {""target"": [], ""time"": []}, ""edge"": {""target"": [], ""time"": []}}}, ""path"": [""0"", ""5"", ""6"", ""8""], ""internal_node_id"": ""0.0-1.0-3.0-2.0"", ""block"": ""test""}"
A1MWLK5NE8AS9Q:3JZQSN0I3QAY2QJMSQQFXGC42WJGFA,7,1522872360446,"{""rt"": [9203, 274, 506], ""trial_type"": ""mouselab-mdp"", ""trialTime"": 13854, ""rewards"": [-4, -4, 48], ""stateRewards"": ["""", 2, -4, -24, -24, 4, -8, -48, -48, -4, -4, 48, 48], ""actionTimes"": [9207, 9992, 11020], ""trial_id"": -7913607226466677000, ""time_elapsed"": 275888, ""actions"": [""left"", ""left"", ""up""], ""trialIndex"": 3, ""score"": 37, ""trial_index"": 7, ""simulationMode"": [null, null, null], ""queries"": {""mouseover"": {""state"": {""target"": [], ""time"": []}, ""edge"": {""target"": [], ""time"": []}}, ""click"": {""state"": {""target"": [""8"", ""3"", ""11""], ""time"": [2889, 5537, 7257]}, ""edge"": {""target"": [], ""time"": []}}, ""mouseout"": {""state"": {""target"": [], ""time"": []}, ""edge"": {""target"": [], ""time"": []}}}, ""path"": [""0"", ""9"", ""10"", ""11""], ""internal_node_id"": ""0.0-1.0-3.0-3.0"", ""block"": ""test""}"
A1MWLK5NE8AS9Q:3JZQSN0I3QAY2QJMSQQFXGC42WJGFA,8,1522872378643,"{""rt"": [13773, 492, 397], ""trial_type"": ""mouselab-mdp"", ""trialTime"": 17126, ""rewards"": [-4, 4, 24], ""stateRewards"": ["""", -2, 4, 24, -24, -4, 4, -24, 24, -4, -8, -24, 24], ""actionTimes"": [13776, 14788, 15714], ""trial_id"": -3142242075455045000, ""time_elapsed"": 294085, ""actions"": [""right"", ""right"", ""down""], ""trialIndex"": 4, ""score"": 17, ""trial_index"": 8, ""simulationMode"": [null, null, null], ""queries"": {""mouseover"": {""state"": {""target"": [], ""time"": []}, ""edge"": {""target"": [], ""time"": []}}, ""click"": {""state"": {""target"": [""7"", ""11"", ""3"", ""4"", ""8"", ""12"", ""6""], ""time"": [1672, 2950, 4030, 5404, 6697, 8531, 12559]}, ""edge"": {""target"": [], ""time"": []}}, ""mouseout"": {""state"": {""target"": [], ""time"": []}, ""edge"": {""target"": [], ""time"": []}}}, ""path"": [""0"", ""5"", ""6"", ""8""], ""internal_node_id"": ""0.0-1.0-3.0-4.0"", ""block"": ""test""}"
A1MWLK5NE8AS9Q:3JZQSN0I3QAY2QJMSQQFXGC42WJGFA,9,1522872389314,"{""rt"": [4567, 392, 421], ""trial_type"": ""mouselab-mdp"", ""trialTime"": 9578, ""rewards"": [-4, 8, 48], ""stateRewards"": ["""", -4, 8, 48, -24, -2, -4, 24, -48, 4, 4, 48, -48], ""actionTimes"": [4572, 5478, 6431], ""trial_id"": 7263244810589990000, ""time_elapsed"": 304756, ""actions"": [""up"", ""up"", ""right""], ""trialIndex"": 5, ""score"": 51, ""trial_index"": 9, ""simulationMode"": [null, null, null], ""queries"": {""mouseover"": {""state"": {""target"": [], ""time"": []}, ""edge"": {""target"": [], ""time"": []}}, ""click"": {""state"": {""target"": [""3""], ""time"": [3089]}, ""edge"": {""target"": [], ""time"": []}}, ""mouseout"": {""state"": {""target"": [], ""time"": []}, ""edge"": {""target"": [], ""time"": []}}}, ""path"": [""0"", ""1"", ""2"", ""3""], ""internal_node_id"": ""0.0-1.0-3.0-5.0"", ""block"": ""test""}"
A1MWLK5NE8AS9Q:3JZQSN0I3QAY2QJMSQQFXGC42WJGFA,10,1522872408221,"{""rt"": [14553, 369, 233], ""trial_type"": ""mouselab-mdp"", ""trialTime"": 17796, ""rewards"": [2, 4, 24], ""stateRewards"": ["""", -2, -4, -48, -48, 2, -8, -24, -24, 2, 4, 24, 24], ""actionTimes"": [14563, 15457, 16221], ""trial_id"": -7656966127788694000, ""time_elapsed"": 323662, ""actions"": [""left"", ""left"", ""down""], ""trialIndex"": 6, ""score"": 22, ""trial_index"": 10, ""simulationMode"": [null, null, null], ""queries"": {""mouseover"": {""state"": {""target"": [], ""time"": []}, ""edge"": {""target"": [], ""time"": []}}, ""click"": {""state"": {""target"": [""3"", ""4"", ""5"", ""10"", ""11"", ""7"", ""8"", ""12""], ""time"": [1941, 3962, 7429, 8937, 10136, 11285, 12168, 13419]}, ""edge"": {""target"": [], ""time"": []}}, ""mouseout"": {""state"": {""target"": [], ""time"": []}, ""edge"": {""target"": [], ""time"": []}}}, ""path"": [""0"", ""9"", ""10"", ""12""], ""internal_node_id"": ""0.0-1.0-3.0-6.0"", ""block"": ""test""}"
A1MWLK5NE8AS9Q:3JZQSN0I3QAY2QJMSQQFXGC42WJGFA,11,1522872421411,"{""rt"": [8679, 328, 552], ""trial_type"": ""mouselab-mdp"", ""trialTime"": 12108, ""rewards"": [2, -4, 48], ""stateRewards"": ["""", 2, -4, 48, 24, -2, -4, 24, 24, 2, -8, -24, 24], ""actionTimes"": [8682, 9543, 10608], ""trial_id"": 556601214791588500, ""time_elapsed"": 336853, ""actions"": [""up"", ""up"", ""right""], ""trialIndex"": 7, ""score"": 41, ""trial_index"": 11, ""simulationMode"": [null, null, null], ""queries"": {""mouseover"": {""state"": {""target"": [], ""time"": []}, ""edge"": {""target"": [], ""time"": []}}, ""click"": {""state"": {""target"": [""8"", ""11"", ""7"", ""12"", ""3""], ""time"": [1429, 3266, 4719, 6215, 7425]}, ""edge"": {""target"": [], ""time"": []}}, ""mouseout"": {""state"": {""target"": [], ""time"": []}, ""edge"": {""target"": [], ""time"": []}}}, ""path"": [""0"", ""1"", ""2"", ""3""], ""internal_node_id"": ""0.0-1.0-3.0-7.0"", ""block"": ""test""}"
A1MWLK5NE8AS9Q:3JZQSN0I3QAY2QJMSQQFXGC42WJGFA,12,1522872431287,"{""rt"": [4289, 299, 348], ""trial_type"": ""mouselab-mdp"", ""trialTime"": 8788, ""rewards"": [-2, -8, 48], ""stateRewards"": ["""", 4, -8, -48, -48, -4, 4, 24, 24, -2, -8, -24, 48], ""actionTimes"": [4294, 5122, 5980], ""trial_id"": -4569496646062697500, ""time_elapsed"": 346728, ""actions"": [""left"", ""left"", ""down""], ""trialIndex"": 8, ""score"": 36, ""trial_index"": 12, ""simulationMode"": [null, null, null], ""queries"": {""mouseover"": {""state"": {""target"": [], ""time"": []}, ""edge"": {""target"": [], ""time"": []}}, ""click"": {""state"": {""target"": [""3"", ""12""], ""time"": [1073, 2633]}, ""edge"": {""target"": [], ""time"": []}}, ""mouseout"": {""state"": {""target"": [], ""time"": []}, ""edge"": {""target"": [], ""time"": []}}}, ""path"": [""0"", ""9"", ""10"", ""12""], ""internal_node_id"": ""0.0-1.0-3.0-8.0"", ""block"": ""test""}"
A1MWLK5NE8AS9Q:3JZQSN0I3QAY2QJMSQQFXGC42WJGFA,13,1522872441624,"{""rt"": [5199, 312, 294], ""trial_type"": ""mouselab-mdp"", ""trialTime"": 9218, ""rewards"": [-2, -8, 48], ""stateRewards"": ["""", -2, 8, 24, -48, 2, 4, -24, 24, -2, -8, 48, -24], ""actionTimes"": [5207, 6041, 6852], ""trial_id"": 6282558609452272000, ""time_elapsed"": 357066, ""actions"": [""left"", ""left"", ""up""], ""trialIndex"": 9, ""score"": 36, ""trial_index"": 13, ""simulationMode"": [null, null, null], ""queries"": {""mouseover"": {""state"": {""target"": [], ""time"": []}, ""edge"": {""target"": [], ""time"": []}}, ""click"": {""state"": {""target"": [""8"", ""11""], ""time"": [1757, 4270]}, ""edge"": {""target"": [], ""time"": []}}, ""mouseout"": {""state"": {""target"": [], ""time"": []}, ""edge"": {""target"": [], ""time"": []}}}, ""path"": [""0"", ""9"", ""10"", ""11""], ""internal_node_id"": ""0.0-1.0-3.0-9.0"", ""block"": ""test""}"
A1MWLK5NE8AS9Q:3JZQSN0I3QAY2QJMSQQFXGC42WJGFA,14,1522872454750,"{""rt"": [8363, 325, 528], ""trial_type"": ""mouselab-mdp"", ""trialTime"": 12042, ""rewards"": [2, -4, 24], ""stateRewards"": ["""", 2, -4, 24, 24, -4, 4, -24, -24, -2, 4, -24, -48], ""actionTimes"": [8368, 9232, 10291], ""trial_id"": 7862543089384343000, ""time_elapsed"": 370192, ""actions"": [""up"", ""up"", ""right""], ""trialIndex"": 10, ""score"": 18, ""trial_index"": 14, ""simulationMode"": [null, null, null], ""queries"": {""mouseover"": {""state"": {""target"": [], ""time"": []}, ""edge"": {""target"": [], ""time"": []}}, ""click"": {""state"": {""target"": [""11"", ""7"", ""3"", ""4""], ""time"": [2330, 3542, 5041, 6612]}, ""edge"": {""target"": [], ""time"": []}}, ""mouseout"": {""state"": {""target"": [], ""time"": []}, ""edge"": {""target"": [], ""time"": []}}}, ""path"": [""0"", ""1"", ""2"", ""3""], ""internal_node_id"": ""0.0-1.0-3.0-10.0"", ""block"": ""test""}"
A1MWLK5NE8AS9Q:3JZQSN0I3QAY2QJMSQQFXGC42WJGFA,15,1522872464610,"{""rt"": [2637, 267, 249], ""trial_type"": ""mouselab-mdp"", ""trialTime"": 8775, ""rewards"": [-2, 4, 48], ""stateRewards"": ["""", 4, 8, -24, 24, -2, 4, -24, 48, 2, -8, 24, 48], ""actionTimes"": [2641, 3430, 4193], ""trial_id"": 8866052500453722000, ""time_elapsed"": 380052, ""actions"": [""right"", ""right"", ""down""], ""trialIndex"": 11, ""score"": 49, ""trial_index"": 15, ""simulationMode"": [null, null, null], ""queries"": {""mouseover"": {""state"": {""target"": [], ""time"": []}, ""edge"": {""target"": [], ""time"": []}}, ""click"": {""state"": {""target"": [""8""], ""time"": [1480]}, ""edge"": {""target"": [], ""time"": []}}, ""mouseout"": {""state"": {""target"": [], ""time"": []}, ""edge"": {""target"": [], ""time"": []}}}, ""path"": [""0"", ""5"", ""6"", ""8""], ""internal_node_id"": ""0.0-1.0-3.0-11.0"", ""block"": ""test""}"
A1MWLK5NE8AS9Q:3JZQSN0I3QAY2QJMSQQFXGC42WJGFA,16,1522872479030,"{""rt"": [9843, 312, 391], ""trial_type"": ""mouselab-mdp"", ""trialTime"": 13286, ""rewards"": [-2, 4, 48], ""stateRewards"": ["""", -2, 4, 48, 24, -4, 8, -48, 24, 4, -8, 24, 24], ""actionTimes"": [9850, 10675, 11601], ""trial_id"": -1461775893828862000, ""time_elapsed"": 394471, ""actions"": [""up"", ""up"", ""right""], ""trialIndex"": 12, ""score"": 45, ""trial_index"": 16, ""simulationMode"": [null, null, null], ""queries"": {""mouseover"": {""state"": {""target"": [], ""time"": []}, ""edge"": {""target"": [], ""time"": []}}, ""click"": {""state"": {""target"": [""12"", ""4"", ""7"", ""8"", ""3""], ""time"": [1947, 3693, 6001, 6980, 8832]}, ""edge"": {""target"": [], ""time"": []}}, ""mouseout"": {""state"": {""target"": [], ""time"": []}, ""edge"": {""target"": [], ""time"": []}}}, ""path"": [""0"", ""1"", ""2"", ""3""], ""internal_node_id"": ""0.0-1.0-3.0-12.0"", ""block"": ""test""}"
A1MWLK5NE8AS9Q:3JZQSN0I3QAY2QJMSQQFXGC42WJGFA,17,1522872488861,"{""rt"": [4779, 157, 63], ""trial_type"": ""mouselab-mdp"", ""trialTime"": 8747, ""rewards"": [-2, -4, 48], ""stateRewards"": ["""", -2, -4, 48, -24, 2, -4, 48, 24, -2, -8, -24, -24], ""actionTimes"": [4782, 5472, 6057], ""trial_id"": 2593864447454748000, ""time_elapsed"": 404303, ""actions"": [""up"", ""up"", ""right""], ""trialIndex"": 13, ""score"": 40, ""trial_index"": 17, ""simulationMode"": [null, null, null], ""queries"": {""mouseover"": {""state"": {""target"": [], ""time"": []}, ""edge"": {""target"": [], ""time"": []}}, ""click"": {""state"": {""target"": [""12"", ""3""], ""time"": [1680, 3703]}, ""edge"": {""target"": [], ""time"": []}}, ""mouseout"": {""state"": {""target"": [], ""time"": []}, ""edge"": {""target"": [], ""time"": []}}}, ""path"": [""0"", ""1"", ""2"", ""3""], ""internal_node_id"": ""0.0-1.0-3.0-13.0"", ""block"": ""test""}"
A1MWLK5NE8AS9Q:3JZQSN0I3QAY2QJMSQQFXGC42WJGFA,18,1522872500842,"{""rt"": [6745, 647, 304], ""trial_type"": ""mouselab-mdp"", ""trialTime"": 10903, ""rewards"": [-4, 4, 48], ""stateRewards"": ["""", 2, -4, 24, -48, -4, -8, -48, -48, -4, 4, -48, 48], ""actionTimes"": [6750, 7925, 8741], ""trial_id"": 2118335984300500500, ""time_elapsed"": 416284, ""actions"": [""left"", ""left"", ""down""], ""trialIndex"": 14, ""score"": 45, ""trial_index"": 18, ""simulationMode"": [null, null, null], ""queries"": {""mouseover"": {""state"": {""target"": [], ""time"": []}, ""edge"": {""target"": [], ""time"": []}}, ""click"": {""state"": {""target"": [""4"", ""8"", ""12""], ""time"": [2111, 4024, 5375]}, ""edge"": {""target"": [], ""time"": []}}, ""mouseout"": {""state"": {""target"": [], ""time"": []}, ""edge"": {""target"": [], ""time"": []}}}, ""path"": [""0"", ""9"", ""10"", ""12""], ""internal_node_id"": ""0.0-1.0-3.0-14.0"", ""block"": ""test""}"
A1MWLK5NE8AS9Q:3JZQSN0I3QAY2QJMSQQFXGC42WJGFA,19,1522872510910,"{""rt"": [4027, 94, 266], ""trial_type"": ""mouselab-mdp"", ""trialTime"": 8977, ""rewards"": [4, 4, 48], ""stateRewards"": ["""", 4, 4, -48, 48, -2, 4, -48, -24, -2, -4, -48, 24], ""actionTimes"": [4039, 4648, 5439], ""trial_id"": -5006809819184351000, ""time_elapsed"": 426351, ""actions"": [""up"", ""up"", ""left""], ""trialIndex"": 15, ""score"": 54, ""trial_index"": 19, ""simulationMode"": [null, null, null], ""queries"": {""mouseover"": {""state"": {""target"": [], ""time"": []}, ""edge"": {""target"": [], ""time"": []}}, ""click"": {""state"": {""target"": [""8"", ""4""], ""time"": [1398, 2821]}, ""edge"": {""target"": [], ""time"": []}}, ""mouseout"": {""state"": {""target"": [], ""time"": []}, ""edge"": {""target"": [], ""time"": []}}}, ""path"": [""0"", ""1"", ""2"", ""4""], ""internal_node_id"": ""0.0-1.0-3.0-15.0"", ""block"": ""test""}"
A1MWLK5NE8AS9Q:3JZQSN0I3QAY2QJMSQQFXGC42WJGFA,20,1522872521368,"{""rt"": [6728, 13, 220], ""trial_type"": ""mouselab-mdp"", ""trialTime"": 9316, ""rewards"": [-4, -4, 48], ""stateRewards"": ["""", -4, -8, -48, -48, -4, -4, 48, 24, 4, 4, 48, -48], ""actionTimes"": [6736, 7277, 8032], ""trial_id"": -9063084800167141000, ""time_elapsed"": 436810, ""actions"": [""right"", ""right"", ""up""], ""trialIndex"": 16, ""score"": 36, ""trial_index"": 20, ""simulationMode"": [null, null, null], ""queries"": {""mouseover"": {""state"": {""target"": [], ""time"": []}, ""edge"": {""target"": [], ""time"": []}}, ""click"": {""state"": {""target"": [""4"", ""8"", ""12"", ""7""], ""time"": [1619, 2981, 4521, 5743]}, ""edge"": {""target"": [], ""time"": []}}, ""mouseout"": {""state"": {""target"": [], ""time"": []}, ""edge"": {""target"": [], ""time"": []}}}, ""path"": [""0"", ""5"", ""6"", ""7""], ""internal_node_id"": ""0.0-1.0-3.0-16.0"", ""block"": ""test""}"
A1MWLK5NE8AS9Q:3JZQSN0I3QAY2QJMSQQFXGC42WJGFA,21,1522872530918,"{""rt"": [4096, 37, 245], ""trial_type"": ""mouselab-mdp"", ""trialTime"": 8469, ""rewards"": [-4, -8, 48], ""stateRewards"": ["""", 4, 8, -24, -24, -4, -8, -48, 48, 2, -8, -24, -48], ""actionTimes"": [4102, 4663, 5437], ""trial_id"": 2630443220538220000, ""time_elapsed"": 446360, ""actions"": [""right"", ""right"", ""down""], ""trialIndex"": 17, ""score"": 34, ""trial_index"": 21, ""simulationMode"": [null, null, null], ""queries"": {""mouseover"": {""state"": {""target"": [], ""time"": []}, ""edge"": {""target"": [], ""time"": []}}, ""click"": {""state"": {""target"": [""4"", ""8""], ""time"": [1668, 3101]}, ""edge"": {""target"": [], ""time"": []}}, ""mouseout"": {""state"": {""target"": [], ""time"": []}, ""edge"": {""target"": [], ""time"": []}}}, ""path"": [""0"", ""5"", ""6"", ""8""], ""internal_node_id"": ""0.0-1.0-3.0-17.0"", ""block"": ""test""}"
A1MWLK5NE8AS9Q:3JZQSN0I3QAY2QJMSQQFXGC42WJGFA,22,1522872542129,"{""rt"": [5108, 105, 320], ""trial_type"": ""mouselab-mdp"", ""trialTime"": 10095, ""rewards"": [4, 8, 48], ""stateRewards"": ["""", 4, 8, -24, 48, 2, 8, -48, -48, 2, -4, 24, -48], ""actionTimes"": [5116, 5737, 6587], ""trial_id"": -6668518537832265000, ""time_elapsed"": 457571, ""actions"": [""up"", ""up"", ""left""], ""trialIndex"": 18, ""score"": 58, ""trial_index"": 22, ""simulationMode"": [null, null, null], ""queries"": {""mouseover"": {""state"": {""target"": [], ""time"": []}, ""edge"": {""target"": [], ""time"": []}}, ""click"": {""state"": {""target"": [""8"", ""4""], ""time"": [1780, 3544]}, ""edge"": {""target"": [], ""time"": []}}, ""mouseout"": {""state"": {""target"": [], ""time"": []}, ""edge"": {""target"": [], ""time"": []}}}, ""path"": [""0"", ""1"", ""2"", ""4""], ""internal_node_id"": ""0.0-1.0-3.0-18.0"", ""block"": ""test""}"
A1MWLK5NE8AS9Q:3JZQSN0I3QAY2QJMSQQFXGC42WJGFA,23,1522872555584,"{""rt"": [8709, 701, 287], ""trial_type"": ""mouselab-mdp"", ""trialTime"": 12351, ""rewards"": [4, -8, 48], ""stateRewards"": ["""", 4, -4, -24, 24, 2, 4, -24, -48, 4, -8, 48, -48], ""actionTimes"": [8715, 9942, 10758], ""trial_id"": 4251687641687985000, ""time_elapsed"": 471025, ""actions"": [""left"", ""left"", ""up""], ""trialIndex"": 19, ""score"": 39, ""trial_index"": 23, ""simulationMode"": [null, null, null], ""queries"": {""mouseover"": {""state"": {""target"": [], ""time"": []}, ""edge"": {""target"": [], ""time"": []}}, ""click"": {""state"": {""target"": [""4"", ""8"", ""12"", ""3"", ""11""], ""time"": [1852, 3161, 4225, 6341, 7569]}, ""edge"": {""target"": [], ""time"": []}}, ""mouseout"": {""state"": {""target"": [], ""time"": []}, ""edge"": {""target"": [], ""time"": []}}}, ""path"": [""0"", ""9"", ""10"", ""11""], ""internal_node_id"": ""0.0-1.0-3.0-19.0"", ""block"": ""test""}"
A1MWLK5NE8AS9Q:3JZQSN0I3QAY2QJMSQQFXGC42WJGFA,24,1522872570299,"{""rt"": [10088, 744, 229], ""trial_type"": ""mouselab-mdp"", ""trialTime"": 13632, ""rewards"": [4, -8, 48], ""stateRewards"": ["""", -4, 4, -24, -24, -4, -8, 24, -24, 4, -8, 48, -48], ""actionTimes"": [10091, 11355, 12101], ""trial_id"": 460924718031657700, ""time_elapsed"": 485741, ""actions"": [""left"", ""left"", ""up""], ""trialIndex"": 20, ""score"": 38, ""trial_index"": 24, ""simulationMode"": [null, null, null], ""queries"": {""mouseover"": {""state"": {""target"": [], ""time"": []}, ""edge"": {""target"": [], ""time"": []}}, ""click"": {""state"": {""target"": [""4"", ""8"", ""12"", ""7"", ""3"", ""11""], ""time"": [1197, 2496, 4834, 6118, 7968, 9227]}, ""edge"": {""target"": [], ""time"": []}}, ""mouseout"": {""state"": {""target"": [], ""time"": []}, ""edge"": {""target"": [], ""time"": []}}}, ""path"": [""0"", ""9"", ""10"", ""11""], ""internal_node_id"": ""0.0-1.0-3.0-20.0"", ""block"": ""test""}"
A1MWLK5NE8AS9Q:3JZQSN0I3QAY2QJMSQQFXGC42WJGFA,25,1522872580014,"{""rt"": [5740, 166, 207], ""trial_type"": ""mouselab-mdp"", ""trialTime"": 8648, ""rewards"": [4, -4, 48], ""stateRewards"": ["""", 4, -4, 48, -48, -2, -8, 24, 24, -2, 4, 48, -48], ""actionTimes"": [5743, 6432, 7150], ""trial_id"": 8045829731203394000, ""time_elapsed"": 495456, ""actions"": [""up"", ""up"", ""right""], ""trialIndex"": 21, ""score"": 45, ""trial_index"": 25, ""simulationMode"": [null, null, null], ""queries"": {""mouseover"": {""state"": {""target"": [], ""time"": []}, ""edge"": {""target"": [], ""time"": []}}, ""click"": {""state"": {""target"": [""8"", ""4"", ""3""], ""time"": [1064, 3255, 4784]}, ""edge"": {""target"": [], ""time"": []}}, ""mouseout"": {""state"": {""target"": [], ""time"": []}, ""edge"": {""target"": [], ""time"": []}}}, ""path"": [""0"", ""1"", ""2"", ""3""], ""internal_node_id"": ""0.0-1.0-3.0-21.0"", ""block"": ""test""}"
A1MWLK5NE8AS9Q:3JZQSN0I3QAY2QJMSQQFXGC42WJGFA,26,1522872590701,"{""rt"": [2626, 573, 202], ""trial_type"": ""mouselab-mdp"", ""trialTime"": 9599, ""rewards"": [-2, -4, 48], ""stateRewards"": ["""", -2, 4, -48, -24, 2, 4, 24, 24, -2, -4, 48, -24], ""actionTimes"": [2630, 3734, 4460], ""trial_id"": 7457324294976434000, ""time_elapsed"": 506142, ""actions"": [""left"", ""left"", ""up""], ""trialIndex"": 22, ""score"": 41, ""trial_index"": 26, ""simulationMode"": [null, null, null], ""queries"": {""mouseover"": {""state"": {""target"": [], ""time"": []}, ""edge"": {""target"": [], ""time"": []}}, ""click"": {""state"": {""target"": [""11""], ""time"": [1579]}, ""edge"": {""target"": [], ""time"": []}}, ""mouseout"": {""state"": {""target"": [], ""time"": []}, ""edge"": {""target"": [], ""time"": []}}}, ""path"": [""0"", ""9"", ""10"", ""11""], ""internal_node_id"": ""0.0-1.0-3.0-22.0"", ""block"": ""test""}"
A1MWLK5NE8AS9Q:3JZQSN0I3QAY2QJMSQQFXGC42WJGFA,27,1522872600556,"{""rt"": [3015, 36, 148], ""trial_type"": ""mouselab-mdp"", ""trialTime"": 8767, ""rewards"": [-4, 8, 48], ""stateRewards"": ["""", -2, 8, -24, 24, -4, 8, 48, 24, -2, -4, 24, -48], ""actionTimes"": [3021, 3585, 4258], ""trial_id"": 2561475919526080000, ""time_elapsed"": 515998, ""actions"": [""right"", ""right"", ""up""], ""trialIndex"": 23, ""score"": 51, ""trial_index"": 27, ""simulationMode"": [null, null, null], ""queries"": {""mouseover"": {""state"": {""target"": [], ""time"": []}, ""edge"": {""target"": [], ""time"": []}}, ""click"": {""state"": {""target"": [""7""], ""time"": [1938]}, ""edge"": {""target"": [], ""time"": []}}, ""mouseout"": {""state"": {""target"": [], ""time"": []}, ""edge"": {""target"": [], ""time"": []}}}, ""path"": [""0"", ""5"", ""6"", ""7""], ""internal_node_id"": ""0.0-1.0-3.0-23.0"", ""block"": ""test""}"
A1MWLK5NE8AS9Q:3JZQSN0I3QAY2QJMSQQFXGC42WJGFA,28,1522872612188,"{""rt"": [6959, 497, 248], ""trial_type"": ""mouselab-mdp"", ""trialTime"": 10535, ""rewards"": [-2, -8, 48], ""stateRewards"": ["""", -4, -4, -48, -48, -2, -8, 24, 48, 2, 4, -24, -48], ""actionTimes"": [6966, 7977, 8751], ""trial_id"": -1848243683464450000, ""time_elapsed"": 527629, ""actions"": [""right"", ""right"", ""down""], ""trialIndex"": 24, ""score"": 33, ""trial_index"": 28, ""simulationMode"": [null, null, null], ""queries"": {""mouseover"": {""state"": {""target"": [], ""time"": []}, ""edge"": {""target"": [], ""time"": []}}, ""click"": {""state"": {""target"": [""11"", ""3"", ""7"", ""4"", ""8""], ""time"": [1218, 2979, 3846, 4903, 6008]}, ""edge"": {""target"": [], ""time"": []}}, ""mouseout"": {""state"": {""target"": [], ""time"": []}, ""edge"": {""target"": [], ""time"": []}}}, ""path"": [""0"", ""5"", ""6"", ""8""], ""internal_node_id"": ""0.0-1.0-3.0-24.0"", ""block"": ""test""}"
A1MWLK5NE8AS9Q:3JZQSN0I3QAY2QJMSQQFXGC42WJGFA,29,1522872625460,"{""rt"": [9170, 234, 7], ""trial_type"": ""mouselab-mdp"", ""trialTime"": 12207, ""rewards"": [-2, 8, 48], ""stateRewards"": ["""", 2, 4, -48, -24, -4, -8, 24, -48, -2, 8, 48, -24], ""actionTimes"": [9175, 9917, 10454], ""trial_id"": -8806789642961306000, ""time_elapsed"": 540902, ""actions"": [""left"", ""left"", ""up""], ""trialIndex"": 25, ""score"": 48, ""trial_index"": 29, ""simulationMode"": [null, null, null], ""queries"": {""mouseover"": {""state"": {""target"": [], ""time"": []}, ""edge"": {""target"": [], ""time"": []}}, ""click"": {""state"": {""target"": [""8"", ""4"", ""3"", ""7"", ""12"", ""11""], ""time"": [1420, 2926, 3834, 5823, 6973, 8250]}, ""edge"": {""target"": [], ""time"": []}}, ""mouseout"": {""state"": {""target"": [], ""time"": []}, ""edge"": {""target"": [], ""time"": []}}}, ""path"": [""0"", ""9"", ""10"", ""11""], ""internal_node_id"": ""0.0-1.0-3.0-25.0"", ""block"": ""test""}"
A1MWLK5NE8AS9Q:3JZQSN0I3QAY2QJMSQQFXGC42WJGFA,30,1522872639017,"{""rt"": [9627, 144, 123], ""trial_type"": ""mouselab-mdp"", ""trialTime"": 12476, ""rewards"": [4, -4, 48], ""stateRewards"": ["""", -2, -8, -48, -48, -4, -8, 24, 24, 4, -4, 48, -24], ""actionTimes"": [9631, 10310, 10952], ""trial_id"": -3027317260685893600, ""time_elapsed"": 554458, ""actions"": [""left"", ""left"", ""up""], ""trialIndex"": 26, ""score"": 42, ""trial_index"": 30, ""simulationMode"": [null, null, null], ""queries"": {""mouseover"": {""state"": {""target"": [], ""time"": []}, ""edge"": {""target"": [], ""time"": []}}, ""click"": {""state"": {""target"": [""3"", ""8"", ""7"", ""4"", ""12"", ""11""], ""time"": [2579, 4100, 5152, 6506, 7779, 8875]}, ""edge"": {""target"": [], ""time"": []}}, ""mouseout"": {""state"": {""target"": [], ""time"": []}, ""edge"": {""target"": [], ""time"": []}}}, ""path"": [""0"", ""9"", ""10"", ""11""], ""internal_node_id"": ""0.0-1.0-3.0-26.0"", ""block"": ""test""}"
A1MWLK5NE8AS9Q:3JZQSN0I3QAY2QJMSQQFXGC42WJGFA,31,1522872648710,"{""rt"": [2059, 485, 84], ""trial_type"": ""mouselab-mdp"", ""trialTime"": 8606, ""rewards"": [-4, -4, 48], ""stateRewards"": ["""", -4, 8, 48, 24, 2, -8, -48, -24, -4, -4, 48, -24], ""actionTimes"": [2062, 3076, 3676], ""trial_id"": 3419769505624262700, ""time_elapsed"": 564151, ""actions"": [""left"", ""left"", ""up""], ""trialIndex"": 27, ""score"": 39, ""trial_index"": 31, ""simulationMode"": [null, null, null], ""queries"": {""mouseover"": {""state"": {""target"": [], ""time"": []}, ""edge"": {""target"": [], ""time"": []}}, ""click"": {""state"": {""target"": [""11""], ""time"": [1115]}, ""edge"": {""target"": [], ""time"": []}}, ""mouseout"": {""state"": {""target"": [], ""time"": []}, ""edge"": {""target"": [], ""time"": []}}}, ""path"": [""0"", ""9"", ""10"", ""11""], ""internal_node_id"": ""0.0-1.0-3.0-27.0"", ""block"": ""test""}"
A1MWLK5NE8AS9Q:3JZQSN0I3QAY2QJMSQQFXGC42WJGFA,32,1522872658371,"{""rt"": [2027, 6, 101], ""trial_type"": ""mouselab-mdp"", ""trialTime"": 8582, ""rewards"": [4, 8, 48], ""stateRewards"": ["""", -2, -8, -24, -24, 4, 8, 48, 24, -2, 8, -24, -48], ""actionTimes"": [2031, 2556, 3200], ""trial_id"": 4079752410143045600, ""time_elapsed"": 573813, ""actions"": [""right"", ""right"", ""up""], ""trialIndex"": 28, ""score"": 59, ""trial_index"": 32, ""simulationMode"": [null, null, null], ""queries"": {""mouseover"": {""state"": {""target"": [], ""time"": []}, ""edge"": {""target"": [], ""time"": []}}, ""click"": {""state"": {""target"": [""7""], ""time"": [1016]}, ""edge"": {""target"": [], ""time"": []}}, ""mouseout"": {""state"": {""target"": [], ""time"": []}, ""edge"": {""target"": [], ""time"": []}}}, ""path"": [""0"", ""5"", ""6"", ""7""], ""internal_node_id"": ""0.0-1.0-3.0-28.0"", ""block"": ""test""}"
A1MWLK5NE8AS9Q:3JZQSN0I3QAY2QJMSQQFXGC42WJGFA,33,1522872668331,"{""rt"": [3632, 305, 92], ""trial_type"": ""mouselab-mdp"", ""trialTime"": 8866, ""rewards"": [2, -8, 48], ""stateRewards"": ["""", 4, 4, -48, 48, 4, 4, -24, -24, 2, -8, 48, -24], ""actionTimes"": [3640, 4468, 5086], ""trial_id"": 3802673927624508000, ""time_elapsed"": 583773, ""actions"": [""left"", ""left"", ""up""], ""trialIndex"": 29, ""score"": 40, ""trial_index"": 33, ""simulationMode"": [null, null, null], ""queries"": {""mouseover"": {""state"": {""target"": [], ""time"": []}, ""edge"": {""target"": [], ""time"": []}}, ""click"": {""state"": {""target"": [""7"", ""11""], ""time"": [1585, 2606]}, ""edge"": {""target"": [], ""time"": []}}, ""mouseout"": {""state"": {""target"": [], ""time"": []}, ""edge"": {""target"": [], ""time"": []}}}, ""path"": [""0"", ""9"", ""10"", ""11""], ""internal_node_id"": ""0.0-1.0-3.0-29.0"", ""block"": ""test""}"
A1MWLK5NE8AS9Q:3JZQSN0I3QAY2QJMSQQFXGC42WJGFA,34,1522872710771,"{""rt"": 41373, ""trial_type"": ""survey-multi-choice"", ""responses"": ""[\""$-4 to $4\"",\""$-48 to $48\"",\""$1\"",\""1.5 cents for every $10 you make in the game plus 45 cents\""]"", ""internal_node_id"": ""0.0-1.0-4.0"", ""time_elapsed"": 626213, ""questions"": ""[\""What is the range of node values in the first step?\"",\""What is the range of node values in the last step?\"",\""What is the cost of clicking?\"",\""How much REAL money do you earn?\""]"", ""correct"": null, ""trial_index"": 34}"
A1MWLK5NE8AS9Q:3JZQSN0I3QAY2QJMSQQFXGC42WJGFA,35,1522872989461,"{""rt"": 277660, ""trial_type"": ""survey-text"", ""responses"": ""{\""Q0\"":\""The last steps had the bigger numbers and I wanted to know which step had 48, so I only clicked on the last steps.\"",\""Q1\"":\""The first and second steps had the smallest numbers, so I didn't want to waste my $1 on clicking those.\"",\""Q2\"":\""I stop clicking when I saw 48.\"",\""Q3\"":\""I was most likely to click on the right wing of either last step.\"",\""Q4\"":\""I just clicked on the last steps and tried my best to guess where 48 might be.\""}"", ""internal_node_id"": ""0.0-1.0-5.0"", ""time_elapsed"": 904901, ""trial_index"": 35}"
A1MWLK5NE8AS9Q:3JZQSN0I3QAY2QJMSQQFXGC42WJGFA,36,1522873073393,"{""rt"": 82903, ""trial_type"": ""survey-text"", ""responses"": ""{\""Q0\"":\""I don't think I learned anything. I just learned how to play the game.\"",\""Q1\"":\""No.\"",\""Q2\"":\""No, thank you. I enjoy playing this game. Thanks for making my day a little bit brighter.\""}"", ""internal_node_id"": ""0.0-1.0-6.0"", ""time_elapsed"": 988835, ""trial_index"": 36}"
A1MWLK5NE8AS9Q:3JZQSN0I3QAY2QJMSQQFXGC42WJGFA,37,1522873076041,"{""rt"": 1645, ""trial_type"": ""text"", ""internal_node_id"": ""0.0-2.0"", ""time_elapsed"": 991483, ""key_press"": 32, ""trial_index"": 37}"
A1NH9NLE8FFVSW:3CCZ6YKWR7JRLJ3P887WJNZ49QB95W,0,1522871399226,"{""rt"": 16967, ""trial_type"": ""survey-text"", ""responses"": ""{\""Q0\"":\""female\"",\""Q1\"":\""35\"",\""Q2\"":\""United States\"",\""Q3\"":\""employed\"",\""Q4\"":\""3\""}"", ""internal_node_id"": ""0.0-0.0"", ""time_elapsed"": 17011, ""trial_index"": 0}"
A1NH9NLE8FFVSW:3CCZ6YKWR7JRLJ3P887WJNZ49QB95W,1,1522871404557,"{""rt"": 4330, ""trial_type"": ""text"", ""internal_node_id"": ""0.0-2.0"", ""time_elapsed"": 22344, ""key_press"": 32, ""trial_index"": 1}"
