A119R9WIZRH3D5:3OVR4I9USPJFHZGBB5Z80QJFJWRQ45,0,1522971028378,"{""rt"": 17488, ""trial_type"": ""survey-text"", ""responses"": ""{\""Q0\"":\""female\"",\""Q1\"":\""24\"",\""Q2\"":\""USA\"",\""Q3\"":\""employed part-time\"",\""Q4\"":\""1\""}"", ""internal_node_id"": ""0.0-0.0"", ""time_elapsed"": 17511, ""trial_index"": 0}"
A119R9WIZRH3D5:3OVR4I9USPJFHZGBB5Z80QJFJWRQ45,1,1522971057498,"{""rt"": 28110, ""trial_type"": ""text"", ""internal_node_id"": ""0.0-1.0-0.0"", ""time_elapsed"": 46631, ""key_press"": 32, ""trial_index"": 1}"
A119R9WIZRH3D5:3OVR4I9USPJFHZGBB5Z80QJFJWRQ45,2,1522971078908,"{""rt"": 20399, ""trial_type"": ""text"", ""internal_node_id"": ""0.0-1.0-1.0"", ""time_elapsed"": 68041, ""key_press"": 32, ""trial_index"": 2}"
A119R9WIZRH3D5:3OVR4I9USPJFHZGBB5Z80QJFJWRQ45,3,1522971088967,"{""rt"": 9051, ""trial_type"": ""text"", ""internal_node_id"": ""0.0-1.0-2.0"", ""time_elapsed"": 78100, ""key_press"": 32, ""trial_index"": 3}"
A119R9WIZRH3D5:3OVR4I9USPJFHZGBB5Z80QJFJWRQ45,4,1522971106111,"{""rt"": [9608, 868, 2389], ""trial_type"": ""mouselab-mdp"", ""trialTime"": 15951, ""rewards"": [2, 8, -48], ""stateRewards"": ["""", 2, 8, -48, -24, 2, 8, -24, -48, 4, -4, 24, -48], ""actionTimes"": [9619, 10997, 13882], ""trial_id"": 495354184512700500, ""time_elapsed"": 95244, ""actions"": [""right"", ""right"", ""down""], ""trialIndex"": 0, ""score"": -40, ""trial_index"": 4, ""simulationMode"": [null, null, null], ""queries"": {""mouseover"": {""state"": {""target"": [], ""time"": []}, ""edge"": {""target"": [], ""time"": []}}, ""click"": {""state"": {""target"": [""5"", ""7""], ""time"": [2531, 6910]}, ""edge"": {""target"": [], ""time"": []}}, ""mouseout"": {""state"": {""target"": [], ""time"": []}, ""edge"": {""target"": [], ""time"": []}}}, ""path"": [""0"", ""5"", ""6"", ""8""], ""internal_node_id"": ""0.0-1.0-3.0-0.0"", ""block"": ""test""}"
A119R9WIZRH3D5:3OVR4I9USPJFHZGBB5Z80QJFJWRQ45,5,1522971125680,"{""rt"": [12492, 309, 2468], ""trial_type"": ""mouselab-mdp"", ""trialTime"": 18458, ""rewards"": [4, -8, 48], ""stateRewards"": ["""", -4, 8, -24, -48, -4, 8, -48, 48, 4, -8, -24, 48], ""actionTimes"": [12499, 13308, 16284], ""trial_id"": -1414845178968030700, ""time_elapsed"": 114813, ""actions"": [""left"", ""left"", ""down""], ""trialIndex"": 1, ""score"": 35, ""trial_index"": 5, ""simulationMode"": [null, null, null], ""queries"": {""mouseover"": {""state"": {""target"": [], ""time"": []}, ""edge"": {""target"": [], ""time"": []}}, ""click"": {""state"": {""target"": [""5"", ""1"", ""9"", ""11"", ""10"", ""12"", ""4"", ""3"", ""2""], ""time"": [2014, 3287, 4350, 6314, 7063, 7601, 9955, 10684, 11145]}, ""edge"": {""target"": [], ""time"": []}}, ""mouseout"": {""state"": {""target"": [], ""time"": []}, ""edge"": {""target"": [], ""time"": []}}}, ""path"": [""0"", ""9"", ""10"", ""12""], ""internal_node_id"": ""0.0-1.0-3.0-1.0"", ""block"": ""test""}"
A119R9WIZRH3D5:3OVR4I9USPJFHZGBB5Z80QJFJWRQ45,6,1522971154489,"{""rt"": [20155, 202, 3681], ""trial_type"": ""mouselab-mdp"", ""trialTime"": 27709, ""rewards"": [-2, 8, 48], ""stateRewards"": ["""", 2, 4, -48, -24, -4, -8, 24, -48, -2, 8, 48, -24], ""actionTimes"": [20160, 20862, 25039], ""trial_id"": -8806789642961306000, ""time_elapsed"": 143622, ""actions"": [""left"", ""left"", ""up""], ""trialIndex"": 2, ""score"": 42, ""trial_index"": 6, ""simulationMode"": [null, null, null], ""queries"": {""mouseover"": {""state"": {""target"": [], ""time"": []}, ""edge"": {""target"": [], ""time"": []}}, ""click"": {""state"": {""target"": [""9"", ""12"", ""10"", ""4"", ""2"", ""3"", ""11"", ""5"", ""7"", ""6"", ""8"", ""1""], ""time"": [2594, 3841, 5642, 7984, 9192, 10506, 11531, 13207, 13988, 15273, 16024, 17893]}, ""edge"": {""target"": [], ""time"": []}}, ""mouseout"": {""state"": {""target"": [], ""time"": []}, ""edge"": {""target"": [], ""time"": []}}}, ""path"": [""0"", ""9"", ""10"", ""11""], ""internal_node_id"": ""0.0-1.0-3.0-2.0"", ""block"": ""test""}"
A119R9WIZRH3D5:3OVR4I9USPJFHZGBB5Z80QJFJWRQ45,7,1522971172853,"{""rt"": [12510, 143, 1067], ""trial_type"": ""mouselab-mdp"", ""trialTime"": 17281, ""rewards"": [-2, -8, 48], ""stateRewards"": ["""", -2, -8, 24, 48, -2, 8, -24, -24, -2, -4, 24, -24], ""actionTimes"": [12525, 13163, 14739], ""trial_id"": -3603402282008602000, ""time_elapsed"": 161986, ""actions"": [""up"", ""up"", ""left""], ""trialIndex"": 3, ""score"": 26, ""trial_index"": 7, ""simulationMode"": [null, null, null], ""queries"": {""mouseover"": {""state"": {""target"": [], ""time"": []}, ""edge"": {""target"": [], ""time"": []}}, ""click"": {""state"": {""target"": [""9"", ""10"", ""11"", ""12"", ""4"", ""2"", ""3"", ""1"", ""7"", ""6"", ""8"", ""5""], ""time"": [1853, 2413, 2997, 3886, 4795, 5305, 5763, 6291, 7140, 7645, 8181, 8691]}, ""edge"": {""target"": [], ""time"": []}}, ""mouseout"": {""state"": {""target"": [], ""time"": []}, ""edge"": {""target"": [], ""time"": []}}}, ""path"": [""0"", ""1"", ""2"", ""4""], ""internal_node_id"": ""0.0-1.0-3.0-3.0"", ""block"": ""test""}"
A119R9WIZRH3D5:3OVR4I9USPJFHZGBB5Z80QJFJWRQ45,8,1522971195778,"{""rt"": [15172, 77, 106], ""trial_type"": ""mouselab-mdp"", ""trialTime"": 21868, ""rewards"": [2, 4, 24], ""stateRewards"": ["""", 2, -4, 24, -48, -2, -8, 24, -48, 2, 4, 24, -48], ""actionTimes"": [15180, 15761, 16374], ""trial_id"": 2653018761906401300, ""time_elapsed"": 184911, ""actions"": [""left"", ""left"", ""up""], ""trialIndex"": 4, ""score"": 18, ""trial_index"": 8, ""simulationMode"": [null, null, null], ""queries"": {""mouseover"": {""state"": {""target"": [], ""time"": []}, ""edge"": {""target"": [], ""time"": []}}, ""click"": {""state"": {""target"": [""7"", ""6"", ""8"", ""5"", ""2"", ""1"", ""3"", ""4"", ""11"", ""10"", ""9"", ""12""], ""time"": [5206, 5726, 6205, 6715, 7877, 8358, 8869, 9726, 10954, 11490, 12604, 13230]}, ""edge"": {""target"": [], ""time"": []}}, ""mouseout"": {""state"": {""target"": [], ""time"": []}, ""edge"": {""target"": [], ""time"": []}}}, ""path"": [""0"", ""9"", ""10"", ""11""], ""internal_node_id"": ""0.0-1.0-3.0-4.0"", ""block"": ""test""}"
A119R9WIZRH3D5:3OVR4I9USPJFHZGBB5Z80QJFJWRQ45,9,1522971207116,"{""rt"": [4957, 68, 71], ""trial_type"": ""mouselab-mdp"", ""trialTime"": 10273, ""rewards"": [-4, 4, 48], ""stateRewards"": ["""", -4, 4, 48, -48, -4, 4, -24, 24, -4, -8, 24, 24], ""actionTimes"": [4963, 5538, 6108], ""trial_id"": -5995301136843023000, ""time_elapsed"": 196249, ""actions"": [""up"", ""up"", ""right""], ""trialIndex"": 5, ""score"": 44, ""trial_index"": 9, ""simulationMode"": [null, null, null], ""queries"": {""mouseover"": {""state"": {""target"": [], ""time"": []}, ""edge"": {""target"": [], ""time"": []}}, ""click"": {""state"": {""target"": [""4"", ""3"", ""2"", ""1""], ""time"": [1143, 2224, 2893, 3425]}, ""edge"": {""target"": [], ""time"": []}}, ""mouseout"": {""state"": {""target"": [], ""time"": []}, ""edge"": {""target"": [], ""time"": []}}}, ""path"": [""0"", ""1"", ""2"", ""3""], ""internal_node_id"": ""0.0-1.0-3.0-5.0"", ""block"": ""test""}"
A119R9WIZRH3D5:3OVR4I9USPJFHZGBB5Z80QJFJWRQ45,10,1522971218274,"{""rt"": [5624, 90, 272], ""trial_type"": ""mouselab-mdp"", ""trialTime"": 10091, ""rewards"": [-4, 4, 48], ""stateRewards"": ["""", 2, -4, 24, -48, -4, 4, 48, 48, 4, 4, -48, -24], ""actionTimes"": [5632, 6218, 6985], ""trial_id"": 1708036831889561600, ""time_elapsed"": 207407, ""actions"": [""right"", ""right"", ""up""], ""trialIndex"": 6, ""score"": 45, ""trial_index"": 10, ""simulationMode"": [null, null, null], ""queries"": {""mouseover"": {""state"": {""target"": [], ""time"": []}, ""edge"": {""target"": [], ""time"": []}}, ""click"": {""state"": {""target"": [""3"", ""4"", ""7""], ""time"": [1582, 2318, 3446]}, ""edge"": {""target"": [], ""time"": []}}, ""mouseout"": {""state"": {""target"": [], ""time"": []}, ""edge"": {""target"": [], ""time"": []}}}, ""path"": [""0"", ""5"", ""6"", ""7""], ""internal_node_id"": ""0.0-1.0-3.0-6.0"", ""block"": ""test""}"
A119R9WIZRH3D5:3OVR4I9USPJFHZGBB5Z80QJFJWRQ45,11,1522971230217,"{""rt"": [7546, 58, 282], ""trial_type"": ""mouselab-mdp"", ""trialTime"": 10873, ""rewards"": [2, -4, 48], ""stateRewards"": ["""", 2, -4, 48, 24, -2, -4, 24, 24, 2, -8, -24, 24], ""actionTimes"": [7553, 8111, 8886], ""trial_id"": 556601214791588500, ""time_elapsed"": 219350, ""actions"": [""up"", ""up"", ""right""], ""trialIndex"": 7, ""score"": 45, ""trial_index"": 11, ""simulationMode"": [null, null, null], ""queries"": {""mouseover"": {""state"": {""target"": [], ""time"": []}, ""edge"": {""target"": [], ""time"": []}}, ""click"": {""state"": {""target"": [""3""], ""time"": [5874]}, ""edge"": {""target"": [], ""time"": []}}, ""mouseout"": {""state"": {""target"": [], ""time"": []}, ""edge"": {""target"": [], ""time"": []}}}, ""path"": [""0"", ""1"", ""2"", ""3""], ""internal_node_id"": ""0.0-1.0-3.0-7.0"", ""block"": ""test""}"
A119R9WIZRH3D5:3OVR4I9USPJFHZGBB5Z80QJFJWRQ45,12,1522971241951,"{""rt"": [7022, 62, 109], ""trial_type"": ""mouselab-mdp"", ""trialTime"": 10666, ""rewards"": [4, -8, 48], ""stateRewards"": ["""", 2, 4, 24, -24, 4, -8, 48, -24, -4, 8, -48, 48], ""actionTimes"": [7031, 7589, 8206], ""trial_id"": 5010381167344479000, ""time_elapsed"": 231084, ""actions"": [""right"", ""right"", ""up""], ""trialIndex"": 8, ""score"": 39, ""trial_index"": 12, ""simulationMode"": [null, null, null], ""queries"": {""mouseover"": {""state"": {""target"": [], ""time"": []}, ""edge"": {""target"": [], ""time"": []}}, ""click"": {""state"": {""target"": [""3"", ""4"", ""7"", ""5"", ""6""], ""time"": [1115, 2092, 3616, 5817, 6306]}, ""edge"": {""target"": [], ""time"": []}}, ""mouseout"": {""state"": {""target"": [], ""time"": []}, ""edge"": {""target"": [], ""time"": []}}}, ""path"": [""0"", ""5"", ""6"", ""7""], ""internal_node_id"": ""0.0-1.0-3.0-8.0"", ""block"": ""test""}"
A119R9WIZRH3D5:3OVR4I9USPJFHZGBB5Z80QJFJWRQ45,13,1522971255685,"{""rt"": [9014, 85, 314], ""trial_type"": ""mouselab-mdp"", ""trialTime"": 12657, ""rewards"": [-4, 8, 48], ""stateRewards"": ["""", -4, 8, 48, -24, -2, -4, 24, -48, 4, 4, 48, -48], ""actionTimes"": [9021, 9609, 10421], ""trial_id"": 7263244810589990000, ""time_elapsed"": 244818, ""actions"": [""up"", ""up"", ""right""], ""trialIndex"": 9, ""score"": 51, ""trial_index"": 13, ""simulationMode"": [null, null, null], ""queries"": {""mouseover"": {""state"": {""target"": [], ""time"": []}, ""edge"": {""target"": [], ""time"": []}}, ""click"": {""state"": {""target"": [""3""], ""time"": [7610]}, ""edge"": {""target"": [], ""time"": []}}, ""mouseout"": {""state"": {""target"": [], ""time"": []}, ""edge"": {""target"": [], ""time"": []}}}, ""path"": [""0"", ""1"", ""2"", ""3""], ""internal_node_id"": ""0.0-1.0-3.0-9.0"", ""block"": ""test""}"
A119R9WIZRH3D5:3OVR4I9USPJFHZGBB5Z80QJFJWRQ45,14,1522971267496,"{""rt"": [4511, 181, 264], ""trial_type"": ""mouselab-mdp"", ""trialTime"": 10731, ""rewards"": [4, 8, 48], ""stateRewards"": ["""", 4, 8, -24, 48, 2, 8, -48, -48, 2, -4, 24, -48], ""actionTimes"": [4522, 5200, 5967], ""trial_id"": -6668518537832265000, ""time_elapsed"": 256629, ""actions"": [""up"", ""up"", ""left""], ""trialIndex"": 10, ""score"": 57, ""trial_index"": 14, ""simulationMode"": [null, null, null], ""queries"": {""mouseover"": {""state"": {""target"": [], ""time"": []}, ""edge"": {""target"": [], ""time"": []}}, ""click"": {""state"": {""target"": [""1"", ""3"", ""4""], ""time"": [965, 2009, 2986]}, ""edge"": {""target"": [], ""time"": []}}, ""mouseout"": {""state"": {""target"": [], ""time"": []}, ""edge"": {""target"": [], ""time"": []}}}, ""path"": [""0"", ""1"", ""2"", ""4""], ""internal_node_id"": ""0.0-1.0-3.0-10.0"", ""block"": ""test""}"
A119R9WIZRH3D5:3OVR4I9USPJFHZGBB5Z80QJFJWRQ45,15,1522971279169,"{""rt"": [4446, 196, 298], ""trial_type"": ""mouselab-mdp"", ""trialTime"": 10602, ""rewards"": [4, -4, 48], ""stateRewards"": ["""", 2, -4, 24, -24, -2, 8, 24, 48, 4, -4, 48, 48], ""actionTimes"": [4455, 5149, 5950], ""trial_id"": 5246743485396079000, ""time_elapsed"": 268302, ""actions"": [""left"", ""left"", ""up""], ""trialIndex"": 11, ""score"": 45, ""trial_index"": 15, ""simulationMode"": [null, null, null], ""queries"": {""mouseover"": {""state"": {""target"": [], ""time"": []}, ""edge"": {""target"": [], ""time"": []}}, ""click"": {""state"": {""target"": [""2"", ""4"", ""11""], ""time"": [1096, 1761, 2534]}, ""edge"": {""target"": [], ""time"": []}}, ""mouseout"": {""state"": {""target"": [], ""time"": []}, ""edge"": {""target"": [], ""time"": []}}}, ""path"": [""0"", ""9"", ""10"", ""11""], ""internal_node_id"": ""0.0-1.0-3.0-11.0"", ""block"": ""test""}"
A119R9WIZRH3D5:3OVR4I9USPJFHZGBB5Z80QJFJWRQ45,16,1522971290529,"{""rt"": [2236, 97, 274], ""trial_type"": ""mouselab-mdp"", ""trialTime"": 10278, ""rewards"": [-2, 8, 48], ""stateRewards"": ["""", 4, -4, -48, -48, 4, 8, 24, -24, -2, 8, 48, -48], ""actionTimes"": [2241, 2832, 3610], ""trial_id"": -6978553059181346000, ""time_elapsed"": 279662, ""actions"": [""left"", ""left"", ""up""], ""trialIndex"": 12, ""score"": 53, ""trial_index"": 16, ""simulationMode"": [null, null, null], ""queries"": {""mouseover"": {""state"": {""target"": [], ""time"": []}, ""edge"": {""target"": [], ""time"": []}}, ""click"": {""state"": {""target"": [""11""], ""time"": [1005]}, ""edge"": {""target"": [], ""time"": []}}, ""mouseout"": {""state"": {""target"": [], ""time"": []}, ""edge"": {""target"": [], ""time"": []}}}, ""path"": [""0"", ""9"", ""10"", ""11""], ""internal_node_id"": ""0.0-1.0-3.0-12.0"", ""block"": ""test""}"
A119R9WIZRH3D5:3OVR4I9USPJFHZGBB5Z80QJFJWRQ45,17,1522971302718,"{""rt"": [3917, 202, 348], ""trial_type"": ""mouselab-mdp"", ""trialTime"": 11110, ""rewards"": [-2, 4, 48], ""stateRewards"": ["""", 4, -4, 48, -48, -2, -8, 24, 24, -2, 4, 48, -48], ""actionTimes"": [3926, 4633, 5477], ""trial_id"": 8045829731203394000, ""time_elapsed"": 291851, ""actions"": [""left"", ""left"", ""up""], ""trialIndex"": 13, ""score"": 49, ""trial_index"": 17, ""simulationMode"": [null, null, null], ""queries"": {""mouseover"": {""state"": {""target"": [], ""time"": []}, ""edge"": {""target"": [], ""time"": []}}, ""click"": {""state"": {""target"": [""11""], ""time"": [1458]}, ""edge"": {""target"": [], ""time"": []}}, ""mouseout"": {""state"": {""target"": [], ""time"": []}, ""edge"": {""target"": [], ""time"": []}}}, ""path"": [""0"", ""9"", ""10"", ""11""], ""internal_node_id"": ""0.0-1.0-3.0-13.0"", ""block"": ""test""}"
A119R9WIZRH3D5:3OVR4I9USPJFHZGBB5Z80QJFJWRQ45,18,1522971315118,"{""rt"": [3011, 103, 66], ""trial_type"": ""mouselab-mdp"", ""trialTime"": 11329, ""rewards"": [4, -4, 48], ""stateRewards"": ["""", 4, -4, -48, 24, -2, -4, 24, 48, 4, -4, 48, -48], ""actionTimes"": [3016, 3620, 4185], ""trial_id"": 320588371626771840, ""time_elapsed"": 304251, ""actions"": [""left"", ""left"", ""up""], ""trialIndex"": 14, ""score"": 47, ""trial_index"": 18, ""simulationMode"": [null, null, null], ""queries"": {""mouseover"": {""state"": {""target"": [], ""time"": []}, ""edge"": {""target"": [], ""time"": []}}, ""click"": {""state"": {""target"": [""11""], ""time"": [1781]}, ""edge"": {""target"": [], ""time"": []}}, ""mouseout"": {""state"": {""target"": [], ""time"": []}, ""edge"": {""target"": [], ""time"": []}}}, ""path"": [""0"", ""9"", ""10"", ""11""], ""internal_node_id"": ""0.0-1.0-3.0-14.0"", ""block"": ""test""}"
A119R9WIZRH3D5:3OVR4I9USPJFHZGBB5Z80QJFJWRQ45,19,1522971334455,"{""rt"": [4890, 147, 208], ""trial_type"": ""mouselab-mdp"", ""trialTime"": 18275, ""rewards"": [-4, -4, 48], ""stateRewards"": ["""", 2, -4, -24, -24, 4, -8, -48, -48, -4, -4, 48, 48], ""actionTimes"": [4896, 5540, 6252], ""trial_id"": -7913607226466677000, ""time_elapsed"": 323588, ""actions"": [""left"", ""left"", ""up""], ""trialIndex"": 15, ""score"": 39, ""trial_index"": 19, ""simulationMode"": [null, null, null], ""queries"": {""mouseover"": {""state"": {""target"": [], ""time"": []}, ""edge"": {""target"": [], ""time"": []}}, ""click"": {""state"": {""target"": [""11""], ""time"": [3084]}, ""edge"": {""target"": [], ""time"": []}}, ""mouseout"": {""state"": {""target"": [], ""time"": []}, ""edge"": {""target"": [], ""time"": []}}}, ""path"": [""0"", ""9"", ""10"", ""11""], ""internal_node_id"": ""0.0-1.0-3.0-15.0"", ""block"": ""test""}"
A119R9WIZRH3D5:3OVR4I9USPJFHZGBB5Z80QJFJWRQ45,20,1522971346367,"{""rt"": [7669, 69, 164], ""trial_type"": ""mouselab-mdp"", ""trialTime"": 10844, ""rewards"": [-2, -8, 48], ""stateRewards"": ["""", -2, 8, 24, -48, 2, 4, -24, 24, -2, -8, 48, -24], ""actionTimes"": [7673, 8239, 8905], ""trial_id"": 6282558609452272000, ""time_elapsed"": 335500, ""actions"": [""left"", ""left"", ""up""], ""trialIndex"": 16, ""score"": 32, ""trial_index"": 20, ""simulationMode"": [null, null, null], ""queries"": {""mouseover"": {""state"": {""target"": [], ""time"": []}, ""edge"": {""target"": [], ""time"": []}}, ""click"": {""state"": {""target"": [""3"", ""4"", ""11"", ""7"", ""8"", ""12""], ""time"": [653, 1920, 2801, 4855, 5360, 6389]}, ""edge"": {""target"": [], ""time"": []}}, ""mouseout"": {""state"": {""target"": [], ""time"": []}, ""edge"": {""target"": [], ""time"": []}}}, ""path"": [""0"", ""9"", ""10"", ""11""], ""internal_node_id"": ""0.0-1.0-3.0-16.0"", ""block"": ""test""}"
A119R9WIZRH3D5:3OVR4I9USPJFHZGBB5Z80QJFJWRQ45,21,1522971363185,"{""rt"": [3729, 64, 9438], ""trial_type"": ""mouselab-mdp"", ""trialTime"": 15746, ""rewards"": [4, 8, 48], ""stateRewards"": ["""", 2, -8, -24, 48, -2, -4, -24, -24, 4, 8, 24, 48], ""actionTimes"": [3736, 4301, 14243], ""trial_id"": 6516760737789360000, ""time_elapsed"": 352318, ""actions"": [""left"", ""left"", ""down""], ""trialIndex"": 17, ""score"": 58, ""trial_index"": 21, ""simulationMode"": [null, null, null], ""queries"": {""mouseover"": {""state"": {""target"": [], ""time"": []}, ""edge"": {""target"": [], ""time"": []}}, ""click"": {""state"": {""target"": [""11"", ""12""], ""time"": [1044, 2283]}, ""edge"": {""target"": [], ""time"": []}}, ""mouseout"": {""state"": {""target"": [], ""time"": []}, ""edge"": {""target"": [], ""time"": []}}}, ""path"": [""0"", ""9"", ""10"", ""12""], ""internal_node_id"": ""0.0-1.0-3.0-17.0"", ""block"": ""test""}"
A119R9WIZRH3D5:3OVR4I9USPJFHZGBB5Z80QJFJWRQ45,22,1522971374670,"{""rt"": [6332, 84, 333], ""trial_type"": ""mouselab-mdp"", ""trialTime"": 10392, ""rewards"": [-2, -4, 48], ""stateRewards"": ["""", -2, -4, 48, -24, 2, -4, 48, 24, -2, -8, -24, -24], ""actionTimes"": [6337, 6919, 7750], ""trial_id"": 2593864447454748000, ""time_elapsed"": 363803, ""actions"": [""up"", ""up"", ""right""], ""trialIndex"": 18, ""score"": 39, ""trial_index"": 22, ""simulationMode"": [null, null, null], ""queries"": {""mouseover"": {""state"": {""target"": [], ""time"": []}, ""edge"": {""target"": [], ""time"": []}}, ""click"": {""state"": {""target"": [""11"", ""4"", ""3""], ""time"": [1996, 2983, 4503]}, ""edge"": {""target"": [], ""time"": []}}, ""mouseout"": {""state"": {""target"": [], ""time"": []}, ""edge"": {""target"": [], ""time"": []}}}, ""path"": [""0"", ""1"", ""2"", ""3""], ""internal_node_id"": ""0.0-1.0-3.0-18.0"", ""block"": ""test""}"
A119R9WIZRH3D5:3OVR4I9USPJFHZGBB5Z80QJFJWRQ45,23,1522971385964,"{""rt"": [2638, 21, 253], ""trial_type"": ""mouselab-mdp"", ""trialTime"": 10221, ""rewards"": [-4, 8, 48], ""stateRewards"": ["""", -4, 8, 48, 24, 2, -8, -48, -24, -4, -4, 48, -24], ""actionTimes"": [2644, 3158, 3907], ""trial_id"": 3419769505624262700, ""time_elapsed"": 375096, ""actions"": [""up"", ""up"", ""right""], ""trialIndex"": 19, ""score"": 51, ""trial_index"": 23, ""simulationMode"": [null, null, null], ""queries"": {""mouseover"": {""state"": {""target"": [], ""time"": []}, ""edge"": {""target"": [], ""time"": []}}, ""click"": {""state"": {""target"": [""3""], ""time"": [1419]}, ""edge"": {""target"": [], ""time"": []}}, ""mouseout"": {""state"": {""target"": [], ""time"": []}, ""edge"": {""target"": [], ""time"": []}}}, ""path"": [""0"", ""1"", ""2"", ""3""], ""internal_node_id"": ""0.0-1.0-3.0-19.0"", ""block"": ""test""}"
A119R9WIZRH3D5:3OVR4I9USPJFHZGBB5Z80QJFJWRQ45,24,1522971401118,"{""rt"": [8472, 115, 2326], ""trial_type"": ""mouselab-mdp"", ""trialTime"": 14044, ""rewards"": [4, 8, -48], ""stateRewards"": ["""", 2, 4, -24, 24, 4, 8, -48, -48, -4, -4, -48, -24], ""actionTimes"": [8480, 9089, 11918], ""trial_id"": -7784032825751816000, ""time_elapsed"": 390251, ""actions"": [""right"", ""right"", ""down""], ""trialIndex"": 20, ""score"": -41, ""trial_index"": 24, ""simulationMode"": [null, null, null], ""queries"": {""mouseover"": {""state"": {""target"": [], ""time"": []}, ""edge"": {""target"": [], ""time"": []}}, ""click"": {""state"": {""target"": [""3"", ""4"", ""11"", ""12"", ""7""], ""time"": [1369, 2235, 3667, 5065, 6393]}, ""edge"": {""target"": [], ""time"": []}}, ""mouseout"": {""state"": {""target"": [], ""time"": []}, ""edge"": {""target"": [], ""time"": []}}}, ""path"": [""0"", ""5"", ""6"", ""8""], ""internal_node_id"": ""0.0-1.0-3.0-20.0"", ""block"": ""test""}"
A119R9WIZRH3D5:3OVR4I9USPJFHZGBB5Z80QJFJWRQ45,25,1522971412433,"{""rt"": [2477, 114, 333], ""trial_type"": ""mouselab-mdp"", ""trialTime"": 10240, ""rewards"": [-4, 4, 48], ""stateRewards"": ["""", -2, -4, 48, 24, 2, 4, -48, 48, -4, 4, 48, 24], ""actionTimes"": [2492, 3103, 3938], ""trial_id"": 7946552191512982000, ""time_elapsed"": 401566, ""actions"": [""left"", ""left"", ""up""], ""trialIndex"": 21, ""score"": 47, ""trial_index"": 25, ""simulationMode"": [null, null, null], ""queries"": {""mouseover"": {""state"": {""target"": [], ""time"": []}, ""edge"": {""target"": [], ""time"": []}}, ""click"": {""state"": {""target"": [""11""], ""time"": [1051]}, ""edge"": {""target"": [], ""time"": []}}, ""mouseout"": {""state"": {""target"": [], ""time"": []}, ""edge"": {""target"": [], ""time"": []}}}, ""path"": [""0"", ""9"", ""10"", ""11""], ""internal_node_id"": ""0.0-1.0-3.0-21.0"", ""block"": ""test""}"
A119R9WIZRH3D5:3OVR4I9USPJFHZGBB5Z80QJFJWRQ45,26,1522971423998,"{""rt"": [6875, 129, 268], ""trial_type"": ""mouselab-mdp"", ""trialTime"": 10450, ""rewards"": [4, -8, 48], ""stateRewards"": ["""", 4, -4, -24, 24, 2, 4, -24, -48, 4, -8, 48, -48], ""actionTimes"": [6881, 7517, 8291], ""trial_id"": 4251687641687985000, ""time_elapsed"": 413130, ""actions"": [""left"", ""left"", ""up""], ""trialIndex"": 22, ""score"": 39, ""trial_index"": 26, ""simulationMode"": [null, null, null], ""queries"": {""mouseover"": {""state"": {""target"": [], ""time"": []}, ""edge"": {""target"": [], ""time"": []}}, ""click"": {""state"": {""target"": [""4"", ""3"", ""7"", ""8"", ""11""], ""time"": [1238, 2315, 3131, 3852, 5050]}, ""edge"": {""target"": [], ""time"": []}}, ""mouseout"": {""state"": {""target"": [], ""time"": []}, ""edge"": {""target"": [], ""time"": []}}}, ""path"": [""0"", ""9"", ""10"", ""11""], ""internal_node_id"": ""0.0-1.0-3.0-22.0"", ""block"": ""test""}"
A119R9WIZRH3D5:3OVR4I9USPJFHZGBB5Z80QJFJWRQ45,27,1522971434669,"{""rt"": [4418, 45, 125], ""trial_type"": ""mouselab-mdp"", ""trialTime"": 9607, ""rewards"": [-2, -4, 48], ""stateRewards"": ["""", -2, 4, -48, -24, 2, 4, 24, 24, -2, -4, 48, -24], ""actionTimes"": [4424, 4968, 5599], ""trial_id"": 7457324294976434000, ""time_elapsed"": 423802, ""actions"": [""left"", ""left"", ""up""], ""trialIndex"": 23, ""score"": 41, ""trial_index"": 27, ""simulationMode"": [null, null, null], ""queries"": {""mouseover"": {""state"": {""target"": [], ""time"": []}, ""edge"": {""target"": [], ""time"": []}}, ""click"": {""state"": {""target"": [""11""], ""time"": [2485]}, ""edge"": {""target"": [], ""time"": []}}, ""mouseout"": {""state"": {""target"": [], ""time"": []}, ""edge"": {""target"": [], ""time"": []}}}, ""path"": [""0"", ""9"", ""10"", ""11""], ""internal_node_id"": ""0.0-1.0-3.0-23.0"", ""block"": ""test""}"
A119R9WIZRH3D5:3OVR4I9USPJFHZGBB5Z80QJFJWRQ45,28,1522971447508,"{""rt"": [6189, 124, 3029], ""trial_type"": ""mouselab-mdp"", ""trialTime"": 11774, ""rewards"": [4, 4, 48], ""stateRewards"": ["""", 2, 4, 24, -24, 4, 8, 24, -24, 4, 4, 24, 48], ""actionTimes"": [6197, 6828, 10349], ""trial_id"": 5959115827255457000, ""time_elapsed"": 436641, ""actions"": [""left"", ""left"", ""down""], ""trialIndex"": 24, ""score"": 50, ""trial_index"": 28, ""simulationMode"": [null, null, null], ""queries"": {""mouseover"": {""state"": {""target"": [], ""time"": []}, ""edge"": {""target"": [], ""time"": []}}, ""click"": {""state"": {""target"": [""4"", ""3"", ""7"", ""8"", ""11"", ""12""], ""time"": [841, 1635, 2682, 3458, 4436, 5104]}, ""edge"": {""target"": [], ""time"": []}}, ""mouseout"": {""state"": {""target"": [], ""time"": []}, ""edge"": {""target"": [], ""time"": []}}}, ""path"": [""0"", ""9"", ""10"", ""12""], ""internal_node_id"": ""0.0-1.0-3.0-24.0"", ""block"": ""test""}"
A119R9WIZRH3D5:3OVR4I9USPJFHZGBB5Z80QJFJWRQ45,29,1522971458647,"{""rt"": [5679, 113, 1618], ""trial_type"": ""mouselab-mdp"", ""trialTime"": 10054, ""rewards"": [-2, 8, 48], ""stateRewards"": ["""", -4, -8, 24, -24, -2, 8, 24, 48, 4, -4, 24, -48], ""actionTimes"": [5691, 6310, 8431], ""trial_id"": -1100449030722574200, ""time_elapsed"": 447780, ""actions"": [""right"", ""right"", ""down""], ""trialIndex"": 25, ""score"": 50, ""trial_index"": 29, ""simulationMode"": [null, null, null], ""queries"": {""mouseover"": {""state"": {""target"": [], ""time"": []}, ""edge"": {""target"": [], ""time"": []}}, ""click"": {""state"": {""target"": [""3"", ""4"", ""7"", ""8""], ""time"": [1296, 2193, 3034, 3980]}, ""edge"": {""target"": [], ""time"": []}}, ""mouseout"": {""state"": {""target"": [], ""time"": []}, ""edge"": {""target"": [], ""time"": []}}}, ""path"": [""0"", ""5"", ""6"", ""8""], ""internal_node_id"": ""0.0-1.0-3.0-25.0"", ""block"": ""test""}"
A119R9WIZRH3D5:3OVR4I9USPJFHZGBB5Z80QJFJWRQ45,30,1522971471863,"{""rt"": [7002, 102, 1942], ""trial_type"": ""mouselab-mdp"", ""trialTime"": 12142, ""rewards"": [-4, 4, 48], ""stateRewards"": ["""", 2, -4, 24, -48, -4, -8, -48, -48, -4, 4, -48, 48], ""actionTimes"": [7012, 7623, 10062], ""trial_id"": 2118335984300500500, ""time_elapsed"": 460995, ""actions"": [""left"", ""left"", ""down""], ""trialIndex"": 26, ""score"": 42, ""trial_index"": 30, ""simulationMode"": [null, null, null], ""queries"": {""mouseover"": {""state"": {""target"": [], ""time"": []}, ""edge"": {""target"": [], ""time"": []}}, ""click"": {""state"": {""target"": [""7"", ""8"", ""3"", ""4"", ""11"", ""12""], ""time"": [1097, 2189, 3085, 4167, 4998, 5757]}, ""edge"": {""target"": [], ""time"": []}}, ""mouseout"": {""state"": {""target"": [], ""time"": []}, ""edge"": {""target"": [], ""time"": []}}}, ""path"": [""0"", ""9"", ""10"", ""12""], ""internal_node_id"": ""0.0-1.0-3.0-26.0"", ""block"": ""test""}"
A119R9WIZRH3D5:3OVR4I9USPJFHZGBB5Z80QJFJWRQ45,31,1522971491466,"{""rt"": [14207, 138, 983], ""trial_type"": ""mouselab-mdp"", ""trialTime"": 18528, ""rewards"": [4, -4, 24], ""stateRewards"": ["""", -2, -4, 24, -48, -4, 8, -24, -24, 4, -4, -48, 24], ""actionTimes"": [14217, 14859, 16340], ""trial_id"": 1399303655934214400, ""time_elapsed"": 480599, ""actions"": [""left"", ""left"", ""down""], ""trialIndex"": 27, ""score"": 14, ""trial_index"": 31, ""simulationMode"": [null, null, null], ""queries"": {""mouseover"": {""state"": {""target"": [], ""time"": []}, ""edge"": {""target"": [], ""time"": []}}, ""click"": {""state"": {""target"": [""3"", ""4"", ""11"", ""12"", ""7"", ""8"", ""2"", ""1"", ""9"", ""10""], ""time"": [1070, 1895, 2815, 3834, 4986, 5882, 9325, 10399, 11166, 11677]}, ""edge"": {""target"": [], ""time"": []}}, ""mouseout"": {""state"": {""target"": [], ""time"": []}, ""edge"": {""target"": [], ""time"": []}}}, ""path"": [""0"", ""9"", ""10"", ""12""], ""internal_node_id"": ""0.0-1.0-3.0-27.0"", ""block"": ""test""}"
A119R9WIZRH3D5:3OVR4I9USPJFHZGBB5Z80QJFJWRQ45,32,1522971500624,"{""rt"": [4443, 495, 185], ""trial_type"": ""mouselab-mdp"", ""trialTime"": 8097, ""rewards"": [-2, 4, 48], ""stateRewards"": ["""", -2, 4, 48, 24, -4, 8, -48, 24, 4, -8, 24, 24], ""actionTimes"": [4447, 5445, 6135], ""trial_id"": -1461775893828862000, ""time_elapsed"": 489756, ""actions"": [""up"", ""up"", ""right""], ""trialIndex"": 28, ""score"": 47, ""trial_index"": 32, ""simulationMode"": [null, null, null], ""queries"": {""mouseover"": {""state"": {""target"": [], ""time"": []}, ""edge"": {""target"": [], ""time"": []}}, ""click"": {""state"": {""target"": [""7"", ""8"", ""3""], ""time"": [1383, 2372, 3166]}, ""edge"": {""target"": [], ""time"": []}}, ""mouseout"": {""state"": {""target"": [], ""time"": []}, ""edge"": {""target"": [], ""time"": []}}}, ""path"": [""0"", ""1"", ""2"", ""3""], ""internal_node_id"": ""0.0-1.0-3.0-28.0"", ""block"": ""test""}"
A119R9WIZRH3D5:3OVR4I9USPJFHZGBB5Z80QJFJWRQ45,33,1522971510267,"{""rt"": [3489, 69, 218], ""trial_type"": ""mouselab-mdp"", ""trialTime"": 8579, ""rewards"": [4, 4, 48], ""stateRewards"": ["""", -4, -8, -48, -48, -4, -4, 48, 24, 4, 4, 48, -48], ""actionTimes"": [3497, 4059, 4775], ""trial_id"": -9063084800167141000, ""time_elapsed"": 499400, ""actions"": [""left"", ""left"", ""up""], ""trialIndex"": 29, ""score"": 53, ""trial_index"": 33, ""simulationMode"": [null, null, null], ""queries"": {""mouseover"": {""state"": {""target"": [], ""time"": []}, ""edge"": {""target"": [], ""time"": []}}, ""click"": {""state"": {""target"": [""3"", ""4"", ""11""], ""time"": [896, 1486, 2261]}, ""edge"": {""target"": [], ""time"": []}}, ""mouseout"": {""state"": {""target"": [], ""time"": []}, ""edge"": {""target"": [], ""time"": []}}}, ""path"": [""0"", ""9"", ""10"", ""11""], ""internal_node_id"": ""0.0-1.0-3.0-29.0"", ""block"": ""test""}"
A119R9WIZRH3D5:3OVR4I9USPJFHZGBB5Z80QJFJWRQ45,34,1522971531166,"{""rt"": 19870, ""trial_type"": ""survey-multi-choice"", ""responses"": ""[\""$-4 to $4\"",\""$-48 to $48\"",\""$1\"",\""1.5 cents for every $10 you make in the game plus 45 cents\""]"", ""internal_node_id"": ""0.0-1.0-4.0"", ""time_elapsed"": 520299, ""questions"": ""[\""What is the range of node values in the first step?\"",\""What is the range of node values in the last step?\"",\""What is the cost of clicking?\"",\""How much REAL money do you earn?\""]"", ""correct"": null, ""trial_index"": 34}"
A119R9WIZRH3D5:3OVR4I9USPJFHZGBB5Z80QJFJWRQ45,35,1522971640852,"{""rt"": 108674, ""trial_type"": ""survey-text"", ""responses"": ""{\""Q0\"":\""I realized that the end nodes had the highest value so I only clicked on those\"",\""Q1\"":\""i decided the small nodes didn't have much value so I did not click those.\"",\""Q2\"":\""I stopped clicking when I found a +48 because I knew that was the highest value\"",\""Q3\"":\""One of the outer nodes\"",\""Q4\"":\""No\""}"", ""internal_node_id"": ""0.0-1.0-5.0"", ""time_elapsed"": 629984, ""trial_index"": 35}"
A119R9WIZRH3D5:3OVR4I9USPJFHZGBB5Z80QJFJWRQ45,36,1522971673604,"{""rt"": 31735, ""trial_type"": ""survey-text"", ""responses"": ""{\""Q0\"":\""How to create a strategy to earn the most points.no\"",\""Q1\"":\""no\"",\""Q2\"":\""\""}"", ""internal_node_id"": ""0.0-1.0-6.0"", ""time_elapsed"": 662737, ""trial_index"": 36}"
A119R9WIZRH3D5:3OVR4I9USPJFHZGBB5Z80QJFJWRQ45,37,1522971676730,"{""rt"": 2122, ""trial_type"": ""text"", ""internal_node_id"": ""0.0-2.0"", ""time_elapsed"": 665863, ""key_press"": 32, ""trial_index"": 37}"
A11C01B5PXL1QW:3AMW0RGHOD2G3VP2TXZFZUZ55ESPNU,0,1522870541216,"{""rt"": 26562, ""trial_type"": ""survey-text"", ""responses"": ""{\""Q0\"":\""male\"",\""Q1\"":\""28\"",\""Q2\"":\""United States\"",\""Q3\"":\""self-employed\"",\""Q4\"":\""3\""}"", ""internal_node_id"": ""0.0-0.0"", ""time_elapsed"": 26714, ""trial_index"": 0}"
A11C01B5PXL1QW:3AMW0RGHOD2G3VP2TXZFZUZ55ESPNU,1,1522870544062,"{""rt"": 1838, ""trial_type"": ""text"", ""internal_node_id"": ""0.0-2.0"", ""time_elapsed"": 29562, ""key_press"": 32, ""trial_index"": 1}"
A11UYTAICVYT0N:3URFVVM165INCPBHD7934NTDNASZUJ,0,1522942368913,"{""rt"": 27130, ""trial_type"": ""survey-text"", ""responses"": ""{\""Q0\"":\""Female\"",\""Q1\"":\""46\"",\""Q2\"":\""United States\"",\""Q3\"":\""Employed Part Time\"",\""Q4\"":\""3\""}"", ""internal_node_id"": ""0.0-0.0"", ""time_elapsed"": 27170, ""trial_index"": 0}"
A11UYTAICVYT0N:3URFVVM165INCPBHD7934NTDNASZUJ,1,1522942372710,"{""rt"": 2783, ""trial_type"": ""text"", ""internal_node_id"": ""0.0-2.0"", ""time_elapsed"": 30967, ""key_press"": 32, ""trial_index"": 1}"
A121FRZFN86KC1:3SITXWYCNV9JBV2WCY4N2CLEQQYBXU,0,1522952365182,"{""rt"": 13205, ""trial_type"": ""survey-text"", ""responses"": ""{\""Q0\"":\""Female\"",\""Q1\"":\""30\"",\""Q2\"":\""USA\"",\""Q3\"":\""Homemaker/Mturker\"",\""Q4\"":\""2\""}"", ""internal_node_id"": ""0.0-0.0"", ""time_elapsed"": 13214, ""trial_index"": 0}"
A121FRZFN86KC1:3SITXWYCNV9JBV2WCY4N2CLEQQYBXU,1,1522952367900,"{""rt"": 1715, ""trial_type"": ""text"", ""internal_node_id"": ""0.0-2.0"", ""time_elapsed"": 15932, ""key_press"": 32, ""trial_index"": 1}"
A12SMSQ6D5227J:3IOEN3P9S7J5FI089E28WNVL78X16S,0,1522869716567,"{""rt"": 9631, ""trial_type"": ""survey-text"", ""responses"": ""{\""Q0\"":\""female\"",\""Q1\"":\""36\"",\""Q2\"":\""USA\"",\""Q3\"":\""self employed\"",\""Q4\"":\""4\""}"", ""internal_node_id"": ""0.0-0.0"", ""time_elapsed"": 9642, ""trial_index"": 0}"
A12SMSQ6D5227J:3IOEN3P9S7J5FI089E28WNVL78X16S,1,1522869720039,"{""rt"": 2468, ""trial_type"": ""text"", ""internal_node_id"": ""0.0-2.0"", ""time_elapsed"": 13114, ""key_press"": 32, ""trial_index"": 1}"
A13BVA9N28CNKQ:30ZX6P7VF8VOSYXBC1WBAAAVLM7J2D,0,1522953123720,"{""rt"": 32778, ""trial_type"": ""survey-text"", ""responses"": ""{\""Q0\"":\""male\"",\""Q1\"":\""42\"",\""Q2\"":\""usa\"",\""Q3\"":\""part time\"",\""Q4\"":\""0\""}"", ""internal_node_id"": ""0.0-0.0"", ""time_elapsed"": 32805, ""trial_index"": 0}"
A13BVA9N28CNKQ:30ZX6P7VF8VOSYXBC1WBAAAVLM7J2D,1,1522953129055,"{""rt"": 4332, ""trial_type"": ""text"", ""internal_node_id"": ""0.0-2.0"", ""time_elapsed"": 38140, ""key_press"": 32, ""trial_index"": 1}"
A13V95MSIU0JN3:3WYP994K17R25OBBL39HAA6VEUEY6X,0,1522885453693,"{""rt"": 69978, ""trial_type"": ""survey-text"", ""responses"": ""{\""Q0\"":\""Male\"",\""Q1\"":\""25\"",\""Q2\"":\""United States\"",\""Q3\"":\""Full-Time Student/Part-Time Employment\"",\""Q4\"":\""1\""}"", ""internal_node_id"": ""0.0-0.0"", ""time_elapsed"": 69992, ""trial_index"": 0}"
A13V95MSIU0JN3:3WYP994K17R25OBBL39HAA6VEUEY6X,1,1522885458912,"{""rt"": 4216, ""trial_type"": ""text"", ""internal_node_id"": ""0.0-2.0"", ""time_elapsed"": 75212, ""key_press"": 32, ""trial_index"": 1}"
A15935HVAR6XH:339ANSOTR52NE3HVJPHFY5HPP8BKIX,0,1522982318183,"{""rt"": 27014, ""trial_type"": ""survey-text"", ""responses"": ""{\""Q0\"":\""male\"",\""Q1\"":\""53\"",\""Q2\"":\""USA\"",\""Q3\"":\""Full Time\"",\""Q4\"":\""5\""}"", ""internal_node_id"": ""0.0-0.0"", ""time_elapsed"": 27027, ""trial_index"": 0}"
A15935HVAR6XH:339ANSOTR52NE3HVJPHFY5HPP8BKIX,1,1522982372427,"{""rt"": 53235, ""trial_type"": ""text"", ""internal_node_id"": ""0.0-1.0-0.0"", ""time_elapsed"": 81271, ""key_press"": 32, ""trial_index"": 1}"
A15935HVAR6XH:339ANSOTR52NE3HVJPHFY5HPP8BKIX,2,1522982381809,"{""rt"": 8380, ""trial_type"": ""text"", ""internal_node_id"": ""0.0-1.0-1.0"", ""time_elapsed"": 90653, ""key_press"": 32, ""trial_index"": 2}"
A15935HVAR6XH:339ANSOTR52NE3HVJPHFY5HPP8BKIX,3,1522982385065,"{""rt"": 2254, ""trial_type"": ""text"", ""internal_node_id"": ""0.0-1.0-2.0"", ""time_elapsed"": 93909, ""key_press"": 32, ""trial_index"": 3}"
A15935HVAR6XH:339ANSOTR52NE3HVJPHFY5HPP8BKIX,4,1522982397410,"{""rt"": [2929, 1708, 2276], ""trial_type"": ""mouselab-mdp"", ""trialTime"": 11257, ""rewards"": [2, 8, 24], ""stateRewards"": ["""", 2, 8, 24, -24, 2, -8, -24, -24, 4, -8, 48, 48], ""actionTimes"": [2936, 5151, 7935], ""trial_id"": -3200495881349436000, ""time_elapsed"": 106254, ""actions"": [""up"", ""up"", ""right""], ""trialIndex"": 0, ""score"": 34, ""trial_index"": 4, ""simulationMode"": [null, null, null], ""queries"": {""mouseover"": {""state"": {""target"": [], ""time"": []}, ""edge"": {""target"": [], ""time"": []}}, ""click"": {""state"": {""target"": [], ""time"": []}, ""edge"": {""target"": [], ""time"": []}}, ""mouseout"": {""state"": {""target"": [], ""time"": []}, ""edge"": {""target"": [], ""time"": []}}}, ""path"": [""0"", ""1"", ""2"", ""3""], ""internal_node_id"": ""0.0-1.0-3.0-0.0"", ""block"": ""test""}"
A15935HVAR6XH:339ANSOTR52NE3HVJPHFY5HPP8BKIX,5,1522982408865,"{""rt"": [4196, 963, 1224], ""trial_type"": ""mouselab-mdp"", ""trialTime"": 10378, ""rewards"": [2, 4, 48], ""stateRewards"": ["""", 4, -8, 24, 24, 2, 4, 24, 48, -2, 4, 24, -48], ""actionTimes"": [4202, 5682, 7426], ""trial_id"": 6722698278557235000, ""time_elapsed"": 117709, ""actions"": [""right"", ""right"", ""down""], ""trialIndex"": 1, ""score"": 54, ""trial_index"": 5, ""simulationMode"": [null, null, null], ""queries"": {""mouseover"": {""state"": {""target"": [], ""time"": []}, ""edge"": {""target"": [], ""time"": []}}, ""click"": {""state"": {""target"": [], ""time"": []}, ""edge"": {""target"": [], ""time"": []}}, ""mouseout"": {""state"": {""target"": [], ""time"": []}, ""edge"": {""target"": [], ""time"": []}}}, ""path"": [""0"", ""5"", ""6"", ""8""], ""internal_node_id"": ""0.0-1.0-3.0-1.0"", ""block"": ""test""}"
A15935HVAR6XH:339ANSOTR52NE3HVJPHFY5HPP8BKIX,6,1522982427201,"{""rt"": [4119, 6464, 2665], ""trial_type"": ""mouselab-mdp"", ""trialTime"": 17283, ""rewards"": [-2, 8, -48], ""stateRewards"": ["""", -4, -4, -24, 24, 2, -4, 24, -48, -2, 8, -48, -48], ""actionTimes"": [4122, 11099, 14266], ""trial_id"": -1389625695571519700, ""time_elapsed"": 136045, ""actions"": [""left"", ""left"", ""up""], ""trialIndex"": 2, ""score"": -42, ""trial_index"": 6, ""simulationMode"": [null, null, null], ""queries"": {""mouseover"": {""state"": {""target"": [], ""time"": []}, ""edge"": {""target"": [], ""time"": []}}, ""click"": {""state"": {""target"": [], ""time"": []}, ""edge"": {""target"": [], ""time"": []}}, ""mouseout"": {""state"": {""target"": [], ""time"": []}, ""edge"": {""target"": [], ""time"": []}}}, ""path"": [""0"", ""9"", ""10"", ""11""], ""internal_node_id"": ""0.0-1.0-3.0-2.0"", ""block"": ""test""}"
A15935HVAR6XH:339ANSOTR52NE3HVJPHFY5HPP8BKIX,7,1522982436928,"{""rt"": [1459, 2503, 1102], ""trial_type"": ""mouselab-mdp"", ""trialTime"": 8671, ""rewards"": [-4, -8, -48], ""stateRewards"": ["""", 2, -4, 24, -48, -4, -8, -48, -48, -4, 4, -48, 48], ""actionTimes"": [1464, 4479, 6095], ""trial_id"": 2118335984300500500, ""time_elapsed"": 145772, ""actions"": [""right"", ""right"", ""up""], ""trialIndex"": 3, ""score"": -60, ""trial_index"": 7, ""simulationMode"": [null, null, null], ""queries"": {""mouseover"": {""state"": {""target"": [], ""time"": []}, ""edge"": {""target"": [], ""time"": []}}, ""click"": {""state"": {""target"": [], ""time"": []}, ""edge"": {""target"": [], ""time"": []}}, ""mouseout"": {""state"": {""target"": [], ""time"": []}, ""edge"": {""target"": [], ""time"": []}}}, ""path"": [""0"", ""5"", ""6"", ""7""], ""internal_node_id"": ""0.0-1.0-3.0-3.0"", ""block"": ""test""}"
A15935HVAR6XH:339ANSOTR52NE3HVJPHFY5HPP8BKIX,8,1522982448840,"{""rt"": [3620, 842, 1657], ""trial_type"": ""mouselab-mdp"", ""trialTime"": 10856, ""rewards"": [4, 8, -24], ""stateRewards"": ["""", 4, 8, -24, -24, -4, -8, -48, 48, 2, -8, -24, -48], ""actionTimes"": [3624, 4969, 7137], ""trial_id"": 2630443220538220000, ""time_elapsed"": 157684, ""actions"": [""up"", ""up"", ""right""], ""trialIndex"": 4, ""score"": -12, ""trial_index"": 8, ""simulationMode"": [null, null, null], ""queries"": {""mouseover"": {""state"": {""target"": [], ""time"": []}, ""edge"": {""target"": [], ""time"": []}}, ""click"": {""state"": {""target"": [], ""time"": []}, ""edge"": {""target"": [], ""time"": []}}, ""mouseout"": {""state"": {""target"": [], ""time"": []}, ""edge"": {""target"": [], ""time"": []}}}, ""path"": [""0"", ""1"", ""2"", ""3""], ""internal_node_id"": ""0.0-1.0-3.0-4.0"", ""block"": ""test""}"
A15935HVAR6XH:339ANSOTR52NE3HVJPHFY5HPP8BKIX,9,1522982462521,"{""rt"": [2700, 738, 1033], ""trial_type"": ""mouselab-mdp"", ""trialTime"": 12626, ""rewards"": [2, 8, -24], ""stateRewards"": ["""", 2, 8, -24, -48, -2, 8, 48, 24, 4, 8, -24, -48], ""actionTimes"": [2705, 3954, 5497], ""trial_id"": 7708577571422581000, ""time_elapsed"": 171365, ""actions"": [""up"", ""up"", ""right""], ""trialIndex"": 5, ""score"": -14, ""trial_index"": 9, ""simulationMode"": [null, null, null], ""queries"": {""mouseover"": {""state"": {""target"": [], ""time"": []}, ""edge"": {""target"": [], ""time"": []}}, ""click"": {""state"": {""target"": [], ""time"": []}, ""edge"": {""target"": [], ""time"": []}}, ""mouseout"": {""state"": {""target"": [], ""time"": []}, ""edge"": {""target"": [], ""time"": []}}}, ""path"": [""0"", ""1"", ""2"", ""3""], ""internal_node_id"": ""0.0-1.0-3.0-5.0"", ""block"": ""test""}"
A15935HVAR6XH:339ANSOTR52NE3HVJPHFY5HPP8BKIX,10,1522982474529,"{""rt"": [584, 576, 446], ""trial_type"": ""mouselab-mdp"", ""trialTime"": 10955, ""rewards"": [4, -4, -48], ""stateRewards"": ["""", 4, -4, 48, -48, -2, -8, 24, 24, -2, 4, 48, -48], ""actionTimes"": [588, 1675, 2628], ""trial_id"": 8045829731203394000, ""time_elapsed"": 183373, ""actions"": [""up"", ""up"", ""left""], ""trialIndex"": 6, ""score"": -48, ""trial_index"": 10, ""simulationMode"": [null, null, null], ""queries"": {""mouseover"": {""state"": {""target"": [], ""time"": []}, ""edge"": {""target"": [], ""time"": []}}, ""click"": {""state"": {""target"": [], ""time"": []}, ""edge"": {""target"": [], ""time"": []}}, ""mouseout"": {""state"": {""target"": [], ""time"": []}, ""edge"": {""target"": [], ""time"": []}}}, ""path"": [""0"", ""1"", ""2"", ""4""], ""internal_node_id"": ""0.0-1.0-3.0-6.0"", ""block"": ""test""}"
A15935HVAR6XH:339ANSOTR52NE3HVJPHFY5HPP8BKIX,11,1522982486329,"{""rt"": [1655, 1472, 906], ""trial_type"": ""mouselab-mdp"", ""trialTime"": 10742, ""rewards"": [-4, -8, -48], ""stateRewards"": ["""", 2, 4, -48, -24, -4, -8, 24, -48, -2, 8, 48, -24], ""actionTimes"": [1661, 3637, 5053], ""trial_id"": -8806789642961306000, ""time_elapsed"": 195173, ""actions"": [""right"", ""right"", ""down""], ""trialIndex"": 7, ""score"": -60, ""trial_index"": 11, ""simulationMode"": [null, null, null], ""queries"": {""mouseover"": {""state"": {""target"": [], ""time"": []}, ""edge"": {""target"": [], ""time"": []}}, ""click"": {""state"": {""target"": [], ""time"": []}, ""edge"": {""target"": [], ""time"": []}}, ""mouseout"": {""state"": {""target"": [], ""time"": []}, ""edge"": {""target"": [], ""time"": []}}}, ""path"": [""0"", ""5"", ""6"", ""8""], ""internal_node_id"": ""0.0-1.0-3.0-7.0"", ""block"": ""test""}"
A15935HVAR6XH:339ANSOTR52NE3HVJPHFY5HPP8BKIX,12,1522982496976,"{""rt"": [1528, 799, 772], ""trial_type"": ""mouselab-mdp"", ""trialTime"": 9596, ""rewards"": [4, 4, -24], ""stateRewards"": ["""", 4, 4, -48, 48, 4, 4, -24, -24, 2, -8, 48, -24], ""actionTimes"": [1532, 2835, 4124], ""trial_id"": 3802673927624508000, ""time_elapsed"": 205820, ""actions"": [""right"", ""right"", ""up""], ""trialIndex"": 8, ""score"": -16, ""trial_index"": 12, ""simulationMode"": [null, null, null], ""queries"": {""mouseover"": {""state"": {""target"": [], ""time"": []}, ""edge"": {""target"": [], ""time"": []}}, ""click"": {""state"": {""target"": [], ""time"": []}, ""edge"": {""target"": [], ""time"": []}}, ""mouseout"": {""state"": {""target"": [], ""time"": []}, ""edge"": {""target"": [], ""time"": []}}}, ""path"": [""0"", ""5"", ""6"", ""7""], ""internal_node_id"": ""0.0-1.0-3.0-8.0"", ""block"": ""test""}"
A15935HVAR6XH:339ANSOTR52NE3HVJPHFY5HPP8BKIX,13,1522982506191,"{""rt"": [1078, 577, 741], ""trial_type"": ""mouselab-mdp"", ""trialTime"": 8139, ""rewards"": [-4, -4, -48], ""stateRewards"": ["""", -4, -4, -48, -48, -2, -8, 24, 48, 2, 4, -24, -48], ""actionTimes"": [1083, 2171, 3420], ""trial_id"": -1848243683464450000, ""time_elapsed"": 215035, ""actions"": [""up"", ""up"", ""right""], ""trialIndex"": 9, ""score"": -56, ""trial_index"": 13, ""simulationMode"": [null, null, null], ""queries"": {""mouseover"": {""state"": {""target"": [], ""time"": []}, ""edge"": {""target"": [], ""time"": []}}, ""click"": {""state"": {""target"": [], ""time"": []}, ""edge"": {""target"": [], ""time"": []}}, ""mouseout"": {""state"": {""target"": [], ""time"": []}, ""edge"": {""target"": [], ""time"": []}}}, ""path"": [""0"", ""1"", ""2"", ""3""], ""internal_node_id"": ""0.0-1.0-3.0-9.0"", ""block"": ""test""}"
A15935HVAR6XH:339ANSOTR52NE3HVJPHFY5HPP8BKIX,14,1522982516071,"{""rt"": [1347, 568, 1774], ""trial_type"": ""mouselab-mdp"", ""trialTime"": 8824, ""rewards"": [4, -4, 48], ""stateRewards"": ["""", 2, -4, 24, -24, -2, 8, 24, 48, 4, -4, 48, 48], ""actionTimes"": [1352, 2432, 4720], ""trial_id"": 5246743485396079000, ""time_elapsed"": 224915, ""actions"": [""left"", ""left"", ""up""], ""trialIndex"": 10, ""score"": 48, ""trial_index"": 14, ""simulationMode"": [null, null, null], ""queries"": {""mouseover"": {""state"": {""target"": [], ""time"": []}, ""edge"": {""target"": [], ""time"": []}}, ""click"": {""state"": {""target"": [], ""time"": []}, ""edge"": {""target"": [], ""time"": []}}, ""mouseout"": {""state"": {""target"": [], ""time"": []}, ""edge"": {""target"": [], ""time"": []}}}, ""path"": [""0"", ""9"", ""10"", ""11""], ""internal_node_id"": ""0.0-1.0-3.0-10.0"", ""block"": ""test""}"
A15935HVAR6XH:339ANSOTR52NE3HVJPHFY5HPP8BKIX,15,1522982526839,"{""rt"": [1473, 746, 1090], ""trial_type"": ""mouselab-mdp"", ""trialTime"": 9709, ""rewards"": [2, -4, 24], ""stateRewards"": ["""", 2, 4, -48, 48, -4, 4, -48, -48, 2, -4, 24, 48], ""actionTimes"": [1477, 2741, 4349], ""trial_id"": -5849434166602758000, ""time_elapsed"": 235683, ""actions"": [""left"", ""left"", ""up""], ""trialIndex"": 11, ""score"": 22, ""trial_index"": 15, ""simulationMode"": [null, null, null], ""queries"": {""mouseover"": {""state"": {""target"": [], ""time"": []}, ""edge"": {""target"": [], ""time"": []}}, ""click"": {""state"": {""target"": [], ""time"": []}, ""edge"": {""target"": [], ""time"": []}}, ""mouseout"": {""state"": {""target"": [], ""time"": []}, ""edge"": {""target"": [], ""time"": []}}}, ""path"": [""0"", ""9"", ""10"", ""11""], ""internal_node_id"": ""0.0-1.0-3.0-11.0"", ""block"": ""test""}"
A15935HVAR6XH:339ANSOTR52NE3HVJPHFY5HPP8BKIX,16,1522982537607,"{""rt"": [2053, 824, 2851], ""trial_type"": ""mouselab-mdp"", ""trialTime"": 9713, ""rewards"": [-4, -4, 48], ""stateRewards"": ["""", -4, 8, 48, 24, 2, -8, -48, -24, -4, -4, 48, -24], ""actionTimes"": [2058, 3401, 6761], ""trial_id"": 3419769505624262700, ""time_elapsed"": 246451, ""actions"": [""left"", ""left"", ""up""], ""trialIndex"": 12, ""score"": 40, ""trial_index"": 16, ""simulationMode"": [null, null, null], ""queries"": {""mouseover"": {""state"": {""target"": [], ""time"": []}, ""edge"": {""target"": [], ""time"": []}}, ""click"": {""state"": {""target"": [], ""time"": []}, ""edge"": {""target"": [], ""time"": []}}, ""mouseout"": {""state"": {""target"": [], ""time"": []}, ""edge"": {""target"": [], ""time"": []}}}, ""path"": [""0"", ""9"", ""10"", ""11""], ""internal_node_id"": ""0.0-1.0-3.0-12.0"", ""block"": ""test""}"
A15935HVAR6XH:339ANSOTR52NE3HVJPHFY5HPP8BKIX,17,1522982548479,"{""rt"": [1433, 786, 1338], ""trial_type"": ""mouselab-mdp"", ""trialTime"": 9811, ""rewards"": [4, -8, 24], ""stateRewards"": ["""", -2, 4, -24, 24, -2, -4, -48, -48, 4, -8, 24, 24], ""actionTimes"": [1437, 2738, 4588], ""trial_id"": 282020194745400500, ""time_elapsed"": 257322, ""actions"": [""left"", ""left"", ""down""], ""trialIndex"": 13, ""score"": 20, ""trial_index"": 17, ""simulationMode"": [null, null, null], ""queries"": {""mouseover"": {""state"": {""target"": [], ""time"": []}, ""edge"": {""target"": [], ""time"": []}}, ""click"": {""state"": {""target"": [], ""time"": []}, ""edge"": {""target"": [], ""time"": []}}, ""mouseout"": {""state"": {""target"": [], ""time"": []}, ""edge"": {""target"": [], ""time"": []}}}, ""path"": [""0"", ""9"", ""10"", ""12""], ""internal_node_id"": ""0.0-1.0-3.0-13.0"", ""block"": ""test""}"
A15935HVAR6XH:339ANSOTR52NE3HVJPHFY5HPP8BKIX,18,1522982558255,"{""rt"": [1867, 1690, 1723], ""trial_type"": ""mouselab-mdp"", ""trialTime"": 8719, ""rewards"": [2, 4, 48], ""stateRewards"": ["""", -2, -4, 48, 24, 2, 4, -48, 48, -4, 4, 48, 24], ""actionTimes"": [1871, 4071, 6303], ""trial_id"": 7946552191512982000, ""time_elapsed"": 267099, ""actions"": [""right"", ""right"", ""down""], ""trialIndex"": 14, ""score"": 54, ""trial_index"": 18, ""simulationMode"": [null, null, null], ""queries"": {""mouseover"": {""state"": {""target"": [], ""time"": []}, ""edge"": {""target"": [], ""time"": []}}, ""click"": {""state"": {""target"": [], ""time"": []}, ""edge"": {""target"": [], ""time"": []}}, ""mouseout"": {""state"": {""target"": [], ""time"": []}, ""edge"": {""target"": [], ""time"": []}}}, ""path"": [""0"", ""5"", ""6"", ""8""], ""internal_node_id"": ""0.0-1.0-3.0-14.0"", ""block"": ""test""}"
A15935HVAR6XH:339ANSOTR52NE3HVJPHFY5HPP8BKIX,19,1522982569727,"{""rt"": [2856, 581, 2043], ""trial_type"": ""mouselab-mdp"", ""trialTime"": 10414, ""rewards"": [2, 8, -24], ""stateRewards"": ["""", 2, 8, -48, -24, 2, 8, -24, -48, 4, -4, 24, -48], ""actionTimes"": [2863, 3950, 6510], ""trial_id"": 495354184512700500, ""time_elapsed"": 278571, ""actions"": [""right"", ""right"", ""up""], ""trialIndex"": 15, ""score"": -14, ""trial_index"": 19, ""simulationMode"": [null, null, null], ""queries"": {""mouseover"": {""state"": {""target"": [], ""time"": []}, ""edge"": {""target"": [], ""time"": []}}, ""click"": {""state"": {""target"": [], ""time"": []}, ""edge"": {""target"": [], ""time"": []}}, ""mouseout"": {""state"": {""target"": [], ""time"": []}, ""edge"": {""target"": [], ""time"": []}}}, ""path"": [""0"", ""5"", ""6"", ""7""], ""internal_node_id"": ""0.0-1.0-3.0-15.0"", ""block"": ""test""}"
A15935HVAR6XH:339ANSOTR52NE3HVJPHFY5HPP8BKIX,20,1522982579535,"{""rt"": [1148, 500, 986], ""trial_type"": ""mouselab-mdp"", ""trialTime"": 8753, ""rewards"": [-2, 4, -24], ""stateRewards"": ["""", -4, 4, 24, -24, -2, 4, 48, -24, -4, -8, -48, 48], ""actionTimes"": [1153, 2161, 3665], ""trial_id"": 858865579533637100, ""time_elapsed"": 288379, ""actions"": [""right"", ""right"", ""down""], ""trialIndex"": 16, ""score"": -22, ""trial_index"": 20, ""simulationMode"": [null, null, null], ""queries"": {""mouseover"": {""state"": {""target"": [], ""time"": []}, ""edge"": {""target"": [], ""time"": []}}, ""click"": {""state"": {""target"": [], ""time"": []}, ""edge"": {""target"": [], ""time"": []}}, ""mouseout"": {""state"": {""target"": [], ""time"": []}, ""edge"": {""target"": [], ""time"": []}}}, ""path"": [""0"", ""5"", ""6"", ""8""], ""internal_node_id"": ""0.0-1.0-3.0-16.0"", ""block"": ""test""}"
A15935HVAR6XH:339ANSOTR52NE3HVJPHFY5HPP8BKIX,21,1522982590335,"{""rt"": [1985, 539, 1546], ""trial_type"": ""mouselab-mdp"", ""trialTime"": 9742, ""rewards"": [-4, -4, 48], ""stateRewards"": ["""", 2, -4, -24, -24, 4, -8, -48, -48, -4, -4, 48, 48], ""actionTimes"": [1990, 3039, 5094], ""trial_id"": -7913607226466677000, ""time_elapsed"": 299179, ""actions"": [""left"", ""left"", ""down""], ""trialIndex"": 17, ""score"": 40, ""trial_index"": 21, ""simulationMode"": [null, null, null], ""queries"": {""mouseover"": {""state"": {""target"": [], ""time"": []}, ""edge"": {""target"": [], ""time"": []}}, ""click"": {""state"": {""target"": [], ""time"": []}, ""edge"": {""target"": [], ""time"": []}}, ""mouseout"": {""state"": {""target"": [], ""time"": []}, ""edge"": {""target"": [], ""time"": []}}}, ""path"": [""0"", ""9"", ""10"", ""12""], ""internal_node_id"": ""0.0-1.0-3.0-17.0"", ""block"": ""test""}"
A15935HVAR6XH:339ANSOTR52NE3HVJPHFY5HPP8BKIX,22,1522982599951,"{""rt"": [1572, 2936, 631], ""trial_type"": ""mouselab-mdp"", ""trialTime"": 8559, ""rewards"": [2, -8, -24], ""stateRewards"": ["""", 2, -4, 48, 24, -2, -4, 24, 24, 2, -8, -24, 24], ""actionTimes"": [1576, 5032, 6176], ""trial_id"": 556601214791588500, ""time_elapsed"": 308794, ""actions"": [""left"", ""left"", ""up""], ""trialIndex"": 18, ""score"": -30, ""trial_index"": 22, ""simulationMode"": [null, null, null], ""queries"": {""mouseover"": {""state"": {""target"": [], ""time"": []}, ""edge"": {""target"": [], ""time"": []}}, ""click"": {""state"": {""target"": [], ""time"": []}, ""edge"": {""target"": [], ""time"": []}}, ""mouseout"": {""state"": {""target"": [], ""time"": []}, ""edge"": {""target"": [], ""time"": []}}}, ""path"": [""0"", ""9"", ""10"", ""11""], ""internal_node_id"": ""0.0-1.0-3.0-18.0"", ""block"": ""test""}"
A15935HVAR6XH:339ANSOTR52NE3HVJPHFY5HPP8BKIX,23,1522982609679,"{""rt"": [1285, 611, 966], ""trial_type"": ""mouselab-mdp"", ""trialTime"": 8672, ""rewards"": [4, -4, 48], ""stateRewards"": ["""", -2, -8, -48, -48, -4, -8, 24, 24, 4, -4, 48, -24], ""actionTimes"": [1289, 2409, 3896], ""trial_id"": -3027317260685893600, ""time_elapsed"": 318523, ""actions"": [""left"", ""left"", ""up""], ""trialIndex"": 19, ""score"": 48, ""trial_index"": 23, ""simulationMode"": [null, null, null], ""queries"": {""mouseover"": {""state"": {""target"": [], ""time"": []}, ""edge"": {""target"": [], ""time"": []}}, ""click"": {""state"": {""target"": [], ""time"": []}, ""edge"": {""target"": [], ""time"": []}}, ""mouseout"": {""state"": {""target"": [], ""time"": []}, ""edge"": {""target"": [], ""time"": []}}}, ""path"": [""0"", ""9"", ""10"", ""11""], ""internal_node_id"": ""0.0-1.0-3.0-19.0"", ""block"": ""test""}"
A15935HVAR6XH:339ANSOTR52NE3HVJPHFY5HPP8BKIX,24,1522982619191,"{""rt"": [1948, 792, 1452], ""trial_type"": ""mouselab-mdp"", ""trialTime"": 8455, ""rewards"": [-2, 4, 24], ""stateRewards"": ["""", -2, 4, 48, 24, -4, 8, -48, 24, 4, -8, 24, 24], ""actionTimes"": [1951, 3255, 5215], ""trial_id"": -1461775893828862000, ""time_elapsed"": 328035, ""actions"": [""up"", ""up"", ""left""], ""trialIndex"": 20, ""score"": 26, ""trial_index"": 24, ""simulationMode"": [null, null, null], ""queries"": {""mouseover"": {""state"": {""target"": [], ""time"": []}, ""edge"": {""target"": [], ""time"": []}}, ""click"": {""state"": {""target"": [], ""time"": []}, ""edge"": {""target"": [], ""time"": []}}, ""mouseout"": {""state"": {""target"": [], ""time"": []}, ""edge"": {""target"": [], ""time"": []}}}, ""path"": [""0"", ""1"", ""2"", ""4""], ""internal_node_id"": ""0.0-1.0-3.0-20.0"", ""block"": ""test""}"
A15935HVAR6XH:339ANSOTR52NE3HVJPHFY5HPP8BKIX,25,1522982629767,"{""rt"": [1501, 862, 952], ""trial_type"": ""mouselab-mdp"", ""trialTime"": 9519, ""rewards"": [-4, 4, 24], ""stateRewards"": ["""", 4, -8, -48, -48, -4, 4, 24, 24, -2, -8, -24, 48], ""actionTimes"": [1504, 2879, 4351], ""trial_id"": -4569496646062697500, ""time_elapsed"": 338611, ""actions"": [""right"", ""right"", ""down""], ""trialIndex"": 21, ""score"": 24, ""trial_index"": 25, ""simulationMode"": [null, null, null], ""queries"": {""mouseover"": {""state"": {""target"": [], ""time"": []}, ""edge"": {""target"": [], ""time"": []}}, ""click"": {""state"": {""target"": [], ""time"": []}, ""edge"": {""target"": [], ""time"": []}}, ""mouseout"": {""state"": {""target"": [], ""time"": []}, ""edge"": {""target"": [], ""time"": []}}}, ""path"": [""0"", ""5"", ""6"", ""8""], ""internal_node_id"": ""0.0-1.0-3.0-21.0"", ""block"": ""test""}"
A15935HVAR6XH:339ANSOTR52NE3HVJPHFY5HPP8BKIX,26,1522982639358,"{""rt"": [2040, 750, 730], ""trial_type"": ""mouselab-mdp"", ""trialTime"": 8539, ""rewards"": [-2, 4, 24], ""stateRewards"": ["""", 2, 8, 48, 24, -2, 4, 24, 24, -2, -4, -48, -24], ""actionTimes"": [2044, 3308, 4556], ""trial_id"": -8923867603615937000, ""time_elapsed"": 348202, ""actions"": [""right"", ""right"", ""down""], ""trialIndex"": 22, ""score"": 26, ""trial_index"": 26, ""simulationMode"": [null, null, null], ""queries"": {""mouseover"": {""state"": {""target"": [], ""time"": []}, ""edge"": {""target"": [], ""time"": []}}, ""click"": {""state"": {""target"": [], ""time"": []}, ""edge"": {""target"": [], ""time"": []}}, ""mouseout"": {""state"": {""target"": [], ""time"": []}, ""edge"": {""target"": [], ""time"": []}}}, ""path"": [""0"", ""5"", ""6"", ""8""], ""internal_node_id"": ""0.0-1.0-3.0-22.0"", ""block"": ""test""}"
A15935HVAR6XH:339ANSOTR52NE3HVJPHFY5HPP8BKIX,27,1522982651695,"{""rt"": [1718, 413, 471], ""trial_type"": ""mouselab-mdp"", ""trialTime"": 11283, ""rewards"": [4, 8, -48], ""stateRewards"": ["""", 2, 4, -24, 24, 4, 8, -48, -48, -4, -4, -48, -24], ""actionTimes"": [1723, 2643, 3635], ""trial_id"": -7784032825751816000, ""time_elapsed"": 360539, ""actions"": [""right"", ""right"", ""up""], ""trialIndex"": 23, ""score"": -36, ""trial_index"": 27, ""simulationMode"": [null, null, null], ""queries"": {""mouseover"": {""state"": {""target"": [], ""time"": []}, ""edge"": {""target"": [], ""time"": []}}, ""click"": {""state"": {""target"": [], ""time"": []}, ""edge"": {""target"": [], ""time"": []}}, ""mouseout"": {""state"": {""target"": [], ""time"": []}, ""edge"": {""target"": [], ""time"": []}}}, ""path"": [""0"", ""5"", ""6"", ""7""], ""internal_node_id"": ""0.0-1.0-3.0-23.0"", ""block"": ""test""}"
A15935HVAR6XH:339ANSOTR52NE3HVJPHFY5HPP8BKIX,28,1522982663143,"{""rt"": [1682, 662, 2278], ""trial_type"": ""mouselab-mdp"", ""trialTime"": 10396, ""rewards"": [-2, 4, -48], ""stateRewards"": ["""", 4, 4, -48, 48, -2, 4, -48, -24, -2, -4, -48, 24], ""actionTimes"": [1686, 2853, 5637], ""trial_id"": -5006809819184351000, ""time_elapsed"": 371987, ""actions"": [""right"", ""right"", ""up""], ""trialIndex"": 24, ""score"": -46, ""trial_index"": 28, ""simulationMode"": [null, null, null], ""queries"": {""mouseover"": {""state"": {""target"": [], ""time"": []}, ""edge"": {""target"": [], ""time"": []}}, ""click"": {""state"": {""target"": [], ""time"": []}, ""edge"": {""target"": [], ""time"": []}}, ""mouseout"": {""state"": {""target"": [], ""time"": []}, ""edge"": {""target"": [], ""time"": []}}}, ""path"": [""0"", ""5"", ""6"", ""7""], ""internal_node_id"": ""0.0-1.0-3.0-24.0"", ""block"": ""test""}"
A15935HVAR6XH:339ANSOTR52NE3HVJPHFY5HPP8BKIX,29,1522982677655,"{""rt"": [7700, 862, 1110], ""trial_type"": ""mouselab-mdp"", ""trialTime"": 13454, ""rewards"": [2, 4, -48], ""stateRewards"": ["""", 2, 4, -24, -48, -2, -4, -24, -24, -2, 8, 24, -24], ""actionTimes"": [7703, 9079, 10711], ""trial_id"": 11823864361136648, ""time_elapsed"": 386498, ""actions"": [""up"", ""up"", ""left""], ""trialIndex"": 25, ""score"": -42, ""trial_index"": 29, ""simulationMode"": [null, null, null], ""queries"": {""mouseover"": {""state"": {""target"": [], ""time"": []}, ""edge"": {""target"": [], ""time"": []}}, ""click"": {""state"": {""target"": [], ""time"": []}, ""edge"": {""target"": [], ""time"": []}}, ""mouseout"": {""state"": {""target"": [], ""time"": []}, ""edge"": {""target"": [], ""time"": []}}}, ""path"": [""0"", ""1"", ""2"", ""4""], ""internal_node_id"": ""0.0-1.0-3.0-25.0"", ""block"": ""test""}"
A15935HVAR6XH:339ANSOTR52NE3HVJPHFY5HPP8BKIX,30,1522982686510,"{""rt"": [1104, 412, 1639], ""trial_type"": ""mouselab-mdp"", ""trialTime"": 7803, ""rewards"": [2, -4, 24], ""stateRewards"": ["""", 2, -4, 24, 24, -4, 4, -24, -24, -2, 4, -24, -48], ""actionTimes"": [1107, 2035, 4196], ""trial_id"": 7862543089384343000, ""time_elapsed"": 395354, ""actions"": [""up"", ""up"", ""right""], ""trialIndex"": 26, ""score"": 22, ""trial_index"": 30, ""simulationMode"": [null, null, null], ""queries"": {""mouseover"": {""state"": {""target"": [], ""time"": []}, ""edge"": {""target"": [], ""time"": []}}, ""click"": {""state"": {""target"": [], ""time"": []}, ""edge"": {""target"": [], ""time"": []}}, ""mouseout"": {""state"": {""target"": [], ""time"": []}, ""edge"": {""target"": [], ""time"": []}}}, ""path"": [""0"", ""1"", ""2"", ""3""], ""internal_node_id"": ""0.0-1.0-3.0-26.0"", ""block"": ""test""}"
A15935HVAR6XH:339ANSOTR52NE3HVJPHFY5HPP8BKIX,31,1522982695999,"{""rt"": [2426, 995, 1947], ""trial_type"": ""mouselab-mdp"", ""trialTime"": 8430, ""rewards"": [-2, 8, -24], ""stateRewards"": ["""", -2, -8, -24, -24, 4, 8, 48, 24, -2, 8, -24, -48], ""actionTimes"": [2430, 3941, 6405], ""trial_id"": 4079752410143045600, ""time_elapsed"": 404843, ""actions"": [""left"", ""left"", ""up""], ""trialIndex"": 27, ""score"": -18, ""trial_index"": 31, ""simulationMode"": [null, null, null], ""queries"": {""mouseover"": {""state"": {""target"": [], ""time"": []}, ""edge"": {""target"": [], ""time"": []}}, ""click"": {""state"": {""target"": [], ""time"": []}, ""edge"": {""target"": [], ""time"": []}}, ""mouseout"": {""state"": {""target"": [], ""time"": []}, ""edge"": {""target"": [], ""time"": []}}}, ""path"": [""0"", ""9"", ""10"", ""11""], ""internal_node_id"": ""0.0-1.0-3.0-27.0"", ""block"": ""test""}"
A15935HVAR6XH:339ANSOTR52NE3HVJPHFY5HPP8BKIX,32,1522982707751,"{""rt"": [877, 443, 501], ""trial_type"": ""mouselab-mdp"", ""trialTime"": 10698, ""rewards"": [4, 8, 24], ""stateRewards"": ["""", 2, -8, -24, 48, -2, -4, -24, -24, 4, 8, 24, 48], ""actionTimes"": [881, 1833, 2841], ""trial_id"": 6516760737789360000, ""time_elapsed"": 416595, ""actions"": [""left"", ""left"", ""up""], ""trialIndex"": 28, ""score"": 36, ""trial_index"": 32, ""simulationMode"": [null, null, null], ""queries"": {""mouseover"": {""state"": {""target"": [], ""time"": []}, ""edge"": {""target"": [], ""time"": []}}, ""click"": {""state"": {""target"": [], ""time"": []}, ""edge"": {""target"": [], ""time"": []}}, ""mouseout"": {""state"": {""target"": [], ""time"": []}, ""edge"": {""target"": [], ""time"": []}}}, ""path"": [""0"", ""9"", ""10"", ""11""], ""internal_node_id"": ""0.0-1.0-3.0-28.0"", ""block"": ""test""}"
A15935HVAR6XH:339ANSOTR52NE3HVJPHFY5HPP8BKIX,33,1522982719358,"{""rt"": [1510, 574, 635], ""trial_type"": ""mouselab-mdp"", ""trialTime"": 10552, ""rewards"": [-4, 8, 48], ""stateRewards"": ["""", 2, 4, 24, -24, 4, -8, 48, -24, -4, 8, -48, 48], ""actionTimes"": [1513, 2592, 3736], ""trial_id"": 5010381167344479000, ""time_elapsed"": 428202, ""actions"": [""left"", ""left"", ""down""], ""trialIndex"": 29, ""score"": 52, ""trial_index"": 33, ""simulationMode"": [null, null, null], ""queries"": {""mouseover"": {""state"": {""target"": [], ""time"": []}, ""edge"": {""target"": [], ""time"": []}}, ""click"": {""state"": {""target"": [], ""time"": []}, ""edge"": {""target"": [], ""time"": []}}, ""mouseout"": {""state"": {""target"": [], ""time"": []}, ""edge"": {""target"": [], ""time"": []}}}, ""path"": [""0"", ""9"", ""10"", ""12""], ""internal_node_id"": ""0.0-1.0-3.0-29.0"", ""block"": ""test""}"
A15935HVAR6XH:339ANSOTR52NE3HVJPHFY5HPP8BKIX,34,1522982769417,"{""rt"": 49045, ""trial_type"": ""survey-multi-choice"", ""responses"": ""[\""$-4 to $4\"",\""$-48 to $48\"",\""$1\"",\""1 cent for every $5 you make in the game plus 45 cents\""]"", ""internal_node_id"": ""0.0-1.0-4.0"", ""time_elapsed"": 478261, ""questions"": ""[\""What is the range of node values in the first step?\"",\""What is the range of node values in the last step?\"",\""What is the cost of clicking?\"",\""How much REAL money do you earn?\""]"", ""correct"": null, ""trial_index"": 34}"
A15935HVAR6XH:339ANSOTR52NE3HVJPHFY5HPP8BKIX,35,1522982850277,"{""rt"": 79855, ""trial_type"": ""survey-text"", ""responses"": ""{\""Q0\"":\""Random guess\"",\""Q1\"":\""Tried something different each time\"",\""Q2\"":\""When it reached the end\"",\""Q3\"":\""To the left\"",\""Q4\"":\""Change direction every third time\""}"", ""internal_node_id"": ""0.0-1.0-5.0"", ""time_elapsed"": 559121, ""trial_index"": 35}"
A15935HVAR6XH:339ANSOTR52NE3HVJPHFY5HPP8BKIX,36,1522982900931,"{""rt"": 49651, ""trial_type"": ""survey-text"", ""responses"": ""{\""Q0\"":\""It was kind of interesting\"",\""Q1\"":\""Wasn't sure if I could stop where I was\"",\""Q2\"":\""Bigger webs to go through\""}"", ""internal_node_id"": ""0.0-1.0-6.0"", ""time_elapsed"": 609775, ""trial_index"": 36}"
A15935HVAR6XH:339ANSOTR52NE3HVJPHFY5HPP8BKIX,37,1522982905782,"{""rt"": 3848, ""trial_type"": ""text"", ""internal_node_id"": ""0.0-2.0"", ""time_elapsed"": 614626, ""key_press"": 32, ""trial_index"": 37}"
A15A09BRS1Q8W0:33F859I566DMP52H7UM1ZQXK2Y4BHM,0,1522873400848,"{""rt"": 12242, ""trial_type"": ""survey-text"", ""responses"": ""{\""Q0\"":\""male\"",\""Q1\"":\""31\"",\""Q2\"":\""usa\"",\""Q3\"":\""full-time\"",\""Q4\"":\""2\""}"", ""internal_node_id"": ""0.0-0.0"", ""time_elapsed"": 12287, ""trial_index"": 0}"
A15A09BRS1Q8W0:33F859I566DMP52H7UM1ZQXK2Y4BHM,1,1522873403496,"{""rt"": 1641, ""trial_type"": ""text"", ""internal_node_id"": ""0.0-2.0"", ""time_elapsed"": 14937, ""key_press"": 32, ""trial_index"": 1}"
A15ZA8L1162G2T:3VE8AYVF8MXJ9BD49SER53V6EFI8F2,0,1522952797594,"{""rt"": 21231, ""trial_type"": ""survey-text"", ""responses"": ""{\""Q0\"":\""Female\"",\""Q1\"":\""41\"",\""Q2\"":\""United States\"",\""Q3\"":\""Employed Full Time\"",\""Q4\"":\""2\""}"", ""internal_node_id"": ""0.0-0.0"", ""time_elapsed"": 21242, ""trial_index"": 0}"
A15ZA8L1162G2T:3VE8AYVF8MXJ9BD49SER53V6EFI8F2,1,1522952801406,"{""rt"": 2808, ""trial_type"": ""text"", ""internal_node_id"": ""0.0-2.0"", ""time_elapsed"": 25055, ""key_press"": 32, ""trial_index"": 1}"
A1768BFPFQ8AP1:339ANSOTR52NE3HVJPHFY5HPP5SIK6,0,1522869679184,"{""rt"": 19155, ""trial_type"": ""survey-text"", ""responses"": ""{\""Q0\"":\""Male\"",\""Q1\"":\""30\"",\""Q2\"":\""USA\"",\""Q3\"":\""Employed Full-Time\"",\""Q4\"":\""3\""}"", ""internal_node_id"": ""0.0-0.0"", ""time_elapsed"": 19166, ""trial_index"": 0}"
A1768BFPFQ8AP1:339ANSOTR52NE3HVJPHFY5HPP5SIK6,1,1522869687311,"{""rt"": 7125, ""trial_type"": ""text"", ""internal_node_id"": ""0.0-2.0"", ""time_elapsed"": 27293, ""key_press"": 32, ""trial_index"": 1}"
A1941R1INABJ86:3IRIK4HM3AKP2LA6PBRSDJECB8Z6C4,0,1522973012851,"{""rt"": 26083, ""trial_type"": ""survey-text"", ""responses"": ""{\""Q0\"":\""female\"",\""Q1\"":\""41\"",\""Q2\"":\""United States\"",\""Q3\"":\""Homemaker\"",\""Q4\"":\""2\""}"", ""internal_node_id"": ""0.0-0.0"", ""time_elapsed"": 26096, ""trial_index"": 0}"
A1941R1INABJ86:3IRIK4HM3AKP2LA6PBRSDJECB8Z6C4,1,1522973017701,"{""rt"": 3848, ""trial_type"": ""text"", ""internal_node_id"": ""0.0-2.0"", ""time_elapsed"": 30946, ""key_press"": 32, ""trial_index"": 1}"
A19HS6ON7R2KBP:32VNZTT0A74FT0VBOKO85GTKFHM4RB,0,1522942230261,"{""rt"": 29412, ""trial_type"": ""survey-text"", ""responses"": ""{\""Q0\"":\""female\"",\""Q1\"":\""47\"",\""Q2\"":\""usa\"",\""Q3\"":\""full time\"",\""Q4\"":\""4\""}"", ""internal_node_id"": ""0.0-0.0"", ""time_elapsed"": 29448, ""trial_index"": 0}"
A19HS6ON7R2KBP:32VNZTT0A74FT0VBOKO85GTKFHM4RB,1,1522942234780,"{""rt"": 3509, ""trial_type"": ""text"", ""internal_node_id"": ""0.0-2.0"", ""time_elapsed"": 33966, ""key_press"": 32, ""trial_index"": 1}"
A1ANG01DQJZCUZ:3AZHRG4CU4K6BAS8UT0ABF0RSR8035,0,1522956704389,"{""rt"": 44465, ""trial_type"": ""survey-text"", ""responses"": ""{\""Q0\"":\""Male\"",\""Q1\"":\""20\"",\""Q2\"":\""U.S.\"",\""Q3\"":\""Student \"",\""Q4\"":\""5\""}"", ""internal_node_id"": ""0.0-0.0"", ""time_elapsed"": 44475, ""trial_index"": 0}"
A1ANG01DQJZCUZ:3AZHRG4CU4K6BAS8UT0ABF0RSR8035,1,1522956718392,"{""rt"": 12996, ""trial_type"": ""text"", ""internal_node_id"": ""0.0-1.0-0.0"", ""time_elapsed"": 58479, ""key_press"": 32, ""trial_index"": 1}"
A1ANG01DQJZCUZ:3AZHRG4CU4K6BAS8UT0ABF0RSR8035,2,1522956721582,"{""rt"": 2187, ""trial_type"": ""text"", ""internal_node_id"": ""0.0-1.0-1.0"", ""time_elapsed"": 61669, ""key_press"": 39, ""trial_index"": 2}"
A1ANG01DQJZCUZ:3AZHRG4CU4K6BAS8UT0ABF0RSR8035,3,1522956730056,"{""rt"": 7473, ""trial_type"": ""text"", ""internal_node_id"": ""0.0-1.0-2.0"", ""time_elapsed"": 70143, ""key_press"": 32, ""trial_index"": 3}"
A1ANG01DQJZCUZ:3AZHRG4CU4K6BAS8UT0ABF0RSR8035,4,1522956741794,"{""rt"": [1558, 4268, 692], ""trial_type"": ""mouselab-mdp"", ""trialTime"": 10644, ""rewards"": [-4, -8, 24], ""stateRewards"": ["""", -4, 4, -24, -24, -4, -8, 24, -24, 4, -8, 48, -48], ""actionTimes"": [1570, 6345, 7584], ""trial_id"": 460924718031657700, ""time_elapsed"": 81881, ""actions"": [""right"", ""right"", ""up""], ""trialIndex"": 0, ""score"": 12, ""trial_index"": 4, ""simulationMode"": [null, null, null], ""queries"": {""mouseover"": {""state"": {""target"": [], ""time"": []}, ""edge"": {""target"": [], ""time"": []}}, ""click"": {""state"": {""target"": [], ""time"": []}, ""edge"": {""target"": [], ""time"": []}}, ""mouseout"": {""state"": {""target"": [], ""time"": []}, ""edge"": {""target"": [], ""time"": []}}}, ""path"": [""0"", ""5"", ""6"", ""7""], ""internal_node_id"": ""0.0-1.0-3.0-0.0"", ""block"": ""test""}"
A1ANG01DQJZCUZ:3AZHRG4CU4K6BAS8UT0ABF0RSR8035,5,1522956751774,"{""rt"": [750, 990, 470], ""trial_type"": ""mouselab-mdp"", ""trialTime"": 8927, ""rewards"": [-4, -4, -24], ""stateRewards"": ["""", -4, -4, -24, 24, 2, -4, 24, -48, -2, 8, -48, -48], ""actionTimes"": [756, 2252, 3214], ""trial_id"": -1389625695571519700, ""time_elapsed"": 91861, ""actions"": [""up"", ""up"", ""right""], ""trialIndex"": 1, ""score"": -32, ""trial_index"": 5, ""simulationMode"": [null, null, null], ""queries"": {""mouseover"": {""state"": {""target"": [], ""time"": []}, ""edge"": {""target"": [], ""time"": []}}, ""click"": {""state"": {""target"": [], ""time"": []}, ""edge"": {""target"": [], ""time"": []}}, ""mouseout"": {""state"": {""target"": [], ""time"": []}, ""edge"": {""target"": [], ""time"": []}}}, ""path"": [""0"", ""1"", ""2"", ""3""], ""internal_node_id"": ""0.0-1.0-3.0-1.0"", ""block"": ""test""}"
A1ANG01DQJZCUZ:3AZHRG4CU4K6BAS8UT0ABF0RSR8035,6,1522956767227,"{""rt"": [647, 706, 576], ""trial_type"": ""mouselab-mdp"", ""trialTime"": 14410, ""rewards"": [2, 4, 24], ""stateRewards"": ["""", 2, -4, 24, -48, -2, -8, 24, -48, 2, 4, 24, -48], ""actionTimes"": [651, 1864, 2948], ""trial_id"": 2653018761906401300, ""time_elapsed"": 107314, ""actions"": [""left"", ""left"", ""up""], ""trialIndex"": 2, ""score"": 30, ""trial_index"": 6, ""simulationMode"": [null, null, null], ""queries"": {""mouseover"": {""state"": {""target"": [], ""time"": []}, ""edge"": {""target"": [], ""time"": []}}, ""click"": {""state"": {""target"": [], ""time"": []}, ""edge"": {""target"": [], ""time"": []}}, ""mouseout"": {""state"": {""target"": [], ""time"": []}, ""edge"": {""target"": [], ""time"": []}}}, ""path"": [""0"", ""9"", ""10"", ""11""], ""internal_node_id"": ""0.0-1.0-3.0-2.0"", ""block"": ""test""}"
A1ANG01DQJZCUZ:3AZHRG4CU4K6BAS8UT0ABF0RSR8035,7,1522956778145,"{""rt"": [322, 411, 225], ""trial_type"": ""mouselab-mdp"", ""trialTime"": 9873, ""rewards"": [-4, -8, 48], ""stateRewards"": ["""", -4, 4, 24, -24, -2, 4, 48, -24, -4, -8, -48, 48], ""actionTimes"": [328, 1260, 1992], ""trial_id"": 858865579533637100, ""time_elapsed"": 118232, ""actions"": [""left"", ""left"", ""down""], ""trialIndex"": 3, ""score"": 36, ""trial_index"": 7, ""simulationMode"": [null, null, null], ""queries"": {""mouseover"": {""state"": {""target"": [], ""time"": []}, ""edge"": {""target"": [], ""time"": []}}, ""click"": {""state"": {""target"": [], ""time"": []}, ""edge"": {""target"": [], ""time"": []}}, ""mouseout"": {""state"": {""target"": [], ""time"": []}, ""edge"": {""target"": [], ""time"": []}}}, ""path"": [""0"", ""9"", ""10"", ""12""], ""internal_node_id"": ""0.0-1.0-3.0-3.0"", ""block"": ""test""}"
A1ANG01DQJZCUZ:3AZHRG4CU4K6BAS8UT0ABF0RSR8035,8,1522956788024,"{""rt"": [501, 26, 570], ""trial_type"": ""mouselab-mdp"", ""trialTime"": 8831, ""rewards"": [2, -8, 48], ""stateRewards"": ["""", 2, -8, -24, 48, -2, -4, -24, -24, 4, 8, 24, 48], ""actionTimes"": [505, 1052, 2131], ""trial_id"": 6516760737789360000, ""time_elapsed"": 128111, ""actions"": [""up"", ""up"", ""left""], ""trialIndex"": 4, ""score"": 42, ""trial_index"": 8, ""simulationMode"": [null, null, null], ""queries"": {""mouseover"": {""state"": {""target"": [], ""time"": []}, ""edge"": {""target"": [], ""time"": []}}, ""click"": {""state"": {""target"": [], ""time"": []}, ""edge"": {""target"": [], ""time"": []}}, ""mouseout"": {""state"": {""target"": [], ""time"": []}, ""edge"": {""target"": [], ""time"": []}}}, ""path"": [""0"", ""1"", ""2"", ""4""], ""internal_node_id"": ""0.0-1.0-3.0-4.0"", ""block"": ""test""}"
A1ANG01DQJZCUZ:3AZHRG4CU4K6BAS8UT0ABF0RSR8035,9,1522956798117,"{""rt"": [1083, 294, 450], ""trial_type"": ""mouselab-mdp"", ""trialTime"": 9028, ""rewards"": [2, 4, -48], ""stateRewards"": ["""", -2, -4, 48, 24, 2, 4, -48, 48, -4, 4, 48, 24], ""actionTimes"": [1087, 1889, 2845], ""trial_id"": 7946552191512982000, ""time_elapsed"": 138204, ""actions"": [""right"", ""right"", ""up""], ""trialIndex"": 5, ""score"": -42, ""trial_index"": 9, ""simulationMode"": [null, null, null], ""queries"": {""mouseover"": {""state"": {""target"": [], ""time"": []}, ""edge"": {""target"": [], ""time"": []}}, ""click"": {""state"": {""target"": [], ""time"": []}, ""edge"": {""target"": [], ""time"": []}}, ""mouseout"": {""state"": {""target"": [], ""time"": []}, ""edge"": {""target"": [], ""time"": []}}}, ""path"": [""0"", ""5"", ""6"", ""7""], ""internal_node_id"": ""0.0-1.0-3.0-5.0"", ""block"": ""test""}"
A1ANG01DQJZCUZ:3AZHRG4CU4K6BAS8UT0ABF0RSR8035,10,1522956809390,"{""rt"": [1164, 74, 321], ""trial_type"": ""mouselab-mdp"", ""trialTime"": 10225, ""rewards"": [2, 4, 24], ""stateRewards"": ["""", -2, -4, -48, -48, 2, -8, -24, -24, 2, 4, 24, 24], ""actionTimes"": [1169, 1758, 2588], ""trial_id"": -7656966127788694000, ""time_elapsed"": 149477, ""actions"": [""left"", ""left"", ""up""], ""trialIndex"": 6, ""score"": 30, ""trial_index"": 10, ""simulationMode"": [null, null, null], ""queries"": {""mouseover"": {""state"": {""target"": [], ""time"": []}, ""edge"": {""target"": [], ""time"": []}}, ""click"": {""state"": {""target"": [], ""time"": []}, ""edge"": {""target"": [], ""time"": []}}, ""mouseout"": {""state"": {""target"": [], ""time"": []}, ""edge"": {""target"": [], ""time"": []}}}, ""path"": [""0"", ""9"", ""10"", ""11""], ""internal_node_id"": ""0.0-1.0-3.0-6.0"", ""block"": ""test""}"
A1ANG01DQJZCUZ:3AZHRG4CU4K6BAS8UT0ABF0RSR8035,11,1522956822171,"{""rt"": [927, 82, 387], ""trial_type"": ""mouselab-mdp"", ""trialTime"": 11713, ""rewards"": [-2, -4, -48], ""stateRewards"": ["""", -2, 4, -24, 24, -2, -4, -48, -48, 4, -8, 24, 24], ""actionTimes"": [930, 1520, 2425], ""trial_id"": 282020194745400500, ""time_elapsed"": 162258, ""actions"": [""right"", ""right"", ""up""], ""trialIndex"": 7, ""score"": -54, ""trial_index"": 11, ""simulationMode"": [null, null, null], ""queries"": {""mouseover"": {""state"": {""target"": [], ""time"": []}, ""edge"": {""target"": [], ""time"": []}}, ""click"": {""state"": {""target"": [], ""time"": []}, ""edge"": {""target"": [], ""time"": []}}, ""mouseout"": {""state"": {""target"": [], ""time"": []}, ""edge"": {""target"": [], ""time"": []}}}, ""path"": [""0"", ""5"", ""6"", ""7""], ""internal_node_id"": ""0.0-1.0-3.0-7.0"", ""block"": ""test""}"
A1ANG01DQJZCUZ:3AZHRG4CU4K6BAS8UT0ABF0RSR8035,12,1522956839026,"{""rt"": [1277, 1791, 576], ""trial_type"": ""mouselab-mdp"", ""trialTime"": 15806, ""rewards"": [4, -4, 48], ""stateRewards"": ["""", 4, -4, -48, 24, -2, -4, 24, 48, 4, -4, 48, -48], ""actionTimes"": [1283, 3583, 4667], ""trial_id"": 320588371626771840, ""time_elapsed"": 179113, ""actions"": [""left"", ""left"", ""up""], ""trialIndex"": 8, ""score"": 48, ""trial_index"": 12, ""simulationMode"": [null, null, null], ""queries"": {""mouseover"": {""state"": {""target"": [], ""time"": []}, ""edge"": {""target"": [], ""time"": []}}, ""click"": {""state"": {""target"": [], ""time"": []}, ""edge"": {""target"": [], ""time"": []}}, ""mouseout"": {""state"": {""target"": [], ""time"": []}, ""edge"": {""target"": [], ""time"": []}}}, ""path"": [""0"", ""9"", ""10"", ""11""], ""internal_node_id"": ""0.0-1.0-3.0-8.0"", ""block"": ""test""}"
A1ANG01DQJZCUZ:3AZHRG4CU4K6BAS8UT0ABF0RSR8035,13,1522956850258,"{""rt"": [6519, 413, 428], ""trial_type"": ""mouselab-mdp"", ""trialTime"": 10187, ""rewards"": [4, 4, -24], ""stateRewards"": ["""", 4, 4, -48, 48, 4, 4, -24, -24, 2, -8, 48, -24], ""actionTimes"": [6526, 7450, 8398], ""trial_id"": 3802673927624508000, ""time_elapsed"": 190345, ""actions"": [""right"", ""right"", ""down""], ""trialIndex"": 9, ""score"": -16, ""trial_index"": 13, ""simulationMode"": [null, null, null], ""queries"": {""mouseover"": {""state"": {""target"": [], ""time"": []}, ""edge"": {""target"": [], ""time"": []}}, ""click"": {""state"": {""target"": [], ""time"": []}, ""edge"": {""target"": [], ""time"": []}}, ""mouseout"": {""state"": {""target"": [], ""time"": []}, ""edge"": {""target"": [], ""time"": []}}}, ""path"": [""0"", ""5"", ""6"", ""8""], ""internal_node_id"": ""0.0-1.0-3.0-9.0"", ""block"": ""test""}"
A1ANG01DQJZCUZ:3AZHRG4CU4K6BAS8UT0ABF0RSR8035,14,1522956861434,"{""rt"": [5408, 64, 58], ""trial_type"": ""mouselab-mdp"", ""trialTime"": 10082, ""rewards"": [4, -8, 48], ""stateRewards"": ["""", 2, 8, 24, -24, 2, -8, -24, -24, 4, -8, 48, 48], ""actionTimes"": [5414, 5986, 6562], ""trial_id"": -3200495881349436000, ""time_elapsed"": 201521, ""actions"": [""left"", ""left"", ""up""], ""trialIndex"": 10, ""score"": 44, ""trial_index"": 14, ""simulationMode"": [null, null, null], ""queries"": {""mouseover"": {""state"": {""target"": [], ""time"": []}, ""edge"": {""target"": [], ""time"": []}}, ""click"": {""state"": {""target"": [], ""time"": []}, ""edge"": {""target"": [], ""time"": []}}, ""mouseout"": {""state"": {""target"": [], ""time"": []}, ""edge"": {""target"": [], ""time"": []}}}, ""path"": [""0"", ""9"", ""10"", ""11""], ""internal_node_id"": ""0.0-1.0-3.0-10.0"", ""block"": ""test""}"
A1ANG01DQJZCUZ:3AZHRG4CU4K6BAS8UT0ABF0RSR8035,15,1522956879647,"{""rt"": [1433, 558, 371], ""trial_type"": ""mouselab-mdp"", ""trialTime"": 17165, ""rewards"": [-4, 4, 48], ""stateRewards"": ["""", -4, 4, 48, -48, -4, 4, -24, 24, -4, -8, 24, 24], ""actionTimes"": [1439, 2515, 3394], ""trial_id"": -5995301136843023000, ""time_elapsed"": 219734, ""actions"": [""up"", ""up"", ""right""], ""trialIndex"": 11, ""score"": 48, ""trial_index"": 15, ""simulationMode"": [null, null, null], ""queries"": {""mouseover"": {""state"": {""target"": [], ""time"": []}, ""edge"": {""target"": [], ""time"": []}}, ""click"": {""state"": {""target"": [], ""time"": []}, ""edge"": {""target"": [], ""time"": []}}, ""mouseout"": {""state"": {""target"": [], ""time"": []}, ""edge"": {""target"": [], ""time"": []}}}, ""path"": [""0"", ""1"", ""2"", ""3""], ""internal_node_id"": ""0.0-1.0-3.0-11.0"", ""block"": ""test""}"
A1ANG01DQJZCUZ:3AZHRG4CU4K6BAS8UT0ABF0RSR8035,16,1522956889959,"{""rt"": [1583, 8, 1091], ""trial_type"": ""mouselab-mdp"", ""trialTime"": 9266, ""rewards"": [4, -4, 48], ""stateRewards"": ["""", 2, -4, 24, -24, -2, 8, 24, 48, 4, -4, 48, 48], ""actionTimes"": [1586, 2107, 3718], ""trial_id"": 5246743485396079000, ""time_elapsed"": 230046, ""actions"": [""left"", ""left"", ""down""], ""trialIndex"": 12, ""score"": 48, ""trial_index"": 16, ""simulationMode"": [null, null, null], ""queries"": {""mouseover"": {""state"": {""target"": [], ""time"": []}, ""edge"": {""target"": [], ""time"": []}}, ""click"": {""state"": {""target"": [], ""time"": []}, ""edge"": {""target"": [], ""time"": []}}, ""mouseout"": {""state"": {""target"": [], ""time"": []}, ""edge"": {""target"": [], ""time"": []}}}, ""path"": [""0"", ""9"", ""10"", ""12""], ""internal_node_id"": ""0.0-1.0-3.0-12.0"", ""block"": ""test""}"
A1ANG01DQJZCUZ:3AZHRG4CU4K6BAS8UT0ABF0RSR8035,17,1522956901846,"{""rt"": [3139, 433, 507], ""trial_type"": ""mouselab-mdp"", ""trialTime"": 10833, ""rewards"": [4, -8, 48], ""stateRewards"": ["""", 4, -8, 24, 48, 4, -8, -24, 48, -2, -8, 24, -24], ""actionTimes"": [3148, 4091, 5113], ""trial_id"": 6608608155125090000, ""time_elapsed"": 241932, ""actions"": [""up"", ""up"", ""left""], ""trialIndex"": 13, ""score"": 44, ""trial_index"": 17, ""simulationMode"": [null, null, null], ""queries"": {""mouseover"": {""state"": {""target"": [], ""time"": []}, ""edge"": {""target"": [], ""time"": []}}, ""click"": {""state"": {""target"": [], ""time"": []}, ""edge"": {""target"": [], ""time"": []}}, ""mouseout"": {""state"": {""target"": [], ""time"": []}, ""edge"": {""target"": [], ""time"": []}}}, ""path"": [""0"", ""1"", ""2"", ""4""], ""internal_node_id"": ""0.0-1.0-3.0-13.0"", ""block"": ""test""}"
A1ANG01DQJZCUZ:3AZHRG4CU4K6BAS8UT0ABF0RSR8035,18,1522956912042,"{""rt"": [1614, 440, 79], ""trial_type"": ""mouselab-mdp"", ""trialTime"": 9150, ""rewards"": [-2, -4, 48], ""stateRewards"": ["""", -4, 4, 24, 24, -2, -4, 48, -24, -4, 8, -48, 48], ""actionTimes"": [1618, 2568, 3155], ""trial_id"": -4874666135804490000, ""time_elapsed"": 252129, ""actions"": [""right"", ""right"", ""up""], ""trialIndex"": 14, ""score"": 42, ""trial_index"": 18, ""simulationMode"": [null, null, null], ""queries"": {""mouseover"": {""state"": {""target"": [], ""time"": []}, ""edge"": {""target"": [], ""time"": []}}, ""click"": {""state"": {""target"": [], ""time"": []}, ""edge"": {""target"": [], ""time"": []}}, ""mouseout"": {""state"": {""target"": [], ""time"": []}, ""edge"": {""target"": [], ""time"": []}}}, ""path"": [""0"", ""5"", ""6"", ""7""], ""internal_node_id"": ""0.0-1.0-3.0-14.0"", ""block"": ""test""}"
A1ANG01DQJZCUZ:3AZHRG4CU4K6BAS8UT0ABF0RSR8035,19,1522956929852,"{""rt"": [912, 290, 1649], ""trial_type"": ""mouselab-mdp"", ""trialTime"": 16769, ""rewards"": [4, 8, -48], ""stateRewards"": ["""", 2, 8, -24, -48, -2, 8, 48, 24, 4, 8, -24, -48], ""actionTimes"": [916, 1722, 3901], ""trial_id"": 7708577571422581000, ""time_elapsed"": 269939, ""actions"": [""left"", ""left"", ""down""], ""trialIndex"": 15, ""score"": -36, ""trial_index"": 19, ""simulationMode"": [null, null, null], ""queries"": {""mouseover"": {""state"": {""target"": [], ""time"": []}, ""edge"": {""target"": [], ""time"": []}}, ""click"": {""state"": {""target"": [], ""time"": []}, ""edge"": {""target"": [], ""time"": []}}, ""mouseout"": {""state"": {""target"": [], ""time"": []}, ""edge"": {""target"": [], ""time"": []}}}, ""path"": [""0"", ""9"", ""10"", ""12""], ""internal_node_id"": ""0.0-1.0-3.0-15.0"", ""block"": ""test""}"
A1ANG01DQJZCUZ:3AZHRG4CU4K6BAS8UT0ABF0RSR8035,20,1522956941895,"{""rt"": [519, 464, 758], ""trial_type"": ""mouselab-mdp"", ""trialTime"": 10996, ""rewards"": [-4, 8, -24], ""stateRewards"": ["""", -4, 8, 48, -24, -2, -4, 24, -48, 4, 4, 48, -48], ""actionTimes"": [524, 1509, 2787], ""trial_id"": 7263244810589990000, ""time_elapsed"": 281982, ""actions"": [""up"", ""up"", ""left""], ""trialIndex"": 16, ""score"": -20, ""trial_index"": 20, ""simulationMode"": [null, null, null], ""queries"": {""mouseover"": {""state"": {""target"": [], ""time"": []}, ""edge"": {""target"": [], ""time"": []}}, ""click"": {""state"": {""target"": [], ""time"": []}, ""edge"": {""target"": [], ""time"": []}}, ""mouseout"": {""state"": {""target"": [], ""time"": []}, ""edge"": {""target"": [], ""time"": []}}}, ""path"": [""0"", ""1"", ""2"", ""4""], ""internal_node_id"": ""0.0-1.0-3.0-16.0"", ""block"": ""test""}"
A1ANG01DQJZCUZ:3AZHRG4CU4K6BAS8UT0ABF0RSR8035,21,1522956953679,"{""rt"": [545, 71, 330], ""trial_type"": ""mouselab-mdp"", ""trialTime"": 10735, ""rewards"": [-2, 4, -24], ""stateRewards"": ["""", 4, 4, -48, 48, -2, 4, -48, -24, -2, -4, -48, 24], ""actionTimes"": [548, 1139, 1982], ""trial_id"": -5006809819184351000, ""time_elapsed"": 293766, ""actions"": [""right"", ""right"", ""down""], ""trialIndex"": 17, ""score"": -22, ""trial_index"": 21, ""simulationMode"": [null, null, null], ""queries"": {""mouseover"": {""state"": {""target"": [], ""time"": []}, ""edge"": {""target"": [], ""time"": []}}, ""click"": {""state"": {""target"": [], ""time"": []}, ""edge"": {""target"": [], ""time"": []}}, ""mouseout"": {""state"": {""target"": [], ""time"": []}, ""edge"": {""target"": [], ""time"": []}}}, ""path"": [""0"", ""5"", ""6"", ""8""], ""internal_node_id"": ""0.0-1.0-3.0-17.0"", ""block"": ""test""}"
A1ANG01DQJZCUZ:3AZHRG4CU4K6BAS8UT0ABF0RSR8035,22,1522956967831,"{""rt"": [368, 44, 39], ""trial_type"": ""mouselab-mdp"", ""trialTime"": 13108, ""rewards"": [-4, -8, -24], ""stateRewards"": ["""", -2, 4, 24, -24, -4, 4, -24, 24, -4, -8, -24, 24], ""actionTimes"": [374, 927, 1472], ""trial_id"": -3142242075455045000, ""time_elapsed"": 307918, ""actions"": [""left"", ""left"", ""up""], ""trialIndex"": 18, ""score"": -36, ""trial_index"": 22, ""simulationMode"": [null, null, null], ""queries"": {""mouseover"": {""state"": {""target"": [], ""time"": []}, ""edge"": {""target"": [], ""time"": []}}, ""click"": {""state"": {""target"": [], ""time"": []}, ""edge"": {""target"": [], ""time"": []}}, ""mouseout"": {""state"": {""target"": [], ""time"": []}, ""edge"": {""target"": [], ""time"": []}}}, ""path"": [""0"", ""9"", ""10"", ""11""], ""internal_node_id"": ""0.0-1.0-3.0-18.0"", ""block"": ""test""}"
A1ANG01DQJZCUZ:3AZHRG4CU4K6BAS8UT0ABF0RSR8035,23,1522956977436,"{""rt"": [478, 36, 122], ""trial_type"": ""mouselab-mdp"", ""trialTime"": 8550, ""rewards"": [-4, -4, -48], ""stateRewards"": ["""", -4, -4, -48, -48, -2, -8, 24, 48, 2, 4, -24, -48], ""actionTimes"": [491, 1023, 1659], ""trial_id"": -1848243683464450000, ""time_elapsed"": 317523, ""actions"": [""up"", ""up"", ""right""], ""trialIndex"": 19, ""score"": -56, ""trial_index"": 23, ""simulationMode"": [null, null, null], ""queries"": {""mouseover"": {""state"": {""target"": [], ""time"": []}, ""edge"": {""target"": [], ""time"": []}}, ""click"": {""state"": {""target"": [], ""time"": []}, ""edge"": {""target"": [], ""time"": []}}, ""mouseout"": {""state"": {""target"": [], ""time"": []}, ""edge"": {""target"": [], ""time"": []}}}, ""path"": [""0"", ""1"", ""2"", ""3""], ""internal_node_id"": ""0.0-1.0-3.0-19.0"", ""block"": ""test""}"
A1ANG01DQJZCUZ:3AZHRG4CU4K6BAS8UT0ABF0RSR8035,24,1522956992840,"{""rt"": [779, 405, 12], ""trial_type"": ""mouselab-mdp"", ""trialTime"": 14362, ""rewards"": [2, -4, 24], ""stateRewards"": ["""", 2, 4, -48, 48, -4, 4, -48, -48, 2, -4, 24, 48], ""actionTimes"": [781, 1696, 2220], ""trial_id"": -5849434166602758000, ""time_elapsed"": 332927, ""actions"": [""left"", ""left"", ""up""], ""trialIndex"": 20, ""score"": 22, ""trial_index"": 24, ""simulationMode"": [null, null, null], ""queries"": {""mouseover"": {""state"": {""target"": [], ""time"": []}, ""edge"": {""target"": [], ""time"": []}}, ""click"": {""state"": {""target"": [], ""time"": []}, ""edge"": {""target"": [], ""time"": []}}, ""mouseout"": {""state"": {""target"": [], ""time"": []}, ""edge"": {""target"": [], ""time"": []}}}, ""path"": [""0"", ""9"", ""10"", ""11""], ""internal_node_id"": ""0.0-1.0-3.0-20.0"", ""block"": ""test""}"
A1ANG01DQJZCUZ:3AZHRG4CU4K6BAS8UT0ABF0RSR8035,25,1522957006665,"{""rt"": [163, 9, 446], ""trial_type"": ""mouselab-mdp"", ""trialTime"": 12763, ""rewards"": [-4, 8, -48], ""stateRewards"": ["""", -4, 8, -24, -48, -4, 8, -48, 48, 4, -8, -24, 48], ""actionTimes"": [167, 697, 1660], ""trial_id"": -1414845178968030700, ""time_elapsed"": 346752, ""actions"": [""right"", ""right"", ""up""], ""trialIndex"": 21, ""score"": -44, ""trial_index"": 25, ""simulationMode"": [null, null, null], ""queries"": {""mouseover"": {""state"": {""target"": [], ""time"": []}, ""edge"": {""target"": [], ""time"": []}}, ""click"": {""state"": {""target"": [], ""time"": []}, ""edge"": {""target"": [], ""time"": []}}, ""mouseout"": {""state"": {""target"": [], ""time"": []}, ""edge"": {""target"": [], ""time"": []}}}, ""path"": [""0"", ""5"", ""6"", ""7""], ""internal_node_id"": ""0.0-1.0-3.0-21.0"", ""block"": ""test""}"
A1ANG01DQJZCUZ:3AZHRG4CU4K6BAS8UT0ABF0RSR8035,26,1522957027392,"{""rt"": [496, 32, 144], ""trial_type"": ""mouselab-mdp"", ""trialTime"": 19673, ""rewards"": [2, 8, 48], ""stateRewards"": ["""", 2, 8, 48, -24, -4, -4, -48, 24, -4, -8, -48, -24], ""actionTimes"": [499, 1050, 1707], ""trial_id"": 2372710761025483000, ""time_elapsed"": 367478, ""actions"": [""up"", ""up"", ""right""], ""trialIndex"": 22, ""score"": 58, ""trial_index"": 26, ""simulationMode"": [null, null, null], ""queries"": {""mouseover"": {""state"": {""target"": [], ""time"": []}, ""edge"": {""target"": [], ""time"": []}}, ""click"": {""state"": {""target"": [], ""time"": []}, ""edge"": {""target"": [], ""time"": []}}, ""mouseout"": {""state"": {""target"": [], ""time"": []}, ""edge"": {""target"": [], ""time"": []}}}, ""path"": [""0"", ""1"", ""2"", ""3""], ""internal_node_id"": ""0.0-1.0-3.0-22.0"", ""block"": ""test""}"
A1ANG01DQJZCUZ:3AZHRG4CU4K6BAS8UT0ABF0RSR8035,27,1522957044885,"{""rt"": [1685, 15, 11], ""trial_type"": ""mouselab-mdp"", ""trialTime"": 16442, ""rewards"": [-4, -4, 48], ""stateRewards"": ["""", 2, -4, -24, -24, 4, -8, -48, -48, -4, -4, 48, 48], ""actionTimes"": [1689, 2218, 2750], ""trial_id"": -7913607226466677000, ""time_elapsed"": 384972, ""actions"": [""left"", ""left"", ""up""], ""trialIndex"": 23, ""score"": 40, ""trial_index"": 27, ""simulationMode"": [null, null, null], ""queries"": {""mouseover"": {""state"": {""target"": [], ""time"": []}, ""edge"": {""target"": [], ""time"": []}}, ""click"": {""state"": {""target"": [], ""time"": []}, ""edge"": {""target"": [], ""time"": []}}, ""mouseout"": {""state"": {""target"": [], ""time"": []}, ""edge"": {""target"": [], ""time"": []}}}, ""path"": [""0"", ""9"", ""10"", ""11""], ""internal_node_id"": ""0.0-1.0-3.0-23.0"", ""block"": ""test""}"
A1ANG01DQJZCUZ:3AZHRG4CU4K6BAS8UT0ABF0RSR8035,28,1522957055423,"{""rt"": [1099, 6, 433], ""trial_type"": ""mouselab-mdp"", ""trialTime"": 9487, ""rewards"": [4, 8, -24], ""stateRewards"": ["""", 4, 8, -24, 24, -2, 4, -24, 48, 2, -8, 24, 48], ""actionTimes"": [1103, 1628, 2589], ""trial_id"": 8866052500453722000, ""time_elapsed"": 395510, ""actions"": [""up"", ""up"", ""right""], ""trialIndex"": 24, ""score"": -12, ""trial_index"": 28, ""simulationMode"": [null, null, null], ""queries"": {""mouseover"": {""state"": {""target"": [], ""time"": []}, ""edge"": {""target"": [], ""time"": []}}, ""click"": {""state"": {""target"": [], ""time"": []}, ""edge"": {""target"": [], ""time"": []}}, ""mouseout"": {""state"": {""target"": [], ""time"": []}, ""edge"": {""target"": [], ""time"": []}}}, ""path"": [""0"", ""1"", ""2"", ""3""], ""internal_node_id"": ""0.0-1.0-3.0-24.0"", ""block"": ""test""}"
A1ANG01DQJZCUZ:3AZHRG4CU4K6BAS8UT0ABF0RSR8035,29,1522957074841,"{""rt"": [2223, 65, 300], ""trial_type"": ""mouselab-mdp"", ""trialTime"": 18367, ""rewards"": [2, -8, -48], ""stateRewards"": ["""", -4, 8, 48, 24, 2, -8, -48, -24, -4, -4, 48, -24], ""actionTimes"": [2225, 2799, 3615], ""trial_id"": 3419769505624262700, ""time_elapsed"": 414928, ""actions"": [""right"", ""right"", ""up""], ""trialIndex"": 25, ""score"": -54, ""trial_index"": 29, ""simulationMode"": [null, null, null], ""queries"": {""mouseover"": {""state"": {""target"": [], ""time"": []}, ""edge"": {""target"": [], ""time"": []}}, ""click"": {""state"": {""target"": [], ""time"": []}, ""edge"": {""target"": [], ""time"": []}}, ""mouseout"": {""state"": {""target"": [], ""time"": []}, ""edge"": {""target"": [], ""time"": []}}}, ""path"": [""0"", ""5"", ""6"", ""7""], ""internal_node_id"": ""0.0-1.0-3.0-25.0"", ""block"": ""test""}"
A1ANG01DQJZCUZ:3AZHRG4CU4K6BAS8UT0ABF0RSR8035,30,1522957085253,"{""rt"": [150, 401, 78], ""trial_type"": ""mouselab-mdp"", ""trialTime"": 9355, ""rewards"": [-4, 4, -48], ""stateRewards"": ["""", 2, -4, 24, -48, -4, -8, -48, -48, -4, 4, -48, 48], ""actionTimes"": [155, 1076, 1668], ""trial_id"": 2118335984300500500, ""time_elapsed"": 425340, ""actions"": [""left"", ""left"", ""up""], ""trialIndex"": 26, ""score"": -48, ""trial_index"": 30, ""simulationMode"": [null, null, null], ""queries"": {""mouseover"": {""state"": {""target"": [], ""time"": []}, ""edge"": {""target"": [], ""time"": []}}, ""click"": {""state"": {""target"": [], ""time"": []}, ""edge"": {""target"": [], ""time"": []}}, ""mouseout"": {""state"": {""target"": [], ""time"": []}, ""edge"": {""target"": [], ""time"": []}}}, ""path"": [""0"", ""9"", ""10"", ""11""], ""internal_node_id"": ""0.0-1.0-3.0-26.0"", ""block"": ""test""}"
A1ANG01DQJZCUZ:3AZHRG4CU4K6BAS8UT0ABF0RSR8035,31,1522957100655,"{""rt"": [298, 749, 96], ""trial_type"": ""mouselab-mdp"", ""trialTime"": 14361, ""rewards"": [2, 8, -48], ""stateRewards"": ["""", 2, 8, -48, -24, 2, 8, -24, -48, 4, -4, 24, -48], ""actionTimes"": [302, 1556, 2171], ""trial_id"": 495354184512700500, ""time_elapsed"": 440742, ""actions"": [""right"", ""right"", ""down""], ""trialIndex"": 27, ""score"": -38, ""trial_index"": 31, ""simulationMode"": [null, null, null], ""queries"": {""mouseover"": {""state"": {""target"": [], ""time"": []}, ""edge"": {""target"": [], ""time"": []}}, ""click"": {""state"": {""target"": [], ""time"": []}, ""edge"": {""target"": [], ""time"": []}}, ""mouseout"": {""state"": {""target"": [], ""time"": []}, ""edge"": {""target"": [], ""time"": []}}}, ""path"": [""0"", ""5"", ""6"", ""8""], ""internal_node_id"": ""0.0-1.0-3.0-27.0"", ""block"": ""test""}"
A1ANG01DQJZCUZ:3AZHRG4CU4K6BAS8UT0ABF0RSR8035,32,1522957110949,"{""rt"": [430, 88, 65], ""trial_type"": ""mouselab-mdp"", ""trialTime"": 9256, ""rewards"": [-2, -8, -24], ""stateRewards"": ["""", 4, -8, -48, -48, -4, 4, 24, 24, -2, -8, -24, 48], ""actionTimes"": [435, 1048, 1622], ""trial_id"": -4569496646062697500, ""time_elapsed"": 451036, ""actions"": [""left"", ""left"", ""up""], ""trialIndex"": 28, ""score"": -34, ""trial_index"": 32, ""simulationMode"": [null, null, null], ""queries"": {""mouseover"": {""state"": {""target"": [], ""time"": []}, ""edge"": {""target"": [], ""time"": []}}, ""click"": {""state"": {""target"": [], ""time"": []}, ""edge"": {""target"": [], ""time"": []}}, ""mouseout"": {""state"": {""target"": [], ""time"": []}, ""edge"": {""target"": [], ""time"": []}}}, ""path"": [""0"", ""9"", ""10"", ""11""], ""internal_node_id"": ""0.0-1.0-3.0-28.0"", ""block"": ""test""}"
A1ANG01DQJZCUZ:3AZHRG4CU4K6BAS8UT0ABF0RSR8035,33,1522957122999,"{""rt"": [20, 124, 348], ""trial_type"": ""mouselab-mdp"", ""trialTime"": 11009, ""rewards"": [4, 8, 48], ""stateRewards"": ["""", 4, 8, -24, 48, 2, 8, -48, -48, 2, -4, 24, -48], ""actionTimes"": [26, 665, 1525], ""trial_id"": -6668518537832265000, ""time_elapsed"": 463086, ""actions"": [""up"", ""up"", ""left""], ""trialIndex"": 29, ""score"": 60, ""trial_index"": 33, ""simulationMode"": [null, null, null], ""queries"": {""mouseover"": {""state"": {""target"": [], ""time"": []}, ""edge"": {""target"": [], ""time"": []}}, ""click"": {""state"": {""target"": [], ""time"": []}, ""edge"": {""target"": [], ""time"": []}}, ""mouseout"": {""state"": {""target"": [], ""time"": []}, ""edge"": {""target"": [], ""time"": []}}}, ""path"": [""0"", ""1"", ""2"", ""4""], ""internal_node_id"": ""0.0-1.0-3.0-29.0"", ""block"": ""test""}"
A1ANG01DQJZCUZ:3AZHRG4CU4K6BAS8UT0ABF0RSR8035,34,1522957147546,"{""rt"": 23535, ""trial_type"": ""survey-multi-choice"", ""responses"": ""[\""$-4 to $4\"",\""$-8 to $8\"",\""$0\"",\""1.5 cents for every $10 you make in the game plus 45 cents\""]"", ""internal_node_id"": ""0.0-1.0-4.0"", ""time_elapsed"": 487633, ""questions"": ""[\""What is the range of node values in the first step?\"",\""What is the range of node values in the last step?\"",\""What is the cost of clicking?\"",\""How much REAL money do you earn?\""]"", ""correct"": null, ""trial_index"": 34}"
A1ANG01DQJZCUZ:3AZHRG4CU4K6BAS8UT0ABF0RSR8035,35,1522957172159,"{""rt"": 23604, ""trial_type"": ""survey-text"", ""responses"": ""{\""Q0\"":\""random\"",\""Q1\"":\""random\"",\""Q2\"":\""when i couldnt \"",\""Q3\"":\""random\"",\""Q4\"":\""no\""}"", ""internal_node_id"": ""0.0-1.0-5.0"", ""time_elapsed"": 512246, ""trial_index"": 35}"
A1ANG01DQJZCUZ:3AZHRG4CU4K6BAS8UT0ABF0RSR8035,36,1522957192852,"{""rt"": 19690, ""trial_type"": ""survey-text"", ""responses"": ""{\""Q0\"":\""nothing\"",\""Q1\"":\""no\"",\""Q2\"":\""no\""}"", ""internal_node_id"": ""0.0-1.0-6.0"", ""time_elapsed"": 532939, ""trial_index"": 36}"
A1ANG01DQJZCUZ:3AZHRG4CU4K6BAS8UT0ABF0RSR8035,37,1522957195585,"{""rt"": 1731, ""trial_type"": ""text"", ""internal_node_id"": ""0.0-2.0"", ""time_elapsed"": 535672, ""key_press"": 32, ""trial_index"": 37}"
A1CLCA00V8025R:3K4J6M3CXET36Z2EHA4NJF1D5G6AGR,0,1522869445633,"{""rt"": 14117, ""trial_type"": ""survey-text"", ""responses"": ""{\""Q0\"":\""Male\"",\""Q1\"":\""50\"",\""Q2\"":\""USA\"",\""Q3\"":\""Employed full time\"",\""Q4\"":\""1\""}"", ""internal_node_id"": ""0.0-0.0"", ""time_elapsed"": 14131, ""trial_index"": 0}"
A1CLCA00V8025R:3K4J6M3CXET36Z2EHA4NJF1D5G6AGR,1,1522869463359,"{""rt"": 16716, ""trial_type"": ""text"", ""internal_node_id"": ""0.0-1.0-0.0"", ""time_elapsed"": 31858, ""key_press"": 32, ""trial_index"": 1}"
A1CLCA00V8025R:3K4J6M3CXET36Z2EHA4NJF1D5G6AGR,2,1522869478160,"{""rt"": 13791, ""trial_type"": ""text"", ""internal_node_id"": ""0.0-1.0-1.0"", ""time_elapsed"": 46659, ""key_press"": 32, ""trial_index"": 2}"
A1CLCA00V8025R:3K4J6M3CXET36Z2EHA4NJF1D5G6AGR,3,1522869485909,"{""rt"": 6743, ""trial_type"": ""text"", ""internal_node_id"": ""0.0-1.0-2.0"", ""time_elapsed"": 54407, ""key_press"": 32, ""trial_index"": 3}"
A1CLCA00V8025R:3K4J6M3CXET36Z2EHA4NJF1D5G6AGR,4,1522869505466,"{""rt"": [7579, 5716, 1384], ""trial_type"": ""mouselab-mdp"", ""trialTime"": 18299, ""rewards"": [-2, -8, -24], ""stateRewards"": ["""", 4, -8, -48, -48, -4, 4, 24, 24, -2, -8, -24, 48], ""actionTimes"": [7588, 13856, 15790], ""trial_id"": -4569496646062697500, ""time_elapsed"": 73965, ""actions"": [""left"", ""left"", ""up""], ""trialIndex"": 0, ""score"": -36, ""trial_index"": 4, ""simulationMode"": [null, null, null], ""queries"": {""mouseover"": {""state"": {""target"": [], ""time"": []}, ""edge"": {""target"": [], ""time"": []}}, ""click"": {""state"": {""target"": [""5"", ""9""], ""time"": [1373, 4210]}, ""edge"": {""target"": [], ""time"": []}}, ""mouseout"": {""state"": {""target"": [], ""time"": []}, ""edge"": {""target"": [], ""time"": []}}}, ""path"": [""0"", ""9"", ""10"", ""11""], ""internal_node_id"": ""0.0-1.0-3.0-0.0"", ""block"": ""test""}"
A1CLCA00V8025R:3K4J6M3CXET36Z2EHA4NJF1D5G6AGR,5,1522869517755,"{""rt"": [2755, 1108, 558], ""trial_type"": ""mouselab-mdp"", ""trialTime"": 11074, ""rewards"": [-2, -4, -24], ""stateRewards"": ["""", 2, 4, -24, -48, -2, -4, -24, -24, -2, 8, 24, -24], ""actionTimes"": [2765, 4442, 5550], ""trial_id"": 11823864361136648, ""time_elapsed"": 86254, ""actions"": [""right"", ""right"", ""down""], ""trialIndex"": 1, ""score"": -30, ""trial_index"": 5, ""simulationMode"": [null, null, null], ""queries"": {""mouseover"": {""state"": {""target"": [], ""time"": []}, ""edge"": {""target"": [], ""time"": []}}, ""click"": {""state"": {""target"": [], ""time"": []}, ""edge"": {""target"": [], ""time"": []}}, ""mouseout"": {""state"": {""target"": [], ""time"": []}, ""edge"": {""target"": [], ""time"": []}}}, ""path"": [""0"", ""5"", ""6"", ""8""], ""internal_node_id"": ""0.0-1.0-3.0-1.0"", ""block"": ""test""}"
