A1093UZ147FN0Q:34HJIJKLP5W7M7CSX4TI6DIN0PX4V6,0,1523059120454,"{""rt"": 16668, ""trial_type"": ""survey-text"", ""responses"": ""{\""Q0\"":\""female\"",\""Q1\"":\""25\"",\""Q2\"":\""USA\"",\""Q3\"":\""full time\"",\""Q4\"":\""1\""}"", ""internal_node_id"": ""0.0-0.0"", ""time_elapsed"": 16685, ""trial_index"": 0}"
A1093UZ147FN0Q:34HJIJKLP5W7M7CSX4TI6DIN0PX4V6,1,1523059124523,"{""rt"": 3064, ""trial_type"": ""text"", ""internal_node_id"": ""0.0-2.0"", ""time_elapsed"": 20753, ""key_press"": 32, ""trial_index"": 1}"
A10LQ8RUWDUI5U:3OXV7EAXLEQ1PLENWIGRKGAI5WQ369,0,1523036578913,"{""rt"": 15039, ""trial_type"": ""survey-text"", ""responses"": ""{\""Q0\"":\""female\"",\""Q1\"":\""30\"",\""Q2\"":\""usa\"",\""Q3\"":\""freelance\"",\""Q4\"":\""5\""}"", ""internal_node_id"": ""0.0-0.0"", ""time_elapsed"": 15052, ""trial_index"": 0}"
A10LQ8RUWDUI5U:3OXV7EAXLEQ1PLENWIGRKGAI5WQ369,1,1523036584094,"{""rt"": 4180, ""trial_type"": ""text"", ""internal_node_id"": ""0.0-2.0"", ""time_elapsed"": 20233, ""key_press"": 32, ""trial_index"": 1}"
A112NURLYMSP6T:3907X2AHF05KE9097E1V76W7UNVP25,0,1523050963506,"{""rt"": 34450, ""trial_type"": ""survey-text"", ""responses"": ""{\""Q0\"":\""Male\"",\""Q1\"":\""36\"",\""Q2\"":\""United States of America\"",\""Q3\"":\""Self-Employed\"",\""Q4\"":\""1\""}"", ""internal_node_id"": ""0.0-0.0"", ""time_elapsed"": 34484, ""trial_index"": 0}"
A112NURLYMSP6T:3907X2AHF05KE9097E1V76W7UNVP25,1,1523050979404,"{""rt"": 14890, ""trial_type"": ""text"", ""internal_node_id"": ""0.0-2.0"", ""time_elapsed"": 50384, ""key_press"": 32, ""trial_index"": 1}"
A119R9WIZRH3D5:3OVR4I9USPJFHZGBB5Z80QJFJWRQ45,0,1522971028378,"{""rt"": 17488, ""trial_type"": ""survey-text"", ""responses"": ""{\""Q0\"":\""female\"",\""Q1\"":\""24\"",\""Q2\"":\""USA\"",\""Q3\"":\""employed part-time\"",\""Q4\"":\""1\""}"", ""internal_node_id"": ""0.0-0.0"", ""time_elapsed"": 17511, ""trial_index"": 0}"
A119R9WIZRH3D5:3OVR4I9USPJFHZGBB5Z80QJFJWRQ45,1,1522971057498,"{""rt"": 28110, ""trial_type"": ""text"", ""internal_node_id"": ""0.0-1.0-0.0"", ""time_elapsed"": 46631, ""key_press"": 32, ""trial_index"": 1}"
A119R9WIZRH3D5:3OVR4I9USPJFHZGBB5Z80QJFJWRQ45,2,1522971078908,"{""rt"": 20399, ""trial_type"": ""text"", ""internal_node_id"": ""0.0-1.0-1.0"", ""time_elapsed"": 68041, ""key_press"": 32, ""trial_index"": 2}"
A119R9WIZRH3D5:3OVR4I9USPJFHZGBB5Z80QJFJWRQ45,3,1522971088967,"{""rt"": 9051, ""trial_type"": ""text"", ""internal_node_id"": ""0.0-1.0-2.0"", ""time_elapsed"": 78100, ""key_press"": 32, ""trial_index"": 3}"
A119R9WIZRH3D5:3OVR4I9USPJFHZGBB5Z80QJFJWRQ45,4,1522971106111,"{""rt"": [9608, 868, 2389], ""trial_type"": ""mouselab-mdp"", ""trialTime"": 15951, ""rewards"": [2, 8, -48], ""stateRewards"": ["""", 2, 8, -48, -24, 2, 8, -24, -48, 4, -4, 24, -48], ""actionTimes"": [9619, 10997, 13882], ""trial_id"": 495354184512700500, ""time_elapsed"": 95244, ""actions"": [""right"", ""right"", ""down""], ""trialIndex"": 0, ""score"": -40, ""trial_index"": 4, ""simulationMode"": [null, null, null], ""queries"": {""mouseover"": {""state"": {""target"": [], ""time"": []}, ""edge"": {""target"": [], ""time"": []}}, ""click"": {""state"": {""target"": [""5"", ""7""], ""time"": [2531, 6910]}, ""edge"": {""target"": [], ""time"": []}}, ""mouseout"": {""state"": {""target"": [], ""time"": []}, ""edge"": {""target"": [], ""time"": []}}}, ""path"": [""0"", ""5"", ""6"", ""8""], ""internal_node_id"": ""0.0-1.0-3.0-0.0"", ""block"": ""test""}"
A119R9WIZRH3D5:3OVR4I9USPJFHZGBB5Z80QJFJWRQ45,5,1522971125680,"{""rt"": [12492, 309, 2468], ""trial_type"": ""mouselab-mdp"", ""trialTime"": 18458, ""rewards"": [4, -8, 48], ""stateRewards"": ["""", -4, 8, -24, -48, -4, 8, -48, 48, 4, -8, -24, 48], ""actionTimes"": [12499, 13308, 16284], ""trial_id"": -1414845178968030700, ""time_elapsed"": 114813, ""actions"": [""left"", ""left"", ""down""], ""trialIndex"": 1, ""score"": 35, ""trial_index"": 5, ""simulationMode"": [null, null, null], ""queries"": {""mouseover"": {""state"": {""target"": [], ""time"": []}, ""edge"": {""target"": [], ""time"": []}}, ""click"": {""state"": {""target"": [""5"", ""1"", ""9"", ""11"", ""10"", ""12"", ""4"", ""3"", ""2""], ""time"": [2014, 3287, 4350, 6314, 7063, 7601, 9955, 10684, 11145]}, ""edge"": {""target"": [], ""time"": []}}, ""mouseout"": {""state"": {""target"": [], ""time"": []}, ""edge"": {""target"": [], ""time"": []}}}, ""path"": [""0"", ""9"", ""10"", ""12""], ""internal_node_id"": ""0.0-1.0-3.0-1.0"", ""block"": ""test""}"
A119R9WIZRH3D5:3OVR4I9USPJFHZGBB5Z80QJFJWRQ45,6,1522971154489,"{""rt"": [20155, 202, 3681], ""trial_type"": ""mouselab-mdp"", ""trialTime"": 27709, ""rewards"": [-2, 8, 48], ""stateRewards"": ["""", 2, 4, -48, -24, -4, -8, 24, -48, -2, 8, 48, -24], ""actionTimes"": [20160, 20862, 25039], ""trial_id"": -8806789642961306000, ""time_elapsed"": 143622, ""actions"": [""left"", ""left"", ""up""], ""trialIndex"": 2, ""score"": 42, ""trial_index"": 6, ""simulationMode"": [null, null, null], ""queries"": {""mouseover"": {""state"": {""target"": [], ""time"": []}, ""edge"": {""target"": [], ""time"": []}}, ""click"": {""state"": {""target"": [""9"", ""12"", ""10"", ""4"", ""2"", ""3"", ""11"", ""5"", ""7"", ""6"", ""8"", ""1""], ""time"": [2594, 3841, 5642, 7984, 9192, 10506, 11531, 13207, 13988, 15273, 16024, 17893]}, ""edge"": {""target"": [], ""time"": []}}, ""mouseout"": {""state"": {""target"": [], ""time"": []}, ""edge"": {""target"": [], ""time"": []}}}, ""path"": [""0"", ""9"", ""10"", ""11""], ""internal_node_id"": ""0.0-1.0-3.0-2.0"", ""block"": ""test""}"
A119R9WIZRH3D5:3OVR4I9USPJFHZGBB5Z80QJFJWRQ45,7,1522971172853,"{""rt"": [12510, 143, 1067], ""trial_type"": ""mouselab-mdp"", ""trialTime"": 17281, ""rewards"": [-2, -8, 48], ""stateRewards"": ["""", -2, -8, 24, 48, -2, 8, -24, -24, -2, -4, 24, -24], ""actionTimes"": [12525, 13163, 14739], ""trial_id"": -3603402282008602000, ""time_elapsed"": 161986, ""actions"": [""up"", ""up"", ""left""], ""trialIndex"": 3, ""score"": 26, ""trial_index"": 7, ""simulationMode"": [null, null, null], ""queries"": {""mouseover"": {""state"": {""target"": [], ""time"": []}, ""edge"": {""target"": [], ""time"": []}}, ""click"": {""state"": {""target"": [""9"", ""10"", ""11"", ""12"", ""4"", ""2"", ""3"", ""1"", ""7"", ""6"", ""8"", ""5""], ""time"": [1853, 2413, 2997, 3886, 4795, 5305, 5763, 6291, 7140, 7645, 8181, 8691]}, ""edge"": {""target"": [], ""time"": []}}, ""mouseout"": {""state"": {""target"": [], ""time"": []}, ""edge"": {""target"": [], ""time"": []}}}, ""path"": [""0"", ""1"", ""2"", ""4""], ""internal_node_id"": ""0.0-1.0-3.0-3.0"", ""block"": ""test""}"
A119R9WIZRH3D5:3OVR4I9USPJFHZGBB5Z80QJFJWRQ45,8,1522971195778,"{""rt"": [15172, 77, 106], ""trial_type"": ""mouselab-mdp"", ""trialTime"": 21868, ""rewards"": [2, 4, 24], ""stateRewards"": ["""", 2, -4, 24, -48, -2, -8, 24, -48, 2, 4, 24, -48], ""actionTimes"": [15180, 15761, 16374], ""trial_id"": 2653018761906401300, ""time_elapsed"": 184911, ""actions"": [""left"", ""left"", ""up""], ""trialIndex"": 4, ""score"": 18, ""trial_index"": 8, ""simulationMode"": [null, null, null], ""queries"": {""mouseover"": {""state"": {""target"": [], ""time"": []}, ""edge"": {""target"": [], ""time"": []}}, ""click"": {""state"": {""target"": [""7"", ""6"", ""8"", ""5"", ""2"", ""1"", ""3"", ""4"", ""11"", ""10"", ""9"", ""12""], ""time"": [5206, 5726, 6205, 6715, 7877, 8358, 8869, 9726, 10954, 11490, 12604, 13230]}, ""edge"": {""target"": [], ""time"": []}}, ""mouseout"": {""state"": {""target"": [], ""time"": []}, ""edge"": {""target"": [], ""time"": []}}}, ""path"": [""0"", ""9"", ""10"", ""11""], ""internal_node_id"": ""0.0-1.0-3.0-4.0"", ""block"": ""test""}"
A119R9WIZRH3D5:3OVR4I9USPJFHZGBB5Z80QJFJWRQ45,9,1522971207116,"{""rt"": [4957, 68, 71], ""trial_type"": ""mouselab-mdp"", ""trialTime"": 10273, ""rewards"": [-4, 4, 48], ""stateRewards"": ["""", -4, 4, 48, -48, -4, 4, -24, 24, -4, -8, 24, 24], ""actionTimes"": [4963, 5538, 6108], ""trial_id"": -5995301136843023000, ""time_elapsed"": 196249, ""actions"": [""up"", ""up"", ""right""], ""trialIndex"": 5, ""score"": 44, ""trial_index"": 9, ""simulationMode"": [null, null, null], ""queries"": {""mouseover"": {""state"": {""target"": [], ""time"": []}, ""edge"": {""target"": [], ""time"": []}}, ""click"": {""state"": {""target"": [""4"", ""3"", ""2"", ""1""], ""time"": [1143, 2224, 2893, 3425]}, ""edge"": {""target"": [], ""time"": []}}, ""mouseout"": {""state"": {""target"": [], ""time"": []}, ""edge"": {""target"": [], ""time"": []}}}, ""path"": [""0"", ""1"", ""2"", ""3""], ""internal_node_id"": ""0.0-1.0-3.0-5.0"", ""block"": ""test""}"
A119R9WIZRH3D5:3OVR4I9USPJFHZGBB5Z80QJFJWRQ45,10,1522971218274,"{""rt"": [5624, 90, 272], ""trial_type"": ""mouselab-mdp"", ""trialTime"": 10091, ""rewards"": [-4, 4, 48], ""stateRewards"": ["""", 2, -4, 24, -48, -4, 4, 48, 48, 4, 4, -48, -24], ""actionTimes"": [5632, 6218, 6985], ""trial_id"": 1708036831889561600, ""time_elapsed"": 207407, ""actions"": [""right"", ""right"", ""up""], ""trialIndex"": 6, ""score"": 45, ""trial_index"": 10, ""simulationMode"": [null, null, null], ""queries"": {""mouseover"": {""state"": {""target"": [], ""time"": []}, ""edge"": {""target"": [], ""time"": []}}, ""click"": {""state"": {""target"": [""3"", ""4"", ""7""], ""time"": [1582, 2318, 3446]}, ""edge"": {""target"": [], ""time"": []}}, ""mouseout"": {""state"": {""target"": [], ""time"": []}, ""edge"": {""target"": [], ""time"": []}}}, ""path"": [""0"", ""5"", ""6"", ""7""], ""internal_node_id"": ""0.0-1.0-3.0-6.0"", ""block"": ""test""}"
A119R9WIZRH3D5:3OVR4I9USPJFHZGBB5Z80QJFJWRQ45,11,1522971230217,"{""rt"": [7546, 58, 282], ""trial_type"": ""mouselab-mdp"", ""trialTime"": 10873, ""rewards"": [2, -4, 48], ""stateRewards"": ["""", 2, -4, 48, 24, -2, -4, 24, 24, 2, -8, -24, 24], ""actionTimes"": [7553, 8111, 8886], ""trial_id"": 556601214791588500, ""time_elapsed"": 219350, ""actions"": [""up"", ""up"", ""right""], ""trialIndex"": 7, ""score"": 45, ""trial_index"": 11, ""simulationMode"": [null, null, null], ""queries"": {""mouseover"": {""state"": {""target"": [], ""time"": []}, ""edge"": {""target"": [], ""time"": []}}, ""click"": {""state"": {""target"": [""3""], ""time"": [5874]}, ""edge"": {""target"": [], ""time"": []}}, ""mouseout"": {""state"": {""target"": [], ""time"": []}, ""edge"": {""target"": [], ""time"": []}}}, ""path"": [""0"", ""1"", ""2"", ""3""], ""internal_node_id"": ""0.0-1.0-3.0-7.0"", ""block"": ""test""}"
A119R9WIZRH3D5:3OVR4I9USPJFHZGBB5Z80QJFJWRQ45,12,1522971241951,"{""rt"": [7022, 62, 109], ""trial_type"": ""mouselab-mdp"", ""trialTime"": 10666, ""rewards"": [4, -8, 48], ""stateRewards"": ["""", 2, 4, 24, -24, 4, -8, 48, -24, -4, 8, -48, 48], ""actionTimes"": [7031, 7589, 8206], ""trial_id"": 5010381167344479000, ""time_elapsed"": 231084, ""actions"": [""right"", ""right"", ""up""], ""trialIndex"": 8, ""score"": 39, ""trial_index"": 12, ""simulationMode"": [null, null, null], ""queries"": {""mouseover"": {""state"": {""target"": [], ""time"": []}, ""edge"": {""target"": [], ""time"": []}}, ""click"": {""state"": {""target"": [""3"", ""4"", ""7"", ""5"", ""6""], ""time"": [1115, 2092, 3616, 5817, 6306]}, ""edge"": {""target"": [], ""time"": []}}, ""mouseout"": {""state"": {""target"": [], ""time"": []}, ""edge"": {""target"": [], ""time"": []}}}, ""path"": [""0"", ""5"", ""6"", ""7""], ""internal_node_id"": ""0.0-1.0-3.0-8.0"", ""block"": ""test""}"
A119R9WIZRH3D5:3OVR4I9USPJFHZGBB5Z80QJFJWRQ45,13,1522971255685,"{""rt"": [9014, 85, 314], ""trial_type"": ""mouselab-mdp"", ""trialTime"": 12657, ""rewards"": [-4, 8, 48], ""stateRewards"": ["""", -4, 8, 48, -24, -2, -4, 24, -48, 4, 4, 48, -48], ""actionTimes"": [9021, 9609, 10421], ""trial_id"": 7263244810589990000, ""time_elapsed"": 244818, ""actions"": [""up"", ""up"", ""right""], ""trialIndex"": 9, ""score"": 51, ""trial_index"": 13, ""simulationMode"": [null, null, null], ""queries"": {""mouseover"": {""state"": {""target"": [], ""time"": []}, ""edge"": {""target"": [], ""time"": []}}, ""click"": {""state"": {""target"": [""3""], ""time"": [7610]}, ""edge"": {""target"": [], ""time"": []}}, ""mouseout"": {""state"": {""target"": [], ""time"": []}, ""edge"": {""target"": [], ""time"": []}}}, ""path"": [""0"", ""1"", ""2"", ""3""], ""internal_node_id"": ""0.0-1.0-3.0-9.0"", ""block"": ""test""}"
A119R9WIZRH3D5:3OVR4I9USPJFHZGBB5Z80QJFJWRQ45,14,1522971267496,"{""rt"": [4511, 181, 264], ""trial_type"": ""mouselab-mdp"", ""trialTime"": 10731, ""rewards"": [4, 8, 48], ""stateRewards"": ["""", 4, 8, -24, 48, 2, 8, -48, -48, 2, -4, 24, -48], ""actionTimes"": [4522, 5200, 5967], ""trial_id"": -6668518537832265000, ""time_elapsed"": 256629, ""actions"": [""up"", ""up"", ""left""], ""trialIndex"": 10, ""score"": 57, ""trial_index"": 14, ""simulationMode"": [null, null, null], ""queries"": {""mouseover"": {""state"": {""target"": [], ""time"": []}, ""edge"": {""target"": [], ""time"": []}}, ""click"": {""state"": {""target"": [""1"", ""3"", ""4""], ""time"": [965, 2009, 2986]}, ""edge"": {""target"": [], ""time"": []}}, ""mouseout"": {""state"": {""target"": [], ""time"": []}, ""edge"": {""target"": [], ""time"": []}}}, ""path"": [""0"", ""1"", ""2"", ""4""], ""internal_node_id"": ""0.0-1.0-3.0-10.0"", ""block"": ""test""}"
A119R9WIZRH3D5:3OVR4I9USPJFHZGBB5Z80QJFJWRQ45,15,1522971279169,"{""rt"": [4446, 196, 298], ""trial_type"": ""mouselab-mdp"", ""trialTime"": 10602, ""rewards"": [4, -4, 48], ""stateRewards"": ["""", 2, -4, 24, -24, -2, 8, 24, 48, 4, -4, 48, 48], ""actionTimes"": [4455, 5149, 5950], ""trial_id"": 5246743485396079000, ""time_elapsed"": 268302, ""actions"": [""left"", ""left"", ""up""], ""trialIndex"": 11, ""score"": 45, ""trial_index"": 15, ""simulationMode"": [null, null, null], ""queries"": {""mouseover"": {""state"": {""target"": [], ""time"": []}, ""edge"": {""target"": [], ""time"": []}}, ""click"": {""state"": {""target"": [""2"", ""4"", ""11""], ""time"": [1096, 1761, 2534]}, ""edge"": {""target"": [], ""time"": []}}, ""mouseout"": {""state"": {""target"": [], ""time"": []}, ""edge"": {""target"": [], ""time"": []}}}, ""path"": [""0"", ""9"", ""10"", ""11""], ""internal_node_id"": ""0.0-1.0-3.0-11.0"", ""block"": ""test""}"
A119R9WIZRH3D5:3OVR4I9USPJFHZGBB5Z80QJFJWRQ45,16,1522971290529,"{""rt"": [2236, 97, 274], ""trial_type"": ""mouselab-mdp"", ""trialTime"": 10278, ""rewards"": [-2, 8, 48], ""stateRewards"": ["""", 4, -4, -48, -48, 4, 8, 24, -24, -2, 8, 48, -48], ""actionTimes"": [2241, 2832, 3610], ""trial_id"": -6978553059181346000, ""time_elapsed"": 279662, ""actions"": [""left"", ""left"", ""up""], ""trialIndex"": 12, ""score"": 53, ""trial_index"": 16, ""simulationMode"": [null, null, null], ""queries"": {""mouseover"": {""state"": {""target"": [], ""time"": []}, ""edge"": {""target"": [], ""time"": []}}, ""click"": {""state"": {""target"": [""11""], ""time"": [1005]}, ""edge"": {""target"": [], ""time"": []}}, ""mouseout"": {""state"": {""target"": [], ""time"": []}, ""edge"": {""target"": [], ""time"": []}}}, ""path"": [""0"", ""9"", ""10"", ""11""], ""internal_node_id"": ""0.0-1.0-3.0-12.0"", ""block"": ""test""}"
A119R9WIZRH3D5:3OVR4I9USPJFHZGBB5Z80QJFJWRQ45,17,1522971302718,"{""rt"": [3917, 202, 348], ""trial_type"": ""mouselab-mdp"", ""trialTime"": 11110, ""rewards"": [-2, 4, 48], ""stateRewards"": ["""", 4, -4, 48, -48, -2, -8, 24, 24, -2, 4, 48, -48], ""actionTimes"": [3926, 4633, 5477], ""trial_id"": 8045829731203394000, ""time_elapsed"": 291851, ""actions"": [""left"", ""left"", ""up""], ""trialIndex"": 13, ""score"": 49, ""trial_index"": 17, ""simulationMode"": [null, null, null], ""queries"": {""mouseover"": {""state"": {""target"": [], ""time"": []}, ""edge"": {""target"": [], ""time"": []}}, ""click"": {""state"": {""target"": [""11""], ""time"": [1458]}, ""edge"": {""target"": [], ""time"": []}}, ""mouseout"": {""state"": {""target"": [], ""time"": []}, ""edge"": {""target"": [], ""time"": []}}}, ""path"": [""0"", ""9"", ""10"", ""11""], ""internal_node_id"": ""0.0-1.0-3.0-13.0"", ""block"": ""test""}"
A119R9WIZRH3D5:3OVR4I9USPJFHZGBB5Z80QJFJWRQ45,18,1522971315118,"{""rt"": [3011, 103, 66], ""trial_type"": ""mouselab-mdp"", ""trialTime"": 11329, ""rewards"": [4, -4, 48], ""stateRewards"": ["""", 4, -4, -48, 24, -2, -4, 24, 48, 4, -4, 48, -48], ""actionTimes"": [3016, 3620, 4185], ""trial_id"": 320588371626771840, ""time_elapsed"": 304251, ""actions"": [""left"", ""left"", ""up""], ""trialIndex"": 14, ""score"": 47, ""trial_index"": 18, ""simulationMode"": [null, null, null], ""queries"": {""mouseover"": {""state"": {""target"": [], ""time"": []}, ""edge"": {""target"": [], ""time"": []}}, ""click"": {""state"": {""target"": [""11""], ""time"": [1781]}, ""edge"": {""target"": [], ""time"": []}}, ""mouseout"": {""state"": {""target"": [], ""time"": []}, ""edge"": {""target"": [], ""time"": []}}}, ""path"": [""0"", ""9"", ""10"", ""11""], ""internal_node_id"": ""0.0-1.0-3.0-14.0"", ""block"": ""test""}"
A119R9WIZRH3D5:3OVR4I9USPJFHZGBB5Z80QJFJWRQ45,19,1522971334455,"{""rt"": [4890, 147, 208], ""trial_type"": ""mouselab-mdp"", ""trialTime"": 18275, ""rewards"": [-4, -4, 48], ""stateRewards"": ["""", 2, -4, -24, -24, 4, -8, -48, -48, -4, -4, 48, 48], ""actionTimes"": [4896, 5540, 6252], ""trial_id"": -7913607226466677000, ""time_elapsed"": 323588, ""actions"": [""left"", ""left"", ""up""], ""trialIndex"": 15, ""score"": 39, ""trial_index"": 19, ""simulationMode"": [null, null, null], ""queries"": {""mouseover"": {""state"": {""target"": [], ""time"": []}, ""edge"": {""target"": [], ""time"": []}}, ""click"": {""state"": {""target"": [""11""], ""time"": [3084]}, ""edge"": {""target"": [], ""time"": []}}, ""mouseout"": {""state"": {""target"": [], ""time"": []}, ""edge"": {""target"": [], ""time"": []}}}, ""path"": [""0"", ""9"", ""10"", ""11""], ""internal_node_id"": ""0.0-1.0-3.0-15.0"", ""block"": ""test""}"
A119R9WIZRH3D5:3OVR4I9USPJFHZGBB5Z80QJFJWRQ45,20,1522971346367,"{""rt"": [7669, 69, 164], ""trial_type"": ""mouselab-mdp"", ""trialTime"": 10844, ""rewards"": [-2, -8, 48], ""stateRewards"": ["""", -2, 8, 24, -48, 2, 4, -24, 24, -2, -8, 48, -24], ""actionTimes"": [7673, 8239, 8905], ""trial_id"": 6282558609452272000, ""time_elapsed"": 335500, ""actions"": [""left"", ""left"", ""up""], ""trialIndex"": 16, ""score"": 32, ""trial_index"": 20, ""simulationMode"": [null, null, null], ""queries"": {""mouseover"": {""state"": {""target"": [], ""time"": []}, ""edge"": {""target"": [], ""time"": []}}, ""click"": {""state"": {""target"": [""3"", ""4"", ""11"", ""7"", ""8"", ""12""], ""time"": [653, 1920, 2801, 4855, 5360, 6389]}, ""edge"": {""target"": [], ""time"": []}}, ""mouseout"": {""state"": {""target"": [], ""time"": []}, ""edge"": {""target"": [], ""time"": []}}}, ""path"": [""0"", ""9"", ""10"", ""11""], ""internal_node_id"": ""0.0-1.0-3.0-16.0"", ""block"": ""test""}"
A119R9WIZRH3D5:3OVR4I9USPJFHZGBB5Z80QJFJWRQ45,21,1522971363185,"{""rt"": [3729, 64, 9438], ""trial_type"": ""mouselab-mdp"", ""trialTime"": 15746, ""rewards"": [4, 8, 48], ""stateRewards"": ["""", 2, -8, -24, 48, -2, -4, -24, -24, 4, 8, 24, 48], ""actionTimes"": [3736, 4301, 14243], ""trial_id"": 6516760737789360000, ""time_elapsed"": 352318, ""actions"": [""left"", ""left"", ""down""], ""trialIndex"": 17, ""score"": 58, ""trial_index"": 21, ""simulationMode"": [null, null, null], ""queries"": {""mouseover"": {""state"": {""target"": [], ""time"": []}, ""edge"": {""target"": [], ""time"": []}}, ""click"": {""state"": {""target"": [""11"", ""12""], ""time"": [1044, 2283]}, ""edge"": {""target"": [], ""time"": []}}, ""mouseout"": {""state"": {""target"": [], ""time"": []}, ""edge"": {""target"": [], ""time"": []}}}, ""path"": [""0"", ""9"", ""10"", ""12""], ""internal_node_id"": ""0.0-1.0-3.0-17.0"", ""block"": ""test""}"
A119R9WIZRH3D5:3OVR4I9USPJFHZGBB5Z80QJFJWRQ45,22,1522971374670,"{""rt"": [6332, 84, 333], ""trial_type"": ""mouselab-mdp"", ""trialTime"": 10392, ""rewards"": [-2, -4, 48], ""stateRewards"": ["""", -2, -4, 48, -24, 2, -4, 48, 24, -2, -8, -24, -24], ""actionTimes"": [6337, 6919, 7750], ""trial_id"": 2593864447454748000, ""time_elapsed"": 363803, ""actions"": [""up"", ""up"", ""right""], ""trialIndex"": 18, ""score"": 39, ""trial_index"": 22, ""simulationMode"": [null, null, null], ""queries"": {""mouseover"": {""state"": {""target"": [], ""time"": []}, ""edge"": {""target"": [], ""time"": []}}, ""click"": {""state"": {""target"": [""11"", ""4"", ""3""], ""time"": [1996, 2983, 4503]}, ""edge"": {""target"": [], ""time"": []}}, ""mouseout"": {""state"": {""target"": [], ""time"": []}, ""edge"": {""target"": [], ""time"": []}}}, ""path"": [""0"", ""1"", ""2"", ""3""], ""internal_node_id"": ""0.0-1.0-3.0-18.0"", ""block"": ""test""}"
A119R9WIZRH3D5:3OVR4I9USPJFHZGBB5Z80QJFJWRQ45,23,1522971385964,"{""rt"": [2638, 21, 253], ""trial_type"": ""mouselab-mdp"", ""trialTime"": 10221, ""rewards"": [-4, 8, 48], ""stateRewards"": ["""", -4, 8, 48, 24, 2, -8, -48, -24, -4, -4, 48, -24], ""actionTimes"": [2644, 3158, 3907], ""trial_id"": 3419769505624262700, ""time_elapsed"": 375096, ""actions"": [""up"", ""up"", ""right""], ""trialIndex"": 19, ""score"": 51, ""trial_index"": 23, ""simulationMode"": [null, null, null], ""queries"": {""mouseover"": {""state"": {""target"": [], ""time"": []}, ""edge"": {""target"": [], ""time"": []}}, ""click"": {""state"": {""target"": [""3""], ""time"": [1419]}, ""edge"": {""target"": [], ""time"": []}}, ""mouseout"": {""state"": {""target"": [], ""time"": []}, ""edge"": {""target"": [], ""time"": []}}}, ""path"": [""0"", ""1"", ""2"", ""3""], ""internal_node_id"": ""0.0-1.0-3.0-19.0"", ""block"": ""test""}"
A119R9WIZRH3D5:3OVR4I9USPJFHZGBB5Z80QJFJWRQ45,24,1522971401118,"{""rt"": [8472, 115, 2326], ""trial_type"": ""mouselab-mdp"", ""trialTime"": 14044, ""rewards"": [4, 8, -48], ""stateRewards"": ["""", 2, 4, -24, 24, 4, 8, -48, -48, -4, -4, -48, -24], ""actionTimes"": [8480, 9089, 11918], ""trial_id"": -7784032825751816000, ""time_elapsed"": 390251, ""actions"": [""right"", ""right"", ""down""], ""trialIndex"": 20, ""score"": -41, ""trial_index"": 24, ""simulationMode"": [null, null, null], ""queries"": {""mouseover"": {""state"": {""target"": [], ""time"": []}, ""edge"": {""target"": [], ""time"": []}}, ""click"": {""state"": {""target"": [""3"", ""4"", ""11"", ""12"", ""7""], ""time"": [1369, 2235, 3667, 5065, 6393]}, ""edge"": {""target"": [], ""time"": []}}, ""mouseout"": {""state"": {""target"": [], ""time"": []}, ""edge"": {""target"": [], ""time"": []}}}, ""path"": [""0"", ""5"", ""6"", ""8""], ""internal_node_id"": ""0.0-1.0-3.0-20.0"", ""block"": ""test""}"
A119R9WIZRH3D5:3OVR4I9USPJFHZGBB5Z80QJFJWRQ45,25,1522971412433,"{""rt"": [2477, 114, 333], ""trial_type"": ""mouselab-mdp"", ""trialTime"": 10240, ""rewards"": [-4, 4, 48], ""stateRewards"": ["""", -2, -4, 48, 24, 2, 4, -48, 48, -4, 4, 48, 24], ""actionTimes"": [2492, 3103, 3938], ""trial_id"": 7946552191512982000, ""time_elapsed"": 401566, ""actions"": [""left"", ""left"", ""up""], ""trialIndex"": 21, ""score"": 47, ""trial_index"": 25, ""simulationMode"": [null, null, null], ""queries"": {""mouseover"": {""state"": {""target"": [], ""time"": []}, ""edge"": {""target"": [], ""time"": []}}, ""click"": {""state"": {""target"": [""11""], ""time"": [1051]}, ""edge"": {""target"": [], ""time"": []}}, ""mouseout"": {""state"": {""target"": [], ""time"": []}, ""edge"": {""target"": [], ""time"": []}}}, ""path"": [""0"", ""9"", ""10"", ""11""], ""internal_node_id"": ""0.0-1.0-3.0-21.0"", ""block"": ""test""}"
A119R9WIZRH3D5:3OVR4I9USPJFHZGBB5Z80QJFJWRQ45,26,1522971423998,"{""rt"": [6875, 129, 268], ""trial_type"": ""mouselab-mdp"", ""trialTime"": 10450, ""rewards"": [4, -8, 48], ""stateRewards"": ["""", 4, -4, -24, 24, 2, 4, -24, -48, 4, -8, 48, -48], ""actionTimes"": [6881, 7517, 8291], ""trial_id"": 4251687641687985000, ""time_elapsed"": 413130, ""actions"": [""left"", ""left"", ""up""], ""trialIndex"": 22, ""score"": 39, ""trial_index"": 26, ""simulationMode"": [null, null, null], ""queries"": {""mouseover"": {""state"": {""target"": [], ""time"": []}, ""edge"": {""target"": [], ""time"": []}}, ""click"": {""state"": {""target"": [""4"", ""3"", ""7"", ""8"", ""11""], ""time"": [1238, 2315, 3131, 3852, 5050]}, ""edge"": {""target"": [], ""time"": []}}, ""mouseout"": {""state"": {""target"": [], ""time"": []}, ""edge"": {""target"": [], ""time"": []}}}, ""path"": [""0"", ""9"", ""10"", ""11""], ""internal_node_id"": ""0.0-1.0-3.0-22.0"", ""block"": ""test""}"
A119R9WIZRH3D5:3OVR4I9USPJFHZGBB5Z80QJFJWRQ45,27,1522971434669,"{""rt"": [4418, 45, 125], ""trial_type"": ""mouselab-mdp"", ""trialTime"": 9607, ""rewards"": [-2, -4, 48], ""stateRewards"": ["""", -2, 4, -48, -24, 2, 4, 24, 24, -2, -4, 48, -24], ""actionTimes"": [4424, 4968, 5599], ""trial_id"": 7457324294976434000, ""time_elapsed"": 423802, ""actions"": [""left"", ""left"", ""up""], ""trialIndex"": 23, ""score"": 41, ""trial_index"": 27, ""simulationMode"": [null, null, null], ""queries"": {""mouseover"": {""state"": {""target"": [], ""time"": []}, ""edge"": {""target"": [], ""time"": []}}, ""click"": {""state"": {""target"": [""11""], ""time"": [2485]}, ""edge"": {""target"": [], ""time"": []}}, ""mouseout"": {""state"": {""target"": [], ""time"": []}, ""edge"": {""target"": [], ""time"": []}}}, ""path"": [""0"", ""9"", ""10"", ""11""], ""internal_node_id"": ""0.0-1.0-3.0-23.0"", ""block"": ""test""}"
A119R9WIZRH3D5:3OVR4I9USPJFHZGBB5Z80QJFJWRQ45,28,1522971447508,"{""rt"": [6189, 124, 3029], ""trial_type"": ""mouselab-mdp"", ""trialTime"": 11774, ""rewards"": [4, 4, 48], ""stateRewards"": ["""", 2, 4, 24, -24, 4, 8, 24, -24, 4, 4, 24, 48], ""actionTimes"": [6197, 6828, 10349], ""trial_id"": 5959115827255457000, ""time_elapsed"": 436641, ""actions"": [""left"", ""left"", ""down""], ""trialIndex"": 24, ""score"": 50, ""trial_index"": 28, ""simulationMode"": [null, null, null], ""queries"": {""mouseover"": {""state"": {""target"": [], ""time"": []}, ""edge"": {""target"": [], ""time"": []}}, ""click"": {""state"": {""target"": [""4"", ""3"", ""7"", ""8"", ""11"", ""12""], ""time"": [841, 1635, 2682, 3458, 4436, 5104]}, ""edge"": {""target"": [], ""time"": []}}, ""mouseout"": {""state"": {""target"": [], ""time"": []}, ""edge"": {""target"": [], ""time"": []}}}, ""path"": [""0"", ""9"", ""10"", ""12""], ""internal_node_id"": ""0.0-1.0-3.0-24.0"", ""block"": ""test""}"
A119R9WIZRH3D5:3OVR4I9USPJFHZGBB5Z80QJFJWRQ45,29,1522971458647,"{""rt"": [5679, 113, 1618], ""trial_type"": ""mouselab-mdp"", ""trialTime"": 10054, ""rewards"": [-2, 8, 48], ""stateRewards"": ["""", -4, -8, 24, -24, -2, 8, 24, 48, 4, -4, 24, -48], ""actionTimes"": [5691, 6310, 8431], ""trial_id"": -1100449030722574200, ""time_elapsed"": 447780, ""actions"": [""right"", ""right"", ""down""], ""trialIndex"": 25, ""score"": 50, ""trial_index"": 29, ""simulationMode"": [null, null, null], ""queries"": {""mouseover"": {""state"": {""target"": [], ""time"": []}, ""edge"": {""target"": [], ""time"": []}}, ""click"": {""state"": {""target"": [""3"", ""4"", ""7"", ""8""], ""time"": [1296, 2193, 3034, 3980]}, ""edge"": {""target"": [], ""time"": []}}, ""mouseout"": {""state"": {""target"": [], ""time"": []}, ""edge"": {""target"": [], ""time"": []}}}, ""path"": [""0"", ""5"", ""6"", ""8""], ""internal_node_id"": ""0.0-1.0-3.0-25.0"", ""block"": ""test""}"
A119R9WIZRH3D5:3OVR4I9USPJFHZGBB5Z80QJFJWRQ45,30,1522971471863,"{""rt"": [7002, 102, 1942], ""trial_type"": ""mouselab-mdp"", ""trialTime"": 12142, ""rewards"": [-4, 4, 48], ""stateRewards"": ["""", 2, -4, 24, -48, -4, -8, -48, -48, -4, 4, -48, 48], ""actionTimes"": [7012, 7623, 10062], ""trial_id"": 2118335984300500500, ""time_elapsed"": 460995, ""actions"": [""left"", ""left"", ""down""], ""trialIndex"": 26, ""score"": 42, ""trial_index"": 30, ""simulationMode"": [null, null, null], ""queries"": {""mouseover"": {""state"": {""target"": [], ""time"": []}, ""edge"": {""target"": [], ""time"": []}}, ""click"": {""state"": {""target"": [""7"", ""8"", ""3"", ""4"", ""11"", ""12""], ""time"": [1097, 2189, 3085, 4167, 4998, 5757]}, ""edge"": {""target"": [], ""time"": []}}, ""mouseout"": {""state"": {""target"": [], ""time"": []}, ""edge"": {""target"": [], ""time"": []}}}, ""path"": [""0"", ""9"", ""10"", ""12""], ""internal_node_id"": ""0.0-1.0-3.0-26.0"", ""block"": ""test""}"
A119R9WIZRH3D5:3OVR4I9USPJFHZGBB5Z80QJFJWRQ45,31,1522971491466,"{""rt"": [14207, 138, 983], ""trial_type"": ""mouselab-mdp"", ""trialTime"": 18528, ""rewards"": [4, -4, 24], ""stateRewards"": ["""", -2, -4, 24, -48, -4, 8, -24, -24, 4, -4, -48, 24], ""actionTimes"": [14217, 14859, 16340], ""trial_id"": 1399303655934214400, ""time_elapsed"": 480599, ""actions"": [""left"", ""left"", ""down""], ""trialIndex"": 27, ""score"": 14, ""trial_index"": 31, ""simulationMode"": [null, null, null], ""queries"": {""mouseover"": {""state"": {""target"": [], ""time"": []}, ""edge"": {""target"": [], ""time"": []}}, ""click"": {""state"": {""target"": [""3"", ""4"", ""11"", ""12"", ""7"", ""8"", ""2"", ""1"", ""9"", ""10""], ""time"": [1070, 1895, 2815, 3834, 4986, 5882, 9325, 10399, 11166, 11677]}, ""edge"": {""target"": [], ""time"": []}}, ""mouseout"": {""state"": {""target"": [], ""time"": []}, ""edge"": {""target"": [], ""time"": []}}}, ""path"": [""0"", ""9"", ""10"", ""12""], ""internal_node_id"": ""0.0-1.0-3.0-27.0"", ""block"": ""test""}"
A119R9WIZRH3D5:3OVR4I9USPJFHZGBB5Z80QJFJWRQ45,32,1522971500624,"{""rt"": [4443, 495, 185], ""trial_type"": ""mouselab-mdp"", ""trialTime"": 8097, ""rewards"": [-2, 4, 48], ""stateRewards"": ["""", -2, 4, 48, 24, -4, 8, -48, 24, 4, -8, 24, 24], ""actionTimes"": [4447, 5445, 6135], ""trial_id"": -1461775893828862000, ""time_elapsed"": 489756, ""actions"": [""up"", ""up"", ""right""], ""trialIndex"": 28, ""score"": 47, ""trial_index"": 32, ""simulationMode"": [null, null, null], ""queries"": {""mouseover"": {""state"": {""target"": [], ""time"": []}, ""edge"": {""target"": [], ""time"": []}}, ""click"": {""state"": {""target"": [""7"", ""8"", ""3""], ""time"": [1383, 2372, 3166]}, ""edge"": {""target"": [], ""time"": []}}, ""mouseout"": {""state"": {""target"": [], ""time"": []}, ""edge"": {""target"": [], ""time"": []}}}, ""path"": [""0"", ""1"", ""2"", ""3""], ""internal_node_id"": ""0.0-1.0-3.0-28.0"", ""block"": ""test""}"
A119R9WIZRH3D5:3OVR4I9USPJFHZGBB5Z80QJFJWRQ45,33,1522971510267,"{""rt"": [3489, 69, 218], ""trial_type"": ""mouselab-mdp"", ""trialTime"": 8579, ""rewards"": [4, 4, 48], ""stateRewards"": ["""", -4, -8, -48, -48, -4, -4, 48, 24, 4, 4, 48, -48], ""actionTimes"": [3497, 4059, 4775], ""trial_id"": -9063084800167141000, ""time_elapsed"": 499400, ""actions"": [""left"", ""left"", ""up""], ""trialIndex"": 29, ""score"": 53, ""trial_index"": 33, ""simulationMode"": [null, null, null], ""queries"": {""mouseover"": {""state"": {""target"": [], ""time"": []}, ""edge"": {""target"": [], ""time"": []}}, ""click"": {""state"": {""target"": [""3"", ""4"", ""11""], ""time"": [896, 1486, 2261]}, ""edge"": {""target"": [], ""time"": []}}, ""mouseout"": {""state"": {""target"": [], ""time"": []}, ""edge"": {""target"": [], ""time"": []}}}, ""path"": [""0"", ""9"", ""10"", ""11""], ""internal_node_id"": ""0.0-1.0-3.0-29.0"", ""block"": ""test""}"
A119R9WIZRH3D5:3OVR4I9USPJFHZGBB5Z80QJFJWRQ45,34,1522971531166,"{""rt"": 19870, ""trial_type"": ""survey-multi-choice"", ""responses"": ""[\""$-4 to $4\"",\""$-48 to $48\"",\""$1\"",\""1.5 cents for every $10 you make in the game plus 45 cents\""]"", ""internal_node_id"": ""0.0-1.0-4.0"", ""time_elapsed"": 520299, ""questions"": ""[\""What is the range of node values in the first step?\"",\""What is the range of node values in the last step?\"",\""What is the cost of clicking?\"",\""How much REAL money do you earn?\""]"", ""correct"": null, ""trial_index"": 34}"
A119R9WIZRH3D5:3OVR4I9USPJFHZGBB5Z80QJFJWRQ45,35,1522971640852,"{""rt"": 108674, ""trial_type"": ""survey-text"", ""responses"": ""{\""Q0\"":\""I realized that the end nodes had the highest value so I only clicked on those\"",\""Q1\"":\""i decided the small nodes didn't have much value so I did not click those.\"",\""Q2\"":\""I stopped clicking when I found a +48 because I knew that was the highest value\"",\""Q3\"":\""One of the outer nodes\"",\""Q4\"":\""No\""}"", ""internal_node_id"": ""0.0-1.0-5.0"", ""time_elapsed"": 629984, ""trial_index"": 35}"
A119R9WIZRH3D5:3OVR4I9USPJFHZGBB5Z80QJFJWRQ45,36,1522971673604,"{""rt"": 31735, ""trial_type"": ""survey-text"", ""responses"": ""{\""Q0\"":\""How to create a strategy to earn the most points.no\"",\""Q1\"":\""no\"",\""Q2\"":\""\""}"", ""internal_node_id"": ""0.0-1.0-6.0"", ""time_elapsed"": 662737, ""trial_index"": 36}"
A119R9WIZRH3D5:3OVR4I9USPJFHZGBB5Z80QJFJWRQ45,37,1522971676730,"{""rt"": 2122, ""trial_type"": ""text"", ""internal_node_id"": ""0.0-2.0"", ""time_elapsed"": 665863, ""key_press"": 32, ""trial_index"": 37}"
A11C01B5PXL1QW:3AMW0RGHOD2G3VP2TXZFZUZ55ESPNU,0,1522870541216,"{""rt"": 26562, ""trial_type"": ""survey-text"", ""responses"": ""{\""Q0\"":\""male\"",\""Q1\"":\""28\"",\""Q2\"":\""United States\"",\""Q3\"":\""self-employed\"",\""Q4\"":\""3\""}"", ""internal_node_id"": ""0.0-0.0"", ""time_elapsed"": 26714, ""trial_index"": 0}"
A11C01B5PXL1QW:3AMW0RGHOD2G3VP2TXZFZUZ55ESPNU,1,1522870544062,"{""rt"": 1838, ""trial_type"": ""text"", ""internal_node_id"": ""0.0-2.0"", ""time_elapsed"": 29562, ""key_press"": 32, ""trial_index"": 1}"
A11EF6L798V32H:3KIBXJ1WD5UXAPSYHKUKI2DB1I6OKU,0,1523036893665,"{""rt"": 54087, ""trial_type"": ""survey-text"", ""responses"": ""{\""Q0\"":\""Female\"",\""Q1\"":\""44\"",\""Q2\"":\""United States\"",\""Q3\"":\""Self-employed\"",\""Q4\"":\""4\""}"", ""internal_node_id"": ""0.0-0.0"", ""time_elapsed"": 54128, ""trial_index"": 0}"
A11EF6L798V32H:3KIBXJ1WD5UXAPSYHKUKI2DB1I6OKU,1,1523036910555,"{""rt"": 15883, ""trial_type"": ""text"", ""internal_node_id"": ""0.0-2.0"", ""time_elapsed"": 71019, ""key_press"": 32, ""trial_index"": 1}"
A11EVB9AQ9F186:3YMTUJH0DSGS9F83S9T35VU234UT4S,0,1523034372040,"{""rt"": 16443, ""trial_type"": ""survey-text"", ""responses"": ""{\""Q0\"":\""Male\"",\""Q1\"":\""20\"",\""Q2\"":\""USA\"",\""Q3\"":\""Student\"",\""Q4\"":\""3\""}"", ""internal_node_id"": ""0.0-0.0"", ""time_elapsed"": 16458, ""trial_index"": 0}"
A11EVB9AQ9F186:3YMTUJH0DSGS9F83S9T35VU234UT4S,1,1523034396960,"{""rt"": 23912, ""trial_type"": ""text"", ""internal_node_id"": ""0.0-1.0-0.0"", ""time_elapsed"": 41378, ""key_press"": 32, ""trial_index"": 1}"
A11EVB9AQ9F186:3YMTUJH0DSGS9F83S9T35VU234UT4S,2,1523034416273,"{""rt"": 18308, ""trial_type"": ""text"", ""internal_node_id"": ""0.0-1.0-1.0"", ""time_elapsed"": 60691, ""key_press"": 32, ""trial_index"": 2}"
A11EVB9AQ9F186:3YMTUJH0DSGS9F83S9T35VU234UT4S,3,1523034432371,"{""rt"": 15093, ""trial_type"": ""text"", ""internal_node_id"": ""0.0-1.0-2.0"", ""time_elapsed"": 76788, ""key_press"": 32, ""trial_index"": 3}"
A11EVB9AQ9F186:3YMTUJH0DSGS9F83S9T35VU234UT4S,4,1523034459106,"{""rt"": [17332, 826, 3071], ""trial_type"": ""mouselab-mdp"", ""trialTime"": 25596, ""rewards"": [2, -4, 48], ""stateRewards"": ["""", -2, -4, 48, -24, 2, -4, 48, 24, -2, -8, -24, -24], ""actionTimes"": [17340, 18691, 22283], ""trial_id"": 2593864447454748000, ""time_elapsed"": 103524, ""actions"": [""right"", ""right"", ""up""], ""trialIndex"": 0, ""score"": 34, ""trial_index"": 4, ""simulationMode"": [null, null, null], ""queries"": {""mouseover"": {""state"": {""target"": [], ""time"": []}, ""edge"": {""target"": [], ""time"": []}}, ""click"": {""state"": {""target"": [""4"", ""2"", ""3"", ""1"", ""9"", ""10"", ""11"", ""12"", ""5"", ""6"", ""7"", ""8""], ""time"": [5427, 6014, 6484, 7283, 8444, 9047, 9597, 10810, 12113, 13218, 13883, 14721]}, ""edge"": {""target"": [], ""time"": []}}, ""mouseout"": {""state"": {""target"": [], ""time"": []}, ""edge"": {""target"": [], ""time"": []}}}, ""path"": [""0"", ""5"", ""6"", ""7""], ""internal_node_id"": ""0.0-1.0-3.0-0.0"", ""block"": ""test""}"
A11EVB9AQ9F186:3YMTUJH0DSGS9F83S9T35VU234UT4S,5,1523034479510,"{""rt"": [15319, 333, 355], ""trial_type"": ""mouselab-mdp"", ""trialTime"": 19310, ""rewards"": [-4, -4, 48], ""stateRewards"": ["""", 2, -4, -24, -24, 4, -8, -48, -48, -4, -4, 48, 48], ""actionTimes"": [15327, 16180, 17054], ""trial_id"": -7913607226466677000, ""time_elapsed"": 123928, ""actions"": [""left"", ""left"", ""down""], ""trialIndex"": 1, ""score"": 28, ""trial_index"": 5, ""simulationMode"": [null, null, null], ""queries"": {""mouseover"": {""state"": {""target"": [], ""time"": []}, ""edge"": {""target"": [], ""time"": []}}, ""click"": {""state"": {""target"": [""9"", ""10"", ""12"", ""11"", ""1"", ""4"", ""2"", ""3"", ""7"", ""6"", ""8"", ""5""], ""time"": [1159, 1969, 2527, 3364, 4376, 5448, 5858, 6265, 7151, 7671, 8114, 8767]}, ""edge"": {""target"": [], ""time"": []}}, ""mouseout"": {""state"": {""target"": [], ""time"": []}, ""edge"": {""target"": [], ""time"": []}}}, ""path"": [""0"", ""9"", ""10"", ""12""], ""internal_node_id"": ""0.0-1.0-3.0-1.0"", ""block"": ""test""}"
A11EVB9AQ9F186:3YMTUJH0DSGS9F83S9T35VU234UT4S,6,1523034498309,"{""rt"": [14575, 245, 469], ""trial_type"": ""mouselab-mdp"", ""trialTime"": 17745, ""rewards"": [-2, -8, 48], ""stateRewards"": ["""", 4, -8, -48, -48, -4, 4, 24, 24, -2, -8, -24, 48], ""actionTimes"": [14581, 15334, 16323], ""trial_id"": -4569496646062697500, ""time_elapsed"": 142727, ""actions"": [""left"", ""left"", ""down""], ""trialIndex"": 2, ""score"": 28, ""trial_index"": 6, ""simulationMode"": [null, null, null], ""queries"": {""mouseover"": {""state"": {""target"": [], ""time"": []}, ""edge"": {""target"": [], ""time"": []}}, ""click"": {""state"": {""target"": [""11"", ""12"", ""4"", ""3"", ""7"", ""8"", ""5"", ""6"", ""9"", ""10""], ""time"": [1203, 2040, 3041, 3754, 4640, 5307, 7590, 7984, 9130, 9577]}, ""edge"": {""target"": [], ""time"": []}}, ""mouseout"": {""state"": {""target"": [], ""time"": []}, ""edge"": {""target"": [], ""time"": []}}}, ""path"": [""0"", ""9"", ""10"", ""12""], ""internal_node_id"": ""0.0-1.0-3.0-2.0"", ""block"": ""test""}"
A11EVB9AQ9F186:3YMTUJH0DSGS9F83S9T35VU234UT4S,7,1523034516317,"{""rt"": [13616, 178, 652], ""trial_type"": ""mouselab-mdp"", ""trialTime"": 16906, ""rewards"": [2, 4, 24], ""stateRewards"": ["""", 2, -4, 24, -48, -2, -8, 24, -48, 2, 4, 24, -48], ""actionTimes"": [13621, 14307, 15481], ""trial_id"": 2653018761906401300, ""time_elapsed"": 160735, ""actions"": [""left"", ""left"", ""up""], ""trialIndex"": 3, ""score"": 18, ""trial_index"": 7, ""simulationMode"": [null, null, null], ""queries"": {""mouseover"": {""state"": {""target"": [], ""time"": []}, ""edge"": {""target"": [], ""time"": []}}, ""click"": {""state"": {""target"": [""12"", ""11"", ""4"", ""3"", ""7"", ""8"", ""1"", ""2"", ""9"", ""10"", ""5"", ""6""], ""time"": [1264, 1966, 2706, 3689, 4488, 5257, 8515, 9497, 10238, 10787, 12233, 12637]}, ""edge"": {""target"": [], ""time"": []}}, ""mouseout"": {""state"": {""target"": [], ""time"": []}, ""edge"": {""target"": [], ""time"": []}}}, ""path"": [""0"", ""9"", ""10"", ""11""], ""internal_node_id"": ""0.0-1.0-3.0-3.0"", ""block"": ""test""}"
A11EVB9AQ9F186:3YMTUJH0DSGS9F83S9T35VU234UT4S,8,1523034527845,"{""rt"": [7721, 211, 344], ""trial_type"": ""mouselab-mdp"", ""trialTime"": 10459, ""rewards"": [-2, 8, 48], ""stateRewards"": ["""", 2, 4, -48, -24, -4, -8, 24, -48, -2, 8, 48, -24], ""actionTimes"": [7726, 8447, 9312], ""trial_id"": -8806789642961306000, ""time_elapsed"": 172263, ""actions"": [""left"", ""left"", ""up""], ""trialIndex"": 4, ""score"": 46, ""trial_index"": 8, ""simulationMode"": [null, null, null], ""queries"": {""mouseover"": {""state"": {""target"": [], ""time"": []}, ""edge"": {""target"": [], ""time"": []}}, ""click"": {""state"": {""target"": [""9"", ""10"", ""4"", ""3"", ""7"", ""8"", ""12"", ""11""], ""time"": [963, 1501, 2640, 3273, 3920, 4689, 5944, 6510]}, ""edge"": {""target"": [], ""time"": []}}, ""mouseout"": {""state"": {""target"": [], ""time"": []}, ""edge"": {""target"": [], ""time"": []}}}, ""path"": [""0"", ""9"", ""10"", ""11""], ""internal_node_id"": ""0.0-1.0-3.0-4.0"", ""block"": ""test""}"
A11EVB9AQ9F186:3YMTUJH0DSGS9F83S9T35VU234UT4S,9,1523034538528,"{""rt"": [6750, 240, 244], ""trial_type"": ""mouselab-mdp"", ""trialTime"": 9633, ""rewards"": [-4, 4, 48], ""stateRewards"": ["""", -4, 4, 24, 24, 2, 8, -24, 24, -4, 4, -24, 48], ""actionTimes"": [6753, 7499, 8254], ""trial_id"": 5347440239323845000, ""time_elapsed"": 182946, ""actions"": [""left"", ""left"", ""down""], ""trialIndex"": 5, ""score"": 40, ""trial_index"": 9, ""simulationMode"": [null, null, null], ""queries"": {""mouseover"": {""state"": {""target"": [], ""time"": []}, ""edge"": {""target"": [], ""time"": []}}, ""click"": {""state"": {""target"": [""12"", ""11"", ""4"", ""3"", ""7"", ""8"", ""9"", ""10""], ""time"": [554, 1176, 1919, 2564, 3421, 4057, 4933, 5337]}, ""edge"": {""target"": [], ""time"": []}}, ""mouseout"": {""state"": {""target"": [], ""time"": []}, ""edge"": {""target"": [], ""time"": []}}}, ""path"": [""0"", ""9"", ""10"", ""12""], ""internal_node_id"": ""0.0-1.0-3.0-5.0"", ""block"": ""test""}"
A11EVB9AQ9F186:3YMTUJH0DSGS9F83S9T35VU234UT4S,10,1523034551674,"{""rt"": [8869, 103, 953], ""trial_type"": ""mouselab-mdp"", ""trialTime"": 12093, ""rewards"": [-4, 8, 48], ""stateRewards"": ["""", -4, 8, 48, 24, 2, -8, -48, -24, -4, -4, 48, -24], ""actionTimes"": [8873, 9491, 10956], ""trial_id"": 3419769505624262700, ""time_elapsed"": 196092, ""actions"": [""up"", ""up"", ""right""], ""trialIndex"": 6, ""score"": 42, ""trial_index"": 10, ""simulationMode"": [null, null, null], ""queries"": {""mouseover"": {""state"": {""target"": [], ""time"": []}, ""edge"": {""target"": [], ""time"": []}}, ""click"": {""state"": {""target"": [""11"", ""12"", ""4"", ""3"", ""7"", ""8"", ""1"", ""2"", ""9"", ""10""], ""time"": [519, 1308, 2155, 2819, 3592, 4710, 5700, 6587, 7396, 7946]}, ""edge"": {""target"": [], ""time"": []}}, ""mouseout"": {""state"": {""target"": [], ""time"": []}, ""edge"": {""target"": [], ""time"": []}}}, ""path"": [""0"", ""1"", ""2"", ""3""], ""internal_node_id"": ""0.0-1.0-3.0-6.0"", ""block"": ""test""}"
A11EVB9AQ9F186:3YMTUJH0DSGS9F83S9T35VU234UT4S,11,1523034563361,"{""rt"": [5961, 181, 1311], ""trial_type"": ""mouselab-mdp"", ""trialTime"": 10627, ""rewards"": [2, -4, 24], ""stateRewards"": ["""", 2, -4, 24, 24, -4, 4, -24, -24, -2, 4, -24, -48], ""actionTimes"": [5965, 6667, 8497], ""trial_id"": 7862543089384343000, ""time_elapsed"": 207779, ""actions"": [""up"", ""up"", ""left""], ""trialIndex"": 7, ""score"": 16, ""trial_index"": 11, ""simulationMode"": [null, null, null], ""queries"": {""mouseover"": {""state"": {""target"": [], ""time"": []}, ""edge"": {""target"": [], ""time"": []}}, ""click"": {""state"": {""target"": [""11"", ""12"", ""4"", ""3"", ""7"", ""8""], ""time"": [678, 1410, 2237, 3037, 3788, 4434]}, ""edge"": {""target"": [], ""time"": []}}, ""mouseout"": {""state"": {""target"": [], ""time"": []}, ""edge"": {""target"": [], ""time"": []}}}, ""path"": [""0"", ""1"", ""2"", ""4""], ""internal_node_id"": ""0.0-1.0-3.0-7.0"", ""block"": ""test""}"
A11EVB9AQ9F186:3YMTUJH0DSGS9F83S9T35VU234UT4S,12,1523034572475,"{""rt"": [5393, 179, 273], ""trial_type"": ""mouselab-mdp"", ""trialTime"": 8069, ""rewards"": [4, -8, 48], ""stateRewards"": ["""", -4, 4, -24, -24, -4, -8, 24, -24, 4, -8, 48, -48], ""actionTimes"": [5397, 6096, 6886], ""trial_id"": 460924718031657700, ""time_elapsed"": 216893, ""actions"": [""left"", ""left"", ""up""], ""trialIndex"": 8, ""score"": 38, ""trial_index"": 12, ""simulationMode"": [null, null, null], ""queries"": {""mouseover"": {""state"": {""target"": [], ""time"": []}, ""edge"": {""target"": [], ""time"": []}}, ""click"": {""state"": {""target"": [""11"", ""12"", ""4"", ""3"", ""7"", ""8""], ""time"": [551, 1378, 2258, 2823, 3547, 4249]}, ""edge"": {""target"": [], ""time"": []}}, ""mouseout"": {""state"": {""target"": [], ""time"": []}, ""edge"": {""target"": [], ""time"": []}}}, ""path"": [""0"", ""9"", ""10"", ""11""], ""internal_node_id"": ""0.0-1.0-3.0-8.0"", ""block"": ""test""}"
A11EVB9AQ9F186:3YMTUJH0DSGS9F83S9T35VU234UT4S,13,1523034585291,"{""rt"": [5792, 231, 298], ""trial_type"": ""mouselab-mdp"", ""trialTime"": 11768, ""rewards"": [4, -8, 48], ""stateRewards"": ["""", 4, -4, -24, 24, 2, 4, -24, -48, 4, -8, 48, -48], ""actionTimes"": [5797, 6545, 7363], ""trial_id"": 4251687641687985000, ""time_elapsed"": 229709, ""actions"": [""left"", ""left"", ""up""], ""trialIndex"": 9, ""score"": 38, ""trial_index"": 13, ""simulationMode"": [null, null, null], ""queries"": {""mouseover"": {""state"": {""target"": [], ""time"": []}, ""edge"": {""target"": [], ""time"": []}}, ""click"": {""state"": {""target"": [""11"", ""12"", ""4"", ""3"", ""7"", ""8""], ""time"": [1066, 1847, 2607, 3396, 4003, 4833]}, ""edge"": {""target"": [], ""time"": []}}, ""mouseout"": {""state"": {""target"": [], ""time"": []}, ""edge"": {""target"": [], ""time"": []}}}, ""path"": [""0"", ""9"", ""10"", ""11""], ""internal_node_id"": ""0.0-1.0-3.0-9.0"", ""block"": ""test""}"
A11EVB9AQ9F186:3YMTUJH0DSGS9F83S9T35VU234UT4S,14,1523034597358,"{""rt"": [7963, 169, 233], ""trial_type"": ""mouselab-mdp"", ""trialTime"": 10987, ""rewards"": [-2, -4, 48], ""stateRewards"": ["""", -2, 4, -48, -24, 2, 4, 24, 24, -2, -4, 48, -24], ""actionTimes"": [7968, 8646, 9394], ""trial_id"": 7457324294976434000, ""time_elapsed"": 241776, ""actions"": [""left"", ""left"", ""up""], ""trialIndex"": 10, ""score"": 36, ""trial_index"": 14, ""simulationMode"": [null, null, null], ""queries"": {""mouseover"": {""state"": {""target"": [], ""time"": []}, ""edge"": {""target"": [], ""time"": []}}, ""click"": {""state"": {""target"": [""11"", ""4"", ""3"", ""7"", ""8"", ""12""], ""time"": [1268, 3972, 4925, 5484, 6122, 7150]}, ""edge"": {""target"": [], ""time"": []}}, ""mouseout"": {""state"": {""target"": [], ""time"": []}, ""edge"": {""target"": [], ""time"": []}}}, ""path"": [""0"", ""9"", ""10"", ""11""], ""internal_node_id"": ""0.0-1.0-3.0-10.0"", ""block"": ""test""}"
A11EVB9AQ9F186:3YMTUJH0DSGS9F83S9T35VU234UT4S,15,1523034606802,"{""rt"": [1793, 95, 233], ""trial_type"": ""mouselab-mdp"", ""trialTime"": 8373, ""rewards"": [4, -4, 48], ""stateRewards"": ["""", 4, -4, -48, 24, -2, -4, 24, 48, 4, -4, 48, -48], ""actionTimes"": [1798, 2405, 3162], ""trial_id"": 320588371626771840, ""time_elapsed"": 251220, ""actions"": [""left"", ""left"", ""up""], ""trialIndex"": 11, ""score"": 47, ""trial_index"": 15, ""simulationMode"": [null, null, null], ""queries"": {""mouseover"": {""state"": {""target"": [], ""time"": []}, ""edge"": {""target"": [], ""time"": []}}, ""click"": {""state"": {""target"": [""11""], ""time"": [951]}, ""edge"": {""target"": [], ""time"": []}}, ""mouseout"": {""state"": {""target"": [], ""time"": []}, ""edge"": {""target"": [], ""time"": []}}}, ""path"": [""0"", ""9"", ""10"", ""11""], ""internal_node_id"": ""0.0-1.0-3.0-11.0"", ""block"": ""test""}"
A11EVB9AQ9F186:3YMTUJH0DSGS9F83S9T35VU234UT4S,16,1523034616507,"{""rt"": [5705, 244, 276], ""trial_type"": ""mouselab-mdp"", ""trialTime"": 8657, ""rewards"": [-4, 4, 48], ""stateRewards"": ["""", 2, -4, 24, -48, -4, -8, -48, -48, -4, 4, -48, 48], ""actionTimes"": [5709, 6463, 7245], ""trial_id"": 2118335984300500500, ""time_elapsed"": 260924, ""actions"": [""left"", ""left"", ""down""], ""trialIndex"": 12, ""score"": 43, ""trial_index"": 16, ""simulationMode"": [null, null, null], ""queries"": {""mouseover"": {""state"": {""target"": [], ""time"": []}, ""edge"": {""target"": [], ""time"": []}}, ""click"": {""state"": {""target"": [""4"", ""3"", ""7"", ""8"", ""12""], ""time"": [1294, 2179, 2855, 3586, 4500]}, ""edge"": {""target"": [], ""time"": []}}, ""mouseout"": {""state"": {""target"": [], ""time"": []}, ""edge"": {""target"": [], ""time"": []}}}, ""path"": [""0"", ""9"", ""10"", ""12""], ""internal_node_id"": ""0.0-1.0-3.0-12.0"", ""block"": ""test""}"
A11EVB9AQ9F186:3YMTUJH0DSGS9F83S9T35VU234UT4S,17,1523034626022,"{""rt"": [2497, 191, 275], ""trial_type"": ""mouselab-mdp"", ""trialTime"": 8470, ""rewards"": [-2, 8, 48], ""stateRewards"": ["""", 4, -4, -48, -48, 4, 8, 24, -24, -2, 8, 48, -48], ""actionTimes"": [2501, 3214, 3995], ""trial_id"": -6978553059181346000, ""time_elapsed"": 270440, ""actions"": [""left"", ""left"", ""up""], ""trialIndex"": 13, ""score"": 53, ""trial_index"": 17, ""simulationMode"": [null, null, null], ""queries"": {""mouseover"": {""state"": {""target"": [], ""time"": []}, ""edge"": {""target"": [], ""time"": []}}, ""click"": {""state"": {""target"": [""11""], ""time"": [1233]}, ""edge"": {""target"": [], ""time"": []}}, ""mouseout"": {""state"": {""target"": [], ""time"": []}, ""edge"": {""target"": [], ""time"": []}}}, ""path"": [""0"", ""9"", ""10"", ""11""], ""internal_node_id"": ""0.0-1.0-3.0-13.0"", ""block"": ""test""}"
A11EVB9AQ9F186:3YMTUJH0DSGS9F83S9T35VU234UT4S,18,1523034643260,"{""rt"": [13378, 263, 306], ""trial_type"": ""mouselab-mdp"", ""trialTime"": 16187, ""rewards"": [-4, -8, 48], ""stateRewards"": ["""", 4, 8, -24, -24, -4, -8, -48, 48, 2, -8, -24, -48], ""actionTimes"": [13382, 14151, 14978], ""trial_id"": 2630443220538220000, ""time_elapsed"": 287677, ""actions"": [""right"", ""right"", ""down""], ""trialIndex"": 14, ""score"": 31, ""trial_index"": 18, ""simulationMode"": [null, null, null], ""queries"": {""mouseover"": {""state"": {""target"": [], ""time"": []}, ""edge"": {""target"": [], ""time"": []}}, ""click"": {""state"": {""target"": [""11"", ""4"", ""3"", ""7"", ""8""], ""time"": [8463, 10015, 10690, 11430, 12318]}, ""edge"": {""target"": [], ""time"": []}}, ""mouseout"": {""state"": {""target"": [], ""time"": []}, ""edge"": {""target"": [], ""time"": []}}}, ""path"": [""0"", ""5"", ""6"", ""8""], ""internal_node_id"": ""0.0-1.0-3.0-14.0"", ""block"": ""test""}"
A11EVB9AQ9F186:3YMTUJH0DSGS9F83S9T35VU234UT4S,19,1523034651710,"{""rt"": [4437, 282, 303], ""trial_type"": ""mouselab-mdp"", ""trialTime"": 7405, ""rewards"": [-4, 4, 48], ""stateRewards"": ["""", -4, 4, 48, -48, -4, 4, -24, 24, -4, -8, 24, 24], ""actionTimes"": [4441, 5241, 6062], ""trial_id"": -5995301136843023000, ""time_elapsed"": 296128, ""actions"": [""up"", ""up"", ""right""], ""trialIndex"": 15, ""score"": 45, ""trial_index"": 19, ""simulationMode"": [null, null, null], ""queries"": {""mouseover"": {""state"": {""target"": [], ""time"": []}, ""edge"": {""target"": [], ""time"": []}}, ""click"": {""state"": {""target"": [""11"", ""4"", ""3""], ""time"": [1086, 2328, 3079]}, ""edge"": {""target"": [], ""time"": []}}, ""mouseout"": {""state"": {""target"": [], ""time"": []}, ""edge"": {""target"": [], ""time"": []}}}, ""path"": [""0"", ""1"", ""2"", ""3""], ""internal_node_id"": ""0.0-1.0-3.0-15.0"", ""block"": ""test""}"
A11EVB9AQ9F186:3YMTUJH0DSGS9F83S9T35VU234UT4S,20,1523034661313,"{""rt"": [5198, 307, 267], ""trial_type"": ""mouselab-mdp"", ""trialTime"": 8556, ""rewards"": [-2, -4, 48], ""stateRewards"": ["""", -4, 4, 24, 24, -2, -4, 48, -24, -4, 8, -48, 48], ""actionTimes"": [5202, 6018, 6792], ""trial_id"": -4874666135804490000, ""time_elapsed"": 305731, ""actions"": [""right"", ""right"", ""up""], ""trialIndex"": 16, ""score"": 38, ""trial_index"": 20, ""simulationMode"": [null, null, null], ""queries"": {""mouseover"": {""state"": {""target"": [], ""time"": []}, ""edge"": {""target"": [], ""time"": []}}, ""click"": {""state"": {""target"": [""3"", ""11"", ""8"", ""7""], ""time"": [1110, 2169, 3412, 4163]}, ""edge"": {""target"": [], ""time"": []}}, ""mouseout"": {""state"": {""target"": [], ""time"": []}, ""edge"": {""target"": [], ""time"": []}}}, ""path"": [""0"", ""5"", ""6"", ""7""], ""internal_node_id"": ""0.0-1.0-3.0-16.0"", ""block"": ""test""}"
A11EVB9AQ9F186:3YMTUJH0DSGS9F83S9T35VU234UT4S,21,1523034672658,"{""rt"": [3988, 343, 290], ""trial_type"": ""mouselab-mdp"", ""trialTime"": 10292, ""rewards"": [4, 8, 48], ""stateRewards"": ["""", -2, -8, -24, -24, 4, 8, 48, 24, -2, 8, -24, -48], ""actionTimes"": [3991, 4848, 5660], ""trial_id"": 4079752410143045600, ""time_elapsed"": 317076, ""actions"": [""right"", ""right"", ""up""], ""trialIndex"": 17, ""score"": 57, ""trial_index"": 21, ""simulationMode"": [null, null, null], ""queries"": {""mouseover"": {""state"": {""target"": [], ""time"": []}, ""edge"": {""target"": [], ""time"": []}}, ""click"": {""state"": {""target"": [""11"", ""3"", ""7""], ""time"": [1142, 1972, 2972]}, ""edge"": {""target"": [], ""time"": []}}, ""mouseout"": {""state"": {""target"": [], ""time"": []}, ""edge"": {""target"": [], ""time"": []}}}, ""path"": [""0"", ""5"", ""6"", ""7""], ""internal_node_id"": ""0.0-1.0-3.0-17.0"", ""block"": ""test""}"
A11EVB9AQ9F186:3YMTUJH0DSGS9F83S9T35VU234UT4S,22,1523034683265,"{""rt"": [6932, 242, 223], ""trial_type"": ""mouselab-mdp"", ""trialTime"": 9556, ""rewards"": [-2, 8, 48], ""stateRewards"": ["""", -4, -8, 24, -24, -2, 8, 24, 48, 4, -4, 24, -48], ""actionTimes"": [6943, 7697, 8429], ""trial_id"": -1100449030722574200, ""time_elapsed"": 327683, ""actions"": [""right"", ""right"", ""down""], ""trialIndex"": 18, ""score"": 49, ""trial_index"": 22, ""simulationMode"": [null, null, null], ""queries"": {""mouseover"": {""state"": {""target"": [], ""time"": []}, ""edge"": {""target"": [], ""time"": []}}, ""click"": {""state"": {""target"": [""11"", ""4"", ""3"", ""7"", ""8""], ""time"": [2433, 3935, 4620, 5197, 5967]}, ""edge"": {""target"": [], ""time"": []}}, ""mouseout"": {""state"": {""target"": [], ""time"": []}, ""edge"": {""target"": [], ""time"": []}}}, ""path"": [""0"", ""5"", ""6"", ""8""], ""internal_node_id"": ""0.0-1.0-3.0-18.0"", ""block"": ""test""}"
A11EVB9AQ9F186:3YMTUJH0DSGS9F83S9T35VU234UT4S,23,1523034693601,"{""rt"": [4638, 117, 199], ""trial_type"": ""mouselab-mdp"", ""trialTime"": 9285, ""rewards"": [2, 8, 48], ""stateRewards"": ["""", 2, 8, 48, -24, -4, -4, -48, 24, -4, -8, -48, -24], ""actionTimes"": [4643, 5268, 5983], ""trial_id"": 2372710761025483000, ""time_elapsed"": 338019, ""actions"": [""up"", ""up"", ""right""], ""trialIndex"": 19, ""score"": 54, ""trial_index"": 23, ""simulationMode"": [null, null, null], ""queries"": {""mouseover"": {""state"": {""target"": [], ""time"": []}, ""edge"": {""target"": [], ""time"": []}}, ""click"": {""state"": {""target"": [""11"", ""8"", ""7"", ""3""], ""time"": [1017, 2229, 2892, 3529]}, ""edge"": {""target"": [], ""time"": []}}, ""mouseout"": {""state"": {""target"": [], ""time"": []}, ""edge"": {""target"": [], ""time"": []}}}, ""path"": [""0"", ""1"", ""2"", ""3""], ""internal_node_id"": ""0.0-1.0-3.0-19.0"", ""block"": ""test""}"
A11EVB9AQ9F186:3YMTUJH0DSGS9F83S9T35VU234UT4S,24,1523034704158,"{""rt"": [1614, 128, 218], ""trial_type"": ""mouselab-mdp"", ""trialTime"": 9500, ""rewards"": [4, 8, 48], ""stateRewards"": ["""", 4, 8, -24, 48, 2, 8, -48, -48, 2, -4, 24, -48], ""actionTimes"": [1618, 2259, 2984], ""trial_id"": -6668518537832265000, ""time_elapsed"": 348576, ""actions"": [""up"", ""up"", ""left""], ""trialIndex"": 20, ""score"": 59, ""trial_index"": 24, ""simulationMode"": [null, null, null], ""queries"": {""mouseover"": {""state"": {""target"": [], ""time"": []}, ""edge"": {""target"": [], ""time"": []}}, ""click"": {""state"": {""target"": [""4""], ""time"": [591]}, ""edge"": {""target"": [], ""time"": []}}, ""mouseout"": {""state"": {""target"": [], ""time"": []}, ""edge"": {""target"": [], ""time"": []}}}, ""path"": [""0"", ""1"", ""2"", ""4""], ""internal_node_id"": ""0.0-1.0-3.0-20.0"", ""block"": ""test""}"
A11EVB9AQ9F186:3YMTUJH0DSGS9F83S9T35VU234UT4S,25,1523034713637,"{""rt"": [4412, 129, 131], ""trial_type"": ""mouselab-mdp"", ""trialTime"": 8433, ""rewards"": [-4, 4, 48], ""stateRewards"": ["""", 2, -4, 24, -48, -4, 4, 48, 48, 4, 4, -48, -24], ""actionTimes"": [4417, 5065, 5713], ""trial_id"": 1708036831889561600, ""time_elapsed"": 358055, ""actions"": [""right"", ""right"", ""up""], ""trialIndex"": 21, ""score"": 44, ""trial_index"": 25, ""simulationMode"": [null, null, null], ""queries"": {""mouseover"": {""state"": {""target"": [], ""time"": []}, ""edge"": {""target"": [], ""time"": []}}, ""click"": {""state"": {""target"": [""11"", ""4"", ""3"", ""7""], ""time"": [608, 1350, 2022, 3431]}, ""edge"": {""target"": [], ""time"": []}}, ""mouseout"": {""state"": {""target"": [], ""time"": []}, ""edge"": {""target"": [], ""time"": []}}}, ""path"": [""0"", ""5"", ""6"", ""7""], ""internal_node_id"": ""0.0-1.0-3.0-21.0"", ""block"": ""test""}"
A11EVB9AQ9F186:3YMTUJH0DSGS9F83S9T35VU234UT4S,26,1523034730580,"{""rt"": [13568, 165, 150], ""trial_type"": ""mouselab-mdp"", ""trialTime"": 15898, ""rewards"": [4, -4, 24], ""stateRewards"": ["""", -2, -4, 24, -48, -4, 8, -24, -24, 4, -4, -48, 24], ""actionTimes"": [13571, 14255, 14924], ""trial_id"": 1399303655934214400, ""time_elapsed"": 374998, ""actions"": [""left"", ""left"", ""down""], ""trialIndex"": 22, ""score"": 14, ""trial_index"": 26, ""simulationMode"": [null, null, null], ""queries"": {""mouseover"": {""state"": {""target"": [], ""time"": []}, ""edge"": {""target"": [], ""time"": []}}, ""click"": {""state"": {""target"": [""11"", ""7"", ""3"", ""4"", ""12"", ""8"", ""9"", ""10"", ""1"", ""2""], ""time"": [917, 2507, 3152, 4355, 5260, 6185, 9750, 10501, 11533, 12563]}, ""edge"": {""target"": [], ""time"": []}}, ""mouseout"": {""state"": {""target"": [], ""time"": []}, ""edge"": {""target"": [], ""time"": []}}}, ""path"": [""0"", ""9"", ""10"", ""12""], ""internal_node_id"": ""0.0-1.0-3.0-22.0"", ""block"": ""test""}"
A11EVB9AQ9F186:3YMTUJH0DSGS9F83S9T35VU234UT4S,27,1523034741487,"{""rt"": [3068, 176, 315], ""trial_type"": ""mouselab-mdp"", ""trialTime"": 9860, ""rewards"": [2, -8, 48], ""stateRewards"": ["""", 2, -8, -24, 48, -2, -4, -24, -24, 4, 8, 24, 48], ""actionTimes"": [3071, 3761, 4582], ""trial_id"": 6516760737789360000, ""time_elapsed"": 385905, ""actions"": [""up"", ""up"", ""left""], ""trialIndex"": 23, ""score"": 40, ""trial_index"": 27, ""simulationMode"": [null, null, null], ""queries"": {""mouseover"": {""state"": {""target"": [], ""time"": []}, ""edge"": {""target"": [], ""time"": []}}, ""click"": {""state"": {""target"": [""11"", ""4""], ""time"": [1215, 1810]}, ""edge"": {""target"": [], ""time"": []}}, ""mouseout"": {""state"": {""target"": [], ""time"": []}, ""edge"": {""target"": [], ""time"": []}}}, ""path"": [""0"", ""1"", ""2"", ""4""], ""internal_node_id"": ""0.0-1.0-3.0-23.0"", ""block"": ""test""}"
A11EVB9AQ9F186:3YMTUJH0DSGS9F83S9T35VU234UT4S,28,1523034751941,"{""rt"": [5196, 139, 170], ""trial_type"": ""mouselab-mdp"", ""trialTime"": 9388, ""rewards"": [-2, 8, 24], ""stateRewards"": ["""", 2, 4, -24, -48, -2, -4, -24, -24, -2, 8, 24, -24], ""actionTimes"": [5200, 5847, 6526], ""trial_id"": 11823864361136648, ""time_elapsed"": 396359, ""actions"": [""left"", ""left"", ""up""], ""trialIndex"": 24, ""score"": 24, ""trial_index"": 28, ""simulationMode"": [null, null, null], ""queries"": {""mouseover"": {""state"": {""target"": [], ""time"": []}, ""edge"": {""target"": [], ""time"": []}}, ""click"": {""state"": {""target"": [""4"", ""3"", ""7"", ""8"", ""12"", ""11""], ""time"": [687, 1352, 1960, 2672, 3453, 4195]}, ""edge"": {""target"": [], ""time"": []}}, ""mouseout"": {""state"": {""target"": [], ""time"": []}, ""edge"": {""target"": [], ""time"": []}}}, ""path"": [""0"", ""9"", ""10"", ""11""], ""internal_node_id"": ""0.0-1.0-3.0-24.0"", ""block"": ""test""}"
A11EVB9AQ9F186:3YMTUJH0DSGS9F83S9T35VU234UT4S,29,1523034761465,"{""rt"": [3466, 133, 257], ""trial_type"": ""mouselab-mdp"", ""trialTime"": 8477, ""rewards"": [2, 8, 48], ""stateRewards"": ["""", 2, 8, 48, 24, -2, 4, 24, 24, -2, -4, -48, -24], ""actionTimes"": [3471, 4126, 4902], ""trial_id"": -8923867603615937000, ""time_elapsed"": 405883, ""actions"": [""up"", ""up"", ""right""], ""trialIndex"": 25, ""score"": 55, ""trial_index"": 29, ""simulationMode"": [null, null, null], ""queries"": {""mouseover"": {""state"": {""target"": [], ""time"": []}, ""edge"": {""target"": [], ""time"": []}}, ""click"": {""state"": {""target"": [""11"", ""4"", ""3""], ""time"": [502, 1603, 2447]}, ""edge"": {""target"": [], ""time"": []}}, ""mouseout"": {""state"": {""target"": [], ""time"": []}, ""edge"": {""target"": [], ""time"": []}}}, ""path"": [""0"", ""1"", ""2"", ""3""], ""internal_node_id"": ""0.0-1.0-3.0-25.0"", ""block"": ""test""}"
A11EVB9AQ9F186:3YMTUJH0DSGS9F83S9T35VU234UT4S,30,1523034772897,"{""rt"": [7729, 131, 249], ""trial_type"": ""mouselab-mdp"", ""trialTime"": 10376, ""rewards"": [4, -4, 24], ""stateRewards"": ["""", 2, 8, -48, -24, 2, 8, -24, -48, 4, -4, 24, -48], ""actionTimes"": [7734, 8385, 9153], ""trial_id"": 495354184512700500, ""time_elapsed"": 417314, ""actions"": [""left"", ""left"", ""up""], ""trialIndex"": 26, ""score"": 18, ""trial_index"": 30, ""simulationMode"": [null, null, null], ""queries"": {""mouseover"": {""state"": {""target"": [], ""time"": []}, ""edge"": {""target"": [], ""time"": []}}, ""click"": {""state"": {""target"": [""4"", ""3"", ""7"", ""8"", ""12"", ""11""], ""time"": [2265, 3036, 3729, 4500, 5906, 6677]}, ""edge"": {""target"": [], ""time"": []}}, ""mouseout"": {""state"": {""target"": [], ""time"": []}, ""edge"": {""target"": [], ""time"": []}}}, ""path"": [""0"", ""9"", ""10"", ""11""], ""internal_node_id"": ""0.0-1.0-3.0-26.0"", ""block"": ""test""}"
A11EVB9AQ9F186:3YMTUJH0DSGS9F83S9T35VU234UT4S,31,1523034783453,"{""rt"": [1570, 125, 174], ""trial_type"": ""mouselab-mdp"", ""trialTime"": 9510, ""rewards"": [2, -8, 48], ""stateRewards"": ["""", 4, 4, -48, 48, 4, 4, -24, -24, 2, -8, 48, -24], ""actionTimes"": [1574, 2215, 2897], ""trial_id"": 3802673927624508000, ""time_elapsed"": 427871, ""actions"": [""left"", ""left"", ""up""], ""trialIndex"": 27, ""score"": 41, ""trial_index"": 31, ""simulationMode"": [null, null, null], ""queries"": {""mouseover"": {""state"": {""target"": [], ""time"": []}, ""edge"": {""target"": [], ""time"": []}}, ""click"": {""state"": {""target"": [""11""], ""time"": [668]}, ""edge"": {""target"": [], ""time"": []}}, ""mouseout"": {""state"": {""target"": [], ""time"": []}, ""edge"": {""target"": [], ""time"": []}}}, ""path"": [""0"", ""9"", ""10"", ""11""], ""internal_node_id"": ""0.0-1.0-3.0-27.0"", ""block"": ""test""}"
A11EVB9AQ9F186:3YMTUJH0DSGS9F83S9T35VU234UT4S,32,1523034793833,"{""rt"": [3909, 113, 142], ""trial_type"": ""mouselab-mdp"", ""trialTime"": 9314, ""rewards"": [-4, 8, 48], ""stateRewards"": ["""", -2, 8, -24, 24, -4, 8, 48, 24, -2, -4, 24, -48], ""actionTimes"": [3918, 4542, 5203], ""trial_id"": 2561475919526080000, ""time_elapsed"": 438251, ""actions"": [""right"", ""right"", ""up""], ""trialIndex"": 28, ""score"": 48, ""trial_index"": 32, ""simulationMode"": [null, null, null], ""queries"": {""mouseover"": {""state"": {""target"": [], ""time"": []}, ""edge"": {""target"": [], ""time"": []}}, ""click"": {""state"": {""target"": [""11"", ""4"", ""3"", ""7""], ""time"": [677, 1409, 2188, 2853]}, ""edge"": {""target"": [], ""time"": []}}, ""mouseout"": {""state"": {""target"": [], ""time"": []}, ""edge"": {""target"": [], ""time"": []}}}, ""path"": [""0"", ""5"", ""6"", ""7""], ""internal_node_id"": ""0.0-1.0-3.0-28.0"", ""block"": ""test""}"
A11EVB9AQ9F186:3YMTUJH0DSGS9F83S9T35VU234UT4S,33,1523034805044,"{""rt"": [6737, 116, 281], ""trial_type"": ""mouselab-mdp"", ""trialTime"": 10163, ""rewards"": [4, 4, 48], ""stateRewards"": ["""", 2, 4, 24, -24, 4, 8, 24, -24, 4, 4, 24, 48], ""actionTimes"": [6741, 7376, 8176], ""trial_id"": 5959115827255457000, ""time_elapsed"": 449462, ""actions"": [""left"", ""left"", ""down""], ""trialIndex"": 29, ""score"": 50, ""trial_index"": 33, ""simulationMode"": [null, null, null], ""queries"": {""mouseover"": {""state"": {""target"": [], ""time"": []}, ""edge"": {""target"": [], ""time"": []}}, ""click"": {""state"": {""target"": [""11"", ""4"", ""3"", ""7"", ""8"", ""12""], ""time"": [1418, 2294, 3170, 3808, 4540, 5697]}, ""edge"": {""target"": [], ""time"": []}}, ""mouseout"": {""state"": {""target"": [], ""time"": []}, ""edge"": {""target"": [], ""time"": []}}}, ""path"": [""0"", ""9"", ""10"", ""12""], ""internal_node_id"": ""0.0-1.0-3.0-29.0"", ""block"": ""test""}"
A11EVB9AQ9F186:3YMTUJH0DSGS9F83S9T35VU234UT4S,34,1523034827467,"{""rt"": 21410, ""trial_type"": ""survey-multi-choice"", ""responses"": ""[\""$-4 to $4\"",\""$-48 to $48\"",\""$1\"",\""1.5 cents for every $10 you make in the game plus 45 cents\""]"", ""internal_node_id"": ""0.0-1.0-4.0"", ""time_elapsed"": 471885, ""questions"": ""[\""What is the range of node values in the first step?\"",\""What is the range of node values in the last step?\"",\""What is the cost of clicking?\"",\""How much REAL money do you earn?\""]"", ""correct"": null, ""trial_index"": 34}"
A11EVB9AQ9F186:3YMTUJH0DSGS9F83S9T35VU234UT4S,35,1523034927584,"{""rt"": 99111, ""trial_type"": ""survey-text"", ""responses"": ""{\""Q0\"":\""I started with the end nodes then moved toward the first positive 48 I found.\"",\""Q1\"":\""I didn't click the second step because it was unavoidable\"",\""Q2\"":\""I stopped clicking when I found a positive 48\"",\""Q3\"":\""one of the 3rd nodes\"",\""Q4\"":\""I started with the end nodes then moved toward the first positive 48 I found.\""}"", ""internal_node_id"": ""0.0-1.0-5.0"", ""time_elapsed"": 572002, ""trial_index"": 35}"
A11EVB9AQ9F186:3YMTUJH0DSGS9F83S9T35VU234UT4S,36,1523034967403,"{""rt"": 38809, ""trial_type"": ""survey-text"", ""responses"": ""{\""Q0\"":\""I learned my strategy was sub-optimal for the first 7 or so turns.\"",\""Q1\"":\""No \"",\""Q2\"":\""\""}"", ""internal_node_id"": ""0.0-1.0-6.0"", ""time_elapsed"": 611820, ""trial_index"": 36}"
A11EVB9AQ9F186:3YMTUJH0DSGS9F83S9T35VU234UT4S,37,1523034970008,"{""rt"": 1602, ""trial_type"": ""text"", ""internal_node_id"": ""0.0-2.0"", ""time_elapsed"": 614426, ""key_press"": 32, ""trial_index"": 37}"
A11LCWCECSL9SC:3C2NJ6JBKAHKBOOWRZO33HRCU95N2K,0,1523072921737,"{""rt"": 19612, ""trial_type"": ""survey-text"", ""responses"": ""{\""Q0\"":\""Male\"",\""Q1\"":\""50\"",\""Q2\"":\""USA\"",\""Q3\"":\""Self Employed\"",\""Q4\"":\""2\""}"", ""internal_node_id"": ""0.0-0.0"", ""time_elapsed"": 19620, ""trial_index"": 0}"
A11LCWCECSL9SC:3C2NJ6JBKAHKBOOWRZO33HRCU95N2K,1,1523072937338,"{""rt"": 14585, ""trial_type"": ""text"", ""internal_node_id"": ""0.0-1.0-0.0"", ""time_elapsed"": 35222, ""key_press"": 32, ""trial_index"": 1}"
A11LCWCECSL9SC:3C2NJ6JBKAHKBOOWRZO33HRCU95N2K,2,1523072944552,"{""rt"": 6212, ""trial_type"": ""text"", ""internal_node_id"": ""0.0-1.0-1.0"", ""time_elapsed"": 42436, ""key_press"": 32, ""trial_index"": 2}"
A11LCWCECSL9SC:3C2NJ6JBKAHKBOOWRZO33HRCU95N2K,3,1523072952353,"{""rt"": 6798, ""trial_type"": ""text"", ""internal_node_id"": ""0.0-1.0-2.0"", ""time_elapsed"": 50237, ""key_press"": 32, ""trial_index"": 3}"
A11LCWCECSL9SC:3C2NJ6JBKAHKBOOWRZO33HRCU95N2K,4,1523072968192,"{""rt"": [5926, 2503, 572], ""trial_type"": ""mouselab-mdp"", ""trialTime"": 14697, ""rewards"": [-4, -8, -48], ""stateRewards"": ["""", 4, 8, -24, -24, -4, -8, -48, 48, 2, -8, -24, -48], ""actionTimes"": [5931, 8938, 10012], ""trial_id"": 2630443220538220000, ""time_elapsed"": 66075, ""actions"": [""right"", ""right"", ""up""], ""trialIndex"": 0, ""score"": -60, ""trial_index"": 4, ""simulationMode"": [null, null, null], ""queries"": {""mouseover"": {""state"": {""target"": [], ""time"": []}, ""edge"": {""target"": [], ""time"": []}}, ""click"": {""state"": {""target"": [], ""time"": []}, ""edge"": {""target"": [], ""time"": []}}, ""mouseout"": {""state"": {""target"": [], ""time"": []}, ""edge"": {""target"": [], ""time"": []}}}, ""path"": [""0"", ""5"", ""6"", ""7""], ""internal_node_id"": ""0.0-1.0-3.0-0.0"", ""block"": ""test""}"
A11LCWCECSL9SC:3C2NJ6JBKAHKBOOWRZO33HRCU95N2K,5,1523072979175,"{""rt"": [1564, 3151, 475], ""trial_type"": ""mouselab-mdp"", ""trialTime"": 9912, ""rewards"": [-2, -8, -48], ""stateRewards"": ["""", -2, -8, -48, -48, -4, -8, 24, 24, 4, -4, 48, -24], ""actionTimes"": [1569, 5216, 6193], ""trial_id"": -3027317260685893600, ""time_elapsed"": 77059, ""actions"": [""up"", ""up"", ""left""], ""trialIndex"": 1, ""score"": -58, ""trial_index"": 5, ""simulationMode"": [null, null, null], ""queries"": {""mouseover"": {""state"": {""target"": [], ""time"": []}, ""edge"": {""target"": [], ""time"": []}}, ""click"": {""state"": {""target"": [], ""time"": []}, ""edge"": {""target"": [], ""time"": []}}, ""mouseout"": {""state"": {""target"": [], ""time"": []}, ""edge"": {""target"": [], ""time"": []}}}, ""path"": [""0"", ""1"", ""2"", ""4""], ""internal_node_id"": ""0.0-1.0-3.0-1.0"", ""block"": ""test""}"
A11LCWCECSL9SC:3C2NJ6JBKAHKBOOWRZO33HRCU95N2K,6,1523072991440,"{""rt"": [1413, 609, 722], ""trial_type"": ""mouselab-mdp"", ""trialTime"": 11230, ""rewards"": [4, -4, -48], ""stateRewards"": ["""", 4, -4, -48, 24, -2, -4, 24, 48, 4, -4, 48, -48], ""actionTimes"": [1415, 2510, 3727], ""trial_id"": 320588371626771840, ""time_elapsed"": 89323, ""actions"": [""up"", ""up"", ""right""], ""trialIndex"": 2, ""score"": -48, ""trial_index"": 6, ""simulationMode"": [null, null, null], ""queries"": {""mouseover"": {""state"": {""target"": [], ""time"": []}, ""edge"": {""target"": [], ""time"": []}}, ""click"": {""state"": {""target"": [], ""time"": []}, ""edge"": {""target"": [], ""time"": []}}, ""mouseout"": {""state"": {""target"": [], ""time"": []}, ""edge"": {""target"": [], ""time"": []}}}, ""path"": [""0"", ""1"", ""2"", ""3""], ""internal_node_id"": ""0.0-1.0-3.0-2.0"", ""block"": ""test""}"
A11LCWCECSL9SC:3C2NJ6JBKAHKBOOWRZO33HRCU95N2K,7,1523073002247,"{""rt"": [678, 776, 667], ""trial_type"": ""mouselab-mdp"", ""trialTime"": 9761, ""rewards"": [-2, 4, -48], ""stateRewards"": ["""", 4, -8, 24, 24, 2, 4, 24, 48, -2, 4, 24, -48], ""actionTimes"": [681, 1952, 3113], ""trial_id"": 6722698278557235000, ""time_elapsed"": 100131, ""actions"": [""left"", ""left"", ""down""], ""trialIndex"": 3, ""score"": -46, ""trial_index"": 7, ""simulationMode"": [null, null, null], ""queries"": {""mouseover"": {""state"": {""target"": [], ""time"": []}, ""edge"": {""target"": [], ""time"": []}}, ""click"": {""state"": {""target"": [], ""time"": []}, ""edge"": {""target"": [], ""time"": []}}, ""mouseout"": {""state"": {""target"": [], ""time"": []}, ""edge"": {""target"": [], ""time"": []}}}, ""path"": [""0"", ""9"", ""10"", ""12""], ""internal_node_id"": ""0.0-1.0-3.0-3.0"", ""block"": ""test""}"
A11LCWCECSL9SC:3C2NJ6JBKAHKBOOWRZO33HRCU95N2K,8,1523073012438,"{""rt"": [2076, 433, 188], ""trial_type"": ""mouselab-mdp"", ""trialTime"": 9147, ""rewards"": [-2, -4, 24], ""stateRewards"": ["""", -2, 8, -24, 24, -4, 8, 48, 24, -2, -4, 24, -48], ""actionTimes"": [2078, 3003, 3708], ""trial_id"": 2561475919526080000, ""time_elapsed"": 110322, ""actions"": [""left"", ""left"", ""up""], ""trialIndex"": 4, ""score"": 18, ""trial_index"": 8, ""simulationMode"": [null, null, null], ""queries"": {""mouseover"": {""state"": {""target"": [], ""time"": []}, ""edge"": {""target"": [], ""time"": []}}, ""click"": {""state"": {""target"": [], ""time"": []}, ""edge"": {""target"": [], ""time"": []}}, ""mouseout"": {""state"": {""target"": [], ""time"": []}, ""edge"": {""target"": [], ""time"": []}}}, ""path"": [""0"", ""9"", ""10"", ""11""], ""internal_node_id"": ""0.0-1.0-3.0-4.0"", ""block"": ""test""}"
A11LCWCECSL9SC:3C2NJ6JBKAHKBOOWRZO33HRCU95N2K,9,1523073023343,"{""rt"": [1355, 133, 1123], ""trial_type"": ""mouselab-mdp"", ""trialTime"": 9842, ""rewards"": [2, 4, 48], ""stateRewards"": ["""", 2, 4, -48, 48, -4, 4, -48, -48, 2, -4, 24, 48], ""actionTimes"": [1357, 1995, 3617], ""trial_id"": -5849434166602758000, ""time_elapsed"": 121227, ""actions"": [""up"", ""up"", ""left""], ""trialIndex"": 5, ""score"": 54, ""trial_index"": 9, ""simulationMode"": [null, null, null], ""queries"": {""mouseover"": {""state"": {""target"": [], ""time"": []}, ""edge"": {""target"": [], ""time"": []}}, ""click"": {""state"": {""target"": [], ""time"": []}, ""edge"": {""target"": [], ""time"": []}}, ""mouseout"": {""state"": {""target"": [], ""time"": []}, ""edge"": {""target"": [], ""time"": []}}}, ""path"": [""0"", ""1"", ""2"", ""4""], ""internal_node_id"": ""0.0-1.0-3.0-5.0"", ""block"": ""test""}"
A11LCWCECSL9SC:3C2NJ6JBKAHKBOOWRZO33HRCU95N2K,10,1523073031631,"{""rt"": [442, 366, 300], ""trial_type"": ""mouselab-mdp"", ""trialTime"": 7217, ""rewards"": [-4, -4, -48], ""stateRewards"": ["""", 2, 8, 48, -24, -4, -4, -48, 24, -4, -8, -48, -24], ""actionTimes"": [444, 1321, 2113], ""trial_id"": 2372710761025483000, ""time_elapsed"": 129515, ""actions"": [""right"", ""right"", ""up""], ""trialIndex"": 6, ""score"": -56, ""trial_index"": 10, ""simulationMode"": [null, null, null], ""queries"": {""mouseover"": {""state"": {""target"": [], ""time"": []}, ""edge"": {""target"": [], ""time"": []}}, ""click"": {""state"": {""target"": [], ""time"": []}, ""edge"": {""target"": [], ""time"": []}}, ""mouseout"": {""state"": {""target"": [], ""time"": []}, ""edge"": {""target"": [], ""time"": []}}}, ""path"": [""0"", ""5"", ""6"", ""7""], ""internal_node_id"": ""0.0-1.0-3.0-6.0"", ""block"": ""test""}"
A11LCWCECSL9SC:3C2NJ6JBKAHKBOOWRZO33HRCU95N2K,11,1523073042047,"{""rt"": [1760, 824, 456], ""trial_type"": ""mouselab-mdp"", ""trialTime"": 9355, ""rewards"": [2, 4, 24], ""stateRewards"": ["""", 2, 4, 24, -24, 4, -8, 48, -24, -4, 8, -48, 48], ""actionTimes"": [1762, 3077, 4028], ""trial_id"": 5010381167344479000, ""time_elapsed"": 139930, ""actions"": [""up"", ""up"", ""right""], ""trialIndex"": 7, ""score"": 30, ""trial_index"": 11, ""simulationMode"": [null, null, null], ""queries"": {""mouseover"": {""state"": {""target"": [], ""time"": []}, ""edge"": {""target"": [], ""time"": []}}, ""click"": {""state"": {""target"": [], ""time"": []}, ""edge"": {""target"": [], ""time"": []}}, ""mouseout"": {""state"": {""target"": [], ""time"": []}, ""edge"": {""target"": [], ""time"": []}}}, ""path"": [""0"", ""1"", ""2"", ""3""], ""internal_node_id"": ""0.0-1.0-3.0-7.0"", ""block"": ""test""}"
A11LCWCECSL9SC:3C2NJ6JBKAHKBOOWRZO33HRCU95N2K,12,1523073054645,"{""rt"": [2675, 303, 2360], ""trial_type"": ""mouselab-mdp"", ""trialTime"": 11530, ""rewards"": [4, 8, 24], ""stateRewards"": ["""", 2, 4, 24, -24, 4, 8, -48, 24, 4, -8, -24, 24], ""actionTimes"": [2677, 3483, 6340], ""trial_id"": 8950946188299295000, ""time_elapsed"": 152529, ""actions"": [""right"", ""right"", ""down""], ""trialIndex"": 8, ""score"": 35, ""trial_index"": 12, ""simulationMode"": [null, null, null], ""queries"": {""mouseover"": {""state"": {""target"": [], ""time"": []}, ""edge"": {""target"": [], ""time"": []}}, ""click"": {""state"": {""target"": [""5""], ""time"": [766]}, ""edge"": {""target"": [], ""time"": []}}, ""mouseout"": {""state"": {""target"": [], ""time"": []}, ""edge"": {""target"": [], ""time"": []}}}, ""path"": [""0"", ""5"", ""6"", ""8""], ""internal_node_id"": ""0.0-1.0-3.0-8.0"", ""block"": ""test""}"
A11LCWCECSL9SC:3C2NJ6JBKAHKBOOWRZO33HRCU95N2K,13,1523073067584,"{""rt"": [2419, 546, 904], ""trial_type"": ""mouselab-mdp"", ""trialTime"": 11869, ""rewards"": [4, -4, 24], ""stateRewards"": ["""", 4, -4, -24, 24, 2, 4, -24, -48, 4, -8, 48, -48], ""actionTimes"": [2422, 3461, 4868], ""trial_id"": 4251687641687985000, ""time_elapsed"": 165467, ""actions"": [""up"", ""up"", ""left""], ""trialIndex"": 9, ""score"": 23, ""trial_index"": 13, ""simulationMode"": [null, null, null], ""queries"": {""mouseover"": {""state"": {""target"": [], ""time"": []}, ""edge"": {""target"": [], ""time"": []}}, ""click"": {""state"": {""target"": [""1""], ""time"": [980]}, ""edge"": {""target"": [], ""time"": []}}, ""mouseout"": {""state"": {""target"": [], ""time"": []}, ""edge"": {""target"": [], ""time"": []}}}, ""path"": [""0"", ""1"", ""2"", ""4""], ""internal_node_id"": ""0.0-1.0-3.0-9.0"", ""block"": ""test""}"
A11LCWCECSL9SC:3C2NJ6JBKAHKBOOWRZO33HRCU95N2K,14,1523073082630,"{""rt"": [9543, 215, 1017], ""trial_type"": ""mouselab-mdp"", ""trialTime"": 13983, ""rewards"": [-2, 8, 48], ""stateRewards"": ["""", 2, 8, -24, -48, -2, 8, 48, 24, 4, 8, -24, -48], ""actionTimes"": [9545, 10263, 11782], ""trial_id"": 7708577571422581000, ""time_elapsed"": 180514, ""actions"": [""right"", ""right"", ""up""], ""trialIndex"": 10, ""score"": 46, ""trial_index"": 14, ""simulationMode"": [null, null, null], ""queries"": {""mouseover"": {""state"": {""target"": [], ""time"": []}, ""edge"": {""target"": [], ""time"": []}}, ""click"": {""state"": {""target"": [""9"", ""10"", ""11"", ""12"", ""5"", ""6"", ""8"", ""7""], ""time"": [718, 1423, 2190, 3368, 4593, 5315, 6190, 7200]}, ""edge"": {""target"": [], ""time"": []}}, ""mouseout"": {""state"": {""target"": [], ""time"": []}, ""edge"": {""target"": [], ""time"": []}}}, ""path"": [""0"", ""5"", ""6"", ""7""], ""internal_node_id"": ""0.0-1.0-3.0-10.0"", ""block"": ""test""}"
A11LCWCECSL9SC:3C2NJ6JBKAHKBOOWRZO33HRCU95N2K,15,1523073105046,"{""rt"": [16999, 139, 689], ""trial_type"": ""mouselab-mdp"", ""trialTime"": 21320, ""rewards"": [2, 4, 24], ""stateRewards"": ["""", 2, -4, 24, -48, -2, -8, 24, -48, 2, 4, 24, -48], ""actionTimes"": [17001, 17641, 18824], ""trial_id"": 2653018761906401300, ""time_elapsed"": 202930, ""actions"": [""left"", ""left"", ""up""], ""trialIndex"": 11, ""score"": 18, ""trial_index"": 15, ""simulationMode"": [null, null, null], ""queries"": {""mouseover"": {""state"": {""target"": [], ""time"": []}, ""edge"": {""target"": [], ""time"": []}}, ""click"": {""state"": {""target"": [""5"", ""6"", ""7"", ""1"", ""2"", ""4"", ""3"", ""10"", ""9"", ""11"", ""12"", ""8""], ""time"": [1449, 2198, 3009, 4370, 4880, 5702, 6439, 7720, 8441, 9365, 10193, 11553]}, ""edge"": {""target"": [], ""time"": []}}, ""mouseout"": {""state"": {""target"": [], ""time"": []}, ""edge"": {""target"": [], ""time"": []}}}, ""path"": [""0"", ""9"", ""10"", ""11""], ""internal_node_id"": ""0.0-1.0-3.0-11.0"", ""block"": ""test""}"
A11LCWCECSL9SC:3C2NJ6JBKAHKBOOWRZO33HRCU95N2K,16,1523073118149,"{""rt"": [8197, 266, 266], ""trial_type"": ""mouselab-mdp"", ""trialTime"": 12038, ""rewards"": [2, 8, 24], ""stateRewards"": ["""", -4, 4, 24, 24, 2, 8, -24, 24, -4, 4, -24, 48], ""actionTimes"": [8199, 8967, 9734], ""trial_id"": 5347440239323845000, ""time_elapsed"": 216033, ""actions"": [""right"", ""right"", ""down""], ""trialIndex"": 12, ""score"": 27, ""trial_index"": 16, ""simulationMode"": [null, null, null], ""queries"": {""mouseover"": {""state"": {""target"": [], ""time"": []}, ""edge"": {""target"": [], ""time"": []}}, ""click"": {""state"": {""target"": [""9"", ""10"", ""1"", ""5"", ""6"", ""7"", ""8""], ""time"": [1159, 1774, 2910, 3767, 4487, 5868, 6903]}, ""edge"": {""target"": [], ""time"": []}}, ""mouseout"": {""state"": {""target"": [], ""time"": []}, ""edge"": {""target"": [], ""time"": []}}}, ""path"": [""0"", ""5"", ""6"", ""8""], ""internal_node_id"": ""0.0-1.0-3.0-12.0"", ""block"": ""test""}"
A11LCWCECSL9SC:3C2NJ6JBKAHKBOOWRZO33HRCU95N2K,17,1523073127943,"{""rt"": [4830, 149, 267], ""trial_type"": ""mouselab-mdp"", ""trialTime"": 8721, ""rewards"": [2, -8, 48], ""stateRewards"": ["""", 2, -8, -24, 48, -2, -4, -24, -24, 4, 8, 24, 48], ""actionTimes"": [4833, 5473, 6241], ""trial_id"": 6516760737789360000, ""time_elapsed"": 225827, ""actions"": [""up"", ""up"", ""left""], ""trialIndex"": 13, ""score"": 39, ""trial_index"": 17, ""simulationMode"": [null, null, null], ""queries"": {""mouseover"": {""state"": {""target"": [], ""time"": []}, ""edge"": {""target"": [], ""time"": []}}, ""click"": {""state"": {""target"": [""5"", ""1"", ""4""], ""time"": [672, 1403, 3368]}, ""edge"": {""target"": [], ""time"": []}}, ""mouseout"": {""state"": {""target"": [], ""time"": []}, ""edge"": {""target"": [], ""time"": []}}}, ""path"": [""0"", ""1"", ""2"", ""4""], ""internal_node_id"": ""0.0-1.0-3.0-13.0"", ""block"": ""test""}"
A11LCWCECSL9SC:3C2NJ6JBKAHKBOOWRZO33HRCU95N2K,18,1523073138708,"{""rt"": [6527, 310, 353], ""trial_type"": ""mouselab-mdp"", ""trialTime"": 9711, ""rewards"": [4, -8, 24], ""stateRewards"": ["""", -2, 4, -24, 24, -2, -4, -48, -48, 4, -8, 24, 24], ""actionTimes"": [6529, 7345, 8201], ""trial_id"": 282020194745400500, ""time_elapsed"": 236592, ""actions"": [""left"", ""left"", ""up""], ""trialIndex"": 14, ""score"": 18, ""trial_index"": 18, ""simulationMode"": [null, null, null], ""queries"": {""mouseover"": {""state"": {""target"": [], ""time"": []}, ""edge"": {""target"": [], ""time"": []}}, ""click"": {""state"": {""target"": [""9"", ""11""], ""time"": [2483, 5186]}, ""edge"": {""target"": [], ""time"": []}}, ""mouseout"": {""state"": {""target"": [], ""time"": []}, ""edge"": {""target"": [], ""time"": []}}}, ""path"": [""0"", ""9"", ""10"", ""11""], ""internal_node_id"": ""0.0-1.0-3.0-14.0"", ""block"": ""test""}"
A11LCWCECSL9SC:3C2NJ6JBKAHKBOOWRZO33HRCU95N2K,19,1523073150383,"{""rt"": [4722, 297, 499], ""trial_type"": ""mouselab-mdp"", ""trialTime"": 10621, ""rewards"": [4, -8, 24], ""stateRewards"": ["""", -2, 4, 48, 24, -4, 8, -48, 24, 4, -8, 24, 24], ""actionTimes"": [4725, 5516, 6517], ""trial_id"": -1461775893828862000, ""time_elapsed"": 248266, ""actions"": [""left"", ""left"", ""up""], ""trialIndex"": 15, ""score"": 17, ""trial_index"": 19, ""simulationMode"": [null, null, null], ""queries"": {""mouseover"": {""state"": {""target"": [], ""time"": []}, ""edge"": {""target"": [], ""time"": []}}, ""click"": {""state"": {""target"": [""5"", ""1"", ""9""], ""time"": [1792, 2711, 3730]}, ""edge"": {""target"": [], ""time"": []}}, ""mouseout"": {""state"": {""target"": [], ""time"": []}, ""edge"": {""target"": [], ""time"": []}}}, ""path"": [""0"", ""9"", ""10"", ""11""], ""internal_node_id"": ""0.0-1.0-3.0-15.0"", ""block"": ""test""}"
A11LCWCECSL9SC:3C2NJ6JBKAHKBOOWRZO33HRCU95N2K,20,1523073163998,"{""rt"": [6002, 134, 412], ""trial_type"": ""mouselab-mdp"", ""trialTime"": 12587, ""rewards"": [-4, 8, 48], ""stateRewards"": ["""", -4, 8, 48, 24, 2, -8, -48, -24, -4, -4, 48, -24], ""actionTimes"": [6004, 6651, 7563], ""trial_id"": 3419769505624262700, ""time_elapsed"": 261882, ""actions"": [""up"", ""up"", ""right""], ""trialIndex"": 16, ""score"": 48, ""trial_index"": 20, ""simulationMode"": [null, null, null], ""queries"": {""mouseover"": {""state"": {""target"": [], ""time"": []}, ""edge"": {""target"": [], ""time"": []}}, ""click"": {""state"": {""target"": [""9"", ""5"", ""1"", ""3""], ""time"": [531, 1721, 3103, 4699]}, ""edge"": {""target"": [], ""time"": []}}, ""mouseout"": {""state"": {""target"": [], ""time"": []}, ""edge"": {""target"": [], ""time"": []}}}, ""path"": [""0"", ""1"", ""2"", ""3""], ""internal_node_id"": ""0.0-1.0-3.0-16.0"", ""block"": ""test""}"
A11LCWCECSL9SC:3C2NJ6JBKAHKBOOWRZO33HRCU95N2K,21,1523073175182,"{""rt"": [4393, 106, 237], ""trial_type"": ""mouselab-mdp"", ""trialTime"": 10125, ""rewards"": [2, 4, 48], ""stateRewards"": ["""", 2, 4, -24, 48, -4, 8, -48, 48, 2, -4, 24, -24], ""actionTimes"": [4395, 4997, 5725], ""trial_id"": -8327671364504025000, ""time_elapsed"": 273066, ""actions"": [""up"", ""up"", ""left""], ""trialIndex"": 17, ""score"": 51, ""trial_index"": 21, ""simulationMode"": [null, null, null], ""queries"": {""mouseover"": {""state"": {""target"": [], ""time"": []}, ""edge"": {""target"": [], ""time"": []}}, ""click"": {""state"": {""target"": [""1"", ""3"", ""4""], ""time"": [780, 2382, 3207]}, ""edge"": {""target"": [], ""time"": []}}, ""mouseout"": {""state"": {""target"": [], ""time"": []}, ""edge"": {""target"": [], ""time"": []}}}, ""path"": [""0"", ""1"", ""2"", ""4""], ""internal_node_id"": ""0.0-1.0-3.0-17.0"", ""block"": ""test""}"
A11LCWCECSL9SC:3C2NJ6JBKAHKBOOWRZO33HRCU95N2K,22,1523073186870,"{""rt"": [7212, 206, 128], ""trial_type"": ""mouselab-mdp"", ""trialTime"": 10647, ""rewards"": [2, 4, 24], ""stateRewards"": ["""", -2, -4, -48, -48, 2, -8, -24, -24, 2, 4, 24, 24], ""actionTimes"": [7215, 7911, 8535], ""trial_id"": -7656966127788694000, ""time_elapsed"": 284754, ""actions"": [""left"", ""left"", ""down""], ""trialIndex"": 18, ""score"": 25, ""trial_index"": 22, ""simulationMode"": [null, null, null], ""queries"": {""mouseover"": {""state"": {""target"": [], ""time"": []}, ""edge"": {""target"": [], ""time"": []}}, ""click"": {""state"": {""target"": [""1"", ""9"", ""10"", ""12"", ""11""], ""time"": [871, 1765, 2685, 3573, 4796]}, ""edge"": {""target"": [], ""time"": []}}, ""mouseout"": {""state"": {""target"": [], ""time"": []}, ""edge"": {""target"": [], ""time"": []}}}, ""path"": [""0"", ""9"", ""10"", ""12""], ""internal_node_id"": ""0.0-1.0-3.0-18.0"", ""block"": ""test""}"
A11LCWCECSL9SC:3C2NJ6JBKAHKBOOWRZO33HRCU95N2K,23,1523073197677,"{""rt"": [5410, 64, 113], ""trial_type"": ""mouselab-mdp"", ""trialTime"": 9773, ""rewards"": [2, 8, 48], ""stateRewards"": ["""", 2, 8, 48, 24, -2, 4, 24, 24, -2, -4, -48, -24], ""actionTimes"": [5414, 5972, 6590], ""trial_id"": -8923867603615937000, ""time_elapsed"": 295561, ""actions"": [""up"", ""up"", ""right""], ""trialIndex"": 19, ""score"": 55, ""trial_index"": 23, ""simulationMode"": [null, null, null], ""queries"": {""mouseover"": {""state"": {""target"": [], ""time"": []}, ""edge"": {""target"": [], ""time"": []}}, ""click"": {""state"": {""target"": [""5"", ""1"", ""3""], ""time"": [982, 1682, 3444]}, ""edge"": {""target"": [], ""time"": []}}, ""mouseout"": {""state"": {""target"": [], ""time"": []}, ""edge"": {""target"": [], ""time"": []}}}, ""path"": [""0"", ""1"", ""2"", ""3""], ""internal_node_id"": ""0.0-1.0-3.0-19.0"", ""block"": ""test""}"
A11LCWCECSL9SC:3C2NJ6JBKAHKBOOWRZO33HRCU95N2K,24,1523073213317,"{""rt"": [10280, 191, 138], ""trial_type"": ""mouselab-mdp"", ""trialTime"": 14594, ""rewards"": [-2, -4, 24], ""stateRewards"": ["""", -2, -4, 24, -48, -4, 8, -24, -24, 4, -4, -48, 24], ""actionTimes"": [10283, 10963, 11594], ""trial_id"": 1399303655934214400, ""time_elapsed"": 311201, ""actions"": [""up"", ""up"", ""right""], ""trialIndex"": 20, ""score"": 12, ""trial_index"": 24, ""simulationMode"": [null, null, null], ""queries"": {""mouseover"": {""state"": {""target"": [], ""time"": []}, ""edge"": {""target"": [], ""time"": []}}, ""click"": {""state"": {""target"": [""3"", ""4"", ""11"", ""12"", ""8"", ""7""], ""time"": [1555, 2626, 3539, 4434, 5417, 6331]}, ""edge"": {""target"": [], ""time"": []}}, ""mouseout"": {""state"": {""target"": [], ""time"": []}, ""edge"": {""target"": [], ""time"": []}}}, ""path"": [""0"", ""1"", ""2"", ""3""], ""internal_node_id"": ""0.0-1.0-3.0-20.0"", ""block"": ""test""}"
A11LCWCECSL9SC:3C2NJ6JBKAHKBOOWRZO33HRCU95N2K,25,1523073222982,"{""rt"": [3867, 107, 252], ""trial_type"": ""mouselab-mdp"", ""trialTime"": 8604, ""rewards"": [2, -8, 48], ""stateRewards"": ["""", 4, 4, -48, 48, 4, 4, -24, -24, 2, -8, 48, -24], ""actionTimes"": [3868, 4474, 5220], ""trial_id"": 3802673927624508000, ""time_elapsed"": 320866, ""actions"": [""left"", ""left"", ""up""], ""trialIndex"": 21, ""score"": 39, ""trial_index"": 25, ""simulationMode"": [null, null, null], ""queries"": {""mouseover"": {""state"": {""target"": [], ""time"": []}, ""edge"": {""target"": [], ""time"": []}}, ""click"": {""state"": {""target"": [""9"", ""12"", ""11""], ""time"": [658, 1753, 2540]}, ""edge"": {""target"": [], ""time"": []}}, ""mouseout"": {""state"": {""target"": [], ""time"": []}, ""edge"": {""target"": [], ""time"": []}}}, ""path"": [""0"", ""9"", ""10"", ""11""], ""internal_node_id"": ""0.0-1.0-3.0-21.0"", ""block"": ""test""}"
A11LCWCECSL9SC:3C2NJ6JBKAHKBOOWRZO33HRCU95N2K,26,1523073237533,"{""rt"": [10669, 24, 89], ""trial_type"": ""mouselab-mdp"", ""trialTime"": 13511, ""rewards"": [-2, -8, 48], ""stateRewards"": ["""", -4, -4, -48, -48, -2, -8, 24, 48, 2, 4, -24, -48], ""actionTimes"": [10672, 11198, 11800], ""trial_id"": -1848243683464450000, ""time_elapsed"": 335417, ""actions"": [""right"", ""right"", ""down""], ""trialIndex"": 22, ""score"": 29, ""trial_index"": 26, ""simulationMode"": [null, null, null], ""queries"": {""mouseover"": {""state"": {""target"": [], ""time"": []}, ""edge"": {""target"": [], ""time"": []}}, ""click"": {""state"": {""target"": [""5"", ""1"", ""9"", ""11"", ""12"", ""4"", ""3"", ""7"", ""8""], ""time"": [1550, 2364, 3535, 4582, 5543, 6854, 7702, 8358, 9462]}, ""edge"": {""target"": [], ""time"": []}}, ""mouseout"": {""state"": {""target"": [], ""time"": []}, ""edge"": {""target"": [], ""time"": []}}}, ""path"": [""0"", ""5"", ""6"", ""8""], ""internal_node_id"": ""0.0-1.0-3.0-22.0"", ""block"": ""test""}"
A11LCWCECSL9SC:3C2NJ6JBKAHKBOOWRZO33HRCU95N2K,27,1523073248484,"{""rt"": [6755, 143, 190], ""trial_type"": ""mouselab-mdp"", ""trialTime"": 9893, ""rewards"": [-2, -4, 48], ""stateRewards"": ["""", -2, 4, -48, -24, 2, 4, 24, 24, -2, -4, 48, -24], ""actionTimes"": [6759, 7398, 8078], ""trial_id"": 7457324294976434000, ""time_elapsed"": 346368, ""actions"": [""left"", ""left"", ""up""], ""trialIndex"": 23, ""score"": 37, ""trial_index"": 27, ""simulationMode"": [null, null, null], ""queries"": {""mouseover"": {""state"": {""target"": [], ""time"": []}, ""edge"": {""target"": [], ""time"": []}}, ""click"": {""state"": {""target"": [""8"", ""7"", ""3"", ""4"", ""11""], ""time"": [1367, 2613, 3588, 4359, 5246]}, ""edge"": {""target"": [], ""time"": []}}, ""mouseout"": {""state"": {""target"": [], ""time"": []}, ""edge"": {""target"": [], ""time"": []}}}, ""path"": [""0"", ""9"", ""10"", ""11""], ""internal_node_id"": ""0.0-1.0-3.0-23.0"", ""block"": ""test""}"
A11LCWCECSL9SC:3C2NJ6JBKAHKBOOWRZO33HRCU95N2K,28,1523073260256,"{""rt"": [3528, 121, 118], ""trial_type"": ""mouselab-mdp"", ""trialTime"": 10715, ""rewards"": [-2, 8, 48], ""stateRewards"": ["""", 2, 4, -48, -24, -4, -8, 24, -48, -2, 8, 48, -24], ""actionTimes"": [3530, 4153, 4778], ""trial_id"": -8806789642961306000, ""time_elapsed"": 358140, ""actions"": [""left"", ""left"", ""up""], ""trialIndex"": 24, ""score"": 52, ""trial_index"": 28, ""simulationMode"": [null, null, null], ""queries"": {""mouseover"": {""state"": {""target"": [], ""time"": []}, ""edge"": {""target"": [], ""time"": []}}, ""click"": {""state"": {""target"": [""12"", ""11""], ""time"": [1257, 2137]}, ""edge"": {""target"": [], ""time"": []}}, ""mouseout"": {""state"": {""target"": [], ""time"": []}, ""edge"": {""target"": [], ""time"": []}}}, ""path"": [""0"", ""9"", ""10"", ""11""], ""internal_node_id"": ""0.0-1.0-3.0-24.0"", ""block"": ""test""}"
A11LCWCECSL9SC:3C2NJ6JBKAHKBOOWRZO33HRCU95N2K,29,1523073275407,"{""rt"": [10646, 142, 68], ""trial_type"": ""mouselab-mdp"", ""trialTime"": 14083, ""rewards"": [-2, 8, 24], ""stateRewards"": ["""", 2, 4, -24, -48, -2, -4, -24, -24, -2, 8, 24, -24], ""actionTimes"": [10650, 11281, 11840], ""trial_id"": 11823864361136648, ""time_elapsed"": 373291, ""actions"": [""left"", ""left"", ""up""], ""trialIndex"": 25, ""score"": 23, ""trial_index"": 29, ""simulationMode"": [null, null, null], ""queries"": {""mouseover"": {""state"": {""target"": [], ""time"": []}, ""edge"": {""target"": [], ""time"": []}}, ""click"": {""state"": {""target"": [""9"", ""11"", ""12"", ""8"", ""7"", ""3"", ""4""], ""time"": [1577, 2543, 3955, 4808, 5640, 6348, 7090]}, ""edge"": {""target"": [], ""time"": []}}, ""mouseout"": {""state"": {""target"": [], ""time"": []}, ""edge"": {""target"": [], ""time"": []}}}, ""path"": [""0"", ""9"", ""10"", ""11""], ""internal_node_id"": ""0.0-1.0-3.0-25.0"", ""block"": ""test""}"
A11LCWCECSL9SC:3C2NJ6JBKAHKBOOWRZO33HRCU95N2K,30,1523073286140,"{""rt"": [3896, 87, 71], ""trial_type"": ""mouselab-mdp"", ""trialTime"": 9688, ""rewards"": [-2, -8, 48], ""stateRewards"": ["""", -2, -8, 24, 48, -2, 8, -24, -24, -2, -4, 24, -24], ""actionTimes"": [3898, 4480, 5048], ""trial_id"": -3603402282008602000, ""time_elapsed"": 384024, ""actions"": [""up"", ""up"", ""left""], ""trialIndex"": 26, ""score"": 35, ""trial_index"": 30, ""simulationMode"": [null, null, null], ""queries"": {""mouseover"": {""state"": {""target"": [], ""time"": []}, ""edge"": {""target"": [], ""time"": []}}, ""click"": {""state"": {""target"": [""12"", ""11"", ""4""], ""time"": [716, 1576, 2344]}, ""edge"": {""target"": [], ""time"": []}}, ""mouseout"": {""state"": {""target"": [], ""time"": []}, ""edge"": {""target"": [], ""time"": []}}}, ""path"": [""0"", ""1"", ""2"", ""4""], ""internal_node_id"": ""0.0-1.0-3.0-26.0"", ""block"": ""test""}"
A11LCWCECSL9SC:3C2NJ6JBKAHKBOOWRZO33HRCU95N2K,31,1523073296814,"{""rt"": [1899, 73, 64], ""trial_type"": ""mouselab-mdp"", ""trialTime"": 9613, ""rewards"": [-4, 4, 48], ""stateRewards"": ["""", -4, 4, 48, -48, -4, 4, -24, 24, -4, -8, 24, 24], ""actionTimes"": [1900, 2468, 3027], ""trial_id"": -5995301136843023000, ""time_elapsed"": 394698, ""actions"": [""up"", ""up"", ""right""], ""trialIndex"": 27, ""score"": 47, ""trial_index"": 31, ""simulationMode"": [null, null, null], ""queries"": {""mouseover"": {""state"": {""target"": [], ""time"": []}, ""edge"": {""target"": [], ""time"": []}}, ""click"": {""state"": {""target"": [""3""], ""time"": [578]}, ""edge"": {""target"": [], ""time"": []}}, ""mouseout"": {""state"": {""target"": [], ""time"": []}, ""edge"": {""target"": [], ""time"": []}}}, ""path"": [""0"", ""1"", ""2"", ""3""], ""internal_node_id"": ""0.0-1.0-3.0-27.0"", ""block"": ""test""}"
A11LCWCECSL9SC:3C2NJ6JBKAHKBOOWRZO33HRCU95N2K,32,1523073311661,"{""rt"": [7556, 13, 471], ""trial_type"": ""mouselab-mdp"", ""trialTime"": 13782, ""rewards"": [-2, 4, 24], ""stateRewards"": ["""", -2, 4, 24, -24, -4, 4, -24, 24, -4, -8, -24, 24], ""actionTimes"": [7558, 8070, 9055], ""trial_id"": -3142242075455045000, ""time_elapsed"": 409545, ""actions"": [""up"", ""up"", ""right""], ""trialIndex"": 28, ""score"": 20, ""trial_index"": 32, ""simulationMode"": [null, null, null], ""queries"": {""mouseover"": {""state"": {""target"": [], ""time"": []}, ""edge"": {""target"": [], ""time"": []}}, ""click"": {""state"": {""target"": [""3"", ""4"", ""11"", ""12"", ""8"", ""7""], ""time"": [1549, 2468, 3220, 4036, 5054, 5835]}, ""edge"": {""target"": [], ""time"": []}}, ""mouseout"": {""state"": {""target"": [], ""time"": []}, ""edge"": {""target"": [], ""time"": []}}}, ""path"": [""0"", ""1"", ""2"", ""3""], ""internal_node_id"": ""0.0-1.0-3.0-28.0"", ""block"": ""test""}"
A11LCWCECSL9SC:3C2NJ6JBKAHKBOOWRZO33HRCU95N2K,33,1523073323229,"{""rt"": [3780, 48, 160], ""trial_type"": ""mouselab-mdp"", ""trialTime"": 10510, ""rewards"": [4, -8, 48], ""stateRewards"": ["""", -4, 4, -24, -24, -4, -8, 24, -24, 4, -8, 48, -48], ""actionTimes"": [3781, 4325, 4989], ""trial_id"": 460924718031657700, ""time_elapsed"": 421113, ""actions"": [""left"", ""left"", ""up""], ""trialIndex"": 29, ""score"": 41, ""trial_index"": 33, ""simulationMode"": [null, null, null], ""queries"": {""mouseover"": {""state"": {""target"": [], ""time"": []}, ""edge"": {""target"": [], ""time"": []}}, ""click"": {""state"": {""target"": [""3"", ""4"", ""11""], ""time"": [711, 1563, 2207]}, ""edge"": {""target"": [], ""time"": []}}, ""mouseout"": {""state"": {""target"": [], ""time"": []}, ""edge"": {""target"": [], ""time"": []}}}, ""path"": [""0"", ""9"", ""10"", ""11""], ""internal_node_id"": ""0.0-1.0-3.0-29.0"", ""block"": ""test""}"
A11LCWCECSL9SC:3C2NJ6JBKAHKBOOWRZO33HRCU95N2K,34,1523073349388,"{""rt"": 25132, ""trial_type"": ""survey-multi-choice"", ""responses"": ""[\""$-4 to $4\"",\""$-48 to $48\"",\""$1\"",\""1 cent for every $1 you make in the game plus 45 cents\""]"", ""internal_node_id"": ""0.0-1.0-4.0"", ""time_elapsed"": 447272, ""questions"": ""[\""What is the range of node values in the first step?\"",\""What is the range of node values in the last step?\"",\""What is the cost of clicking?\"",\""How much REAL money do you earn?\""]"", ""correct"": null, ""trial_index"": 34}"
A11LCWCECSL9SC:3C2NJ6JBKAHKBOOWRZO33HRCU95N2K,35,1523073433388,"{""rt"": 82993, ""trial_type"": ""survey-text"", ""responses"": ""{\""Q0\"":\""I eventually figured out that the end nodes were the most value and clicked them until I found the highest value\"",\""Q1\"":\""Trial and error\"",\""Q2\"":\""I stopped when I found the highest amount\"",\""Q3\"":\""the end nodes\"",\""Q4\"":\""It took me a while to figure a strategy but it worked\""}"", ""internal_node_id"": ""0.0-1.0-5.0"", ""time_elapsed"": 531271, ""trial_index"": 35}"
A11LCWCECSL9SC:3C2NJ6JBKAHKBOOWRZO33HRCU95N2K,36,1523073445365,"{""rt"": 10969, ""trial_type"": ""survey-text"", ""responses"": ""{\""Q0\"":\""\"",\""Q1\"":\""\"",\""Q2\"":\""\""}"", ""internal_node_id"": ""0.0-1.0-6.0"", ""time_elapsed"": 543249, ""trial_index"": 36}"
A11LCWCECSL9SC:3C2NJ6JBKAHKBOOWRZO33HRCU95N2K,37,1523073448427,"{""rt"": 2060, ""trial_type"": ""text"", ""internal_node_id"": ""0.0-2.0"", ""time_elapsed"": 546311, ""key_press"": 32, ""trial_index"": 37}"
A11UYTAICVYT0N:3URFVVM165INCPBHD7934NTDNASZUJ,0,1522942368913,"{""rt"": 27130, ""trial_type"": ""survey-text"", ""responses"": ""{\""Q0\"":\""Female\"",\""Q1\"":\""46\"",\""Q2\"":\""United States\"",\""Q3\"":\""Employed Part Time\"",\""Q4\"":\""3\""}"", ""internal_node_id"": ""0.0-0.0"", ""time_elapsed"": 27170, ""trial_index"": 0}"
A11UYTAICVYT0N:3URFVVM165INCPBHD7934NTDNASZUJ,1,1522942372710,"{""rt"": 2783, ""trial_type"": ""text"", ""internal_node_id"": ""0.0-2.0"", ""time_elapsed"": 30967, ""key_press"": 32, ""trial_index"": 1}"
A121FRZFN86KC1:3SITXWYCNV9JBV2WCY4N2CLEQQYBXU,0,1522952365182,"{""rt"": 13205, ""trial_type"": ""survey-text"", ""responses"": ""{\""Q0\"":\""Female\"",\""Q1\"":\""30\"",\""Q2\"":\""USA\"",\""Q3\"":\""Homemaker/Mturker\"",\""Q4\"":\""2\""}"", ""internal_node_id"": ""0.0-0.0"", ""time_elapsed"": 13214, ""trial_index"": 0}"
A121FRZFN86KC1:3SITXWYCNV9JBV2WCY4N2CLEQQYBXU,1,1522952367900,"{""rt"": 1715, ""trial_type"": ""text"", ""internal_node_id"": ""0.0-2.0"", ""time_elapsed"": 15932, ""key_press"": 32, ""trial_index"": 1}"
A12F04QMP1PYY9:3YDTZAI2WXGR0VWUQQ9TZPB7BLO14C,0,1523055349561,"{""rt"": 46006, ""trial_type"": ""survey-text"", ""responses"": ""{\""Q0\"":\""male\"",\""Q1\"":\""51\"",\""Q2\"":\""USA\"",\""Q3\"":\""part time\"",\""Q4\"":\""2\""}"", ""internal_node_id"": ""0.0-0.0"", ""time_elapsed"": 46028, ""trial_index"": 0}"
A12F04QMP1PYY9:3YDTZAI2WXGR0VWUQQ9TZPB7BLO14C,1,1523055393085,"{""rt"": 42513, ""trial_type"": ""text"", ""internal_node_id"": ""0.0-1.0-0.0"", ""time_elapsed"": 89553, ""key_press"": 32, ""trial_index"": 1}"
A12F04QMP1PYY9:3YDTZAI2WXGR0VWUQQ9TZPB7BLO14C,2,1523055437066,"{""rt"": 42978, ""trial_type"": ""text"", ""internal_node_id"": ""0.0-1.0-1.0"", ""time_elapsed"": 133534, ""key_press"": 32, ""trial_index"": 2}"
A12F04QMP1PYY9:3YDTZAI2WXGR0VWUQQ9TZPB7BLO14C,3,1523055456913,"{""rt"": 18842, ""trial_type"": ""text"", ""internal_node_id"": ""0.0-1.0-2.0"", ""time_elapsed"": 153381, ""key_press"": 32, ""trial_index"": 3}"
