A11C01B5PXL1QW:3AMW0RGHOD2G3VP2TXZFZUZ55ESPNU,0,1522870541216,"{""rt"": 26562, ""trial_type"": ""survey-text"", ""responses"": ""{\""Q0\"":\""male\"",\""Q1\"":\""28\"",\""Q2\"":\""United States\"",\""Q3\"":\""self-employed\"",\""Q4\"":\""3\""}"", ""internal_node_id"": ""0.0-0.0"", ""time_elapsed"": 26714, ""trial_index"": 0}"
A11C01B5PXL1QW:3AMW0RGHOD2G3VP2TXZFZUZ55ESPNU,1,1522870544062,"{""rt"": 1838, ""trial_type"": ""text"", ""internal_node_id"": ""0.0-2.0"", ""time_elapsed"": 29562, ""key_press"": 32, ""trial_index"": 1}"
A12SMSQ6D5227J:3IOEN3P9S7J5FI089E28WNVL78X16S,0,1522869716567,"{""rt"": 9631, ""trial_type"": ""survey-text"", ""responses"": ""{\""Q0\"":\""female\"",\""Q1\"":\""36\"",\""Q2\"":\""USA\"",\""Q3\"":\""self employed\"",\""Q4\"":\""4\""}"", ""internal_node_id"": ""0.0-0.0"", ""time_elapsed"": 9642, ""trial_index"": 0}"
A12SMSQ6D5227J:3IOEN3P9S7J5FI089E28WNVL78X16S,1,1522869720039,"{""rt"": 2468, ""trial_type"": ""text"", ""internal_node_id"": ""0.0-2.0"", ""time_elapsed"": 13114, ""key_press"": 32, ""trial_index"": 1}"
A1768BFPFQ8AP1:339ANSOTR52NE3HVJPHFY5HPP5SIK6,0,1522869679184,"{""rt"": 19155, ""trial_type"": ""survey-text"", ""responses"": ""{\""Q0\"":\""Male\"",\""Q1\"":\""30\"",\""Q2\"":\""USA\"",\""Q3\"":\""Employed Full-Time\"",\""Q4\"":\""3\""}"", ""internal_node_id"": ""0.0-0.0"", ""time_elapsed"": 19166, ""trial_index"": 0}"
A1768BFPFQ8AP1:339ANSOTR52NE3HVJPHFY5HPP5SIK6,1,1522869687311,"{""rt"": 7125, ""trial_type"": ""text"", ""internal_node_id"": ""0.0-2.0"", ""time_elapsed"": 27293, ""key_press"": 32, ""trial_index"": 1}"
A1CLCA00V8025R:3K4J6M3CXET36Z2EHA4NJF1D5G6AGR,0,1522869445633,"{""rt"": 14117, ""trial_type"": ""survey-text"", ""responses"": ""{\""Q0\"":\""Male\"",\""Q1\"":\""50\"",\""Q2\"":\""USA\"",\""Q3\"":\""Employed full time\"",\""Q4\"":\""1\""}"", ""internal_node_id"": ""0.0-0.0"", ""time_elapsed"": 14131, ""trial_index"": 0}"
A1CLCA00V8025R:3K4J6M3CXET36Z2EHA4NJF1D5G6AGR,1,1522869463359,"{""rt"": 16716, ""trial_type"": ""text"", ""internal_node_id"": ""0.0-1.0-0.0"", ""time_elapsed"": 31858, ""key_press"": 32, ""trial_index"": 1}"
A1CLCA00V8025R:3K4J6M3CXET36Z2EHA4NJF1D5G6AGR,2,1522869478160,"{""rt"": 13791, ""trial_type"": ""text"", ""internal_node_id"": ""0.0-1.0-1.0"", ""time_elapsed"": 46659, ""key_press"": 32, ""trial_index"": 2}"
A1CLCA00V8025R:3K4J6M3CXET36Z2EHA4NJF1D5G6AGR,3,1522869485909,"{""rt"": 6743, ""trial_type"": ""text"", ""internal_node_id"": ""0.0-1.0-2.0"", ""time_elapsed"": 54407, ""key_press"": 32, ""trial_index"": 3}"
A1CLCA00V8025R:3K4J6M3CXET36Z2EHA4NJF1D5G6AGR,4,1522869505466,"{""rt"": [7579, 5716, 1384], ""trial_type"": ""mouselab-mdp"", ""trialTime"": 18299, ""rewards"": [-2, -8, -24], ""stateRewards"": ["""", 4, -8, -48, -48, -4, 4, 24, 24, -2, -8, -24, 48], ""actionTimes"": [7588, 13856, 15790], ""trial_id"": -4569496646062697500, ""time_elapsed"": 73965, ""actions"": [""left"", ""left"", ""up""], ""trialIndex"": 0, ""score"": -36, ""trial_index"": 4, ""simulationMode"": [null, null, null], ""queries"": {""mouseover"": {""state"": {""target"": [], ""time"": []}, ""edge"": {""target"": [], ""time"": []}}, ""click"": {""state"": {""target"": [""5"", ""9""], ""time"": [1373, 4210]}, ""edge"": {""target"": [], ""time"": []}}, ""mouseout"": {""state"": {""target"": [], ""time"": []}, ""edge"": {""target"": [], ""time"": []}}}, ""path"": [""0"", ""9"", ""10"", ""11""], ""internal_node_id"": ""0.0-1.0-3.0-0.0"", ""block"": ""test""}"
A1CLCA00V8025R:3K4J6M3CXET36Z2EHA4NJF1D5G6AGR,5,1522869517755,"{""rt"": [2755, 1108, 558], ""trial_type"": ""mouselab-mdp"", ""trialTime"": 11074, ""rewards"": [-2, -4, -24], ""stateRewards"": ["""", 2, 4, -24, -48, -2, -4, -24, -24, -2, 8, 24, -24], ""actionTimes"": [2765, 4442, 5550], ""trial_id"": 11823864361136648, ""time_elapsed"": 86254, ""actions"": [""right"", ""right"", ""down""], ""trialIndex"": 1, ""score"": -30, ""trial_index"": 5, ""simulationMode"": [null, null, null], ""queries"": {""mouseover"": {""state"": {""target"": [], ""time"": []}, ""edge"": {""target"": [], ""time"": []}}, ""click"": {""state"": {""target"": [], ""time"": []}, ""edge"": {""target"": [], ""time"": []}}, ""mouseout"": {""state"": {""target"": [], ""time"": []}, ""edge"": {""target"": [], ""time"": []}}}, ""path"": [""0"", ""5"", ""6"", ""8""], ""internal_node_id"": ""0.0-1.0-3.0-1.0"", ""block"": ""test""}"
A1CLCA00V8025R:3K4J6M3CXET36Z2EHA4NJF1D5G6AGR,6,1522869530114,"{""rt"": [688, 1002, 570], ""trial_type"": ""mouselab-mdp"", ""trialTime"": 11158, ""rewards"": [-4, -8, -48], ""stateRewards"": ["""", 2, -4, 24, -48, -4, -8, -48, -48, -4, 4, -48, 48], ""actionTimes"": [699, 2253, 3369], ""trial_id"": 2118335984300500500, ""time_elapsed"": 98613, ""actions"": [""right"", ""right"", ""up""], ""trialIndex"": 2, ""score"": -60, ""trial_index"": 6, ""simulationMode"": [null, null, null], ""queries"": {""mouseover"": {""state"": {""target"": [], ""time"": []}, ""edge"": {""target"": [], ""time"": []}}, ""click"": {""state"": {""target"": [], ""time"": []}, ""edge"": {""target"": [], ""time"": []}}, ""mouseout"": {""state"": {""target"": [], ""time"": []}, ""edge"": {""target"": [], ""time"": []}}}, ""path"": [""0"", ""5"", ""6"", ""7""], ""internal_node_id"": ""0.0-1.0-3.0-2.0"", ""block"": ""test""}"
A1CLCA00V8025R:3K4J6M3CXET36Z2EHA4NJF1D5G6AGR,7,1522869541071,"{""rt"": [500, 817, 611], ""trial_type"": ""mouselab-mdp"", ""trialTime"": 9750, ""rewards"": [-4, 4, 24], ""stateRewards"": ["""", -4, 4, 24, -24, -2, 4, 48, -24, -4, -8, -48, 48], ""actionTimes"": [511, 1886, 3046], ""trial_id"": 858865579533637100, ""time_elapsed"": 109570, ""actions"": [""up"", ""up"", ""right""], ""trialIndex"": 3, ""score"": 24, ""trial_index"": 7, ""simulationMode"": [null, null, null], ""queries"": {""mouseover"": {""state"": {""target"": [], ""time"": []}, ""edge"": {""target"": [], ""time"": []}}, ""click"": {""state"": {""target"": [], ""time"": []}, ""edge"": {""target"": [], ""time"": []}}, ""mouseout"": {""state"": {""target"": [], ""time"": []}, ""edge"": {""target"": [], ""time"": []}}}, ""path"": [""0"", ""1"", ""2"", ""3""], ""internal_node_id"": ""0.0-1.0-3.0-3.0"", ""block"": ""test""}"
A1CLCA00V8025R:3K4J6M3CXET36Z2EHA4NJF1D5G6AGR,8,1522869551095,"{""rt"": [404, 576, 1704], ""trial_type"": ""mouselab-mdp"", ""trialTime"": 8225, ""rewards"": [-2, 4, -48], ""stateRewards"": ["""", -2, 4, -48, -24, 2, 4, 24, 24, -2, -4, 48, -24], ""actionTimes"": [414, 1532, 3776], ""trial_id"": 7457324294976434000, ""time_elapsed"": 119593, ""actions"": [""up"", ""up"", ""right""], ""trialIndex"": 4, ""score"": -46, ""trial_index"": 8, ""simulationMode"": [null, null, null], ""queries"": {""mouseover"": {""state"": {""target"": [], ""time"": []}, ""edge"": {""target"": [], ""time"": []}}, ""click"": {""state"": {""target"": [], ""time"": []}, ""edge"": {""target"": [], ""time"": []}}, ""mouseout"": {""state"": {""target"": [], ""time"": []}, ""edge"": {""target"": [], ""time"": []}}}, ""path"": [""0"", ""1"", ""2"", ""3""], ""internal_node_id"": ""0.0-1.0-3.0-4.0"", ""block"": ""test""}"
A1CLCA00V8025R:3K4J6M3CXET36Z2EHA4NJF1D5G6AGR,9,1522869562590,"{""rt"": [463, 477, 321], ""trial_type"": ""mouselab-mdp"", ""trialTime"": 10302, ""rewards"": [2, -4, -24], ""stateRewards"": ["""", 2, -4, 24, -24, -2, 8, 24, 48, 4, -4, 48, 48], ""actionTimes"": [472, 1482, 2359], ""trial_id"": 5246743485396079000, ""time_elapsed"": 131089, ""actions"": [""up"", ""up"", ""left""], ""trialIndex"": 5, ""score"": -26, ""trial_index"": 9, ""simulationMode"": [null, null, null], ""queries"": {""mouseover"": {""state"": {""target"": [], ""time"": []}, ""edge"": {""target"": [], ""time"": []}}, ""click"": {""state"": {""target"": [], ""time"": []}, ""edge"": {""target"": [], ""time"": []}}, ""mouseout"": {""state"": {""target"": [], ""time"": []}, ""edge"": {""target"": [], ""time"": []}}}, ""path"": [""0"", ""1"", ""2"", ""4""], ""internal_node_id"": ""0.0-1.0-3.0-5.0"", ""block"": ""test""}"
A1CLCA00V8025R:3K4J6M3CXET36Z2EHA4NJF1D5G6AGR,10,1522869574597,"{""rt"": [371, 482, 403], ""trial_type"": ""mouselab-mdp"", ""trialTime"": 10777, ""rewards"": [4, -8, 48], ""stateRewards"": ["""", -4, 4, -24, -24, -4, -8, 24, -24, 4, -8, 48, -48], ""actionTimes"": [380, 1403, 2341], ""trial_id"": 460924718031657700, ""time_elapsed"": 143096, ""actions"": [""left"", ""left"", ""up""], ""trialIndex"": 6, ""score"": 44, ""trial_index"": 10, ""simulationMode"": [null, null, null], ""queries"": {""mouseover"": {""state"": {""target"": [], ""time"": []}, ""edge"": {""target"": [], ""time"": []}}, ""click"": {""state"": {""target"": [], ""time"": []}, ""edge"": {""target"": [], ""time"": []}}, ""mouseout"": {""state"": {""target"": [], ""time"": []}, ""edge"": {""target"": [], ""time"": []}}}, ""path"": [""0"", ""9"", ""10"", ""11""], ""internal_node_id"": ""0.0-1.0-3.0-6.0"", ""block"": ""test""}"
A1CLCA00V8025R:3K4J6M3CXET36Z2EHA4NJF1D5G6AGR,11,1522869586718,"{""rt"": [426, 594, 498], ""trial_type"": ""mouselab-mdp"", ""trialTime"": 10917, ""rewards"": [2, -8, -24], ""stateRewards"": ["""", 2, -4, 48, 24, -2, -4, 24, 24, 2, -8, -24, 24], ""actionTimes"": [436, 1586, 2623], ""trial_id"": 556601214791588500, ""time_elapsed"": 155216, ""actions"": [""left"", ""left"", ""up""], ""trialIndex"": 7, ""score"": -30, ""trial_index"": 11, ""simulationMode"": [null, null, null], ""queries"": {""mouseover"": {""state"": {""target"": [], ""time"": []}, ""edge"": {""target"": [], ""time"": []}}, ""click"": {""state"": {""target"": [], ""time"": []}, ""edge"": {""target"": [], ""time"": []}}, ""mouseout"": {""state"": {""target"": [], ""time"": []}, ""edge"": {""target"": [], ""time"": []}}}, ""path"": [""0"", ""9"", ""10"", ""11""], ""internal_node_id"": ""0.0-1.0-3.0-7.0"", ""block"": ""test""}"
A1CLCA00V8025R:3K4J6M3CXET36Z2EHA4NJF1D5G6AGR,12,1522869598564,"{""rt"": [4199, 407, 427], ""trial_type"": ""mouselab-mdp"", ""trialTime"": 9214, ""rewards"": [2, 4, -48], ""stateRewards"": ["""", 4, -4, -24, 24, 2, 4, -24, -48, 4, -8, 48, -48], ""actionTimes"": [4207, 5170, 6141], ""trial_id"": 4251687641687985000, ""time_elapsed"": 167063, ""actions"": [""right"", ""right"", ""down""], ""trialIndex"": 8, ""score"": -43, ""trial_index"": 12, ""simulationMode"": [null, null, null], ""queries"": {""mouseover"": {""state"": {""target"": [], ""time"": []}, ""edge"": {""target"": [], ""time"": []}}, ""click"": {""state"": {""target"": [""5""], ""time"": [2963]}, ""edge"": {""target"": [], ""time"": []}}, ""mouseout"": {""state"": {""target"": [], ""time"": []}, ""edge"": {""target"": [], ""time"": []}}}, ""path"": [""0"", ""5"", ""6"", ""8""], ""internal_node_id"": ""0.0-1.0-3.0-8.0"", ""block"": ""test""}"
A1CLCA00V8025R:3K4J6M3CXET36Z2EHA4NJF1D5G6AGR,13,1522869608555,"{""rt"": [1418, 338, 269], ""trial_type"": ""mouselab-mdp"", ""trialTime"": 8794, ""rewards"": [2, 8, -24], ""stateRewards"": ["""", 2, 8, -48, -24, 2, 8, -24, -48, 4, -4, 24, -48], ""actionTimes"": [1429, 2306, 3121], ""trial_id"": 495354184512700500, ""time_elapsed"": 177054, ""actions"": [""right"", ""right"", ""up""], ""trialIndex"": 9, ""score"": -14, ""trial_index"": 13, ""simulationMode"": [null, null, null], ""queries"": {""mouseover"": {""state"": {""target"": [], ""time"": []}, ""edge"": {""target"": [], ""time"": []}}, ""click"": {""state"": {""target"": [], ""time"": []}, ""edge"": {""target"": [], ""time"": []}}, ""mouseout"": {""state"": {""target"": [], ""time"": []}, ""edge"": {""target"": [], ""time"": []}}}, ""path"": [""0"", ""5"", ""6"", ""7""], ""internal_node_id"": ""0.0-1.0-3.0-9.0"", ""block"": ""test""}"
A1CLCA00V8025R:3K4J6M3CXET36Z2EHA4NJF1D5G6AGR,14,1522869618401,"{""rt"": [2104, 305, 169], ""trial_type"": ""mouselab-mdp"", ""trialTime"": 8660, ""rewards"": [-2, -4, -48], ""stateRewards"": ["""", -2, -4, -48, -48, 2, -8, -24, -24, 2, 4, 24, 24], ""actionTimes"": [2114, 2961, 3675], ""trial_id"": -7656966127788694000, ""time_elapsed"": 186900, ""actions"": [""up"", ""up"", ""left""], ""trialIndex"": 10, ""score"": -55, ""trial_index"": 14, ""simulationMode"": [null, null, null], ""queries"": {""mouseover"": {""state"": {""target"": [], ""time"": []}, ""edge"": {""target"": [], ""time"": []}}, ""click"": {""state"": {""target"": [""3""], ""time"": [649]}, ""edge"": {""target"": [], ""time"": []}}, ""mouseout"": {""state"": {""target"": [], ""time"": []}, ""edge"": {""target"": [], ""time"": []}}}, ""path"": [""0"", ""1"", ""2"", ""4""], ""internal_node_id"": ""0.0-1.0-3.0-10.0"", ""block"": ""test""}"
A1CLCA00V8025R:3K4J6M3CXET36Z2EHA4NJF1D5G6AGR,15,1522869628760,"{""rt"": [1546, 262, 216], ""trial_type"": ""mouselab-mdp"", ""trialTime"": 9158, ""rewards"": [4, -4, -48], ""stateRewards"": ["""", 4, -4, -48, -48, 4, 8, 24, -24, -2, 8, 48, -48], ""actionTimes"": [1554, 2360, 3115], ""trial_id"": -6978553059181346000, ""time_elapsed"": 197259, ""actions"": [""up"", ""up"", ""left""], ""trialIndex"": 11, ""score"": -49, ""trial_index"": 15, ""simulationMode"": [null, null, null], ""queries"": {""mouseover"": {""state"": {""target"": [], ""time"": []}, ""edge"": {""target"": [], ""time"": []}}, ""click"": {""state"": {""target"": [""3""], ""time"": [368]}, ""edge"": {""target"": [], ""time"": []}}, ""mouseout"": {""state"": {""target"": [], ""time"": []}, ""edge"": {""target"": [], ""time"": []}}}, ""path"": [""0"", ""1"", ""2"", ""4""], ""internal_node_id"": ""0.0-1.0-3.0-11.0"", ""block"": ""test""}"
A1CLCA00V8025R:3K4J6M3CXET36Z2EHA4NJF1D5G6AGR,16,1522869639358,"{""rt"": [1721, 214, 91], ""trial_type"": ""mouselab-mdp"", ""trialTime"": 9408, ""rewards"": [2, 4, -24], ""stateRewards"": ["""", 2, 4, 24, -24, 4, 8, 24, -24, 4, 4, 24, 48], ""actionTimes"": [1730, 2497, 3140], ""trial_id"": 5959115827255457000, ""time_elapsed"": 207857, ""actions"": [""up"", ""up"", ""left""], ""trialIndex"": 12, ""score"": -19, ""trial_index"": 16, ""simulationMode"": [null, null, null], ""queries"": {""mouseover"": {""state"": {""target"": [], ""time"": []}, ""edge"": {""target"": [], ""time"": []}}, ""click"": {""state"": {""target"": [""3""], ""time"": [486]}, ""edge"": {""target"": [], ""time"": []}}, ""mouseout"": {""state"": {""target"": [], ""time"": []}, ""edge"": {""target"": [], ""time"": []}}}, ""path"": [""0"", ""1"", ""2"", ""4""], ""internal_node_id"": ""0.0-1.0-3.0-12.0"", ""block"": ""test""}"
A1CLCA00V8025R:3K4J6M3CXET36Z2EHA4NJF1D5G6AGR,17,1522869650895,"{""rt"": [1878, 252, 121], ""trial_type"": ""mouselab-mdp"", ""trialTime"": 10335, ""rewards"": [-4, 8, 48], ""stateRewards"": ["""", -2, 8, -24, 24, -4, 8, 48, 24, -2, -4, 24, -48], ""actionTimes"": [1888, 2692, 3361], ""trial_id"": 2561475919526080000, ""time_elapsed"": 219394, ""actions"": [""right"", ""right"", ""up""], ""trialIndex"": 13, ""score"": 51, ""trial_index"": 17, ""simulationMode"": [null, null, null], ""queries"": {""mouseover"": {""state"": {""target"": [], ""time"": []}, ""edge"": {""target"": [], ""time"": []}}, ""click"": {""state"": {""target"": [""12""], ""time"": [632]}, ""edge"": {""target"": [], ""time"": []}}, ""mouseout"": {""state"": {""target"": [], ""time"": []}, ""edge"": {""target"": [], ""time"": []}}}, ""path"": [""0"", ""5"", ""6"", ""7""], ""internal_node_id"": ""0.0-1.0-3.0-13.0"", ""block"": ""test""}"
A1CLCA00V8025R:3K4J6M3CXET36Z2EHA4NJF1D5G6AGR,18,1522869660677,"{""rt"": [1245, 158, 59], ""trial_type"": ""mouselab-mdp"", ""trialTime"": 8548, ""rewards"": [2, 4, 24], ""stateRewards"": ["""", -2, 8, 24, -48, 2, 4, -24, 24, -2, -8, 48, -24], ""actionTimes"": [1255, 1947, 2547], ""trial_id"": 6282558609452272000, ""time_elapsed"": 229176, ""actions"": [""right"", ""right"", ""down""], ""trialIndex"": 14, ""score"": 29, ""trial_index"": 18, ""simulationMode"": [null, null, null], ""queries"": {""mouseover"": {""state"": {""target"": [], ""time"": []}, ""edge"": {""target"": [], ""time"": []}}, ""click"": {""state"": {""target"": [""4""], ""time"": [423]}, ""edge"": {""target"": [], ""time"": []}}, ""mouseout"": {""state"": {""target"": [], ""time"": []}, ""edge"": {""target"": [], ""time"": []}}}, ""path"": [""0"", ""5"", ""6"", ""8""], ""internal_node_id"": ""0.0-1.0-3.0-14.0"", ""block"": ""test""}"
A1CLCA00V8025R:3K4J6M3CXET36Z2EHA4NJF1D5G6AGR,19,1522869671259,"{""rt"": [1278, 131, 58], ""trial_type"": ""mouselab-mdp"", ""trialTime"": 9483, ""rewards"": [-4, 8, -48], ""stateRewards"": ["""", -4, 8, -24, -48, -4, 8, -48, 48, 4, -8, -24, 48], ""actionTimes"": [1284, 1973, 2567], ""trial_id"": -1414845178968030700, ""time_elapsed"": 239758, ""actions"": [""right"", ""right"", ""up""], ""trialIndex"": 15, ""score"": -45, ""trial_index"": 19, ""simulationMode"": [null, null, null], ""queries"": {""mouseover"": {""state"": {""target"": [], ""time"": []}, ""edge"": {""target"": [], ""time"": []}}, ""click"": {""state"": {""target"": [""11""], ""time"": [631]}, ""edge"": {""target"": [], ""time"": []}}, ""mouseout"": {""state"": {""target"": [], ""time"": []}, ""edge"": {""target"": [], ""time"": []}}}, ""path"": [""0"", ""5"", ""6"", ""7""], ""internal_node_id"": ""0.0-1.0-3.0-15.0"", ""block"": ""test""}"
A1CLCA00V8025R:3K4J6M3CXET36Z2EHA4NJF1D5G6AGR,20,1522869681845,"{""rt"": [968, 199, 159], ""trial_type"": ""mouselab-mdp"", ""trialTime"": 9400, ""rewards"": [-2, -4, 48], ""stateRewards"": ["""", -2, -4, 48, -24, 2, -4, 48, 24, -2, -8, -24, -24], ""actionTimes"": [978, 1722, 2432], ""trial_id"": 2593864447454748000, ""time_elapsed"": 250344, ""actions"": [""up"", ""up"", ""right""], ""trialIndex"": 16, ""score"": 42, ""trial_index"": 20, ""simulationMode"": [null, null, null], ""queries"": {""mouseover"": {""state"": {""target"": [], ""time"": []}, ""edge"": {""target"": [], ""time"": []}}, ""click"": {""state"": {""target"": [], ""time"": []}, ""edge"": {""target"": [], ""time"": []}}, ""mouseout"": {""state"": {""target"": [], ""time"": []}, ""edge"": {""target"": [], ""time"": []}}}, ""path"": [""0"", ""1"", ""2"", ""3""], ""internal_node_id"": ""0.0-1.0-3.0-16.0"", ""block"": ""test""}"
A1CLCA00V8025R:3K4J6M3CXET36Z2EHA4NJF1D5G6AGR,21,1522869691778,"{""rt"": [341, 61, 275], ""trial_type"": ""mouselab-mdp"", ""trialTime"": 8741, ""rewards"": [4, -4, 24], ""stateRewards"": ["""", -2, -4, 24, -48, -4, 8, -24, -24, 4, -4, -48, 24], ""actionTimes"": [351, 962, 1759], ""trial_id"": 1399303655934214400, ""time_elapsed"": 260276, ""actions"": [""left"", ""left"", ""down""], ""trialIndex"": 17, ""score"": 24, ""trial_index"": 21, ""simulationMode"": [null, null, null], ""queries"": {""mouseover"": {""state"": {""target"": [], ""time"": []}, ""edge"": {""target"": [], ""time"": []}}, ""click"": {""state"": {""target"": [], ""time"": []}, ""edge"": {""target"": [], ""time"": []}}, ""mouseout"": {""state"": {""target"": [], ""time"": []}, ""edge"": {""target"": [], ""time"": []}}}, ""path"": [""0"", ""9"", ""10"", ""12""], ""internal_node_id"": ""0.0-1.0-3.0-17.0"", ""block"": ""test""}"
A1CLCA00V8025R:3K4J6M3CXET36Z2EHA4NJF1D5G6AGR,22,1522869702410,"{""rt"": [457, 122, 64], ""trial_type"": ""mouselab-mdp"", ""trialTime"": 9534, ""rewards"": [4, 4, -48], ""stateRewards"": ["""", 4, 4, 48, -48, -2, -8, 48, -24, -4, -8, 24, -48], ""actionTimes"": [463, 1133, 1726], ""trial_id"": -4670080337334774000, ""time_elapsed"": 270909, ""actions"": [""up"", ""up"", ""left""], ""trialIndex"": 18, ""score"": -40, ""trial_index"": 22, ""simulationMode"": [null, null, null], ""queries"": {""mouseover"": {""state"": {""target"": [], ""time"": []}, ""edge"": {""target"": [], ""time"": []}}, ""click"": {""state"": {""target"": [], ""time"": []}, ""edge"": {""target"": [], ""time"": []}}, ""mouseout"": {""state"": {""target"": [], ""time"": []}, ""edge"": {""target"": [], ""time"": []}}}, ""path"": [""0"", ""1"", ""2"", ""4""], ""internal_node_id"": ""0.0-1.0-3.0-18.0"", ""block"": ""test""}"
A1CLCA00V8025R:3K4J6M3CXET36Z2EHA4NJF1D5G6AGR,23,1522869712934,"{""rt"": [871, 237, 121], ""trial_type"": ""mouselab-mdp"", ""trialTime"": 9325, ""rewards"": [-2, -4, 24], ""stateRewards"": ["""", 4, -4, -48, 24, -2, -4, 24, 48, 4, -4, 48, -48], ""actionTimes"": [880, 1668, 2319], ""trial_id"": 320588371626771840, ""time_elapsed"": 281433, ""actions"": [""right"", ""right"", ""up""], ""trialIndex"": 19, ""score"": 18, ""trial_index"": 23, ""simulationMode"": [null, null, null], ""queries"": {""mouseover"": {""state"": {""target"": [], ""time"": []}, ""edge"": {""target"": [], ""time"": []}}, ""click"": {""state"": {""target"": [], ""time"": []}, ""edge"": {""target"": [], ""time"": []}}, ""mouseout"": {""state"": {""target"": [], ""time"": []}, ""edge"": {""target"": [], ""time"": []}}}, ""path"": [""0"", ""5"", ""6"", ""7""], ""internal_node_id"": ""0.0-1.0-3.0-19.0"", ""block"": ""test""}"
A1CLCA00V8025R:3K4J6M3CXET36Z2EHA4NJF1D5G6AGR,24,1522869724952,"{""rt"": [2868, 124, 368], ""trial_type"": ""mouselab-mdp"", ""trialTime"": 10821, ""rewards"": [-2, 4, 24], ""stateRewards"": ["""", -2, 4, 48, 24, -4, 8, -48, 24, 4, -8, 24, 24], ""actionTimes"": [2878, 3551, 4462], ""trial_id"": -1461775893828862000, ""time_elapsed"": 293450, ""actions"": [""up"", ""up"", ""left""], ""trialIndex"": 20, ""score"": 25, ""trial_index"": 24, ""simulationMode"": [null, null, null], ""queries"": {""mouseover"": {""state"": {""target"": [], ""time"": []}, ""edge"": {""target"": [], ""time"": []}}, ""click"": {""state"": {""target"": [""4""], ""time"": [730]}, ""edge"": {""target"": [], ""time"": []}}, ""mouseout"": {""state"": {""target"": [], ""time"": []}, ""edge"": {""target"": [], ""time"": []}}}, ""path"": [""0"", ""1"", ""2"", ""4""], ""internal_node_id"": ""0.0-1.0-3.0-20.0"", ""block"": ""test""}"
A1CLCA00V8025R:3K4J6M3CXET36Z2EHA4NJF1D5G6AGR,25,1522869735425,"{""rt"": [2652, 251, 177], ""trial_type"": ""mouselab-mdp"", ""trialTime"": 9287, ""rewards"": [-4, -4, -48], ""stateRewards"": ["""", -4, -4, -48, -48, -2, -8, 24, 48, 2, 4, -24, -48], ""actionTimes"": [2662, 3470, 4181], ""trial_id"": -1848243683464450000, ""time_elapsed"": 303924, ""actions"": [""up"", ""up"", ""right""], ""trialIndex"": 21, ""score"": -57, ""trial_index"": 25, ""simulationMode"": [null, null, null], ""queries"": {""mouseover"": {""state"": {""target"": [], ""time"": []}, ""edge"": {""target"": [], ""time"": []}}, ""click"": {""state"": {""target"": [""11""], ""time"": [550]}, ""edge"": {""target"": [], ""time"": []}}, ""mouseout"": {""state"": {""target"": [], ""time"": []}, ""edge"": {""target"": [], ""time"": []}}}, ""path"": [""0"", ""1"", ""2"", ""3""], ""internal_node_id"": ""0.0-1.0-3.0-21.0"", ""block"": ""test""}"
A1CLCA00V8025R:3K4J6M3CXET36Z2EHA4NJF1D5G6AGR,26,1522869745861,"{""rt"": [1818, 177, 270], ""trial_type"": ""mouselab-mdp"", ""trialTime"": 9239, ""rewards"": [-4, -4, 24], ""stateRewards"": ["""", -4, -8, -48, -48, -4, -4, 48, 24, 4, 4, 48, -48], ""actionTimes"": [1828, 2546, 3357], ""trial_id"": -9063084800167141000, ""time_elapsed"": 314360, ""actions"": [""right"", ""right"", ""down""], ""trialIndex"": 22, ""score"": 15, ""trial_index"": 26, ""simulationMode"": [null, null, null], ""queries"": {""mouseover"": {""state"": {""target"": [], ""time"": []}, ""edge"": {""target"": [], ""time"": []}}, ""click"": {""state"": {""target"": [""8""], ""time"": [1092]}, ""edge"": {""target"": [], ""time"": []}}, ""mouseout"": {""state"": {""target"": [], ""time"": []}, ""edge"": {""target"": [], ""time"": []}}}, ""path"": [""0"", ""5"", ""6"", ""8""], ""internal_node_id"": ""0.0-1.0-3.0-22.0"", ""block"": ""test""}"
A1CLCA00V8025R:3K4J6M3CXET36Z2EHA4NJF1D5G6AGR,27,1522869756119,"{""rt"": [1162, 683, 318], ""trial_type"": ""mouselab-mdp"", ""trialTime"": 9044, ""rewards"": [-2, -4, 24], ""stateRewards"": ["""", 4, 4, -48, 48, -2, 4, -48, -24, -2, -4, -48, 24], ""actionTimes"": [1170, 2401, 3270], ""trial_id"": -5006809819184351000, ""time_elapsed"": 324618, ""actions"": [""left"", ""left"", ""down""], ""trialIndex"": 23, ""score"": 17, ""trial_index"": 27, ""simulationMode"": [null, null, null], ""queries"": {""mouseover"": {""state"": {""target"": [], ""time"": []}, ""edge"": {""target"": [], ""time"": []}}, ""click"": {""state"": {""target"": [""12""], ""time"": [379]}, ""edge"": {""target"": [], ""time"": []}}, ""mouseout"": {""state"": {""target"": [], ""time"": []}, ""edge"": {""target"": [], ""time"": []}}}, ""path"": [""0"", ""9"", ""10"", ""12""], ""internal_node_id"": ""0.0-1.0-3.0-23.0"", ""block"": ""test""}"
A1CLCA00V8025R:3K4J6M3CXET36Z2EHA4NJF1D5G6AGR,28,1522869765612,"{""rt"": [1348, 215, 88], ""trial_type"": ""mouselab-mdp"", ""trialTime"": 8297, ""rewards"": [2, 4, 48], ""stateRewards"": ["""", 2, 4, -48, 48, -4, 4, -48, -48, 2, -4, 24, 48], ""actionTimes"": [1358, 2110, 2751], ""trial_id"": -5849434166602758000, ""time_elapsed"": 334111, ""actions"": [""up"", ""up"", ""left""], ""trialIndex"": 24, ""score"": 53, ""trial_index"": 28, ""simulationMode"": [null, null, null], ""queries"": {""mouseover"": {""state"": {""target"": [], ""time"": []}, ""edge"": {""target"": [], ""time"": []}}, ""click"": {""state"": {""target"": [""3""], ""time"": [570]}, ""edge"": {""target"": [], ""time"": []}}, ""mouseout"": {""state"": {""target"": [], ""time"": []}, ""edge"": {""target"": [], ""time"": []}}}, ""path"": [""0"", ""1"", ""2"", ""4""], ""internal_node_id"": ""0.0-1.0-3.0-24.0"", ""block"": ""test""}"
A1CLCA00V8025R:3K4J6M3CXET36Z2EHA4NJF1D5G6AGR,29,1522869776776,"{""rt"": [3202, 142, 100], ""trial_type"": ""mouselab-mdp"", ""trialTime"": 10064, ""rewards"": [-2, -4, 48], ""stateRewards"": ["""", -4, 4, 24, 24, -2, -4, 48, -24, -4, 8, -48, 48], ""actionTimes"": [3207, 3892, 4533], ""trial_id"": -4874666135804490000, ""time_elapsed"": 345275, ""actions"": [""right"", ""right"", ""up""], ""trialIndex"": 25, ""score"": 40, ""trial_index"": 29, ""simulationMode"": [null, null, null], ""queries"": {""mouseover"": {""state"": {""target"": [], ""time"": []}, ""edge"": {""target"": [], ""time"": []}}, ""click"": {""state"": {""target"": [""6"", ""7""], ""time"": [843, 1942]}, ""edge"": {""target"": [], ""time"": []}}, ""mouseout"": {""state"": {""target"": [], ""time"": []}, ""edge"": {""target"": [], ""time"": []}}}, ""path"": [""0"", ""5"", ""6"", ""7""], ""internal_node_id"": ""0.0-1.0-3.0-25.0"", ""block"": ""test""}"
A1CLCA00V8025R:3K4J6M3CXET36Z2EHA4NJF1D5G6AGR,30,1522869787264,"{""rt"": [1729, 233, 213], ""trial_type"": ""mouselab-mdp"", ""trialTime"": 9291, ""rewards"": [-2, 8, 48], ""stateRewards"": ["""", 2, 4, -48, -24, -4, -8, 24, -48, -2, 8, 48, -24], ""actionTimes"": [1739, 2505, 3253], ""trial_id"": -8806789642961306000, ""time_elapsed"": 355763, ""actions"": [""left"", ""left"", ""up""], ""trialIndex"": 26, ""score"": 53, ""trial_index"": 30, ""simulationMode"": [null, null, null], ""queries"": {""mouseover"": {""state"": {""target"": [], ""time"": []}, ""edge"": {""target"": [], ""time"": []}}, ""click"": {""state"": {""target"": [""11""], ""time"": [418]}, ""edge"": {""target"": [], ""time"": []}}, ""mouseout"": {""state"": {""target"": [], ""time"": []}, ""edge"": {""target"": [], ""time"": []}}}, ""path"": [""0"", ""9"", ""10"", ""11""], ""internal_node_id"": ""0.0-1.0-3.0-26.0"", ""block"": ""test""}"
A1CLCA00V8025R:3K4J6M3CXET36Z2EHA4NJF1D5G6AGR,31,1522869797837,"{""rt"": [2486, 170, 85], ""trial_type"": ""mouselab-mdp"", ""trialTime"": 9365, ""rewards"": [2, 8, 48], ""stateRewards"": ["""", 2, 8, 48, -24, -4, -4, -48, 24, -4, -8, -48, -24], ""actionTimes"": [2496, 3195, 3809], ""trial_id"": 2372710761025483000, ""time_elapsed"": 366336, ""actions"": [""up"", ""up"", ""right""], ""trialIndex"": 27, ""score"": 56, ""trial_index"": 31, ""simulationMode"": [null, null, null], ""queries"": {""mouseover"": {""state"": {""target"": [], ""time"": []}, ""edge"": {""target"": [], ""time"": []}}, ""click"": {""state"": {""target"": [""4"", ""3""], ""time"": [490, 1266]}, ""edge"": {""target"": [], ""time"": []}}, ""mouseout"": {""state"": {""target"": [], ""time"": []}, ""edge"": {""target"": [], ""time"": []}}}, ""path"": [""0"", ""1"", ""2"", ""3""], ""internal_node_id"": ""0.0-1.0-3.0-27.0"", ""block"": ""test""}"
A1CLCA00V8025R:3K4J6M3CXET36Z2EHA4NJF1D5G6AGR,32,1522869811063,"{""rt"": [8230, 321, 321], ""trial_type"": ""mouselab-mdp"", ""trialTime"": 12017, ""rewards"": [2, 4, 24], ""stateRewards"": ["""", 2, 4, -24, 24, 4, 8, -48, -48, -4, -4, -48, -24], ""actionTimes"": [8237, 9107, 9975], ""trial_id"": -7784032825751816000, ""time_elapsed"": 379562, ""actions"": [""up"", ""up"", ""left""], ""trialIndex"": 28, ""score"": 24, ""trial_index"": 32, ""simulationMode"": [null, null, null], ""queries"": {""mouseover"": {""state"": {""target"": [], ""time"": []}, ""edge"": {""target"": [], ""time"": []}}, ""click"": {""state"": {""target"": [""12"", ""11"", ""4"", ""3"", ""7"", ""8""], ""time"": [461, 1262, 1975, 2682, 3428, 4218]}, ""edge"": {""target"": [], ""time"": []}}, ""mouseout"": {""state"": {""target"": [], ""time"": []}, ""edge"": {""target"": [], ""time"": []}}}, ""path"": [""0"", ""1"", ""2"", ""4""], ""internal_node_id"": ""0.0-1.0-3.0-28.0"", ""block"": ""test""}"
A1CLCA00V8025R:3K4J6M3CXET36Z2EHA4NJF1D5G6AGR,33,1522869821630,"{""rt"": [5556, 176, 68], ""trial_type"": ""mouselab-mdp"", ""trialTime"": 9385, ""rewards"": [-4, 8, 48], ""stateRewards"": ["""", 2, 4, 24, -24, 4, -8, 48, -24, -4, 8, -48, 48], ""actionTimes"": [5565, 6296, 6906], ""trial_id"": 5010381167344479000, ""time_elapsed"": 390129, ""actions"": [""left"", ""left"", ""down""], ""trialIndex"": 29, ""score"": 48, ""trial_index"": 33, ""simulationMode"": [null, null, null], ""queries"": {""mouseover"": {""state"": {""target"": [], ""time"": []}, ""edge"": {""target"": [], ""time"": []}}, ""click"": {""state"": {""target"": [""11"", ""3"", ""4"", ""12""], ""time"": [1503, 2457, 3234, 4442]}, ""edge"": {""target"": [], ""time"": []}}, ""mouseout"": {""state"": {""target"": [], ""time"": []}, ""edge"": {""target"": [], ""time"": []}}}, ""path"": [""0"", ""9"", ""10"", ""12""], ""internal_node_id"": ""0.0-1.0-3.0-29.0"", ""block"": ""test""}"
A1CLCA00V8025R:3K4J6M3CXET36Z2EHA4NJF1D5G6AGR,34,1522869845172,"{""rt"": 22525, ""trial_type"": ""survey-multi-choice"", ""responses"": ""[\""$-4 to $4\"",\""$-48 to $48\"",\""$1\"",\""1 cent for every $1 you make in the game plus 45 cents\""]"", ""internal_node_id"": ""0.0-1.0-4.0"", ""time_elapsed"": 413671, ""questions"": ""[\""What is the range of node values in the first step?\"",\""What is the range of node values in the last step?\"",\""What is the cost of clicking?\"",\""How much REAL money do you earn?\""]"", ""correct"": null, ""trial_index"": 34}"
A1CLCA00V8025R:3K4J6M3CXET36Z2EHA4NJF1D5G6AGR,35,1522869883557,"{""rt"": 37378, ""trial_type"": ""survey-text"", ""responses"": ""{\""Q0\"":\""guessing\"",\""Q1\"":\""same\"",\""Q2\"":\""when i reached the end\"",\""Q3\"":\""right\"",\""Q4\"":\""towards the end I realized its better to pay for the sneak peek\""}"", ""internal_node_id"": ""0.0-1.0-5.0"", ""time_elapsed"": 452056, ""trial_index"": 35}"
A1CLCA00V8025R:3K4J6M3CXET36Z2EHA4NJF1D5G6AGR,36,1522869905473,"{""rt"": 20909, ""trial_type"": ""survey-text"", ""responses"": ""{\""Q0\"":\""pay a little upfront to get better results\"",\""Q1\"":\""no\"",\""Q2\"":\""no\""}"", ""internal_node_id"": ""0.0-1.0-6.0"", ""time_elapsed"": 473972, ""trial_index"": 36}"
A1CLCA00V8025R:3K4J6M3CXET36Z2EHA4NJF1D5G6AGR,37,1522869908214,"{""rt"": 1738, ""trial_type"": ""text"", ""internal_node_id"": ""0.0-2.0"", ""time_elapsed"": 476713, ""key_press"": 32, ""trial_index"": 37}"
A1H2OUZUEYPWQZ:3ND9UOO81K2GZ4JIT6XVEW3CTGVWLU,0,1522870120352,"{""rt"": 21226, ""trial_type"": ""survey-text"", ""responses"": ""{\""Q0\"":\""Female\"",\""Q1\"":\""29\"",\""Q2\"":\""United States\"",\""Q3\"":\""Self-Employed\"",\""Q4\"":\""5\""}"", ""internal_node_id"": ""0.0-0.0"", ""time_elapsed"": 21272, ""trial_index"": 0}"
A1H2OUZUEYPWQZ:3ND9UOO81K2GZ4JIT6XVEW3CTGVWLU,1,1522870126893,"{""rt"": 5530, ""trial_type"": ""text"", ""internal_node_id"": ""0.0-2.0"", ""time_elapsed"": 27813, ""key_press"": 32, ""trial_index"": 1}"
A1L00Q877QQVWP:3A4NIXBJ76ZKUSP4P4R85Y1LVEHLMS,0,1522870975854,"{""rt"": 21159, ""trial_type"": ""survey-text"", ""responses"": ""{\""Q0\"":\""non-binary\"",\""Q1\"":\""32\"",\""Q2\"":\""United States of America\"",\""Q3\"":\""Self-Employed\"",\""Q4\"":\""4\""}"", ""internal_node_id"": ""0.0-0.0"", ""time_elapsed"": 21195, ""trial_index"": 0}"
A1L00Q877QQVWP:3A4NIXBJ76ZKUSP4P4R85Y1LVEHLMS,1,1522870984827,"{""rt"": 7970, ""trial_type"": ""text"", ""internal_node_id"": ""0.0-2.0"", ""time_elapsed"": 30168, ""key_press"": 32, ""trial_index"": 1}"
A1YCUPQAMJB7K1:35LDD5557A49AM7M44F7QYO66ECKMO,0,1522870412644,"{""rt"": 12435, ""trial_type"": ""survey-text"", ""responses"": ""{\""Q0\"":\""Male\"",\""Q1\"":\""27\"",\""Q2\"":\""United States\"",\""Q3\"":\""Self-employed\"",\""Q4\"":\""3\""}"", ""internal_node_id"": ""0.0-0.0"", ""time_elapsed"": 12450, ""trial_index"": 0}"
A1YCUPQAMJB7K1:35LDD5557A49AM7M44F7QYO66ECKMO,1,1522870417003,"{""rt"": 3356, ""trial_type"": ""text"", ""internal_node_id"": ""0.0-2.0"", ""time_elapsed"": 16809, ""key_press"": 32, ""trial_index"": 1}"
A203C9REA20IT3:3KJYX6QCM9BXPPVD0BGMCF76IINVJG,0,1522869516636,"{""rt"": 28089, ""trial_type"": ""survey-text"", ""responses"": ""{\""Q0\"":\""Male\"",\""Q1\"":\""26\"",\""Q2\"":\""USA\"",\""Q3\"":\""Self-Employed\"",\""Q4\"":\""2\""}"", ""internal_node_id"": ""0.0-0.0"", ""time_elapsed"": 28105, ""trial_index"": 0}"
A203C9REA20IT3:3KJYX6QCM9BXPPVD0BGMCF76IINVJG,1,1522869519803,"{""rt"": 2153, ""trial_type"": ""text"", ""internal_node_id"": ""0.0-2.0"", ""time_elapsed"": 31272, ""key_press"": 32, ""trial_index"": 1}"
A24IJKTT6TF0Z9:3F6HPJW4JD0AYIXAJ0FQZ043NH52WE,0,1522870853514,"{""rt"": 34725, ""trial_type"": ""survey-text"", ""responses"": ""{\""Q0\"":\""Female\"",\""Q1\"":\""38\"",\""Q2\"":\""United States\"",\""Q3\"":\""Self-employed/ part-time\"",\""Q4\"":\""4\""}"", ""internal_node_id"": ""0.0-0.0"", ""time_elapsed"": 34751, ""trial_index"": 0}"
A24IJKTT6TF0Z9:3F6HPJW4JD0AYIXAJ0FQZ043NH52WE,1,1522870859184,"{""rt"": 4665, ""trial_type"": ""text"", ""internal_node_id"": ""0.0-2.0"", ""time_elapsed"": 40422, ""key_press"": 32, ""trial_index"": 1}"
A26I76BUCO0LAO:3Z3ZLGNNSIUUZ3X7BRUPQLR95TNQ36,0,1522870645532,"{""rt"": 30582, ""trial_type"": ""survey-text"", ""responses"": ""{\""Q0\"":\""Male\"",\""Q1\"":\""29\"",\""Q2\"":\""USA\"",\""Q3\"":\""Full-time Employed\"",\""Q4\"":\""2\""}"", ""internal_node_id"": ""0.0-0.0"", ""time_elapsed"": 30600, ""trial_index"": 0}"
A26I76BUCO0LAO:3Z3ZLGNNSIUUZ3X7BRUPQLR95TNQ36,1,1522870648852,"{""rt"": 2318, ""trial_type"": ""text"", ""internal_node_id"": ""0.0-2.0"", ""time_elapsed"": 33920, ""key_press"": 32, ""trial_index"": 1}"
A26Y58YECZUZZG:3LRLIPTPEQ988LYX71P2H7T6CXNKA4,0,1522870157568,"{""rt"": 10289, ""trial_type"": ""survey-text"", ""responses"": ""{\""Q0\"":\""Man\"",\""Q1\"":\""25\"",\""Q2\"":\""USA\"",\""Q3\"":\""Self employed\"",\""Q4\"":\""3\""}"", ""internal_node_id"": ""0.0-0.0"", ""time_elapsed"": 10297, ""trial_index"": 0}"
A26Y58YECZUZZG:3LRLIPTPEQ988LYX71P2H7T6CXNKA4,1,1522870161149,"{""rt"": 2580, ""trial_type"": ""text"", ""internal_node_id"": ""0.0-2.0"", ""time_elapsed"": 13879, ""key_press"": 32, ""trial_index"": 1}"
A273DS7TQWR9M1:3ZPBJO59KP1F4201LQD7UGLK5JGDHV,0,1522869658905,"{""rt"": 28753, ""trial_type"": ""survey-text"", ""responses"": ""{\""Q0\"":\""male\"",\""Q1\"":\""30\"",\""Q2\"":\""USA\"",\""Q3\"":\""Employed full time\"",\""Q4\"":\""1\""}"", ""internal_node_id"": ""0.0-0.0"", ""time_elapsed"": 28774, ""trial_index"": 0}"
A273DS7TQWR9M1:3ZPBJO59KP1F4201LQD7UGLK5JGDHV,1,1522869668839,"{""rt"": 8930, ""trial_type"": ""text"", ""internal_node_id"": ""0.0-2.0"", ""time_elapsed"": 38708, ""key_press"": 32, ""trial_index"": 1}"
A2859W7COFU82O:3JNQLM5FT4MUNOLBFM8OQPNNP90L21,0,1522869632438,"{""rt"": 13132, ""trial_type"": ""survey-text"", ""responses"": ""{\""Q0\"":\""Male\"",\""Q1\"":\""36\"",\""Q2\"":\""USA\"",\""Q3\"":\""Full-Time\"",\""Q4\"":\""1\""}"", ""internal_node_id"": ""0.0-0.0"", ""time_elapsed"": 13146, ""trial_index"": 0}"
A2859W7COFU82O:3JNQLM5FT4MUNOLBFM8OQPNNP90L21,1,1522869637982,"{""rt"": 4540, ""trial_type"": ""text"", ""internal_node_id"": ""0.0-2.0"", ""time_elapsed"": 18690, ""key_press"": 32, ""trial_index"": 1}"
A286H1M66CL5ZI:38JBBYETQOAQKWQ62E4869U10QVE43,0,1522869871549,"{""rt"": 21641, ""trial_type"": ""survey-text"", ""responses"": ""{\""Q0\"":\""female\"",\""Q1\"":\""23\"",\""Q2\"":\""USA\"",\""Q3\"":\""part time employed\"",\""Q4\"":\""6\""}"", ""internal_node_id"": ""0.0-0.0"", ""time_elapsed"": 21669, ""trial_index"": 0}"
A286H1M66CL5ZI:38JBBYETQOAQKWQ62E4869U10QVE43,1,1522869894489,"{""rt"": 21923, ""trial_type"": ""text"", ""internal_node_id"": ""0.0-1.0-0.0"", ""time_elapsed"": 44609, ""key_press"": 32, ""trial_index"": 1}"
A286H1M66CL5ZI:38JBBYETQOAQKWQ62E4869U10QVE43,2,1522869912199,"{""rt"": 16676, ""trial_type"": ""text"", ""internal_node_id"": ""0.0-1.0-1.0"", ""time_elapsed"": 62318, ""key_press"": 32, ""trial_index"": 2}"
A286H1M66CL5ZI:38JBBYETQOAQKWQ62E4869U10QVE43,3,1522869921939,"{""rt"": 8686, ""trial_type"": ""text"", ""internal_node_id"": ""0.0-1.0-2.0"", ""time_elapsed"": 72060, ""key_press"": 32, ""trial_index"": 3}"
A286H1M66CL5ZI:38JBBYETQOAQKWQ62E4869U10QVE43,4,1522869955881,"{""rt"": [26559, 1505, 1432], ""trial_type"": ""mouselab-mdp"", ""trialTime"": 32353, ""rewards"": [-2, 8, 48], ""stateRewards"": ["""", 2, -4, 24, -24, -2, 8, 24, 48, 4, -4, 48, 48], ""actionTimes"": [26585, 28589, 30531], ""trial_id"": 5246743485396079000, ""time_elapsed"": 106001, ""actions"": [""right"", ""right"", ""down""], ""trialIndex"": 0, ""score"": 42, ""trial_index"": 4, ""simulationMode"": [null, null, null], ""queries"": {""mouseover"": {""state"": {""target"": [], ""time"": []}, ""edge"": {""target"": [], ""time"": []}}, ""click"": {""state"": {""target"": [""5"", ""9"", ""1"", ""10"", ""11"", ""12"", ""2"", ""3"", ""4"", ""7"", ""6"", ""8""], ""time"": [6959, 9511, 11030, 12507, 13185, 14105, 15685, 17772, 18998, 21099, 21640, 22120]}, ""edge"": {""target"": [], ""time"": []}}, ""mouseout"": {""state"": {""target"": [], ""time"": []}, ""edge"": {""target"": [], ""time"": []}}}, ""path"": [""0"", ""5"", ""6"", ""8""], ""internal_node_id"": ""0.0-1.0-3.0-0.0"", ""block"": ""test""}"
A286H1M66CL5ZI:38JBBYETQOAQKWQ62E4869U10QVE43,5,1522869977479,"{""rt"": [12899, 316, 1720], ""trial_type"": ""mouselab-mdp"", ""trialTime"": 20300, ""rewards"": [-2, 8, 48], ""stateRewards"": ["""", 2, 8, -24, -48, -2, 8, 48, 24, 4, 8, -24, -48], ""actionTimes"": [12925, 13750, 15967], ""trial_id"": 7708577571422581000, ""time_elapsed"": 127599, ""actions"": [""right"", ""right"", ""up""], ""trialIndex"": 1, ""score"": 42, ""trial_index"": 5, ""simulationMode"": [null, null, null], ""queries"": {""mouseover"": {""state"": {""target"": [], ""time"": []}, ""edge"": {""target"": [], ""time"": []}}, ""click"": {""state"": {""target"": [""12"", ""10"", ""11"", ""9"", ""1"", ""4"", ""2"", ""3"", ""5"", ""6"", ""8"", ""7""], ""time"": [3664, 4133, 4580, 5545, 6198, 6998, 7464, 7884, 8518, 8950, 10128, 11001]}, ""edge"": {""target"": [], ""time"": []}}, ""mouseout"": {""state"": {""target"": [], ""time"": []}, ""edge"": {""target"": [], ""time"": []}}}, ""path"": [""0"", ""5"", ""6"", ""7""], ""internal_node_id"": ""0.0-1.0-3.0-1.0"", ""block"": ""test""}"
A286H1M66CL5ZI:38JBBYETQOAQKWQ62E4869U10QVE43,6,1522869994218,"{""rt"": [12214, 288, 288], ""trial_type"": ""mouselab-mdp"", ""trialTime"": 15564, ""rewards"": [4, 4, 48], ""stateRewards"": ["""", -4, -8, -48, -48, -4, -4, 48, 24, 4, 4, 48, -48], ""actionTimes"": [12235, 13032, 13813], ""trial_id"": -9063084800167141000, ""time_elapsed"": 144338, ""actions"": [""left"", ""left"", ""up""], ""trialIndex"": 2, ""score"": 44, ""trial_index"": 6, ""simulationMode"": [null, null, null], ""queries"": {""mouseover"": {""state"": {""target"": [], ""time"": []}, ""edge"": {""target"": [], ""time"": []}}, ""click"": {""state"": {""target"": [""12"", ""10"", ""11"", ""9"", ""1"", ""4"", ""2"", ""3"", ""7"", ""6"", ""8"", ""5""], ""time"": [1261, 1761, 2735, 3382, 4743, 5461, 6591, 7056, 7619, 8061, 8475, 9040]}, ""edge"": {""target"": [], ""time"": []}}, ""mouseout"": {""state"": {""target"": [], ""time"": []}, ""edge"": {""target"": [], ""time"": []}}}, ""path"": [""0"", ""9"", ""10"", ""11""], ""internal_node_id"": ""0.0-1.0-3.0-2.0"", ""block"": ""test""}"
A286H1M66CL5ZI:38JBBYETQOAQKWQ62E4869U10QVE43,7,1522870012060,"{""rt"": [13393, 400, 439], ""trial_type"": ""mouselab-mdp"", ""trialTime"": 16733, ""rewards"": [-2, 8, 48], ""stateRewards"": ["""", 4, -4, -48, -48, 4, 8, 24, -24, -2, 8, 48, -48], ""actionTimes"": [13404, 14304, 15247], ""trial_id"": -6978553059181346000, ""time_elapsed"": 162180, ""actions"": [""left"", ""left"", ""up""], ""trialIndex"": 3, ""score"": 42, ""trial_index"": 7, ""simulationMode"": [null, null, null], ""queries"": {""mouseover"": {""state"": {""target"": [], ""time"": []}, ""edge"": {""target"": [], ""time"": []}}, ""click"": {""state"": {""target"": [""12"", ""10"", ""11"", ""9"", ""5"", ""6"", ""7"", ""8"", ""1"", ""2"", ""4"", ""3""], ""time"": [4626, 5125, 5522, 6059, 6702, 7114, 7547, 8209, 9130, 9600, 10043, 10475]}, ""edge"": {""target"": [], ""time"": []}}, ""mouseout"": {""state"": {""target"": [], ""time"": []}, ""edge"": {""target"": [], ""time"": []}}}, ""path"": [""0"", ""9"", ""10"", ""11""], ""internal_node_id"": ""0.0-1.0-3.0-3.0"", ""block"": ""test""}"
A286H1M66CL5ZI:38JBBYETQOAQKWQ62E4869U10QVE43,8,1522870031773,"{""rt"": [15548, 336, 424], ""trial_type"": ""mouselab-mdp"", ""trialTime"": 18577, ""rewards"": [-2, 4, 48], ""stateRewards"": ["""", 4, -4, 48, -48, -2, -8, 24, 24, -2, 4, 48, -48], ""actionTimes"": [15556, 16389, 17313], ""trial_id"": 8045829731203394000, ""time_elapsed"": 181893, ""actions"": [""left"", ""left"", ""up""], ""trialIndex"": 4, ""score"": 38, ""trial_index"": 8, ""simulationMode"": [null, null, null], ""queries"": {""mouseover"": {""state"": {""target"": [], ""time"": []}, ""edge"": {""target"": [], ""time"": []}}, ""click"": {""state"": {""target"": [""12"", ""10"", ""11"", ""9"", ""1"", ""2"", ""4"", ""3"", ""7"", ""6"", ""5"", ""8""], ""time"": [5494, 5933, 7006, 7351, 7877, 8816, 9181, 9715, 10156, 10611, 11034, 11491]}, ""edge"": {""target"": [], ""time"": []}}, ""mouseout"": {""state"": {""target"": [], ""time"": []}, ""edge"": {""target"": [], ""time"": []}}}, ""path"": [""0"", ""9"", ""10"", ""11""], ""internal_node_id"": ""0.0-1.0-3.0-4.0"", ""block"": ""test""}"
A286H1M66CL5ZI:38JBBYETQOAQKWQ62E4869U10QVE43,9,1522870047043,"{""rt"": [11628, 120, 170], ""trial_type"": ""mouselab-mdp"", ""trialTime"": 14016, ""rewards"": [-2, 8, 24], ""stateRewards"": ["""", 2, 4, -24, -48, -2, -4, -24, -24, -2, 8, 24, -24], ""actionTimes"": [11651, 12263, 12941], ""trial_id"": 11823864361136648, ""time_elapsed"": 197161, ""actions"": [""left"", ""left"", ""up""], ""trialIndex"": 5, ""score"": 18, ""trial_index"": 9, ""simulationMode"": [null, null, null], ""queries"": {""mouseover"": {""state"": {""target"": [], ""time"": []}, ""edge"": {""target"": [], ""time"": []}}, ""click"": {""state"": {""target"": [""10"", ""12"", ""11"", ""9"", ""5"", ""7"", ""6"", ""8"", ""3"", ""2"", ""4"", ""1""], ""time"": [4605, 5284, 5688, 6350, 6853, 7264, 7681, 8163, 8996, 9577, 9932, 10376]}, ""edge"": {""target"": [], ""time"": []}}, ""mouseout"": {""state"": {""target"": [], ""time"": []}, ""edge"": {""target"": [], ""time"": []}}}, ""path"": [""0"", ""9"", ""10"", ""11""], ""internal_node_id"": ""0.0-1.0-3.0-5.0"", ""block"": ""test""}"
A286H1M66CL5ZI:38JBBYETQOAQKWQ62E4869U10QVE43,10,1522870066806,"{""rt"": [12894, 214, 169], ""trial_type"": ""mouselab-mdp"", ""trialTime"": 18520, ""rewards"": [2, 4, 24], ""stateRewards"": ["""", 2, -4, 24, -48, -2, -8, 24, -48, 2, 4, 24, -48], ""actionTimes"": [12903, 13617, 14287], ""trial_id"": 2653018761906401300, ""time_elapsed"": 216926, ""actions"": [""left"", ""left"", ""up""], ""trialIndex"": 6, ""score"": 18, ""trial_index"": 10, ""simulationMode"": [null, null, null], ""queries"": {""mouseover"": {""state"": {""target"": [], ""time"": []}, ""edge"": {""target"": [], ""time"": []}}, ""click"": {""state"": {""target"": [""12"", ""10"", ""11"", ""9"", ""1"", ""4"", ""3"", ""2"", ""5"", ""6"", ""7"", ""8""], ""time"": [3363, 3732, 4994, 5589, 6151, 6675, 8219, 9090, 9681, 10091, 10553, 11140]}, ""edge"": {""target"": [], ""time"": []}}, ""mouseout"": {""state"": {""target"": [], ""time"": []}, ""edge"": {""target"": [], ""time"": []}}}, ""path"": [""0"", ""9"", ""10"", ""11""], ""internal_node_id"": ""0.0-1.0-3.0-6.0"", ""block"": ""test""}"
A286H1M66CL5ZI:38JBBYETQOAQKWQ62E4869U10QVE43,11,1522870085316,"{""rt"": [11630, 141, 262], ""trial_type"": ""mouselab-mdp"", ""trialTime"": 17271, ""rewards"": [-2, -8, 48], ""stateRewards"": ["""", -2, 8, 24, -48, 2, 4, -24, 24, -2, -8, 48, -24], ""actionTimes"": [11644, 12286, 13061], ""trial_id"": 6282558609452272000, ""time_elapsed"": 235435, ""actions"": [""left"", ""left"", ""up""], ""trialIndex"": 7, ""score"": 26, ""trial_index"": 11, ""simulationMode"": [null, null, null], ""queries"": {""mouseover"": {""state"": {""target"": [], ""time"": []}, ""edge"": {""target"": [], ""time"": []}}, ""click"": {""state"": {""target"": [""11"", ""10"", ""12"", ""9"", ""4"", ""2"", ""1"", ""3"", ""7"", ""6"", ""5"", ""8""], ""time"": [849, 1669, 2198, 2708, 3340, 3693, 4152, 4651, 5197, 5625, 6076, 6818]}, ""edge"": {""target"": [], ""time"": []}}, ""mouseout"": {""state"": {""target"": [], ""time"": []}, ""edge"": {""target"": [], ""time"": []}}}, ""path"": [""0"", ""9"", ""10"", ""11""], ""internal_node_id"": ""0.0-1.0-3.0-7.0"", ""block"": ""test""}"
A286H1M66CL5ZI:38JBBYETQOAQKWQ62E4869U10QVE43,12,1522870100409,"{""rt"": [11321, 234, 144], ""trial_type"": ""mouselab-mdp"", ""trialTime"": 13906, ""rewards"": [-4, 4, 48], ""stateRewards"": ["""", -4, 4, 24, 24, 2, 8, -24, 24, -4, 4, -24, 48], ""actionTimes"": [11323, 12056, 12698], ""trial_id"": 5347440239323845000, ""time_elapsed"": 250529, ""actions"": [""left"", ""left"", ""down""], ""trialIndex"": 8, ""score"": 36, ""trial_index"": 12, ""simulationMode"": [null, null, null], ""queries"": {""mouseover"": {""state"": {""target"": [], ""time"": []}, ""edge"": {""target"": [], ""time"": []}}, ""click"": {""state"": {""target"": [""11"", ""10"", ""12"", ""9"", ""1"", ""4"", ""2"", ""3"", ""7"", ""6"", ""5"", ""8""], ""time"": [2344, 2799, 3257, 3940, 4388, 5824, 6384, 6895, 7397, 7895, 8559, 9081]}, ""edge"": {""target"": [], ""time"": []}}, ""mouseout"": {""state"": {""target"": [], ""time"": []}, ""edge"": {""target"": [], ""time"": []}}}, ""path"": [""0"", ""9"", ""10"", ""12""], ""internal_node_id"": ""0.0-1.0-3.0-8.0"", ""block"": ""test""}"
A286H1M66CL5ZI:38JBBYETQOAQKWQ62E4869U10QVE43,13,1522870118007,"{""rt"": [13562, 301, 88], ""trial_type"": ""mouselab-mdp"", ""trialTime"": 16417, ""rewards"": [-2, -8, 48], ""stateRewards"": ["""", -2, -8, 24, 48, -2, 8, -24, -24, -2, -4, 24, -24], ""actionTimes"": [13582, 14387, 14975], ""trial_id"": -3603402282008602000, ""time_elapsed"": 268127, ""actions"": [""up"", ""up"", ""left""], ""trialIndex"": 9, ""score"": 26, ""trial_index"": 13, ""simulationMode"": [null, null, null], ""queries"": {""mouseover"": {""state"": {""target"": [], ""time"": []}, ""edge"": {""target"": [], ""time"": []}}, ""click"": {""state"": {""target"": [""11"", ""10"", ""12"", ""9"", ""2"", ""4"", ""1"", ""3"", ""7"", ""6"", ""5"", ""8""], ""time"": [5445, 5856, 6236, 6617, 7572, 7978, 8532, 9019, 9626, 10032, 10513, 11111]}, ""edge"": {""target"": [], ""time"": []}}, ""mouseout"": {""state"": {""target"": [], ""time"": []}, ""edge"": {""target"": [], ""time"": []}}}, ""path"": [""0"", ""1"", ""2"", ""4""], ""internal_node_id"": ""0.0-1.0-3.0-9.0"", ""block"": ""test""}"
A286H1M66CL5ZI:38JBBYETQOAQKWQ62E4869U10QVE43,14,1522870135864,"{""rt"": [13600, 146, 8], ""trial_type"": ""mouselab-mdp"", ""trialTime"": 16758, ""rewards"": [-2, 8, 48], ""stateRewards"": ["""", 2, 4, -48, -24, -4, -8, 24, -48, -2, 8, 48, -24], ""actionTimes"": [13605, 14255, 14768], ""trial_id"": -8806789642961306000, ""time_elapsed"": 285982, ""actions"": [""left"", ""left"", ""up""], ""trialIndex"": 10, ""score"": 42, ""trial_index"": 14, ""simulationMode"": [null, null, null], ""queries"": {""mouseover"": {""state"": {""target"": [], ""time"": []}, ""edge"": {""target"": [], ""time"": []}}, ""click"": {""state"": {""target"": [""11"", ""10"", ""12"", ""9"", ""2"", ""4"", ""1"", ""3"", ""5"", ""6"", ""7"", ""8""], ""time"": [5090, 5520, 5893, 6440, 7792, 8511, 9063, 9577, 10287, 10660, 11074, 11729]}, ""edge"": {""target"": [], ""time"": []}}, ""mouseout"": {""state"": {""target"": [], ""time"": []}, ""edge"": {""target"": [], ""time"": []}}}, ""path"": [""0"", ""9"", ""10"", ""11""], ""internal_node_id"": ""0.0-1.0-3.0-10.0"", ""block"": ""test""}"
A286H1M66CL5ZI:38JBBYETQOAQKWQ62E4869U10QVE43,15,1522870153203,"{""rt"": [13318, 201, 121], ""trial_type"": ""mouselab-mdp"", ""trialTime"": 16214, ""rewards"": [4, 8, 48], ""stateRewards"": ["""", 4, 8, -24, 48, 2, 8, -48, -48, 2, -4, 24, -48], ""actionTimes"": [13338, 14047, 14665], ""trial_id"": -6668518537832265000, ""time_elapsed"": 303320, ""actions"": [""up"", ""up"", ""left""], ""trialIndex"": 11, ""score"": 48, ""trial_index"": 15, ""simulationMode"": [null, null, null], ""queries"": {""mouseover"": {""state"": {""target"": [], ""time"": []}, ""edge"": {""target"": [], ""time"": []}}, ""click"": {""state"": {""target"": [""12"", ""10"", ""11"", ""9"", ""1"", ""2"", ""4"", ""3"", ""7"", ""6"", ""5"", ""8""], ""time"": [5480, 5945, 6360, 6796, 7374, 8124, 8623, 9114, 9730, 10176, 10841, 12151]}, ""edge"": {""target"": [], ""time"": []}}, ""mouseout"": {""state"": {""target"": [], ""time"": []}, ""edge"": {""target"": [], ""time"": []}}}, ""path"": [""0"", ""1"", ""2"", ""4""], ""internal_node_id"": ""0.0-1.0-3.0-11.0"", ""block"": ""test""}"
A286H1M66CL5ZI:38JBBYETQOAQKWQ62E4869U10QVE43,16,1522870179151,"{""rt"": [10233, 84, 34], ""trial_type"": ""mouselab-mdp"", ""trialTime"": 24807, ""rewards"": [2, 4, 24], ""stateRewards"": ["""", 2, 4, -24, 24, 4, 8, -48, -48, -4, -4, -48, -24], ""actionTimes"": [10238, 10821, 11355], ""trial_id"": -7784032825751816000, ""time_elapsed"": 329271, ""actions"": [""up"", ""up"", ""left""], ""trialIndex"": 12, ""score"": 18, ""trial_index"": 16, ""simulationMode"": [null, null, null], ""queries"": {""mouseover"": {""state"": {""target"": [], ""time"": []}, ""edge"": {""target"": [], ""time"": []}}, ""click"": {""state"": {""target"": [""10"", ""12"", ""11"", ""9"", ""1"", ""4"", ""2"", ""3"", ""7"", ""6"", ""8"", ""5""], ""time"": [3650, 4038, 4480, 5221, 5736, 6428, 6798, 7204, 7660, 8068, 8494, 9181]}, ""edge"": {""target"": [], ""time"": []}}, ""mouseout"": {""state"": {""target"": [], ""time"": []}, ""edge"": {""target"": [], ""time"": []}}}, ""path"": [""0"", ""1"", ""2"", ""4""], ""internal_node_id"": ""0.0-1.0-3.0-12.0"", ""block"": ""test""}"
A286H1M66CL5ZI:38JBBYETQOAQKWQ62E4869U10QVE43,17,1522870196242,"{""rt"": [9668, 183, 153], ""trial_type"": ""mouselab-mdp"", ""trialTime"": 15675, ""rewards"": [4, -4, 24], ""stateRewards"": ["""", 2, 8, -48, -24, 2, 8, -24, -48, 4, -4, 24, -48], ""actionTimes"": [9711, 10403, 11057], ""trial_id"": 495354184512700500, ""time_elapsed"": 346361, ""actions"": [""left"", ""left"", ""up""], ""trialIndex"": 13, ""score"": 12, ""trial_index"": 17, ""simulationMode"": [null, null, null], ""queries"": {""mouseover"": {""state"": {""target"": [], ""time"": []}, ""edge"": {""target"": [], ""time"": []}}, ""click"": {""state"": {""target"": [""12"", ""11"", ""10"", ""9"", ""1"", ""4"", ""2"", ""3"", ""7"", ""6"", ""5"", ""8""], ""time"": [2924, 3560, 4072, 4470, 5070, 5531, 5884, 6195, 6760, 7131, 7520, 8448]}, ""edge"": {""target"": [], ""time"": []}}, ""mouseout"": {""state"": {""target"": [], ""time"": []}, ""edge"": {""target"": [], ""time"": []}}}, ""path"": [""0"", ""9"", ""10"", ""11""], ""internal_node_id"": ""0.0-1.0-3.0-13.0"", ""block"": ""test""}"
A286H1M66CL5ZI:38JBBYETQOAQKWQ62E4869U10QVE43,18,1522870209284,"{""rt"": [8629, 293, 65], ""trial_type"": ""mouselab-mdp"", ""trialTime"": 11836, ""rewards"": [4, -8, 48], ""stateRewards"": ["""", 4, -4, -24, 24, 2, 4, -24, -48, 4, -8, 48, -48], ""actionTimes"": [8633, 9434, 10007], ""trial_id"": 4251687641687985000, ""time_elapsed"": 359404, ""actions"": [""left"", ""left"", ""up""], ""trialIndex"": 14, ""score"": 32, ""trial_index"": 18, ""simulationMode"": [null, null, null], ""queries"": {""mouseover"": {""state"": {""target"": [], ""time"": []}, ""edge"": {""target"": [], ""time"": []}}, ""click"": {""state"": {""target"": [""12"", ""10"", ""11"", ""9"", ""1"", ""4"", ""2"", ""3"", ""7"", ""6"", ""5"", ""8""], ""time"": [1560, 2410, 2765, 3252, 3733, 4219, 4874, 5219, 5756, 6194, 6625, 7325]}, ""edge"": {""target"": [], ""time"": []}}, ""mouseout"": {""state"": {""target"": [], ""time"": []}, ""edge"": {""target"": [], ""time"": []}}}, ""path"": [""0"", ""9"", ""10"", ""11""], ""internal_node_id"": ""0.0-1.0-3.0-14.0"", ""block"": ""test""}"
A286H1M66CL5ZI:38JBBYETQOAQKWQ62E4869U10QVE43,19,1522870228489,"{""rt"": [15425, 230, 69], ""trial_type"": ""mouselab-mdp"", ""trialTime"": 18019, ""rewards"": [2, -4, 24], ""stateRewards"": ["""", 2, -4, 24, 24, -4, 4, -24, -24, -2, 4, -24, -48], ""actionTimes"": [15434, 16168, 16745], ""trial_id"": 7862543089384343000, ""time_elapsed"": 378609, ""actions"": [""up"", ""up"", ""right""], ""trialIndex"": 15, ""score"": 10, ""trial_index"": 19, ""simulationMode"": [null, null, null], ""queries"": {""mouseover"": {""state"": {""target"": [], ""time"": []}, ""edge"": {""target"": [], ""time"": []}}, ""click"": {""state"": {""target"": [""12"", ""10"", ""11"", ""9"", ""1"", ""2"", ""4"", ""3"", ""5"", ""6"", ""7"", ""8""], ""time"": [2369, 2737, 3149, 3581, 4050, 4436, 4790, 5207, 5610, 5910, 6212, 6625]}, ""edge"": {""target"": [], ""time"": []}}, ""mouseout"": {""state"": {""target"": [], ""time"": []}, ""edge"": {""target"": [], ""time"": []}}}, ""path"": [""0"", ""1"", ""2"", ""3""], ""internal_node_id"": ""0.0-1.0-3.0-15.0"", ""block"": ""test""}"
A286H1M66CL5ZI:38JBBYETQOAQKWQ62E4869U10QVE43,20,1522870243191,"{""rt"": [10628, 99, 156], ""trial_type"": ""mouselab-mdp"", ""trialTime"": 13529, ""rewards"": [2, 4, 48], ""stateRewards"": ["""", -2, -4, 48, 24, 2, 4, -48, 48, -4, 4, 48, 24], ""actionTimes"": [10638, 11243, 11902], ""trial_id"": 7946552191512982000, ""time_elapsed"": 393311, ""actions"": [""right"", ""right"", ""down""], ""trialIndex"": 16, ""score"": 42, ""trial_index"": 20, ""simulationMode"": [null, null, null], ""queries"": {""mouseover"": {""state"": {""target"": [], ""time"": []}, ""edge"": {""target"": [], ""time"": []}}, ""click"": {""state"": {""target"": [""10"", ""12"", ""9"", ""11"", ""1"", ""2"", ""4"", ""3"", ""7"", ""6"", ""5"", ""8""], ""time"": [2328, 2696, 3123, 3524, 4080, 4768, 5410, 5910, 6282, 6619, 6970, 7511]}, ""edge"": {""target"": [], ""time"": []}}, ""mouseout"": {""state"": {""target"": [], ""time"": []}, ""edge"": {""target"": [], ""time"": []}}}, ""path"": [""0"", ""5"", ""6"", ""8""], ""internal_node_id"": ""0.0-1.0-3.0-16.0"", ""block"": ""test""}"
A286H1M66CL5ZI:38JBBYETQOAQKWQ62E4869U10QVE43,21,1522870258153,"{""rt"": [9002, 1752, 58], ""trial_type"": ""mouselab-mdp"", ""trialTime"": 13606, ""rewards"": [-4, 8, 48], ""stateRewards"": ["""", -4, 4, 24, 24, -2, -4, 48, -24, -4, 8, -48, 48], ""actionTimes"": [9023, 11407, 11971], ""trial_id"": -4874666135804490000, ""time_elapsed"": 408274, ""actions"": [""left"", ""left"", ""down""], ""trialIndex"": 17, ""score"": 40, ""trial_index"": 21, ""simulationMode"": [null, null, null], ""queries"": {""mouseover"": {""state"": {""target"": [], ""time"": []}, ""edge"": {""target"": [], ""time"": []}}, ""click"": {""state"": {""target"": [""11"", ""10"", ""12"", ""9"", ""1"", ""2"", ""4"", ""3"", ""7"", ""6"", ""5"", ""8""], ""time"": [824, 1145, 1907, 2391, 2896, 3261, 4330, 5290, 5830, 6618, 7071, 7595]}, ""edge"": {""target"": [], ""time"": []}}, ""mouseout"": {""state"": {""target"": [], ""time"": []}, ""edge"": {""target"": [], ""time"": []}}}, ""path"": [""0"", ""9"", ""10"", ""12""], ""internal_node_id"": ""0.0-1.0-3.0-17.0"", ""block"": ""test""}"
A286H1M66CL5ZI:38JBBYETQOAQKWQ62E4869U10QVE43,22,1522870272701,"{""rt"": [10865, 122, 83], ""trial_type"": ""mouselab-mdp"", ""trialTime"": 13480, ""rewards"": [4, 4, 48], ""stateRewards"": ["""", -4, 8, 48, -24, -2, -4, 24, -48, 4, 4, 48, -48], ""actionTimes"": [10873, 11497, 12072], ""trial_id"": 7263244810589990000, ""time_elapsed"": 422822, ""actions"": [""left"", ""left"", ""up""], ""trialIndex"": 18, ""score"": 44, ""trial_index"": 22, ""simulationMode"": [null, null, null], ""queries"": {""mouseover"": {""state"": {""target"": [], ""time"": []}, ""edge"": {""target"": [], ""time"": []}}, ""click"": {""state"": {""target"": [""12"", ""10"", ""11"", ""9"", ""1"", ""2"", ""4"", ""3"", ""7"", ""6"", ""5"", ""8""], ""time"": [3670, 4217, 4579, 5085, 5615, 6068, 6457, 7008, 7456, 7837, 8976, 9563]}, ""edge"": {""target"": [], ""time"": []}}, ""mouseout"": {""state"": {""target"": [], ""time"": []}, ""edge"": {""target"": [], ""time"": []}}}, ""path"": [""0"", ""9"", ""10"", ""11""], ""internal_node_id"": ""0.0-1.0-3.0-18.0"", ""block"": ""test""}"
A286H1M66CL5ZI:38JBBYETQOAQKWQ62E4869U10QVE43,23,1522870285586,"{""rt"": [9086, 134, 47], ""trial_type"": ""mouselab-mdp"", ""trialTime"": 11771, ""rewards"": [-4, 4, 48], ""stateRewards"": ["""", -4, 4, 48, -48, -4, 4, -24, 24, -4, -8, 24, 24], ""actionTimes"": [9146, 9781, 10325], ""trial_id"": -5995301136843023000, ""time_elapsed"": 435706, ""actions"": [""up"", ""up"", ""right""], ""trialIndex"": 19, ""score"": 36, ""trial_index"": 23, ""simulationMode"": [null, null, null], ""queries"": {""mouseover"": {""state"": {""target"": [], ""time"": []}, ""edge"": {""target"": [], ""time"": []}}, ""click"": {""state"": {""target"": [""12"", ""10"", ""11"", ""9"", ""1"", ""2"", ""4"", ""3"", ""7"", ""6"", ""5"", ""8""], ""time"": [1307, 1859, 2573, 3024, 3513, 4023, 4866, 5657, 6217, 6747, 7187, 7820]}, ""edge"": {""target"": [], ""time"": []}}, ""mouseout"": {""state"": {""target"": [], ""time"": []}, ""edge"": {""target"": [], ""time"": []}}}, ""path"": [""0"", ""1"", ""2"", ""3""], ""internal_node_id"": ""0.0-1.0-3.0-19.0"", ""block"": ""test""}"
A286H1M66CL5ZI:38JBBYETQOAQKWQ62E4869U10QVE43,24,1522870299497,"{""rt"": [10298, 43, 100], ""trial_type"": ""mouselab-mdp"", ""trialTime"": 12660, ""rewards"": [-2, 4, 24], ""stateRewards"": ["""", -2, 4, -24, 24, -2, -4, -48, -48, 4, -8, 24, 24], ""actionTimes"": [10305, 10858, 11459], ""trial_id"": 282020194745400500, ""time_elapsed"": 449618, ""actions"": [""up"", ""up"", ""left""], ""trialIndex"": 20, ""score"": 14, ""trial_index"": 24, ""simulationMode"": [null, null, null], ""queries"": {""mouseover"": {""state"": {""target"": [], ""time"": []}, ""edge"": {""target"": [], ""time"": []}}, ""click"": {""state"": {""target"": [""12"", ""10"", ""11"", ""9"", ""1"", ""4"", ""3"", ""2"", ""7"", ""6"", ""5"", ""8""], ""time"": [951, 1508, 2476, 3095, 3580, 4159, 5018, 5503, 6157, 6570, 7186, 7720]}, ""edge"": {""target"": [], ""time"": []}}, ""mouseout"": {""state"": {""target"": [], ""time"": []}, ""edge"": {""target"": [], ""time"": []}}}, ""path"": [""0"", ""1"", ""2"", ""4""], ""internal_node_id"": ""0.0-1.0-3.0-20.0"", ""block"": ""test""}"
A286H1M66CL5ZI:38JBBYETQOAQKWQ62E4869U10QVE43,25,1522870311953,"{""rt"": [8749, 90, 164], ""trial_type"": ""mouselab-mdp"", ""trialTime"": 11304, ""rewards"": [-2, -8, 48], ""stateRewards"": ["""", -4, -4, -48, -48, -2, -8, 24, 48, 2, 4, -24, -48], ""actionTimes"": [8755, 9338, 9995], ""trial_id"": -1848243683464450000, ""time_elapsed"": 462074, ""actions"": [""right"", ""right"", ""down""], ""trialIndex"": 21, ""score"": 26, ""trial_index"": 25, ""simulationMode"": [null, null, null], ""queries"": {""mouseover"": {""state"": {""target"": [], ""time"": []}, ""edge"": {""target"": [], ""time"": []}}, ""click"": {""state"": {""target"": [""11"", ""10"", ""12"", ""9"", ""1"", ""4"", ""2"", ""3"", ""5"", ""6"", ""7"", ""8""], ""time"": [1082, 1437, 2307, 2768, 3381, 3788, 4258, 4612, 5176, 5502, 5917, 6496]}, ""edge"": {""target"": [], ""time"": []}}, ""mouseout"": {""state"": {""target"": [], ""time"": []}, ""edge"": {""target"": [], ""time"": []}}}, ""path"": [""0"", ""5"", ""6"", ""8""], ""internal_node_id"": ""0.0-1.0-3.0-21.0"", ""block"": ""test""}"
A286H1M66CL5ZI:38JBBYETQOAQKWQ62E4869U10QVE43,26,1522870326308,"{""rt"": [9940, 36, 150], ""trial_type"": ""mouselab-mdp"", ""trialTime"": 13262, ""rewards"": [-4, 4, 48], ""stateRewards"": ["""", 2, -4, 24, -48, -4, 4, 48, 48, 4, 4, -48, -24], ""actionTimes"": [9949, 10490, 11136], ""trial_id"": 1708036831889561600, ""time_elapsed"": 476428, ""actions"": [""right"", ""right"", ""up""], ""trialIndex"": 22, ""score"": 36, ""trial_index"": 26, ""simulationMode"": [null, null, null], ""queries"": {""mouseover"": {""state"": {""target"": [], ""time"": []}, ""edge"": {""target"": [], ""time"": []}}, ""click"": {""state"": {""target"": [""10"", ""12"", ""9"", ""11"", ""1"", ""4"", ""2"", ""3"", ""7"", ""6"", ""5"", ""8""], ""time"": [1588, 2481, 3088, 3813, 4464, 5075, 5604, 6106, 6850, 7410, 8090, 8620]}, ""edge"": {""target"": [], ""time"": []}}, ""mouseout"": {""state"": {""target"": [], ""time"": []}, ""edge"": {""target"": [], ""time"": []}}}, ""path"": [""0"", ""5"", ""6"", ""7""], ""internal_node_id"": ""0.0-1.0-3.0-22.0"", ""block"": ""test""}"
A286H1M66CL5ZI:38JBBYETQOAQKWQ62E4869U10QVE43,27,1522870339417,"{""rt"": [8903, 150, 78], ""trial_type"": ""mouselab-mdp"", ""trialTime"": 11837, ""rewards"": [2, 4, 48], ""stateRewards"": ["""", 2, 4, -48, 48, -4, 4, -48, -48, 2, -4, 24, 48], ""actionTimes"": [8915, 9572, 10148], ""trial_id"": -5849434166602758000, ""time_elapsed"": 489538, ""actions"": [""up"", ""up"", ""left""], ""trialIndex"": 23, ""score"": 42, ""trial_index"": 27, ""simulationMode"": [null, null, null], ""queries"": {""mouseover"": {""state"": {""target"": [], ""time"": []}, ""edge"": {""target"": [], ""time"": []}}, ""click"": {""state"": {""target"": [""12"", ""10"", ""11"", ""9"", ""1"", ""4"", ""2"", ""3"", ""7"", ""6"", ""5"", ""8""], ""time"": [748, 1117, 1500, 1998, 2547, 3058, 4103, 4538, 5140, 6318, 6727, 7322]}, ""edge"": {""target"": [], ""time"": []}}, ""mouseout"": {""state"": {""target"": [], ""time"": []}, ""edge"": {""target"": [], ""time"": []}}}, ""path"": [""0"", ""1"", ""2"", ""4""], ""internal_node_id"": ""0.0-1.0-3.0-23.0"", ""block"": ""test""}"
A286H1M66CL5ZI:38JBBYETQOAQKWQ62E4869U10QVE43,28,1522870351908,"{""rt"": [7906, 138, 49], ""trial_type"": ""mouselab-mdp"", ""trialTime"": 11347, ""rewards"": [4, 8, 48], ""stateRewards"": ["""", -2, -8, -24, -24, 4, 8, 48, 24, -2, 8, -24, -48], ""actionTimes"": [7913, 8558, 9099], ""trial_id"": 4079752410143045600, ""time_elapsed"": 502018, ""actions"": [""right"", ""right"", ""up""], ""trialIndex"": 24, ""score"": 48, ""trial_index"": 28, ""simulationMode"": [null, null, null], ""queries"": {""mouseover"": {""state"": {""target"": [], ""time"": []}, ""edge"": {""target"": [], ""time"": []}}, ""click"": {""state"": {""target"": [""12"", ""10"", ""11"", ""9"", ""1"", ""3"", ""2"", ""4"", ""5"", ""6"", ""7"", ""8""], ""time"": [824, 1199, 1593, 2284, 2772, 3332, 3760, 4113, 4697, 5762, 6210, 6783]}, ""edge"": {""target"": [], ""time"": []}}, ""mouseout"": {""state"": {""target"": [], ""time"": []}, ""edge"": {""target"": [], ""time"": []}}}, ""path"": [""0"", ""5"", ""6"", ""7""], ""internal_node_id"": ""0.0-1.0-3.0-24.0"", ""block"": ""test""}"
A286H1M66CL5ZI:38JBBYETQOAQKWQ62E4869U10QVE43,29,1522870363072,"{""rt"": [7486, 24, 4], ""trial_type"": ""mouselab-mdp"", ""trialTime"": 10039, ""rewards"": [-4, 8, 48], ""stateRewards"": ["""", -2, 8, -24, 24, -4, 8, 48, 24, -2, -4, 24, -48], ""actionTimes"": [7496, 8029, 8542], ""trial_id"": 2561475919526080000, ""time_elapsed"": 513193, ""actions"": [""right"", ""right"", ""up""], ""trialIndex"": 25, ""score"": 40, ""trial_index"": 29, ""simulationMode"": [null, null, null], ""queries"": {""mouseover"": {""state"": {""target"": [], ""time"": []}, ""edge"": {""target"": [], ""time"": []}}, ""click"": {""state"": {""target"": [""11"", ""10"", ""12"", ""9"", ""1"", ""2"", ""4"", ""3"", ""7"", ""6"", ""8"", ""5""], ""time"": [792, 1198, 1539, 2014, 2477, 3041, 3682, 4219, 4755, 5125, 5672, 6109]}, ""edge"": {""target"": [], ""time"": []}}, ""mouseout"": {""state"": {""target"": [], ""time"": []}, ""edge"": {""target"": [], ""time"": []}}}, ""path"": [""0"", ""5"", ""6"", ""7""], ""internal_node_id"": ""0.0-1.0-3.0-25.0"", ""block"": ""test""}"
A286H1M66CL5ZI:38JBBYETQOAQKWQ62E4869U10QVE43,30,1522870376753,"{""rt"": [9087, 101, 620], ""trial_type"": ""mouselab-mdp"", ""trialTime"": 12574, ""rewards"": [4, 4, 48], ""stateRewards"": ["""", 4, 4, 48, -48, -2, -8, 48, -24, -4, -8, 24, -48], ""actionTimes"": [9090, 9694, 10810], ""trial_id"": -4670080337334774000, ""time_elapsed"": 526874, ""actions"": [""up"", ""up"", ""right""], ""trialIndex"": 26, ""score"": 44, ""trial_index"": 30, ""simulationMode"": [null, null, null], ""queries"": {""mouseover"": {""state"": {""target"": [], ""time"": []}, ""edge"": {""target"": [], ""time"": []}}, ""click"": {""state"": {""target"": [""12"", ""10"", ""11"", ""9"", ""1"", ""2"", ""4"", ""3"", ""7"", ""6"", ""5"", ""8""], ""time"": [2549, 3022, 3425, 3955, 4495, 4995, 5445, 5991, 6536, 7073, 7552, 7977]}, ""edge"": {""target"": [], ""time"": []}}, ""mouseout"": {""state"": {""target"": [], ""time"": []}, ""edge"": {""target"": [], ""time"": []}}}, ""path"": [""0"", ""1"", ""2"", ""3""], ""internal_node_id"": ""0.0-1.0-3.0-26.0"", ""block"": ""test""}"
A286H1M66CL5ZI:38JBBYETQOAQKWQ62E4869U10QVE43,31,1522870390137,"{""rt"": [8315, 665, 1037], ""trial_type"": ""mouselab-mdp"", ""trialTime"": 12229, ""rewards"": [-2, 4, 48], ""stateRewards"": ["""", -4, 4, 24, -24, -2, 4, 48, -24, -4, -8, -48, 48], ""actionTimes"": [8329, 9497, 11036], ""trial_id"": 858865579533637100, ""time_elapsed"": 540258, ""actions"": [""right"", ""right"", ""up""], ""trialIndex"": 27, ""score"": 38, ""trial_index"": 31, ""simulationMode"": [null, null, null], ""queries"": {""mouseover"": {""state"": {""target"": [], ""time"": []}, ""edge"": {""target"": [], ""time"": []}}, ""click"": {""state"": {""target"": [""12"", ""10"", ""11"", ""9"", ""1"", ""2"", ""4"", ""3"", ""5"", ""6"", ""7"", ""8""], ""time"": [726, 1100, 1579, 2013, 2550, 3029, 3698, 4196, 4842, 5194, 5566, 6253]}, ""edge"": {""target"": [], ""time"": []}}, ""mouseout"": {""state"": {""target"": [], ""time"": []}, ""edge"": {""target"": [], ""time"": []}}}, ""path"": [""0"", ""5"", ""6"", ""7""], ""internal_node_id"": ""0.0-1.0-3.0-27.0"", ""block"": ""test""}"
A286H1M66CL5ZI:38JBBYETQOAQKWQ62E4869U10QVE43,32,1522870403687,"{""rt"": [8924, 160, 586], ""trial_type"": ""mouselab-mdp"", ""trialTime"": 12456, ""rewards"": [2, 4, 48], ""stateRewards"": ["""", 2, 4, -24, 48, -4, 8, -48, 48, 2, -4, 24, -24], ""actionTimes"": [8927, 9591, 10683], ""trial_id"": -8327671364504025000, ""time_elapsed"": 553804, ""actions"": [""up"", ""up"", ""left""], ""trialIndex"": 28, ""score"": 42, ""trial_index"": 32, ""simulationMode"": [null, null, null], ""queries"": {""mouseover"": {""state"": {""target"": [], ""time"": []}, ""edge"": {""target"": [], ""time"": []}}, ""click"": {""state"": {""target"": [""12"", ""10"", ""11"", ""9"", ""1"", ""2"", ""4"", ""3"", ""7"", ""6"", ""8"", ""5""], ""time"": [1061, 1438, 1838, 2227, 2661, 3206, 3785, 4350, 4830, 5246, 5649, 6233]}, ""edge"": {""target"": [], ""time"": []}}, ""mouseout"": {""state"": {""target"": [], ""time"": []}, ""edge"": {""target"": [], ""time"": []}}}, ""path"": [""0"", ""1"", ""2"", ""4""], ""internal_node_id"": ""0.0-1.0-3.0-28.0"", ""block"": ""test""}"
A286H1M66CL5ZI:38JBBYETQOAQKWQ62E4869U10QVE43,33,1522870416932,"{""rt"": [9451, 237, 312], ""trial_type"": ""mouselab-mdp"", ""trialTime"": 12131, ""rewards"": [-4, 8, 48], ""stateRewards"": ["""", -4, 8, -24, -48, -4, 8, -48, 48, 4, -8, -24, 48], ""actionTimes"": [9457, 10196, 11005], ""trial_id"": -1414845178968030700, ""time_elapsed"": 567053, ""actions"": [""right"", ""right"", ""down""], ""trialIndex"": 29, ""score"": 40, ""trial_index"": 33, ""simulationMode"": [null, null, null], ""queries"": {""mouseover"": {""state"": {""target"": [], ""time"": []}, ""edge"": {""target"": [], ""time"": []}}, ""click"": {""state"": {""target"": [""12"", ""10"", ""11"", ""9"", ""1"", ""2"", ""4"", ""3"", ""7"", ""6"", ""8"", ""5""], ""time"": [1001, 1505, 1958, 2557, 3127, 3791, 4264, 4908, 5732, 6181, 6607, 7195]}, ""edge"": {""target"": [], ""time"": []}}, ""mouseout"": {""state"": {""target"": [], ""time"": []}, ""edge"": {""target"": [], ""time"": []}}}, ""path"": [""0"", ""5"", ""6"", ""8""], ""internal_node_id"": ""0.0-1.0-3.0-29.0"", ""block"": ""test""}"
A286H1M66CL5ZI:38JBBYETQOAQKWQ62E4869U10QVE43,34,1522870432494,"{""rt"": 14453, ""trial_type"": ""survey-multi-choice"", ""responses"": ""[\""$-4 to $4\"",\""$-48 to $48\"",\""$1\"",\""1.5 cents for every $10 you make in the game plus 45 cents\""]"", ""internal_node_id"": ""0.0-1.0-4.0"", ""time_elapsed"": 582613, ""questions"": ""[\""What is the range of node values in the first step?\"",\""What is the range of node values in the last step?\"",\""What is the cost of clicking?\"",\""How much REAL money do you earn?\""]"", ""correct"": null, ""trial_index"": 34}"
A286H1M66CL5ZI:38JBBYETQOAQKWQ62E4869U10QVE43,35,1522870486370,"{""rt"": 52839, ""trial_type"": ""survey-text"", ""responses"": ""{\""Q0\"":\""i decided to go for it and click all the nodes to see the best money making path\"",\""Q1\"":\""i clicked all\"",\""Q2\"":\""i clicked all to see all options\"",\""Q3\"":\""left to right\"",\""Q4\"":\""clicked all \""}"", ""internal_node_id"": ""0.0-1.0-5.0"", ""time_elapsed"": 636488, ""trial_index"": 35}"
A286H1M66CL5ZI:38JBBYETQOAQKWQ62E4869U10QVE43,36,1522870500178,"{""rt"": 12775, ""trial_type"": ""survey-text"", ""responses"": ""{\""Q0\"":\""not sure\"",\""Q1\"":\""none\"",\""Q2\"":\""none\""}"", ""internal_node_id"": ""0.0-1.0-6.0"", ""time_elapsed"": 650299, ""trial_index"": 36}"
A286H1M66CL5ZI:38JBBYETQOAQKWQ62E4869U10QVE43,37,1522870502514,"{""rt"": 1324, ""trial_type"": ""text"", ""internal_node_id"": ""0.0-2.0"", ""time_elapsed"": 652635, ""key_press"": 32, ""trial_index"": 37}"
A2C3IB7C7HWQ1G:3OLQQLKKNSPGNE9R5LRCCBJKINLJEZ,0,1522869955423,"{""rt"": 15558, ""trial_type"": ""survey-text"", ""responses"": ""{\""Q0\"":\""Female\"",\""Q1\"":\""36\"",\""Q2\"":\""United States\"",\""Q3\"":\""Self-employed\"",\""Q4\"":\""2\""}"", ""internal_node_id"": ""0.0-0.0"", ""time_elapsed"": 15566, ""trial_index"": 0}"
A2C3IB7C7HWQ1G:3OLQQLKKNSPGNE9R5LRCCBJKINLJEZ,1,1522869958604,"{""rt"": 2177, ""trial_type"": ""text"", ""internal_node_id"": ""0.0-2.0"", ""time_elapsed"": 18748, ""key_press"": 32, ""trial_index"": 1}"
A2CT0IK0QSFDRS:3TMFV4NEP8ELKXZZZHOR9RH69GW8WK,0,1522869887813,"{""rt"": 16734, ""trial_type"": ""survey-text"", ""responses"": ""{\""Q0\"":\""Female\"",\""Q1\"":\""27\"",\""Q2\"":\""United States\"",\""Q3\"":\""Employed\"",\""Q4\"":\""4\""}"", ""internal_node_id"": ""0.0-0.0"", ""time_elapsed"": 16748, ""trial_index"": 0}"
A2CT0IK0QSFDRS:3TMFV4NEP8ELKXZZZHOR9RH69GW8WK,1,1522869890281,"{""rt"": 1467, ""trial_type"": ""text"", ""internal_node_id"": ""0.0-2.0"", ""time_elapsed"": 19217, ""key_press"": 32, ""trial_index"": 1}"
A2DBQ3WRHICY9P:3TXD01ZLD4H79SNSSEJDARG4MEPU40,0,1522870068085,"{""rt"": 10370, ""trial_type"": ""survey-text"", ""responses"": ""{\""Q0\"":\""female\"",\""Q1\"":\""23\"",\""Q2\"":\""usa\"",\""Q3\"":\""student\"",\""Q4\"":\""4\""}"", ""internal_node_id"": ""0.0-0.0"", ""time_elapsed"": 10389, ""trial_index"": 0}"
A2DBQ3WRHICY9P:3TXD01ZLD4H79SNSSEJDARG4MEPU40,1,1522870081996,"{""rt"": 12900, ""trial_type"": ""text"", ""internal_node_id"": ""0.0-1.0-0.0"", ""time_elapsed"": 24300, ""key_press"": 32, ""trial_index"": 1}"
A2DBQ3WRHICY9P:3TXD01ZLD4H79SNSSEJDARG4MEPU40,2,1522870093526,"{""rt"": 10524, ""trial_type"": ""text"", ""internal_node_id"": ""0.0-1.0-1.0"", ""time_elapsed"": 35830, ""key_press"": 32, ""trial_index"": 2}"
A2DBQ3WRHICY9P:3TXD01ZLD4H79SNSSEJDARG4MEPU40,3,1522870101551,"{""rt"": 7013, ""trial_type"": ""text"", ""internal_node_id"": ""0.0-1.0-2.0"", ""time_elapsed"": 43855, ""key_press"": 32, ""trial_index"": 3}"
A2DBQ3WRHICY9P:3TXD01ZLD4H79SNSSEJDARG4MEPU40,4,1522870112680,"{""rt"": [2783, 561, 617], ""trial_type"": ""mouselab-mdp"", ""trialTime"": 9980, ""rewards"": [2, -4, 48], ""stateRewards"": ["""", 2, 4, -48, 48, -4, 4, -48, -48, 2, -4, 24, 48], ""actionTimes"": [2798, 3874, 5011], ""trial_id"": -5849434166602758000, ""time_elapsed"": 54984, ""actions"": [""left"", ""left"", ""down""], ""trialIndex"": 0, ""score"": 46, ""trial_index"": 4, ""simulationMode"": [null, null, null], ""queries"": {""mouseover"": {""state"": {""target"": [], ""time"": []}, ""edge"": {""target"": [], ""time"": []}}, ""click"": {""state"": {""target"": [], ""time"": []}, ""edge"": {""target"": [], ""time"": []}}, ""mouseout"": {""state"": {""target"": [], ""time"": []}, ""edge"": {""target"": [], ""time"": []}}}, ""path"": [""0"", ""9"", ""10"", ""12""], ""internal_node_id"": ""0.0-1.0-3.0-0.0"", ""block"": ""test""}"
A2DBQ3WRHICY9P:3TXD01ZLD4H79SNSSEJDARG4MEPU40,5,1522870124637,"{""rt"": [644, 759, 528], ""trial_type"": ""mouselab-mdp"", ""trialTime"": 10828, ""rewards"": [-4, 8, -48], ""stateRewards"": ["""", -4, 8, -24, -48, -4, 8, -48, 48, 4, -8, -24, 48], ""actionTimes"": [653, 1928, 2978], ""trial_id"": -1414845178968030700, ""time_elapsed"": 66941, ""actions"": [""right"", ""right"", ""up""], ""trialIndex"": 1, ""score"": -44, ""trial_index"": 5, ""simulationMode"": [null, null, null], ""queries"": {""mouseover"": {""state"": {""target"": [], ""time"": []}, ""edge"": {""target"": [], ""time"": []}}, ""click"": {""state"": {""target"": [], ""time"": []}, ""edge"": {""target"": [], ""time"": []}}, ""mouseout"": {""state"": {""target"": [], ""time"": []}, ""edge"": {""target"": [], ""time"": []}}}, ""path"": [""0"", ""5"", ""6"", ""7""], ""internal_node_id"": ""0.0-1.0-3.0-1.0"", ""block"": ""test""}"
A2DBQ3WRHICY9P:3TXD01ZLD4H79SNSSEJDARG4MEPU40,6,1522870135752,"{""rt"": [576, 436, 333], ""trial_type"": ""mouselab-mdp"", ""trialTime"": 10027, ""rewards"": [-4, -4, 24], ""stateRewards"": ["""", -4, -4, -24, 24, 2, -4, 24, -48, -2, 8, -48, -48], ""actionTimes"": [581, 1535, 2384], ""trial_id"": -1389625695571519700, ""time_elapsed"": 78056, ""actions"": [""up"", ""up"", ""left""], ""trialIndex"": 2, ""score"": 16, ""trial_index"": 6, ""simulationMode"": [null, null, null], ""queries"": {""mouseover"": {""state"": {""target"": [], ""time"": []}, ""edge"": {""target"": [], ""time"": []}}, ""click"": {""state"": {""target"": [], ""time"": []}, ""edge"": {""target"": [], ""time"": []}}, ""mouseout"": {""state"": {""target"": [], ""time"": []}, ""edge"": {""target"": [], ""time"": []}}}, ""path"": [""0"", ""1"", ""2"", ""4""], ""internal_node_id"": ""0.0-1.0-3.0-2.0"", ""block"": ""test""}"
A2DBQ3WRHICY9P:3TXD01ZLD4H79SNSSEJDARG4MEPU40,7,1522870146655,"{""rt"": [1958, 381, 634], ""trial_type"": ""mouselab-mdp"", ""trialTime"": 9818, ""rewards"": [4, -8, 24], ""stateRewards"": ["""", 2, 4, 24, -24, 4, 8, -48, 24, 4, -8, -24, 24], ""actionTimes"": [1963, 2865, 4023], ""trial_id"": 8950946188299295000, ""time_elapsed"": 88959, ""actions"": [""left"", ""left"", ""down""], ""trialIndex"": 3, ""score"": 20, ""trial_index"": 7, ""simulationMode"": [null, null, null], ""queries"": {""mouseover"": {""state"": {""target"": [], ""time"": []}, ""edge"": {""target"": [], ""time"": []}}, ""click"": {""state"": {""target"": [], ""time"": []}, ""edge"": {""target"": [], ""time"": []}}, ""mouseout"": {""state"": {""target"": [], ""time"": []}, ""edge"": {""target"": [], ""time"": []}}}, ""path"": [""0"", ""9"", ""10"", ""12""], ""internal_node_id"": ""0.0-1.0-3.0-3.0"", ""block"": ""test""}"
A2DBQ3WRHICY9P:3TXD01ZLD4H79SNSSEJDARG4MEPU40,8,1522870157925,"{""rt"": [1652, 273, 165], ""trial_type"": ""mouselab-mdp"", ""trialTime"": 10192, ""rewards"": [-2, -8, -24], ""stateRewards"": ["""", 4, 4, 48, -48, -2, -8, 48, -24, -4, -8, 24, -48], ""actionTimes"": [1660, 2458, 3152], ""trial_id"": -4670080337334774000, ""time_elapsed"": 100228, ""actions"": [""right"", ""right"", ""down""], ""trialIndex"": 4, ""score"": -34, ""trial_index"": 8, ""simulationMode"": [null, null, null], ""queries"": {""mouseover"": {""state"": {""target"": [], ""time"": []}, ""edge"": {""target"": [], ""time"": []}}, ""click"": {""state"": {""target"": [], ""time"": []}, ""edge"": {""target"": [], ""time"": []}}, ""mouseout"": {""state"": {""target"": [], ""time"": []}, ""edge"": {""target"": [], ""time"": []}}}, ""path"": [""0"", ""5"", ""6"", ""8""], ""internal_node_id"": ""0.0-1.0-3.0-4.0"", ""block"": ""test""}"
A2DBQ3WRHICY9P:3TXD01ZLD4H79SNSSEJDARG4MEPU40,9,1522870167474,"{""rt"": [374, 163, 240], ""trial_type"": ""mouselab-mdp"", ""trialTime"": 8472, ""rewards"": [2, -4, -48], ""stateRewards"": ["""", 2, -4, 24, -48, -2, -8, 24, -48, 2, 4, 24, -48], ""actionTimes"": [380, 1059, 1821], ""trial_id"": 2653018761906401300, ""time_elapsed"": 109778, ""actions"": [""up"", ""up"", ""left""], ""trialIndex"": 5, ""score"": -50, ""trial_index"": 9, ""simulationMode"": [null, null, null], ""queries"": {""mouseover"": {""state"": {""target"": [], ""time"": []}, ""edge"": {""target"": [], ""time"": []}}, ""click"": {""state"": {""target"": [], ""time"": []}, ""edge"": {""target"": [], ""time"": []}}, ""mouseout"": {""state"": {""target"": [], ""time"": []}, ""edge"": {""target"": [], ""time"": []}}}, ""path"": [""0"", ""1"", ""2"", ""4""], ""internal_node_id"": ""0.0-1.0-3.0-5.0"", ""block"": ""test""}"
A2DBQ3WRHICY9P:3TXD01ZLD4H79SNSSEJDARG4MEPU40,10,1522870176028,"{""rt"": [310, 281, 1352], ""trial_type"": ""mouselab-mdp"", ""trialTime"": 7405, ""rewards"": [-2, -4, 24], ""stateRewards"": ["""", 2, -4, 48, 24, -2, -4, 24, 24, 2, -8, -24, 24], ""actionTimes"": [323, 1123, 2991], ""trial_id"": 556601214791588500, ""time_elapsed"": 118332, ""actions"": [""right"", ""right"", ""down""], ""trialIndex"": 6, ""score"": 18, ""trial_index"": 10, ""simulationMode"": [null, null, null], ""queries"": {""mouseover"": {""state"": {""target"": [], ""time"": []}, ""edge"": {""target"": [], ""time"": []}}, ""click"": {""state"": {""target"": [], ""time"": []}, ""edge"": {""target"": [], ""time"": []}}, ""mouseout"": {""state"": {""target"": [], ""time"": []}, ""edge"": {""target"": [], ""time"": []}}}, ""path"": [""0"", ""5"", ""6"", ""8""], ""internal_node_id"": ""0.0-1.0-3.0-6.0"", ""block"": ""test""}"
A2DBQ3WRHICY9P:3TXD01ZLD4H79SNSSEJDARG4MEPU40,11,1522870188028,"{""rt"": [822, 308, 548], ""trial_type"": ""mouselab-mdp"", ""trialTime"": 10915, ""rewards"": [-2, 8, 48], ""stateRewards"": ["""", 4, -4, -48, -48, 4, 8, 24, -24, -2, 8, 48, -48], ""actionTimes"": [828, 1659, 2732], ""trial_id"": -6978553059181346000, ""time_elapsed"": 130332, ""actions"": [""left"", ""left"", ""up""], ""trialIndex"": 7, ""score"": 54, ""trial_index"": 11, ""simulationMode"": [null, null, null], ""queries"": {""mouseover"": {""state"": {""target"": [], ""time"": []}, ""edge"": {""target"": [], ""time"": []}}, ""click"": {""state"": {""target"": [], ""time"": []}, ""edge"": {""target"": [], ""time"": []}}, ""mouseout"": {""state"": {""target"": [], ""time"": []}, ""edge"": {""target"": [], ""time"": []}}}, ""path"": [""0"", ""9"", ""10"", ""11""], ""internal_node_id"": ""0.0-1.0-3.0-7.0"", ""block"": ""test""}"
A2DBQ3WRHICY9P:3TXD01ZLD4H79SNSSEJDARG4MEPU40,12,1522870198812,"{""rt"": [1078, 1237, 375], ""trial_type"": ""mouselab-mdp"", ""trialTime"": 9699, ""rewards"": [2, 4, 48], ""stateRewards"": ["""", 2, 4, -24, 48, -4, 8, -48, 48, 2, -4, 24, -24], ""actionTimes"": [1082, 2834, 3722], ""trial_id"": -8327671364504025000, ""time_elapsed"": 141115, ""actions"": [""up"", ""up"", ""left""], ""trialIndex"": 8, ""score"": 54, ""trial_index"": 12, ""simulationMode"": [null, null, null], ""queries"": {""mouseover"": {""state"": {""target"": [], ""time"": []}, ""edge"": {""target"": [], ""time"": []}}, ""click"": {""state"": {""target"": [], ""time"": []}, ""edge"": {""target"": [], ""time"": []}}, ""mouseout"": {""state"": {""target"": [], ""time"": []}, ""edge"": {""target"": [], ""time"": []}}}, ""path"": [""0"", ""1"", ""2"", ""4""], ""internal_node_id"": ""0.0-1.0-3.0-8.0"", ""block"": ""test""}"
A2DBQ3WRHICY9P:3TXD01ZLD4H79SNSSEJDARG4MEPU40,13,1522870208288,"{""rt"": [858, 672, 780], ""trial_type"": ""mouselab-mdp"", ""trialTime"": 8395, ""rewards"": [-2, 4, -48], ""stateRewards"": ["""", 2, -4, 24, 24, -4, 4, -24, -24, -2, 4, -24, -48], ""actionTimes"": [865, 2055, 3362], ""trial_id"": 7862543089384343000, ""time_elapsed"": 150591, ""actions"": [""left"", ""left"", ""down""], ""trialIndex"": 9, ""score"": -46, ""trial_index"": 13, ""simulationMode"": [null, null, null], ""queries"": {""mouseover"": {""state"": {""target"": [], ""time"": []}, ""edge"": {""target"": [], ""time"": []}}, ""click"": {""state"": {""target"": [], ""time"": []}, ""edge"": {""target"": [], ""time"": []}}, ""mouseout"": {""state"": {""target"": [], ""time"": []}, ""edge"": {""target"": [], ""time"": []}}}, ""path"": [""0"", ""9"", ""10"", ""12""], ""internal_node_id"": ""0.0-1.0-3.0-9.0"", ""block"": ""test""}"
A2DBQ3WRHICY9P:3TXD01ZLD4H79SNSSEJDARG4MEPU40,14,1522870218663,"{""rt"": [1065, 126, 306], ""trial_type"": ""mouselab-mdp"", ""trialTime"": 9296, ""rewards"": [2, -4, -48], ""stateRewards"": ["""", 2, -4, 24, -48, -4, -8, -48, -48, -4, 4, -48, 48], ""actionTimes"": [1073, 1715, 2546], ""trial_id"": 2118335984300500500, ""time_elapsed"": 160967, ""actions"": [""up"", ""up"", ""left""], ""trialIndex"": 10, ""score"": -50, ""trial_index"": 14, ""simulationMode"": [null, null, null], ""queries"": {""mouseover"": {""state"": {""target"": [], ""time"": []}, ""edge"": {""target"": [], ""time"": []}}, ""click"": {""state"": {""target"": [], ""time"": []}, ""edge"": {""target"": [], ""time"": []}}, ""mouseout"": {""state"": {""target"": [], ""time"": []}, ""edge"": {""target"": [], ""time"": []}}}, ""path"": [""0"", ""1"", ""2"", ""4""], ""internal_node_id"": ""0.0-1.0-3.0-10.0"", ""block"": ""test""}"
A2DBQ3WRHICY9P:3TXD01ZLD4H79SNSSEJDARG4MEPU40,15,1522870228134,"{""rt"": [304, 415, 87], ""trial_type"": ""mouselab-mdp"", ""trialTime"": 8354, ""rewards"": [-2, -4, -48], ""stateRewards"": ["""", -2, -4, 24, -48, -4, 8, -24, -24, 4, -4, -48, 24], ""actionTimes"": [319, 1256, 1861], ""trial_id"": 1399303655934214400, ""time_elapsed"": 170438, ""actions"": [""up"", ""up"", ""left""], ""trialIndex"": 11, ""score"": -54, ""trial_index"": 15, ""simulationMode"": [null, null, null], ""queries"": {""mouseover"": {""state"": {""target"": [], ""time"": []}, ""edge"": {""target"": [], ""time"": []}}, ""click"": {""state"": {""target"": [], ""time"": []}, ""edge"": {""target"": [], ""time"": []}}, ""mouseout"": {""state"": {""target"": [], ""time"": []}, ""edge"": {""target"": [], ""time"": []}}}, ""path"": [""0"", ""1"", ""2"", ""4""], ""internal_node_id"": ""0.0-1.0-3.0-11.0"", ""block"": ""test""}"
A2DBQ3WRHICY9P:3TXD01ZLD4H79SNSSEJDARG4MEPU40,16,1522870237496,"{""rt"": [943, 971, 274], ""trial_type"": ""mouselab-mdp"", ""trialTime"": 8280, ""rewards"": [4, 8, 48], ""stateRewards"": ["""", 4, 8, -24, 48, 2, 8, -48, -48, 2, -4, 24, -48], ""actionTimes"": [949, 2442, 3243], ""trial_id"": -6668518537832265000, ""time_elapsed"": 179800, ""actions"": [""up"", ""up"", ""left""], ""trialIndex"": 12, ""score"": 60, ""trial_index"": 16, ""simulationMode"": [null, null, null], ""queries"": {""mouseover"": {""state"": {""target"": [], ""time"": []}, ""edge"": {""target"": [], ""time"": []}}, ""click"": {""state"": {""target"": [], ""time"": []}, ""edge"": {""target"": [], ""time"": []}}, ""mouseout"": {""state"": {""target"": [], ""time"": []}, ""edge"": {""target"": [], ""time"": []}}}, ""path"": [""0"", ""1"", ""2"", ""4""], ""internal_node_id"": ""0.0-1.0-3.0-12.0"", ""block"": ""test""}"
A2DBQ3WRHICY9P:3TXD01ZLD4H79SNSSEJDARG4MEPU40,17,1522870246039,"{""rt"": [349, 365, 367], ""trial_type"": ""mouselab-mdp"", ""trialTime"": 7467, ""rewards"": [4, -8, 24], ""stateRewards"": ["""", 4, -8, 24, 24, 2, 4, 24, 48, -2, 4, 24, -48], ""actionTimes"": [356, 1243, 2127], ""trial_id"": 6722698278557235000, ""time_elapsed"": 188343, ""actions"": [""up"", ""up"", ""left""], ""trialIndex"": 13, ""score"": 20, ""trial_index"": 17, ""simulationMode"": [null, null, null], ""queries"": {""mouseover"": {""state"": {""target"": [], ""time"": []}, ""edge"": {""target"": [], ""time"": []}}, ""click"": {""state"": {""target"": [], ""time"": []}, ""edge"": {""target"": [], ""time"": []}}, ""mouseout"": {""state"": {""target"": [], ""time"": []}, ""edge"": {""target"": [], ""time"": []}}}, ""path"": [""0"", ""1"", ""2"", ""4""], ""internal_node_id"": ""0.0-1.0-3.0-13.0"", ""block"": ""test""}"
A2DBQ3WRHICY9P:3TXD01ZLD4H79SNSSEJDARG4MEPU40,18,1522870257561,"{""rt"": [971, 3466, 1648], ""trial_type"": ""mouselab-mdp"", ""trialTime"": 10416, ""rewards"": [-2, 4, 24], ""stateRewards"": ["""", 2, 8, 48, 24, -2, 4, 24, 24, -2, -4, -48, -24], ""actionTimes"": [981, 4971, 7133], ""trial_id"": -8923867603615937000, ""time_elapsed"": 199864, ""actions"": [""right"", ""right"", ""up""], ""trialIndex"": 14, ""score"": 26, ""trial_index"": 18, ""simulationMode"": [null, null, null], ""queries"": {""mouseover"": {""state"": {""target"": [], ""time"": []}, ""edge"": {""target"": [], ""time"": []}}, ""click"": {""state"": {""target"": [], ""time"": []}, ""edge"": {""target"": [], ""time"": []}}, ""mouseout"": {""state"": {""target"": [], ""time"": []}, ""edge"": {""target"": [], ""time"": []}}}, ""path"": [""0"", ""5"", ""6"", ""7""], ""internal_node_id"": ""0.0-1.0-3.0-14.0"", ""block"": ""test""}"
A2DBQ3WRHICY9P:3TXD01ZLD4H79SNSSEJDARG4MEPU40,19,1522870272604,"{""rt"": [10846, 97, 528], ""trial_type"": ""mouselab-mdp"", ""trialTime"": 13960, ""rewards"": [-2, -4, 24], ""stateRewards"": ["""", 4, 4, -48, 48, -2, 4, -48, -24, -2, -4, -48, 24], ""actionTimes"": [10854, 11465, 12511], ""trial_id"": -5006809819184351000, ""time_elapsed"": 214908, ""actions"": [""left"", ""left"", ""down""], ""trialIndex"": 15, ""score"": 10, ""trial_index"": 19, ""simulationMode"": [null, null, null], ""queries"": {""mouseover"": {""state"": {""target"": [], ""time"": []}, ""edge"": {""target"": [], ""time"": []}}, ""click"": {""state"": {""target"": [""9"", ""10"", ""12"", ""11"", ""5"", ""6"", ""8"", ""7""], ""time"": [1535, 2544, 3612, 5148, 6225, 7393, 8169, 9235]}, ""edge"": {""target"": [], ""time"": []}}, ""mouseout"": {""state"": {""target"": [], ""time"": []}, ""edge"": {""target"": [], ""time"": []}}}, ""path"": [""0"", ""9"", ""10"", ""12""], ""internal_node_id"": ""0.0-1.0-3.0-15.0"", ""block"": ""test""}"
A2DBQ3WRHICY9P:3TXD01ZLD4H79SNSSEJDARG4MEPU40,20,1522870283074,"{""rt"": [5268, 126, 476], ""trial_type"": ""mouselab-mdp"", ""trialTime"": 9378, ""rewards"": [4, 4, 48], ""stateRewards"": ["""", -4, 8, 48, -24, -2, -4, 24, -48, 4, 4, 48, -48], ""actionTimes"": [5276, 5918, 6922], ""trial_id"": 7263244810589990000, ""time_elapsed"": 225378, ""actions"": [""left"", ""left"", ""up""], ""trialIndex"": 16, ""score"": 52, ""trial_index"": 20, ""simulationMode"": [null, null, null], ""queries"": {""mouseover"": {""state"": {""target"": [], ""time"": []}, ""edge"": {""target"": [], ""time"": []}}, ""click"": {""state"": {""target"": [""9"", ""10"", ""12"", ""11""], ""time"": [2096, 2908, 3569, 4464]}, ""edge"": {""target"": [], ""time"": []}}, ""mouseout"": {""state"": {""target"": [], ""time"": []}, ""edge"": {""target"": [], ""time"": []}}}, ""path"": [""0"", ""9"", ""10"", ""11""], ""internal_node_id"": ""0.0-1.0-3.0-16.0"", ""block"": ""test""}"
A2DBQ3WRHICY9P:3TXD01ZLD4H79SNSSEJDARG4MEPU40,21,1522870292441,"{""rt"": [4792, 106, 264], ""trial_type"": ""mouselab-mdp"", ""trialTime"": 8261, ""rewards"": [2, -4, 48], ""stateRewards"": ["""", -2, -4, 48, -24, 2, -4, 48, 24, -2, -8, -24, -24], ""actionTimes"": [4799, 5434, 6207], ""trial_id"": 2593864447454748000, ""time_elapsed"": 234745, ""actions"": [""right"", ""right"", ""up""], ""trialIndex"": 17, ""score"": 42, ""trial_index"": 21, ""simulationMode"": [null, null, null], ""queries"": {""mouseover"": {""state"": {""target"": [], ""time"": []}, ""edge"": {""target"": [], ""time"": []}}, ""click"": {""state"": {""target"": [""5"", ""6"", ""7"", ""8""], ""time"": [1017, 1962, 2634, 3348]}, ""edge"": {""target"": [], ""time"": []}}, ""mouseout"": {""state"": {""target"": [], ""time"": []}, ""edge"": {""target"": [], ""time"": []}}}, ""path"": [""0"", ""5"", ""6"", ""7""], ""internal_node_id"": ""0.0-1.0-3.0-17.0"", ""block"": ""test""}"
A2DBQ3WRHICY9P:3TXD01ZLD4H79SNSSEJDARG4MEPU40,22,1522870302806,"{""rt"": [3697, 100, 70], ""trial_type"": ""mouselab-mdp"", ""trialTime"": 9284, ""rewards"": [-2, -4, 48], ""stateRewards"": ["""", -2, -4, 48, 24, 2, 4, -48, 48, -4, 4, 48, 24], ""actionTimes"": [3702, 4311, 4903], ""trial_id"": 7946552191512982000, ""time_elapsed"": 245109, ""actions"": [""up"", ""up"", ""right""], ""trialIndex"": 18, ""score"": 39, ""trial_index"": 22, ""simulationMode"": [null, null, null], ""queries"": {""mouseover"": {""state"": {""target"": [], ""time"": []}, ""edge"": {""target"": [], ""time"": []}}, ""click"": {""state"": {""target"": [""1"", ""2"", ""3""], ""time"": [707, 1299, 2484]}, ""edge"": {""target"": [], ""time"": []}}, ""mouseout"": {""state"": {""target"": [], ""time"": []}, ""edge"": {""target"": [], ""time"": []}}}, ""path"": [""0"", ""1"", ""2"", ""3""], ""internal_node_id"": ""0.0-1.0-3.0-18.0"", ""block"": ""test""}"
A2DBQ3WRHICY9P:3TXD01ZLD4H79SNSSEJDARG4MEPU40,23,1522870312245,"{""rt"": [3700, 51, 247], ""trial_type"": ""mouselab-mdp"", ""trialTime"": 8330, ""rewards"": [-4, -8, 48], ""stateRewards"": ["""", -4, 4, 24, -24, -2, 4, 48, -24, -4, -8, -48, 48], ""actionTimes"": [3705, 4270, 5037], ""trial_id"": 858865579533637100, ""time_elapsed"": 254548, ""actions"": [""left"", ""left"", ""down""], ""trialIndex"": 19, ""score"": 32, ""trial_index"": 23, ""simulationMode"": [null, null, null], ""queries"": {""mouseover"": {""state"": {""target"": [], ""time"": []}, ""edge"": {""target"": [], ""time"": []}}, ""click"": {""state"": {""target"": [""9"", ""10"", ""11"", ""12""], ""time"": [725, 1313, 1860, 2521]}, ""edge"": {""target"": [], ""time"": []}}, ""mouseout"": {""state"": {""target"": [], ""time"": []}, ""edge"": {""target"": [], ""time"": []}}}, ""path"": [""0"", ""9"", ""10"", ""12""], ""internal_node_id"": ""0.0-1.0-3.0-19.0"", ""block"": ""test""}"
A2DBQ3WRHICY9P:3TXD01ZLD4H79SNSSEJDARG4MEPU40,24,1522870322148,"{""rt"": [4101, 126, 170], ""trial_type"": ""mouselab-mdp"", ""trialTime"": 8812, ""rewards"": [-2, 8, 48], ""stateRewards"": ["""", -4, -8, 24, -24, -2, 8, 24, 48, 4, -4, 24, -48], ""actionTimes"": [4106, 4753, 5451], ""trial_id"": -1100449030722574200, ""time_elapsed"": 264452, ""actions"": [""right"", ""right"", ""down""], ""trialIndex"": 20, ""score"": 50, ""trial_index"": 24, ""simulationMode"": [null, null, null], ""queries"": {""mouseover"": {""state"": {""target"": [], ""time"": []}, ""edge"": {""target"": [], ""time"": []}}, ""click"": {""state"": {""target"": [""5"", ""6"", ""8"", ""7""], ""time"": [1419, 1970, 2556, 3250]}, ""edge"": {""target"": [], ""time"": []}}, ""mouseout"": {""state"": {""target"": [], ""time"": []}, ""edge"": {""target"": [], ""time"": []}}}, ""path"": [""0"", ""5"", ""6"", ""8""], ""internal_node_id"": ""0.0-1.0-3.0-20.0"", ""block"": ""test""}"
A2DBQ3WRHICY9P:3TXD01ZLD4H79SNSSEJDARG4MEPU40,25,1522870332582,"{""rt"": [3654, 54, 114], ""trial_type"": ""mouselab-mdp"", ""trialTime"": 9336, ""rewards"": [4, -8, 24], ""stateRewards"": ["""", -2, 4, -24, 24, -2, -4, -48, -48, 4, -8, 24, 24], ""actionTimes"": [3660, 4234, 4866], ""trial_id"": 282020194745400500, ""time_elapsed"": 274886, ""actions"": [""left"", ""left"", ""down""], ""trialIndex"": 21, ""score"": 16, ""trial_index"": 25, ""simulationMode"": [null, null, null], ""queries"": {""mouseover"": {""state"": {""target"": [], ""time"": []}, ""edge"": {""target"": [], ""time"": []}}, ""click"": {""state"": {""target"": [""9"", ""10"", ""12"", ""11""], ""time"": [592, 1108, 1653, 2283]}, ""edge"": {""target"": [], ""time"": []}}, ""mouseout"": {""state"": {""target"": [], ""time"": []}, ""edge"": {""target"": [], ""time"": []}}}, ""path"": [""0"", ""9"", ""10"", ""12""], ""internal_node_id"": ""0.0-1.0-3.0-21.0"", ""block"": ""test""}"
A2DBQ3WRHICY9P:3TXD01ZLD4H79SNSSEJDARG4MEPU40,26,1522870343504,"{""rt"": [6415, 45, 64], ""trial_type"": ""mouselab-mdp"", ""trialTime"": 9843, ""rewards"": [4, -8, 48], ""stateRewards"": ["""", 4, -8, 24, 48, 4, -8, -24, 48, -2, -8, 24, -24], ""actionTimes"": [6419, 6975, 7567], ""trial_id"": 6608608155125090000, ""time_elapsed"": 285808, ""actions"": [""right"", ""right"", ""down""], ""trialIndex"": 22, ""score"": 36, ""trial_index"": 26, ""simulationMode"": [null, null, null], ""queries"": {""mouseover"": {""state"": {""target"": [], ""time"": []}, ""edge"": {""target"": [], ""time"": []}}, ""click"": {""state"": {""target"": [""9"", ""10"", ""11"", ""12"", ""5"", ""6"", ""7"", ""8""], ""time"": [528, 1050, 1552, 2145, 2953, 4065, 4549, 5096]}, ""edge"": {""target"": [], ""time"": []}}, ""mouseout"": {""state"": {""target"": [], ""time"": []}, ""edge"": {""target"": [], ""time"": []}}}, ""path"": [""0"", ""5"", ""6"", ""8""], ""internal_node_id"": ""0.0-1.0-3.0-22.0"", ""block"": ""test""}"
A2DBQ3WRHICY9P:3TXD01ZLD4H79SNSSEJDARG4MEPU40,27,1522870357121,"{""rt"": [9427, 540, 272], ""trial_type"": ""mouselab-mdp"", ""trialTime"": 12545, ""rewards"": [2, 4, 24], ""stateRewards"": ["""", 2, 4, -24, 24, 4, 8, -48, -48, -4, -4, -48, -24], ""actionTimes"": [9432, 10491, 11292], ""trial_id"": -7784032825751816000, ""time_elapsed"": 299424, ""actions"": [""up"", ""up"", ""left""], ""trialIndex"": 23, ""score"": 18, ""trial_index"": 27, ""simulationMode"": [null, null, null], ""queries"": {""mouseover"": {""state"": {""target"": [], ""time"": []}, ""edge"": {""target"": [], ""time"": []}}, ""click"": {""state"": {""target"": [""9"", ""10"", ""11"", ""12"", ""5"", ""6"", ""7"", ""8"", ""1"", ""2"", ""4"", ""3""], ""time"": [1265, 1838, 2698, 3324, 4023, 4523, 5018, 5970, 6745, 7331, 7824, 8442]}, ""edge"": {""target"": [], ""time"": []}}, ""mouseout"": {""state"": {""target"": [], ""time"": []}, ""edge"": {""target"": [], ""time"": []}}}, ""path"": [""0"", ""1"", ""2"", ""4""], ""internal_node_id"": ""0.0-1.0-3.0-23.0"", ""block"": ""test""}"
A2DBQ3WRHICY9P:3TXD01ZLD4H79SNSSEJDARG4MEPU40,28,1522870366595,"{""rt"": [3620, 261, 152], ""trial_type"": ""mouselab-mdp"", ""trialTime"": 8362, ""rewards"": [-2, -8, 48], ""stateRewards"": ["""", 4, -8, -48, -48, -4, 4, 24, 24, -2, -8, -24, 48], ""actionTimes"": [3644, 4414, 5091], ""trial_id"": -4569496646062697500, ""time_elapsed"": 308899, ""actions"": [""left"", ""left"", ""down""], ""trialIndex"": 24, ""score"": 34, ""trial_index"": 28, ""simulationMode"": [null, null, null], ""queries"": {""mouseover"": {""state"": {""target"": [], ""time"": []}, ""edge"": {""target"": [], ""time"": []}}, ""click"": {""state"": {""target"": [""9"", ""10"", ""11"", ""12""], ""time"": [946, 1440, 1877, 2383]}, ""edge"": {""target"": [], ""time"": []}}, ""mouseout"": {""state"": {""target"": [], ""time"": []}, ""edge"": {""target"": [], ""time"": []}}}, ""path"": [""0"", ""9"", ""10"", ""12""], ""internal_node_id"": ""0.0-1.0-3.0-24.0"", ""block"": ""test""}"
A2DBQ3WRHICY9P:3TXD01ZLD4H79SNSSEJDARG4MEPU40,29,1522870378960,"{""rt"": [8531, 120, 569], ""trial_type"": ""mouselab-mdp"", ""trialTime"": 11285, ""rewards"": [-2, -8, 48], ""stateRewards"": ["""", -4, -4, -48, -48, -2, -8, 24, 48, 2, 4, -24, -48], ""actionTimes"": [8534, 9169, 10245], ""trial_id"": -1848243683464450000, ""time_elapsed"": 321263, ""actions"": [""right"", ""right"", ""down""], ""trialIndex"": 25, ""score"": 30, ""trial_index"": 29, ""simulationMode"": [null, null, null], ""queries"": {""mouseover"": {""state"": {""target"": [], ""time"": []}, ""edge"": {""target"": [], ""time"": []}}, ""click"": {""state"": {""target"": [""9"", ""10"", ""11"", ""12"", ""5"", ""6"", ""7"", ""8""], ""time"": [2663, 3092, 3531, 4103, 6047, 6600, 7068, 7579]}, ""edge"": {""target"": [], ""time"": []}}, ""mouseout"": {""state"": {""target"": [], ""time"": []}, ""edge"": {""target"": [], ""time"": []}}}, ""path"": [""0"", ""5"", ""6"", ""8""], ""internal_node_id"": ""0.0-1.0-3.0-25.0"", ""block"": ""test""}"
A2DBQ3WRHICY9P:3TXD01ZLD4H79SNSSEJDARG4MEPU40,30,1522870390641,"{""rt"": [7645, 108, 564], ""trial_type"": ""mouselab-mdp"", ""trialTime"": 10600, ""rewards"": [-4, -4, 48], ""stateRewards"": ["""", 2, -4, -24, -24, 4, -8, -48, -48, -4, -4, 48, 48], ""actionTimes"": [7651, 8287, 9375], ""trial_id"": -7913607226466677000, ""time_elapsed"": 332945, ""actions"": [""left"", ""left"", ""up""], ""trialIndex"": 26, ""score"": 34, ""trial_index"": 30, ""simulationMode"": [null, null, null], ""queries"": {""mouseover"": {""state"": {""target"": [], ""time"": []}, ""edge"": {""target"": [], ""time"": []}}, ""click"": {""state"": {""target"": [""5"", ""6"", ""7"", ""8"", ""10"", ""11""], ""time"": [789, 1284, 1756, 2256, 3371, 4357]}, ""edge"": {""target"": [], ""time"": []}}, ""mouseout"": {""state"": {""target"": [], ""time"": []}, ""edge"": {""target"": [], ""time"": []}}}, ""path"": [""0"", ""9"", ""10"", ""11""], ""internal_node_id"": ""0.0-1.0-3.0-26.0"", ""block"": ""test""}"
A2DBQ3WRHICY9P:3TXD01ZLD4H79SNSSEJDARG4MEPU40,31,1522870400024,"{""rt"": [3647, 119, 591], ""trial_type"": ""mouselab-mdp"", ""trialTime"": 8304, ""rewards"": [4, -4, 48], ""stateRewards"": ["""", 2, -4, 24, -24, -2, 8, 24, 48, 4, -4, 48, 48], ""actionTimes"": [3652, 4289, 5406], ""trial_id"": 5246743485396079000, ""time_elapsed"": 342328, ""actions"": [""left"", ""left"", ""up""], ""trialIndex"": 27, ""score"": 45, ""trial_index"": 31, ""simulationMode"": [null, null, null], ""queries"": {""mouseover"": {""state"": {""target"": [], ""time"": []}, ""edge"": {""target"": [], ""time"": []}}, ""click"": {""state"": {""target"": [""5"", ""10"", ""11""], ""time"": [950, 1658, 2299]}, ""edge"": {""target"": [], ""time"": []}}, ""mouseout"": {""state"": {""target"": [], ""time"": []}, ""edge"": {""target"": [], ""time"": []}}}, ""path"": [""0"", ""9"", ""10"", ""11""], ""internal_node_id"": ""0.0-1.0-3.0-27.0"", ""block"": ""test""}"
