A11LMPX0LDO5SJ:3IO1LGZLK9XNQIKT8ZBNBXITJT568B,0,1519839497944,"{""rt"": 28012, ""trial_type"": ""text"", ""internal_node_id"": ""0.0-0.0"", ""time_elapsed"": 28025, ""key_press"": 37, ""trial_index"": 0}"
A11LMPX0LDO5SJ:3IO1LGZLK9XNQIKT8ZBNBXITJT568B,1,1519839546881,"{""rt"": 47923, ""trial_type"": ""text"", ""internal_node_id"": ""0.0-1.0"", ""time_elapsed"": 76963, ""key_press"": 32, ""trial_index"": 1}"
A11LMPX0LDO5SJ:3IO1LGZLK9XNQIKT8ZBNBXITJT568B,2,1519839575081,"{""rt"": [11399, 1638, 2141], ""trial_type"": ""mouselab-mdp"", ""trialTime"": 27011, ""rewards"": [-4, 4, 24], ""stateRewards"": ["""", -4, 4, 24, 24, -2, -4, 48, -24, -4, 8, -48, 48], ""actionTimes"": [11407, 13565, 16237], ""trial_id"": -4874666135804490000, ""time_elapsed"": 105163, ""actions"": [""up"", ""up"", ""right""], ""trialIndex"": 0, ""score"": 24, ""trial_index"": 2, ""simulationMode"": [null, null, null], ""queries"": {""mouseover"": {""state"": {""target"": [], ""time"": []}, ""edge"": {""target"": [], ""time"": []}}, ""click"": {""state"": {""target"": [], ""time"": []}, ""edge"": {""target"": [], ""time"": []}}, ""mouseout"": {""state"": {""target"": [], ""time"": []}, ""edge"": {""target"": [], ""time"": []}}}, ""path"": [""0"", ""1"", ""2"", ""3""], ""internal_node_id"": ""0.0-2.0-0.0"", ""block"": ""pre_test""}"
A11LMPX0LDO5SJ:3IO1LGZLK9XNQIKT8ZBNBXITJT568B,3,1519839589820,"{""rt"": 13736, ""trial_type"": ""text"", ""internal_node_id"": ""0.0-3.0"", ""time_elapsed"": 119902, ""key_press"": 32, ""trial_index"": 3}"
A11LMPX0LDO5SJ:3IO1LGZLK9XNQIKT8ZBNBXITJT568B,4,1519839670080,"{""rt"": [14277, 6954, 1091], ""trial_type"": ""mouselab-mdp"", ""trialTime"": 79154, ""rewards"": [-4, 4, 48], ""stateRewards"": ["""", -2, -4, 48, 24, 2, 4, -48, 48, -4, 4, 48, 24], ""actionTimes"": [14286, 63761, 65379], ""trial_id"": 7946552191512982000, ""time_elapsed"": 200161, ""actions"": [""left"", ""left"", ""up""], ""trialIndex"": 1, ""score"": 48, ""trial_index"": 4, ""simulationMode"": [null, null, null], ""queries"": {""mouseover"": {""state"": {""target"": [], ""time"": []}, ""edge"": {""target"": [], ""time"": []}}, ""click"": {""state"": {""target"": [], ""time"": []}, ""edge"": {""target"": [], ""time"": []}}, ""mouseout"": {""state"": {""target"": [], ""time"": []}, ""edge"": {""target"": [], ""time"": []}}}, ""path"": [""0"", ""9"", ""10"", ""11""], ""internal_node_id"": ""0.0-4.0-0.0"", ""block"": ""training""}"
A11LMPX0LDO5SJ:3IO1LGZLK9XNQIKT8ZBNBXITJT568B,5,1519839731265,"{""rt"": [9873, 2089, 895], ""trial_type"": ""mouselab-mdp"", ""trialTime"": 60098, ""rewards"": [-2, -4, 24], ""stateRewards"": ["""", 4, 4, -48, 48, -2, 4, -48, -24, -2, -4, -48, 24], ""actionTimes"": [9878, 54493, 55901], ""trial_id"": -5006809819184351000, ""time_elapsed"": 261346, ""actions"": [""left"", ""left"", ""down""], ""trialIndex"": 2, ""score"": 18, ""trial_index"": 5, ""simulationMode"": [null, null, null], ""queries"": {""mouseover"": {""state"": {""target"": [], ""time"": []}, ""edge"": {""target"": [], ""time"": []}}, ""click"": {""state"": {""target"": [], ""time"": []}, ""edge"": {""target"": [], ""time"": []}}, ""mouseout"": {""state"": {""target"": [], ""time"": []}, ""edge"": {""target"": [], ""time"": []}}}, ""path"": [""0"", ""9"", ""10"", ""12""], ""internal_node_id"": ""0.0-4.0-1.0"", ""block"": ""training""}"
A11LMPX0LDO5SJ:3IO1LGZLK9XNQIKT8ZBNBXITJT568B,6,1519839769380,"{""rt"": [31430, 506, 769], ""trial_type"": ""mouselab-mdp"", ""trialTime"": 37033, ""rewards"": [-2, 8, 24], ""stateRewards"": ["""", 2, 4, -24, -48, -2, -4, -24, -24, -2, 8, 24, -24], ""actionTimes"": [31434, 32468, 33765], ""trial_id"": 11823864361136648, ""time_elapsed"": 299462, ""actions"": [""left"", ""left"", ""up""], ""trialIndex"": 3, ""score"": 23, ""trial_index"": 6, ""simulationMode"": [null, null, null], ""queries"": {""mouseover"": {""state"": {""target"": [], ""time"": []}, ""edge"": {""target"": [], ""time"": []}}, ""click"": {""state"": {""target"": [""4"", ""3"", ""7"", ""8"", ""11"", ""12"", ""10""], ""time"": [10966, 13031, 16311, 18456, 21099, 23029, 27564]}, ""edge"": {""target"": [], ""time"": []}}, ""mouseout"": {""state"": {""target"": [], ""time"": []}, ""edge"": {""target"": [], ""time"": []}}}, ""path"": [""0"", ""9"", ""10"", ""11""], ""internal_node_id"": ""0.0-4.0-2.0"", ""block"": ""training""}"
A11LMPX0LDO5SJ:3IO1LGZLK9XNQIKT8ZBNBXITJT568B,7,1519839805309,"{""rt"": [10187, 1486, 855], ""trial_type"": ""mouselab-mdp"", ""trialTime"": 34849, ""rewards"": [-2, -4, 24], ""stateRewards"": ["""", -2, -8, 24, 48, -2, 8, -24, -24, -2, -4, 24, -24], ""actionTimes"": [10192, 30207, 31577], ""trial_id"": -3603402282008602000, ""time_elapsed"": 335391, ""actions"": [""left"", ""left"", ""up""], ""trialIndex"": 4, ""score"": 17, ""trial_index"": 7, ""simulationMode"": [null, null, null], ""queries"": {""mouseover"": {""state"": {""target"": [], ""time"": []}, ""edge"": {""target"": [], ""time"": []}}, ""click"": {""state"": {""target"": [""11""], ""time"": [5847]}, ""edge"": {""target"": [], ""time"": []}}, ""mouseout"": {""state"": {""target"": [], ""time"": []}, ""edge"": {""target"": [], ""time"": []}}}, ""path"": [""0"", ""9"", ""10"", ""11""], ""internal_node_id"": ""0.0-4.0-3.0"", ""block"": ""training""}"
A11LMPX0LDO5SJ:3IO1LGZLK9XNQIKT8ZBNBXITJT568B,8,1519839833536,"{""rt"": [18061, 724, 1338], ""trial_type"": ""mouselab-mdp"", ""trialTime"": 27146, ""rewards"": [-2, 4, 24], ""stateRewards"": ["""", -2, 4, -24, 24, -2, -4, -48, -48, 4, -8, 24, 24], ""actionTimes"": [18065, 23322, 25184], ""trial_id"": 282020194745400500, ""time_elapsed"": 363618, ""actions"": [""up"", ""up"", ""left""], ""trialIndex"": 5, ""score"": 20, ""trial_index"": 8, ""simulationMode"": [null, null, null], ""queries"": {""mouseover"": {""state"": {""target"": [], ""time"": []}, ""edge"": {""target"": [], ""time"": []}}, ""click"": {""state"": {""target"": [""4"", ""3"", ""7"", ""8"", ""12"", ""11""], ""time"": [4583, 6340, 7913, 9808, 11826, 13486]}, ""edge"": {""target"": [], ""time"": []}}, ""mouseout"": {""state"": {""target"": [], ""time"": []}, ""edge"": {""target"": [], ""time"": []}}}, ""path"": [""0"", ""1"", ""2"", ""4""], ""internal_node_id"": ""0.0-4.0-4.0"", ""block"": ""training""}"
A11LMPX0LDO5SJ:3IO1LGZLK9XNQIKT8ZBNBXITJT568B,9,1519839864430,"{""rt"": [11085, 1324, 267], ""trial_type"": ""mouselab-mdp"", ""trialTime"": 29818, ""rewards"": [-2, 8, -24], ""stateRewards"": ["""", -2, 8, -24, 24, -4, 8, 48, 24, -2, -4, 24, -48], ""actionTimes"": [11089, 24940, 25731], ""trial_id"": 2561475919526080000, ""time_elapsed"": 394512, ""actions"": [""up"", ""up"", ""right""], ""trialIndex"": 6, ""score"": -21, ""trial_index"": 9, ""simulationMode"": [null, null, null], ""queries"": {""mouseover"": {""state"": {""target"": [], ""time"": []}, ""edge"": {""target"": [], ""time"": []}}, ""click"": {""state"": {""target"": [""11"", ""4"", ""2""], ""time"": [3448, 4651, 7785]}, ""edge"": {""target"": [], ""time"": []}}, ""mouseout"": {""state"": {""target"": [], ""time"": []}, ""edge"": {""target"": [], ""time"": []}}}, ""path"": [""0"", ""1"", ""2"", ""3""], ""internal_node_id"": ""0.0-4.0-5.0"", ""block"": ""training""}"
A11LMPX0LDO5SJ:3IO1LGZLK9XNQIKT8ZBNBXITJT568B,10,1519839888683,"{""rt"": [18750, 559, 1035], ""trial_type"": ""mouselab-mdp"", ""trialTime"": 23173, ""rewards"": [2, 4, 24], ""stateRewards"": ["""", 2, 4, -24, 24, 4, 8, -48, -48, -4, -4, -48, -24], ""actionTimes"": [18753, 19834, 21394], ""trial_id"": -7784032825751816000, ""time_elapsed"": 418764, ""actions"": [""up"", ""up"", ""left""], ""trialIndex"": 7, ""score"": 23, ""trial_index"": 10, ""simulationMode"": [null, null, null], ""queries"": {""mouseover"": {""state"": {""target"": [], ""time"": []}, ""edge"": {""target"": [], ""time"": []}}, ""click"": {""state"": {""target"": [""12"", ""11"", ""4"", ""3"", ""7"", ""8"", ""2""], ""time"": [3663, 5207, 6526, 7855, 9079, 10296, 15495]}, ""edge"": {""target"": [], ""time"": []}}, ""mouseout"": {""state"": {""target"": [], ""time"": []}, ""edge"": {""target"": [], ""time"": []}}}, ""path"": [""0"", ""1"", ""2"", ""4""], ""internal_node_id"": ""0.0-4.0-6.0"", ""block"": ""training""}"
A11LMPX0LDO5SJ:3IO1LGZLK9XNQIKT8ZBNBXITJT568B,11,1519839909617,"{""rt"": [15103, 288, 1209], ""trial_type"": ""mouselab-mdp"", ""trialTime"": 19855, ""rewards"": [4, 8, 48], ""stateRewards"": ["""", 4, 8, -24, 48, 2, 8, -48, -48, 2, -4, 24, -48], ""actionTimes"": [15106, 15919, 17637], ""trial_id"": -6668518537832265000, ""time_elapsed"": 439699, ""actions"": [""up"", ""up"", ""left""], ""trialIndex"": 8, ""score"": 56, ""trial_index"": 11, ""simulationMode"": [null, null, null], ""queries"": {""mouseover"": {""state"": {""target"": [], ""time"": []}, ""edge"": {""target"": [], ""time"": []}}, ""click"": {""state"": {""target"": [""11"", ""12"", ""4"", ""3""], ""time"": [2581, 4492, 6414, 11402]}, ""edge"": {""target"": [], ""time"": []}}, ""mouseout"": {""state"": {""target"": [], ""time"": []}, ""edge"": {""target"": [], ""time"": []}}}, ""path"": [""0"", ""1"", ""2"", ""4""], ""internal_node_id"": ""0.0-4.0-7.0"", ""block"": ""training""}"
A11LMPX0LDO5SJ:3IO1LGZLK9XNQIKT8ZBNBXITJT568B,12,1519839928502,"{""rt"": [12373, 1287, 1469], ""trial_type"": ""mouselab-mdp"", ""trialTime"": 17814, ""rewards"": [4, 4, 48], ""stateRewards"": ["""", 2, 4, 24, -24, 4, 8, 24, -24, 4, 4, 24, 48], ""actionTimes"": [12377, 14186, 16170], ""trial_id"": 5959115827255457000, ""time_elapsed"": 458584, ""actions"": [""left"", ""left"", ""down""], ""trialIndex"": 9, ""score"": 53, ""trial_index"": 12, ""simulationMode"": [null, null, null], ""queries"": {""mouseover"": {""state"": {""target"": [], ""time"": []}, ""edge"": {""target"": [], ""time"": []}}, ""click"": {""state"": {""target"": [""11"", ""12"", ""4""], ""time"": [2254, 3554, 7445]}, ""edge"": {""target"": [], ""time"": []}}, ""mouseout"": {""state"": {""target"": [], ""time"": []}, ""edge"": {""target"": [], ""time"": []}}}, ""path"": [""0"", ""9"", ""10"", ""12""], ""internal_node_id"": ""0.0-4.0-8.0"", ""block"": ""training""}"
A11LMPX0LDO5SJ:3IO1LGZLK9XNQIKT8ZBNBXITJT568B,13,1519839957528,"{""rt"": [20370, 590, 1215], ""trial_type"": ""mouselab-mdp"", ""trialTime"": 27956, ""rewards"": [-4, -8, 48], ""stateRewards"": ["""", 4, 8, -24, -24, -4, -8, -48, 48, 2, -8, -24, -48], ""actionTimes"": [20376, 21480, 23223], ""trial_id"": 2630443220538220000, ""time_elapsed"": 487610, ""actions"": [""right"", ""right"", ""down""], ""trialIndex"": 10, ""score"": 30, ""trial_index"": 13, ""simulationMode"": [null, null, null], ""queries"": {""mouseover"": {""state"": {""target"": [], ""time"": []}, ""edge"": {""target"": [], ""time"": []}}, ""click"": {""state"": {""target"": [""11"", ""12"", ""4"", ""3"", ""7"", ""8""], ""time"": [2617, 5764, 8655, 10373, 12646, 14150]}, ""edge"": {""target"": [], ""time"": []}}, ""mouseout"": {""state"": {""target"": [], ""time"": []}, ""edge"": {""target"": [], ""time"": []}}}, ""path"": [""0"", ""5"", ""6"", ""8""], ""internal_node_id"": ""0.0-4.0-9.0"", ""block"": ""training""}"
A11LMPX0LDO5SJ:3IO1LGZLK9XNQIKT8ZBNBXITJT568B,14,1519839962956,"{""rt"": 4425, ""trial_type"": ""text"", ""internal_node_id"": ""0.0-5.0"", ""time_elapsed"": 493038, ""key_press"": 32, ""trial_index"": 14}"
A11LMPX0LDO5SJ:3IO1LGZLK9XNQIKT8ZBNBXITJT568B,15,1519839985735,"{""rt"": 21768, ""trial_type"": ""text"", ""internal_node_id"": ""0.0-6.0"", ""time_elapsed"": 515817, ""key_press"": 32, ""trial_index"": 15}"
A11LMPX0LDO5SJ:3IO1LGZLK9XNQIKT8ZBNBXITJT568B,16,1519840008697,"{""rt"": [16912, 273, 1231], ""trial_type"": ""mouselab-mdp"", ""trialTime"": 21885, ""rewards"": [4, -4, 48], ""stateRewards"": ["""", 4, -4, -48, 24, -2, -4, 24, 48, 4, -4, 48, -48], ""actionTimes"": [16916, 17706, 19463], ""trial_id"": 320588371626771840, ""time_elapsed"": 538779, ""actions"": [""left"", ""left"", ""up""], ""trialIndex"": 11, ""score"": 44, ""trial_index"": 16, ""simulationMode"": [null, null, null], ""queries"": {""mouseover"": {""state"": {""target"": [], ""time"": []}, ""edge"": {""target"": [], ""time"": []}}, ""click"": {""state"": {""target"": [""11"", ""12"", ""4"", ""3""], ""time"": [4429, 7360, 10242, 12019]}, ""edge"": {""target"": [], ""time"": []}}, ""mouseout"": {""state"": {""target"": [], ""time"": []}, ""edge"": {""target"": [], ""time"": []}}}, ""path"": [""0"", ""9"", ""10"", ""11""], ""internal_node_id"": ""0.0-7.0-0.0"", ""block"": ""test""}"
A11LMPX0LDO5SJ:3IO1LGZLK9XNQIKT8ZBNBXITJT568B,17,1519840027486,"{""rt"": [11294, 434, 2561], ""trial_type"": ""mouselab-mdp"", ""trialTime"": 17714, ""rewards"": [2, -4, 24], ""stateRewards"": ["""", 2, -4, 24, 24, -4, 4, -24, -24, -2, 4, -24, -48], ""actionTimes"": [11297, 12250, 15328], ""trial_id"": 7862543089384343000, ""time_elapsed"": 557567, ""actions"": [""up"", ""up"", ""right""], ""trialIndex"": 12, ""score"": 18, ""trial_index"": 17, ""simulationMode"": [null, null, null], ""queries"": {""mouseover"": {""state"": {""target"": [], ""time"": []}, ""edge"": {""target"": [], ""time"": []}}, ""click"": {""state"": {""target"": [""11"", ""12"", ""4"", ""3""], ""time"": [2590, 4028, 5726, 7239]}, ""edge"": {""target"": [], ""time"": []}}, ""mouseout"": {""state"": {""target"": [], ""time"": []}, ""edge"": {""target"": [], ""time"": []}}}, ""path"": [""0"", ""1"", ""2"", ""3""], ""internal_node_id"": ""0.0-7.0-1.0"", ""block"": ""test""}"
A11LMPX0LDO5SJ:3IO1LGZLK9XNQIKT8ZBNBXITJT568B,18,1519840053591,"{""rt"": [18262, 356, 1087], ""trial_type"": ""mouselab-mdp"", ""trialTime"": 25027, ""rewards"": [-2, -8, 48], ""stateRewards"": ["""", 4, 4, 48, -48, -2, -8, 48, -24, -4, -8, 24, -48], ""actionTimes"": [18266, 19139, 20753], ""trial_id"": -4670080337334774000, ""time_elapsed"": 583673, ""actions"": [""right"", ""right"", ""up""], ""trialIndex"": 13, ""score"": 32, ""trial_index"": 18, ""simulationMode"": [null, null, null], ""queries"": {""mouseover"": {""state"": {""target"": [], ""time"": []}, ""edge"": {""target"": [], ""time"": []}}, ""click"": {""state"": {""target"": [""7"", ""8"", ""3"", ""4"", ""11"", ""12""], ""time"": [3203, 4609, 6502, 7950, 9823, 11445]}, ""edge"": {""target"": [], ""time"": []}}, ""mouseout"": {""state"": {""target"": [], ""time"": []}, ""edge"": {""target"": [], ""time"": []}}}, ""path"": [""0"", ""5"", ""6"", ""7""], ""internal_node_id"": ""0.0-7.0-2.0"", ""block"": ""test""}"
A11LMPX0LDO5SJ:3IO1LGZLK9XNQIKT8ZBNBXITJT568B,19,1519840077458,"{""rt"": [17063, 472, 1251], ""trial_type"": ""mouselab-mdp"", ""trialTime"": 22796, ""rewards"": [-2, 8, 48], ""stateRewards"": ["""", 4, -4, -48, -48, 4, 8, 24, -24, -2, 8, 48, -48], ""actionTimes"": [17069, 18066, 19844], ""trial_id"": -6978553059181346000, ""time_elapsed"": 607539, ""actions"": [""left"", ""left"", ""up""], ""trialIndex"": 14, ""score"": 48, ""trial_index"": 19, ""simulationMode"": [null, null, null], ""queries"": {""mouseover"": {""state"": {""target"": [], ""time"": []}, ""edge"": {""target"": [], ""time"": []}}, ""click"": {""state"": {""target"": [""4"", ""3"", ""7"", ""8"", ""12"", ""11""], ""time"": [2717, 4315, 6646, 8490, 10266, 11829]}, ""edge"": {""target"": [], ""time"": []}}, ""mouseout"": {""state"": {""target"": [], ""time"": []}, ""edge"": {""target"": [], ""time"": []}}}, ""path"": [""0"", ""9"", ""10"", ""11""], ""internal_node_id"": ""0.0-7.0-3.0"", ""block"": ""test""}"
A11LMPX0LDO5SJ:3IO1LGZLK9XNQIKT8ZBNBXITJT568B,20,1519840092695,"{""rt"": [8916, 385, 1377], ""trial_type"": ""mouselab-mdp"", ""trialTime"": 14172, ""rewards"": [-4, -4, 48], ""stateRewards"": ["""", 2, -4, -24, -24, 4, -8, -48, -48, -4, -4, 48, 48], ""actionTimes"": [8921, 9828, 11719], ""trial_id"": -7913607226466677000, ""time_elapsed"": 622777, ""actions"": [""left"", ""left"", ""up""], ""trialIndex"": 15, ""score"": 38, ""trial_index"": 20, ""simulationMode"": [null, null, null], ""queries"": {""mouseover"": {""state"": {""target"": [], ""time"": []}, ""edge"": {""target"": [], ""time"": []}}, ""click"": {""state"": {""target"": [""11"", ""12""], ""time"": [3257, 4683]}, ""edge"": {""target"": [], ""time"": []}}, ""mouseout"": {""state"": {""target"": [], ""time"": []}, ""edge"": {""target"": [], ""time"": []}}}, ""path"": [""0"", ""9"", ""10"", ""11""], ""internal_node_id"": ""0.0-7.0-4.0"", ""block"": ""test""}"
A11LMPX0LDO5SJ:3IO1LGZLK9XNQIKT8ZBNBXITJT568B,21,1519840120031,"{""rt"": [20885, 377, 1617], ""trial_type"": ""mouselab-mdp"", ""trialTime"": 26246, ""rewards"": [-2, -8, 48], ""stateRewards"": ["""", -2, 8, 24, -48, 2, 4, -24, 24, -2, -8, 48, -24], ""actionTimes"": [20891, 21782, 23922], ""trial_id"": 6282558609452272000, ""time_elapsed"": 650113, ""actions"": [""left"", ""left"", ""up""], ""trialIndex"": 16, ""score"": 34, ""trial_index"": 21, ""simulationMode"": [null, null, null], ""queries"": {""mouseover"": {""state"": {""target"": [], ""time"": []}, ""edge"": {""target"": [], ""time"": []}}, ""click"": {""state"": {""target"": [""4"", ""11"", ""12"", ""8""], ""time"": [2128, 4450, 8314, 10924]}, ""edge"": {""target"": [], ""time"": []}}, ""mouseout"": {""state"": {""target"": [], ""time"": []}, ""edge"": {""target"": [], ""time"": []}}}, ""path"": [""0"", ""9"", ""10"", ""11""], ""internal_node_id"": ""0.0-7.0-5.0"", ""block"": ""test""}"
A11LMPX0LDO5SJ:3IO1LGZLK9XNQIKT8ZBNBXITJT568B,22,1519840130994,"{""rt"": [6117, 295, 616], ""trial_type"": ""mouselab-mdp"", ""trialTime"": 9881, ""rewards"": [-4, -4, 48], ""stateRewards"": ["""", -4, 8, 48, 24, 2, -8, -48, -24, -4, -4, 48, -24], ""actionTimes"": [6120, 6933, 8073], ""trial_id"": 3419769505624262700, ""time_elapsed"": 661076, ""actions"": [""left"", ""left"", ""up""], ""trialIndex"": 17, ""score"": 39, ""trial_index"": 22, ""simulationMode"": [null, null, null], ""queries"": {""mouseover"": {""state"": {""target"": [], ""time"": []}, ""edge"": {""target"": [], ""time"": []}}, ""click"": {""state"": {""target"": [""11""], ""time"": [2117]}, ""edge"": {""target"": [], ""time"": []}}, ""mouseout"": {""state"": {""target"": [], ""time"": []}, ""edge"": {""target"": [], ""time"": []}}}, ""path"": [""0"", ""9"", ""10"", ""11""], ""internal_node_id"": ""0.0-7.0-6.0"", ""block"": ""test""}"
A11LMPX0LDO5SJ:3IO1LGZLK9XNQIKT8ZBNBXITJT568B,23,1519840162647,"{""rt"": [26836, 353, 1077], ""trial_type"": ""mouselab-mdp"", ""trialTime"": 30570, ""rewards"": [4, 8, 24], ""stateRewards"": ["""", 2, 4, 24, -24, 4, 8, -48, 24, 4, -8, -24, 24], ""actionTimes"": [26839, 27717, 29309], ""trial_id"": 8950946188299295000, ""time_elapsed"": 692729, ""actions"": [""right"", ""right"", ""down""], ""trialIndex"": 18, ""score"": 29, ""trial_index"": 23, ""simulationMode"": [null, null, null], ""queries"": {""mouseover"": {""state"": {""target"": [], ""time"": []}, ""edge"": {""target"": [], ""time"": []}}, ""click"": {""state"": {""target"": [""11"", ""12"", ""8"", ""7"", ""3"", ""4"", ""10""], ""time"": [2462, 4694, 6540, 8986, 10557, 11906, 19830]}, ""edge"": {""target"": [], ""time"": []}}, ""mouseout"": {""state"": {""target"": [], ""time"": []}, ""edge"": {""target"": [], ""time"": []}}}, ""path"": [""0"", ""5"", ""6"", ""8""], ""internal_node_id"": ""0.0-7.0-7.0"", ""block"": ""test""}"
A11LMPX0LDO5SJ:3IO1LGZLK9XNQIKT8ZBNBXITJT568B,24,1519840180564,"{""rt"": [12994, 276, 633], ""trial_type"": ""mouselab-mdp"", ""trialTime"": 16849, ""rewards"": [4, -8, 48], ""stateRewards"": ["""", -4, 4, -24, -24, -4, -8, 24, -24, 4, -8, 48, -48], ""actionTimes"": [12998, 13796, 14952], ""trial_id"": 460924718031657700, ""time_elapsed"": 710646, ""actions"": [""left"", ""left"", ""up""], ""trialIndex"": 19, ""score"": 38, ""trial_index"": 24, ""simulationMode"": [null, null, null], ""queries"": {""mouseover"": {""state"": {""target"": [], ""time"": []}, ""edge"": {""target"": [], ""time"": []}}, ""click"": {""state"": {""target"": [""4"", ""3"", ""7"", ""8"", ""12"", ""11""], ""time"": [2491, 4236, 5373, 6808, 8422, 9762]}, ""edge"": {""target"": [], ""time"": []}}, ""mouseout"": {""state"": {""target"": [], ""time"": []}, ""edge"": {""target"": [], ""time"": []}}}, ""path"": [""0"", ""9"", ""10"", ""11""], ""internal_node_id"": ""0.0-7.0-8.0"", ""block"": ""test""}"
A11LMPX0LDO5SJ:3IO1LGZLK9XNQIKT8ZBNBXITJT568B,25,1519840200562,"{""rt"": [14778, 376, 1200], ""trial_type"": ""mouselab-mdp"", ""trialTime"": 18925, ""rewards"": [4, 8, 48], ""stateRewards"": ["""", -2, -8, -24, -24, 4, 8, 48, 24, -2, 8, -24, -48], ""actionTimes"": [14783, 15686, 17408], ""trial_id"": 4079752410143045600, ""time_elapsed"": 730644, ""actions"": [""right"", ""right"", ""up""], ""trialIndex"": 20, ""score"": 56, ""trial_index"": 25, ""simulationMode"": [null, null, null], ""queries"": {""mouseover"": {""state"": {""target"": [], ""time"": []}, ""edge"": {""target"": [], ""time"": []}}, ""click"": {""state"": {""target"": [""4"", ""3"", ""7"", ""8""], ""time"": [2296, 4478, 6120, 8012]}, ""edge"": {""target"": [], ""time"": []}}, ""mouseout"": {""state"": {""target"": [], ""time"": []}, ""edge"": {""target"": [], ""time"": []}}}, ""path"": [""0"", ""5"", ""6"", ""7""], ""internal_node_id"": ""0.0-7.0-9.0"", ""block"": ""test""}"
A11LMPX0LDO5SJ:3IO1LGZLK9XNQIKT8ZBNBXITJT568B,26,1519840225580,"{""rt"": [19024, 588, 1032], ""trial_type"": ""mouselab-mdp"", ""trialTime"": 23943, ""rewards"": [2, -4, 24], ""stateRewards"": ["""", -4, -4, -24, 24, 2, -4, 24, -48, -2, 8, -48, -48], ""actionTimes"": [19027, 20139, 21699], ""trial_id"": -1389625695571519700, ""time_elapsed"": 755661, ""actions"": [""right"", ""right"", ""up""], ""trialIndex"": 21, ""score"": 15, ""trial_index"": 26, ""simulationMode"": [null, null, null], ""queries"": {""mouseover"": {""state"": {""target"": [], ""time"": []}, ""edge"": {""target"": [], ""time"": []}}, ""click"": {""state"": {""target"": [""4"", ""3"", ""11"", ""12"", ""7"", ""8"", ""2""], ""time"": [2330, 3591, 6514, 8027, 9571, 10697, 12970]}, ""edge"": {""target"": [], ""time"": []}}, ""mouseout"": {""state"": {""target"": [], ""time"": []}, ""edge"": {""target"": [], ""time"": []}}}, ""path"": [""0"", ""5"", ""6"", ""7""], ""internal_node_id"": ""0.0-7.0-10.0"", ""block"": ""test""}"
A11LMPX0LDO5SJ:3IO1LGZLK9XNQIKT8ZBNBXITJT568B,27,1519840251104,"{""rt"": [19592, 600, 518], ""trial_type"": ""mouselab-mdp"", ""trialTime"": 24447, ""rewards"": [-4, 4, 48], ""stateRewards"": ["""", -4, 4, 48, -48, -4, 4, -24, 24, -4, -8, 24, 24], ""actionTimes"": [19597, 20722, 21756], ""trial_id"": -5995301136843023000, ""time_elapsed"": 781185, ""actions"": [""up"", ""up"", ""right""], ""trialIndex"": 22, ""score"": 41, ""trial_index"": 27, ""simulationMode"": [null, null, null], ""queries"": {""mouseover"": {""state"": {""target"": [], ""time"": []}, ""edge"": {""target"": [], ""time"": []}}, ""click"": {""state"": {""target"": [""4"", ""7"", ""12"", ""11"", ""10"", ""8"", ""3""], ""time"": [2720, 4865, 6989, 8504, 10252, 13103, 17754]}, ""edge"": {""target"": [], ""time"": []}}, ""mouseout"": {""state"": {""target"": [], ""time"": []}, ""edge"": {""target"": [], ""time"": []}}}, ""path"": [""0"", ""1"", ""2"", ""3""], ""internal_node_id"": ""0.0-7.0-11.0"", ""block"": ""test""}"
A11LMPX0LDO5SJ:3IO1LGZLK9XNQIKT8ZBNBXITJT568B,28,1519840264014,"{""rt"": [7093, 499, 926], ""trial_type"": ""mouselab-mdp"", ""trialTime"": 11844, ""rewards"": [2, 8, 48], ""stateRewards"": ["""", 2, 8, 48, 24, -2, 4, 24, 24, -2, -4, -48, -24], ""actionTimes"": [7097, 8123, 9559], ""trial_id"": -8923867603615937000, ""time_elapsed"": 794095, ""actions"": [""up"", ""up"", ""right""], ""trialIndex"": 23, ""score"": 56, ""trial_index"": 28, ""simulationMode"": [null, null, null], ""queries"": {""mouseover"": {""state"": {""target"": [], ""time"": []}, ""edge"": {""target"": [], ""time"": []}}, ""click"": {""state"": {""target"": [""4"", ""3""], ""time"": [2159, 3518]}, ""edge"": {""target"": [], ""time"": []}}, ""mouseout"": {""state"": {""target"": [], ""time"": []}, ""edge"": {""target"": [], ""time"": []}}}, ""path"": [""0"", ""1"", ""2"", ""3""], ""internal_node_id"": ""0.0-7.0-12.0"", ""block"": ""test""}"
A11LMPX0LDO5SJ:3IO1LGZLK9XNQIKT8ZBNBXITJT568B,29,1519840280077,"{""rt"": [11154, 484, 467], ""trial_type"": ""mouselab-mdp"", ""trialTime"": 14991, ""rewards"": [2, -8, 48], ""stateRewards"": ["""", 4, 8, -24, 24, -2, 4, -24, 48, 2, -8, 24, 48], ""actionTimes"": [11157, 12166, 13149], ""trial_id"": 8866052500453722000, ""time_elapsed"": 810159, ""actions"": [""left"", ""left"", ""down""], ""trialIndex"": 24, ""score"": 38, ""trial_index"": 29, ""simulationMode"": [null, null, null], ""queries"": {""mouseover"": {""state"": {""target"": [], ""time"": []}, ""edge"": {""target"": [], ""time"": []}}, ""click"": {""state"": {""target"": [""4"", ""3"", ""11"", ""12""], ""time"": [2066, 3462, 5122, 6579]}, ""edge"": {""target"": [], ""time"": []}}, ""mouseout"": {""state"": {""target"": [], ""time"": []}, ""edge"": {""target"": [], ""time"": []}}}, ""path"": [""0"", ""9"", ""10"", ""12""], ""internal_node_id"": ""0.0-7.0-13.0"", ""block"": ""test""}"
A11LMPX0LDO5SJ:3IO1LGZLK9XNQIKT8ZBNBXITJT568B,30,1519840297242,"{""rt"": [10838, 603, 476], ""trial_type"": ""mouselab-mdp"", ""trialTime"": 16096, ""rewards"": [2, -4, 48], ""stateRewards"": ["""", 2, 4, -48, 48, -4, 4, -48, -48, 2, -4, 24, 48], ""actionTimes"": [10842, 11969, 12960], ""trial_id"": -5849434166602758000, ""time_elapsed"": 827324, ""actions"": [""left"", ""left"", ""down""], ""trialIndex"": 25, ""score"": 42, ""trial_index"": 30, ""simulationMode"": [null, null, null], ""queries"": {""mouseover"": {""state"": {""target"": [], ""time"": []}, ""edge"": {""target"": [], ""time"": []}}, ""click"": {""state"": {""target"": [""4"", ""3"", ""11"", ""12""], ""time"": [1857, 5623, 7721, 8963]}, ""edge"": {""target"": [], ""time"": []}}, ""mouseout"": {""state"": {""target"": [], ""time"": []}, ""edge"": {""target"": [], ""time"": []}}}, ""path"": [""0"", ""9"", ""10"", ""12""], ""internal_node_id"": ""0.0-7.0-14.0"", ""block"": ""test""}"
A11LMPX0LDO5SJ:3IO1LGZLK9XNQIKT8ZBNBXITJT568B,31,1519840309184,"{""rt"": [6039, 397, 402], ""trial_type"": ""mouselab-mdp"", ""trialTime"": 10870, ""rewards"": [2, -4, 48], ""stateRewards"": ["""", 2, -4, 48, 24, -2, -4, 24, 24, 2, -8, -24, 24], ""actionTimes"": [6042, 6958, 7879], ""trial_id"": 556601214791588500, ""time_elapsed"": 839266, ""actions"": [""up"", ""up"", ""right""], ""trialIndex"": 26, ""score"": 44, ""trial_index"": 31, ""simulationMode"": [null, null, null], ""queries"": {""mouseover"": {""state"": {""target"": [], ""time"": []}, ""edge"": {""target"": [], ""time"": []}}, ""click"": {""state"": {""target"": [""4"", ""3""], ""time"": [1872, 4095]}, ""edge"": {""target"": [], ""time"": []}}, ""mouseout"": {""state"": {""target"": [], ""time"": []}, ""edge"": {""target"": [], ""time"": []}}}, ""path"": [""0"", ""1"", ""2"", ""3""], ""internal_node_id"": ""0.0-7.0-15.0"", ""block"": ""test""}"
A11LMPX0LDO5SJ:3IO1LGZLK9XNQIKT8ZBNBXITJT568B,32,1519840322133,"{""rt"": [6850, 429, 1133], ""trial_type"": ""mouselab-mdp"", ""trialTime"": 11879, ""rewards"": [2, 4, 48], ""stateRewards"": ["""", 2, 4, -24, 48, -4, 8, -48, 48, 2, -4, 24, -24], ""actionTimes"": [6854, 7796, 9450], ""trial_id"": -8327671364504025000, ""time_elapsed"": 852215, ""actions"": [""up"", ""up"", ""left""], ""trialIndex"": 27, ""score"": 52, ""trial_index"": 32, ""simulationMode"": [null, null, null], ""queries"": {""mouseover"": {""state"": {""target"": [], ""time"": []}, ""edge"": {""target"": [], ""time"": []}}, ""click"": {""state"": {""target"": [""4"", ""3""], ""time"": [2290, 3697]}, ""edge"": {""target"": [], ""time"": []}}, ""mouseout"": {""state"": {""target"": [], ""time"": []}, ""edge"": {""target"": [], ""time"": []}}}, ""path"": [""0"", ""1"", ""2"", ""4""], ""internal_node_id"": ""0.0-7.0-16.0"", ""block"": ""test""}"
A11LMPX0LDO5SJ:3IO1LGZLK9XNQIKT8ZBNBXITJT568B,33,1519840338059,"{""rt"": [9483, 306, 1242], ""trial_type"": ""mouselab-mdp"", ""trialTime"": 14857, ""rewards"": [-2, 8, 48], ""stateRewards"": ["""", -4, -8, 24, -24, -2, 8, 24, 48, 4, -4, 24, -48], ""actionTimes"": [9487, 10320, 12086], ""trial_id"": -1100449030722574200, ""time_elapsed"": 868141, ""actions"": [""right"", ""right"", ""down""], ""trialIndex"": 28, ""score"": 50, ""trial_index"": 33, ""simulationMode"": [null, null, null], ""queries"": {""mouseover"": {""state"": {""target"": [], ""time"": []}, ""edge"": {""target"": [], ""time"": []}}, ""click"": {""state"": {""target"": [""4"", ""3"", ""7"", ""8""], ""time"": [2076, 4122, 6403, 7849]}, ""edge"": {""target"": [], ""time"": []}}, ""mouseout"": {""state"": {""target"": [], ""time"": []}, ""edge"": {""target"": [], ""time"": []}}}, ""path"": [""0"", ""5"", ""6"", ""8""], ""internal_node_id"": ""0.0-7.0-17.0"", ""block"": ""test""}"
A11LMPX0LDO5SJ:3IO1LGZLK9XNQIKT8ZBNBXITJT568B,34,1519840360757,"{""rt"": [16339, 531, 637], ""trial_type"": ""mouselab-mdp"", ""trialTime"": 21622, ""rewards"": [-2, 8, 24], ""stateRewards"": ["""", 2, 8, -24, -48, -2, 8, 48, 24, 4, 8, -24, -48], ""actionTimes"": [16343, 17386, 18543], ""trial_id"": 7708577571422581000, ""time_elapsed"": 890839, ""actions"": [""right"", ""right"", ""down""], ""trialIndex"": 29, ""score"": 27, ""trial_index"": 34, ""simulationMode"": [null, null, null], ""queries"": {""mouseover"": {""state"": {""target"": [], ""time"": []}, ""edge"": {""target"": [], ""time"": []}}, ""click"": {""state"": {""target"": [""11"", ""4"", ""3""], ""time"": [5292, 8593, 10184]}, ""edge"": {""target"": [], ""time"": []}}, ""mouseout"": {""state"": {""target"": [], ""time"": []}, ""edge"": {""target"": [], ""time"": []}}}, ""path"": [""0"", ""5"", ""6"", ""8""], ""internal_node_id"": ""0.0-7.0-18.0"", ""block"": ""test""}"
A11LMPX0LDO5SJ:3IO1LGZLK9XNQIKT8ZBNBXITJT568B,35,1519840375677,"{""rt"": [2726, 460, 757], ""trial_type"": ""mouselab-mdp"", ""trialTime"": 13846, ""rewards"": [2, -4, -48], ""stateRewards"": ["""", 2, -4, 24, -48, -4, 4, 48, 48, 4, 4, -48, -24], ""actionTimes"": [2730, 3704, 4981], ""trial_id"": 1708036831889561600, ""time_elapsed"": 905758, ""actions"": [""up"", ""up"", ""left""], ""trialIndex"": 30, ""score"": -50, ""trial_index"": 35, ""simulationMode"": [null, null, null], ""queries"": {""mouseover"": {""state"": {""target"": [], ""time"": []}, ""edge"": {""target"": [], ""time"": []}}, ""click"": {""state"": {""target"": [], ""time"": []}, ""edge"": {""target"": [], ""time"": []}}, ""mouseout"": {""state"": {""target"": [], ""time"": []}, ""edge"": {""target"": [], ""time"": []}}}, ""path"": [""0"", ""1"", ""2"", ""4""], ""internal_node_id"": ""0.0-7.0-19.0"", ""block"": ""test""}"
A11LMPX0LDO5SJ:3IO1LGZLK9XNQIKT8ZBNBXITJT568B,36,1519840417299,"{""rt"": 40597, ""trial_type"": ""survey-multi-choice"", ""responses"": ""[\""$-4 to $4\"",\""$-48 to $48\"",\""$1\"",\""1 cent for every $5 you make in the game\""]"", ""internal_node_id"": ""0.0-8.0"", ""time_elapsed"": 947381, ""questions"": ""[\""What is the range of node values in the first step?\"",\""What is the range of node values in the last step?\"",\""What is the cost of clicking?\"",\""How much REAL money do you earn?\""]"", ""correct"": null, ""trial_index"": 36}"
A11LMPX0LDO5SJ:3IO1LGZLK9XNQIKT8ZBNBXITJT568B,37,1519840578772,"{""rt"": 160460, ""trial_type"": ""survey-text"", ""responses"": ""{\""Q0\"":\""seeing the numbers in green\"",\""Q1\"":\""seeing the numbers with minus sign and red in color.\"",\""Q2\"":\""when the node ends\"",\""Q3\"":\""in the center on the spider\"",\""Q4\"":\""seeing two green numbers I decided to move my arrow towards it.\""}"", ""internal_node_id"": ""0.0-9.0"", ""time_elapsed"": 1108854, ""trial_index"": 37}"
A11LMPX0LDO5SJ:3IO1LGZLK9XNQIKT8ZBNBXITJT568B,38,1519840680833,"{""rt"": 101046, ""trial_type"": ""survey-text"", ""responses"": ""{\""Q0\"":\""I learned to be proactive with the numbers.Not to lose the game and gain more score.\"",\""Q1\"":\""It was easy ,nothing confusing.\"",\""Q2\"":\""39\"",\""Q3\"":\""Fun to play the game.\""}"", ""internal_node_id"": ""0.0-10.0"", ""time_elapsed"": 1210914, ""trial_index"": 38}"
A12CRTAKIUFWY4:3HRMW88U16Q7XW0I0B5P7E9XQTL0M1,0,1519776132778,"{""rt"": 16704, ""trial_type"": ""text"", ""internal_node_id"": ""0.0-0.0"", ""time_elapsed"": 16714, ""key_press"": 32, ""trial_index"": 0}"
A12CRTAKIUFWY4:3HRMW88U16Q7XW0I0B5P7E9XQTL0M1,1,1519776164451,"{""rt"": 30665, ""trial_type"": ""text"", ""internal_node_id"": ""0.0-1.0"", ""time_elapsed"": 48388, ""key_press"": 32, ""trial_index"": 1}"
A12CRTAKIUFWY4:3HRMW88U16Q7XW0I0B5P7E9XQTL0M1,2,1519776188811,"{""rt"": [16472, 444, 797], ""trial_type"": ""mouselab-mdp"", ""trialTime"": 23233, ""rewards"": [4, 4, 48], ""stateRewards"": ["""", -4, 8, 48, -24, -2, -4, 24, -48, 4, 4, 48, -48], ""actionTimes"": [16480, 17458, 18765], ""trial_id"": 7263244810589990000, ""time_elapsed"": 72748, ""actions"": [""left"", ""left"", ""up""], ""trialIndex"": 0, ""score"": 52, ""trial_index"": 2, ""simulationMode"": [null, null, null], ""queries"": {""mouseover"": {""state"": {""target"": [], ""time"": []}, ""edge"": {""target"": [], ""time"": []}}, ""click"": {""state"": {""target"": [""9"", ""5"", ""11"", ""12""], ""time"": [5604, 7656, 11627, 14737]}, ""edge"": {""target"": [], ""time"": []}}, ""mouseout"": {""state"": {""target"": [], ""time"": []}, ""edge"": {""target"": [], ""time"": []}}}, ""path"": [""0"", ""9"", ""10"", ""11""], ""internal_node_id"": ""0.0-2.0-0.0"", ""block"": ""pre_test""}"
A12CRTAKIUFWY4:3HRMW88U16Q7XW0I0B5P7E9XQTL0M1,3,1519776196047,"{""rt"": 6234, ""trial_type"": ""text"", ""internal_node_id"": ""0.0-3.0"", ""time_elapsed"": 79983, ""key_press"": 32, ""trial_index"": 3}"
A12CRTAKIUFWY4:3HRMW88U16Q7XW0I0B5P7E9XQTL0M1,4,1519776224835,"{""rt"": [23781, 221, 332], ""trial_type"": ""mouselab-mdp"", ""trialTime"": 27651, ""rewards"": [2, 4, 48], ""stateRewards"": ["""", 2, 4, -24, 48, -4, 8, -48, 48, 2, -4, 24, -24], ""actionTimes"": [23785, 24520, 25366], ""trial_id"": -8327671364504025000, ""time_elapsed"": 108771, ""actions"": [""up"", ""up"", ""left""], ""trialIndex"": 1, ""score"": 49, ""trial_index"": 4, ""simulationMode"": [null, null, null], ""queries"": {""mouseover"": {""state"": {""target"": [], ""time"": []}, ""edge"": {""target"": [], ""time"": []}}, ""click"": {""state"": {""target"": [""1"", ""7"", ""3"", ""4"", ""11""], ""time"": [5975, 12391, 13736, 15152, 19733]}, ""edge"": {""target"": [], ""time"": []}}, ""mouseout"": {""state"": {""target"": [], ""time"": []}, ""edge"": {""target"": [], ""time"": []}}}, ""path"": [""0"", ""1"", ""2"", ""4""], ""internal_node_id"": ""0.0-4.0-0.0"", ""block"": ""training""}"
A12CRTAKIUFWY4:3HRMW88U16Q7XW0I0B5P7E9XQTL0M1,5,1519776245748,"{""rt"": [16191, 345, 787], ""trial_type"": ""mouselab-mdp"", ""trialTime"": 19812, ""rewards"": [-4, 8, 48], ""stateRewards"": ["""", -4, 4, 24, 24, -2, -4, 48, -24, -4, 8, -48, 48], ""actionTimes"": [16196, 17075, 18378], ""trial_id"": -4874666135804490000, ""time_elapsed"": 129685, ""actions"": [""left"", ""left"", ""down""], ""trialIndex"": 2, ""score"": 49, ""trial_index"": 5, ""simulationMode"": [null, null, null], ""queries"": {""mouseover"": {""state"": {""target"": [], ""time"": []}, ""edge"": {""target"": [], ""time"": []}}, ""click"": {""state"": {""target"": [""12"", ""8"", ""4""], ""time"": [2143, 6199, 10926]}, ""edge"": {""target"": [], ""time"": []}}, ""mouseout"": {""state"": {""target"": [], ""time"": []}, ""edge"": {""target"": [], ""time"": []}}}, ""path"": [""0"", ""9"", ""10"", ""12""], ""internal_node_id"": ""0.0-4.0-1.0"", ""block"": ""training""}"
A12CRTAKIUFWY4:3HRMW88U16Q7XW0I0B5P7E9XQTL0M1,6,1519776275419,"{""rt"": [16963, 3057, 853], ""trial_type"": ""mouselab-mdp"", ""trialTime"": 28578, ""rewards"": [4, -8, 24], ""stateRewards"": ["""", 2, 4, 24, -24, 4, 8, -48, 24, 4, -8, -24, 24], ""actionTimes"": [16967, 25549, 26918], ""trial_id"": 8950946188299295000, ""time_elapsed"": 159356, ""actions"": [""left"", ""left"", ""down""], ""trialIndex"": 3, ""score"": 14, ""trial_index"": 6, ""simulationMode"": [null, null, null], ""queries"": {""mouseover"": {""state"": {""target"": [], ""time"": []}, ""edge"": {""target"": [], ""time"": []}}, ""click"": {""state"": {""target"": [""4"", ""7"", ""12"", ""8"", ""11"", ""3""], ""time"": [1775, 5389, 8137, 10300, 12473, 13721]}, ""edge"": {""target"": [], ""time"": []}}, ""mouseout"": {""state"": {""target"": [], ""time"": []}, ""edge"": {""target"": [], ""time"": []}}}, ""path"": [""0"", ""9"", ""10"", ""12""], ""internal_node_id"": ""0.0-4.0-2.0"", ""block"": ""training""}"
A12CRTAKIUFWY4:3HRMW88U16Q7XW0I0B5P7E9XQTL0M1,7,1519776296854,"{""rt"": [16439, 74, 694], ""trial_type"": ""mouselab-mdp"", ""trialTime"": 20363, ""rewards"": [4, 4, 48], ""stateRewards"": ["""", 4, 4, -48, 48, -2, 4, -48, -24, -2, -4, -48, 24], ""actionTimes"": [16442, 17038, 18259], ""trial_id"": -5006809819184351000, ""time_elapsed"": 180791, ""actions"": [""up"", ""up"", ""left""], ""trialIndex"": 4, ""score"": 53, ""trial_index"": 7, ""simulationMode"": [null, null, null], ""queries"": {""mouseover"": {""state"": {""target"": [], ""time"": []}, ""edge"": {""target"": [], ""time"": []}}, ""click"": {""state"": {""target"": [""4"", ""2"", ""1""], ""time"": [2267, 9482, 14684]}, ""edge"": {""target"": [], ""time"": []}}, ""mouseout"": {""state"": {""target"": [], ""time"": []}, ""edge"": {""target"": [], ""time"": []}}}, ""path"": [""0"", ""1"", ""2"", ""4""], ""internal_node_id"": ""0.0-4.0-3.0"", ""block"": ""training""}"
A12CRTAKIUFWY4:3HRMW88U16Q7XW0I0B5P7E9XQTL0M1,8,1519776326555,"{""rt"": [25667, 202, 150], ""trial_type"": ""mouselab-mdp"", ""trialTime"": 28598, ""rewards"": [-4, 4, 48], ""stateRewards"": ["""", -4, 4, 24, 24, 2, 8, -24, 24, -4, 4, -24, 48], ""actionTimes"": [25674, 26398, 27075], ""trial_id"": 5347440239323845000, ""time_elapsed"": 210492, ""actions"": [""left"", ""left"", ""down""], ""trialIndex"": 5, ""score"": 42, ""trial_index"": 8, ""simulationMode"": [null, null, null], ""queries"": {""mouseover"": {""state"": {""target"": [], ""time"": []}, ""edge"": {""target"": [], ""time"": []}}, ""click"": {""state"": {""target"": [""3"", ""11"", ""12"", ""10"", ""9"", ""4""], ""time"": [1896, 4116, 8523, 12735, 17356, 22419]}, ""edge"": {""target"": [], ""time"": []}}, ""mouseout"": {""state"": {""target"": [], ""time"": []}, ""edge"": {""target"": [], ""time"": []}}}, ""path"": [""0"", ""9"", ""10"", ""12""], ""internal_node_id"": ""0.0-4.0-4.0"", ""block"": ""training""}"
A12CRTAKIUFWY4:3HRMW88U16Q7XW0I0B5P7E9XQTL0M1,9,1519776346356,"{""rt"": [16102, 265, 174], ""trial_type"": ""mouselab-mdp"", ""trialTime"": 18720, ""rewards"": [-4, 8, 48], ""stateRewards"": ["""", -2, 8, -24, 24, -4, 8, 48, 24, -2, -4, 24, -48], ""actionTimes"": [16108, 16906, 17592], ""trial_id"": 2561475919526080000, ""time_elapsed"": 230292, ""actions"": [""right"", ""right"", ""up""], ""trialIndex"": 6, ""score"": 46, ""trial_index"": 9, ""simulationMode"": [null, null, null], ""queries"": {""mouseover"": {""state"": {""target"": [], ""time"": []}, ""edge"": {""target"": [], ""time"": []}}, ""click"": {""state"": {""target"": [""8"", ""11"", ""3"", ""4"", ""6"", ""7""], ""time"": [1588, 4151, 5404, 6614, 12323, 13245]}, ""edge"": {""target"": [], ""time"": []}}, ""mouseout"": {""state"": {""target"": [], ""time"": []}, ""edge"": {""target"": [], ""time"": []}}}, ""path"": [""0"", ""5"", ""6"", ""7""], ""internal_node_id"": ""0.0-4.0-5.0"", ""block"": ""training""}"
A12CRTAKIUFWY4:3HRMW88U16Q7XW0I0B5P7E9XQTL0M1,10,1519776375792,"{""rt"": [24978, 206, 581], ""trial_type"": ""mouselab-mdp"", ""trialTime"": 28331, ""rewards"": [-2, -8, 48], ""stateRewards"": ["""", -4, -4, -48, -48, -2, -8, 24, 48, 2, 4, -24, -48], ""actionTimes"": [24984, 25707, 26816], ""trial_id"": -1848243683464450000, ""time_elapsed"": 259729, ""actions"": [""right"", ""right"", ""down""], ""trialIndex"": 7, ""score"": 30, ""trial_index"": 10, ""simulationMode"": [null, null, null], ""queries"": {""mouseover"": {""state"": {""target"": [], ""time"": []}, ""edge"": {""target"": [], ""time"": []}}, ""click"": {""state"": {""target"": [""11"", ""12"", ""7"", ""8"", ""6"", ""5"", ""4"", ""3""], ""time"": [2538, 5768, 8565, 10374, 14722, 19389, 19938, 20897]}, ""edge"": {""target"": [], ""time"": []}}, ""mouseout"": {""state"": {""target"": [], ""time"": []}, ""edge"": {""target"": [], ""time"": []}}}, ""path"": [""0"", ""5"", ""6"", ""8""], ""internal_node_id"": ""0.0-4.0-6.0"", ""block"": ""training""}"
A12CRTAKIUFWY4:3HRMW88U16Q7XW0I0B5P7E9XQTL0M1,11,1519776395771,"{""rt"": [15154, 234, 798], ""trial_type"": ""mouselab-mdp"", ""trialTime"": 18865, ""rewards"": [-2, 8, 24], ""stateRewards"": ["""", 2, 4, -24, -48, -2, -4, -24, -24, -2, 8, 24, -24], ""actionTimes"": [15160, 15913, 17223], ""trial_id"": 11823864361136648, ""time_elapsed"": 279708, ""actions"": [""left"", ""left"", ""up""], ""trialIndex"": 8, ""score"": 24, ""trial_index"": 11, ""simulationMode"": [null, null, null], ""queries"": {""mouseover"": {""state"": {""target"": [], ""time"": []}, ""edge"": {""target"": [], ""time"": []}}, ""click"": {""state"": {""target"": [""4"", ""3"", ""11"", ""12"", ""7"", ""8""], ""time"": [1575, 2927, 6276, 8169, 11152, 12360]}, ""edge"": {""target"": [], ""time"": []}}, ""mouseout"": {""state"": {""target"": [], ""time"": []}, ""edge"": {""target"": [], ""time"": []}}}, ""path"": [""0"", ""9"", ""10"", ""11""], ""internal_node_id"": ""0.0-4.0-7.0"", ""block"": ""training""}"
A12CRTAKIUFWY4:3HRMW88U16Q7XW0I0B5P7E9XQTL0M1,12,1519776417086,"{""rt"": [16124, 244, 1336], ""trial_type"": ""mouselab-mdp"", ""trialTime"": 20220, ""rewards"": [-4, 4, 48], ""stateRewards"": ["""", -2, -4, 48, 24, 2, 4, -48, 48, -4, 4, 48, 24], ""actionTimes"": [16130, 16888, 18752], ""trial_id"": 7946552191512982000, ""time_elapsed"": 301023, ""actions"": [""left"", ""left"", ""up""], ""trialIndex"": 9, ""score"": 42, ""trial_index"": 12, ""simulationMode"": [null, null, null], ""queries"": {""mouseover"": {""state"": {""target"": [], ""time"": []}, ""edge"": {""target"": [], ""time"": []}}, ""click"": {""state"": {""target"": [""4"", ""3"", ""11"", ""12"", ""2"", ""10""], ""time"": [1481, 3022, 7361, 11662, 12073, 13845]}, ""edge"": {""target"": [], ""time"": []}}, ""mouseout"": {""state"": {""target"": [], ""time"": []}, ""edge"": {""target"": [], ""time"": []}}}, ""path"": [""0"", ""9"", ""10"", ""11""], ""internal_node_id"": ""0.0-4.0-8.0"", ""block"": ""training""}"
A12CRTAKIUFWY4:3HRMW88U16Q7XW0I0B5P7E9XQTL0M1,13,1519776439309,"{""rt"": [16622, 160, 1516], ""trial_type"": ""mouselab-mdp"", ""trialTime"": 21128, ""rewards"": [4, 4, 48], ""stateRewards"": ["""", -4, -8, -48, -48, -4, -4, 48, 24, 4, 4, 48, -48], ""actionTimes"": [16628, 17319, 19352], ""trial_id"": -9063084800167141000, ""time_elapsed"": 323246, ""actions"": [""left"", ""left"", ""up""], ""trialIndex"": 10, ""score"": 50, ""trial_index"": 13, ""simulationMode"": [null, null, null], ""queries"": {""mouseover"": {""state"": {""target"": [], ""time"": []}, ""edge"": {""target"": [], ""time"": []}}, ""click"": {""state"": {""target"": [""7"", ""6"", ""8"", ""10"", ""2"", ""11""], ""time"": [1615, 5343, 9573, 9965, 14110, 14935]}, ""edge"": {""target"": [], ""time"": []}}, ""mouseout"": {""state"": {""target"": [], ""time"": []}, ""edge"": {""target"": [], ""time"": []}}}, ""path"": [""0"", ""9"", ""10"", ""11""], ""internal_node_id"": ""0.0-4.0-9.0"", ""block"": ""training""}"
A12CRTAKIUFWY4:3HRMW88U16Q7XW0I0B5P7E9XQTL0M1,14,1519776442381,"{""rt"": 2065, ""trial_type"": ""text"", ""internal_node_id"": ""0.0-5.0"", ""time_elapsed"": 326317, ""key_press"": 32, ""trial_index"": 14}"
A12CRTAKIUFWY4:3HRMW88U16Q7XW0I0B5P7E9XQTL0M1,15,1519776458324,"{""rt"": 14922, ""trial_type"": ""text"", ""internal_node_id"": ""0.0-6.0"", ""time_elapsed"": 342261, ""key_press"": 32, ""trial_index"": 15}"
A12CRTAKIUFWY4:3HRMW88U16Q7XW0I0B5P7E9XQTL0M1,16,1519776480365,"{""rt"": [17873, 174, 295], ""trial_type"": ""mouselab-mdp"", ""trialTime"": 20948, ""rewards"": [-4, 4, 48], ""stateRewards"": ["""", 2, -4, 24, -48, -4, -8, -48, -48, -4, 4, -48, 48], ""actionTimes"": [17877, 18580, 19398], ""trial_id"": 2118335984300500500, ""time_elapsed"": 364302, ""actions"": [""left"", ""left"", ""down""], ""trialIndex"": 11, ""score"": 44, ""trial_index"": 16, ""simulationMode"": [null, null, null], ""queries"": {""mouseover"": {""state"": {""target"": [], ""time"": []}, ""edge"": {""target"": [], ""time"": []}}, ""click"": {""state"": {""target"": [""11"", ""7"", ""12"", ""10""], ""time"": [3619, 8229, 12293, 16130]}, ""edge"": {""target"": [], ""time"": []}}, ""mouseout"": {""state"": {""target"": [], ""time"": []}, ""edge"": {""target"": [], ""time"": []}}}, ""path"": [""0"", ""9"", ""10"", ""12""], ""internal_node_id"": ""0.0-7.0-0.0"", ""block"": ""test""}"
A12CRTAKIUFWY4:3HRMW88U16Q7XW0I0B5P7E9XQTL0M1,17,1519776500187,"{""rt"": [16217, 7, 92], ""trial_type"": ""mouselab-mdp"", ""trialTime"": 18731, ""rewards"": [-4, -8, 48], ""stateRewards"": ["""", 4, 8, -24, -24, -4, -8, -48, 48, 2, -8, -24, -48], ""actionTimes"": [16221, 16751, 17379], ""trial_id"": 2630443220538220000, ""time_elapsed"": 384124, ""actions"": [""right"", ""right"", ""down""], ""trialIndex"": 12, ""score"": 30, ""trial_index"": 17, ""simulationMode"": [null, null, null], ""queries"": {""mouseover"": {""state"": {""target"": [], ""time"": []}, ""edge"": {""target"": [], ""time"": []}}, ""click"": {""state"": {""target"": [""4"", ""3"", ""12"", ""11"", ""7"", ""8""], ""time"": [1171, 4985, 8510, 11654, 14074, 14907]}, ""edge"": {""target"": [], ""time"": []}}, ""mouseout"": {""state"": {""target"": [], ""time"": []}, ""edge"": {""target"": [], ""time"": []}}}, ""path"": [""0"", ""5"", ""6"", ""8""], ""internal_node_id"": ""0.0-7.0-1.0"", ""block"": ""test""}"
A12CRTAKIUFWY4:3HRMW88U16Q7XW0I0B5P7E9XQTL0M1,18,1519776517633,"{""rt"": [12999, 366, 495], ""trial_type"": ""mouselab-mdp"", ""trialTime"": 16399, ""rewards"": [4, -8, 48], ""stateRewards"": ["""", -4, 4, -24, -24, -4, -8, 24, -24, 4, -8, 48, -48], ""actionTimes"": [13002, 13890, 14899], ""trial_id"": 460924718031657700, ""time_elapsed"": 401570, ""actions"": [""left"", ""left"", ""up""], ""trialIndex"": 13, ""score"": 37, ""trial_index"": 18, ""simulationMode"": [null, null, null], ""queries"": {""mouseover"": {""state"": {""target"": [], ""time"": []}, ""edge"": {""target"": [], ""time"": []}}, ""click"": {""state"": {""target"": [""7"", ""8"", ""12"", ""11"", ""10"", ""4"", ""3""], ""time"": [1459, 2972, 4693, 5690, 9219, 10856, 11764]}, ""edge"": {""target"": [], ""time"": []}}, ""mouseout"": {""state"": {""target"": [], ""time"": []}, ""edge"": {""target"": [], ""time"": []}}}, ""path"": [""0"", ""9"", ""10"", ""11""], ""internal_node_id"": ""0.0-7.0-2.0"", ""block"": ""test""}"
A12CRTAKIUFWY4:3HRMW88U16Q7XW0I0B5P7E9XQTL0M1,19,1519776528932,"{""rt"": [7234, 261, 524], ""trial_type"": ""mouselab-mdp"", ""trialTime"": 10193, ""rewards"": [-4, 4, 48], ""stateRewards"": ["""", 2, -4, 24, -48, -4, 4, 48, 48, 4, 4, -48, -24], ""actionTimes"": [7238, 8022, 9069], ""trial_id"": 1708036831889561600, ""time_elapsed"": 412868, ""actions"": [""right"", ""right"", ""up""], ""trialIndex"": 14, ""score"": 44, ""trial_index"": 19, ""simulationMode"": [null, null, null], ""queries"": {""mouseover"": {""state"": {""target"": [], ""time"": []}, ""edge"": {""target"": [], ""time"": []}}, ""click"": {""state"": {""target"": [""11"", ""12"", ""7"", ""6""], ""time"": [2241, 3475, 5091, 6252]}, ""edge"": {""target"": [], ""time"": []}}, ""mouseout"": {""state"": {""target"": [], ""time"": []}, ""edge"": {""target"": [], ""time"": []}}}, ""path"": [""0"", ""5"", ""6"", ""7""], ""internal_node_id"": ""0.0-7.0-3.0"", ""block"": ""test""}"
A12CRTAKIUFWY4:3HRMW88U16Q7XW0I0B5P7E9XQTL0M1,20,1519776540855,"{""rt"": [4964, 239, 286], ""trial_type"": ""mouselab-mdp"", ""trialTime"": 10839, ""rewards"": [-2, -8, 48], ""stateRewards"": ["""", -2, -8, 24, 48, -2, 8, -24, -24, -2, -4, 24, -24], ""actionTimes"": [4969, 5720, 6517], ""trial_id"": -3603402282008602000, ""time_elapsed"": 424791, ""actions"": [""up"", ""up"", ""left""], ""trialIndex"": 15, ""score"": 36, ""trial_index"": 20, ""simulationMode"": [null, null, null], ""queries"": {""mouseover"": {""state"": {""target"": [], ""time"": []}, ""edge"": {""target"": [], ""time"": []}}, ""click"": {""state"": {""target"": [""4"", ""3""], ""time"": [665, 1935]}, ""edge"": {""target"": [], ""time"": []}}, ""mouseout"": {""state"": {""target"": [], ""time"": []}, ""edge"": {""target"": [], ""time"": []}}}, ""path"": [""0"", ""1"", ""2"", ""4""], ""internal_node_id"": ""0.0-7.0-4.0"", ""block"": ""test""}"
A12CRTAKIUFWY4:3HRMW88U16Q7XW0I0B5P7E9XQTL0M1,21,1519776552377,"{""rt"": [8027, 127, 269], ""trial_type"": ""mouselab-mdp"", ""trialTime"": 10423, ""rewards"": [2, 4, 48], ""stateRewards"": ["""", 4, -8, 24, 24, 2, 4, 24, 48, -2, 4, 24, -48], ""actionTimes"": [8031, 8677, 9476], ""trial_id"": 6722698278557235000, ""time_elapsed"": 436313, ""actions"": [""right"", ""right"", ""down""], ""trialIndex"": 16, ""score"": 48, ""trial_index"": 21, ""simulationMode"": [null, null, null], ""queries"": {""mouseover"": {""state"": {""target"": [], ""time"": []}, ""edge"": {""target"": [], ""time"": []}}, ""click"": {""state"": {""target"": [""4"", ""3"", ""11"", ""12"", ""7"", ""8""], ""time"": [1128, 2648, 4145, 4937, 5925, 6553]}, ""edge"": {""target"": [], ""time"": []}}, ""mouseout"": {""state"": {""target"": [], ""time"": []}, ""edge"": {""target"": [], ""time"": []}}}, ""path"": [""0"", ""5"", ""6"", ""8""], ""internal_node_id"": ""0.0-7.0-5.0"", ""block"": ""test""}"
A12CRTAKIUFWY4:3HRMW88U16Q7XW0I0B5P7E9XQTL0M1,22,1519776566242,"{""rt"": [10355, 218, 249], ""trial_type"": ""mouselab-mdp"", ""trialTime"": 12764, ""rewards"": [-2, 4, 48], ""stateRewards"": ["""", 4, 8, -24, 24, -2, 4, -24, 48, 2, -8, 24, 48], ""actionTimes"": [10360, 11092, 11853], ""trial_id"": 8866052500453722000, ""time_elapsed"": 450179, ""actions"": [""right"", ""right"", ""down""], ""trialIndex"": 17, ""score"": 43, ""trial_index"": 22, ""simulationMode"": [null, null, null], ""queries"": {""mouseover"": {""state"": {""target"": [], ""time"": []}, ""edge"": {""target"": [], ""time"": []}}, ""click"": {""state"": {""target"": [""4"", ""3"", ""11"", ""12"", ""10"", ""8"", ""6""], ""time"": [2138, 2836, 3759, 4771, 7339, 8492, 9395]}, ""edge"": {""target"": [], ""time"": []}}, ""mouseout"": {""state"": {""target"": [], ""time"": []}, ""edge"": {""target"": [], ""time"": []}}}, ""path"": [""0"", ""5"", ""6"", ""8""], ""internal_node_id"": ""0.0-7.0-6.0"", ""block"": ""test""}"
A12CRTAKIUFWY4:3HRMW88U16Q7XW0I0B5P7E9XQTL0M1,23,1519776579131,"{""rt"": [9090, 116, 159], ""trial_type"": ""mouselab-mdp"", ""trialTime"": 11791, ""rewards"": [4, 4, 48], ""stateRewards"": ["""", 2, 4, 24, -24, 4, 8, 24, -24, 4, 4, 24, 48], ""actionTimes"": [9095, 9726, 10401], ""trial_id"": 5959115827255457000, ""time_elapsed"": 463067, ""actions"": [""left"", ""left"", ""down""], ""trialIndex"": 18, ""score"": 49, ""trial_index"": 23, ""simulationMode"": [null, null, null], ""queries"": {""mouseover"": {""state"": {""target"": [], ""time"": []}, ""edge"": {""target"": [], ""time"": []}}, ""click"": {""state"": {""target"": [""11"", ""12"", ""7"", ""8"", ""10"", ""3"", ""4""], ""time"": [1058, 1814, 3366, 4030, 5508, 7225, 7959]}, ""edge"": {""target"": [], ""time"": []}}, ""mouseout"": {""state"": {""target"": [], ""time"": []}, ""edge"": {""target"": [], ""time"": []}}}, ""path"": [""0"", ""9"", ""10"", ""12""], ""internal_node_id"": ""0.0-7.0-7.0"", ""block"": ""test""}"
A12CRTAKIUFWY4:3HRMW88U16Q7XW0I0B5P7E9XQTL0M1,24,1519776590255,"{""rt"": [5055, 140, 295], ""trial_type"": ""mouselab-mdp"", ""trialTime"": 10046, ""rewards"": [2, 8, 48], ""stateRewards"": ["""", 2, 8, 48, -24, -4, -4, -48, 24, -4, -8, -48, -24], ""actionTimes"": [5059, 5715, 6532], ""trial_id"": 2372710761025483000, ""time_elapsed"": 474191, ""actions"": [""up"", ""up"", ""right""], ""trialIndex"": 19, ""score"": 54, ""trial_index"": 24, ""simulationMode"": [null, null, null], ""queries"": {""mouseover"": {""state"": {""target"": [], ""time"": []}, ""edge"": {""target"": [], ""time"": []}}, ""click"": {""state"": {""target"": [""11"", ""12"", ""3"", ""2""], ""time"": [1070, 1787, 3070, 4115]}, ""edge"": {""target"": [], ""time"": []}}, ""mouseout"": {""state"": {""target"": [], ""time"": []}, ""edge"": {""target"": [], ""time"": []}}}, ""path"": [""0"", ""1"", ""2"", ""3""], ""internal_node_id"": ""0.0-7.0-8.0"", ""block"": ""test""}"
A12CRTAKIUFWY4:3HRMW88U16Q7XW0I0B5P7E9XQTL0M1,25,1519776599769,"{""rt"": [3739, 148, 188], ""trial_type"": ""mouselab-mdp"", ""trialTime"": 8437, ""rewards"": [2, 4, 48], ""stateRewards"": ["""", 2, 4, -48, 48, -4, 4, -48, -48, 2, -4, 24, 48], ""actionTimes"": [3743, 4410, 5119], ""trial_id"": -5849434166602758000, ""time_elapsed"": 483706, ""actions"": [""up"", ""up"", ""left""], ""trialIndex"": 20, ""score"": 51, ""trial_index"": 25, ""simulationMode"": [null, null, null], ""queries"": {""mouseover"": {""state"": {""target"": [], ""time"": []}, ""edge"": {""target"": [], ""time"": []}}, ""click"": {""state"": {""target"": [""4"", ""3"", ""2""], ""time"": [1155, 2021, 2605]}, ""edge"": {""target"": [], ""time"": []}}, ""mouseout"": {""state"": {""target"": [], ""time"": []}, ""edge"": {""target"": [], ""time"": []}}}, ""path"": [""0"", ""1"", ""2"", ""4""], ""internal_node_id"": ""0.0-7.0-9.0"", ""block"": ""test""}"
A12CRTAKIUFWY4:3HRMW88U16Q7XW0I0B5P7E9XQTL0M1,26,1519776610958,"{""rt"": [7541, 201, 118], ""trial_type"": ""mouselab-mdp"", ""trialTime"": 10083, ""rewards"": [2, 8, 48], ""stateRewards"": ["""", 2, 8, 48, 24, -2, 4, 24, 24, -2, -4, -48, -24], ""actionTimes"": [7547, 8257, 8896], ""trial_id"": -8923867603615937000, ""time_elapsed"": 494895, ""actions"": [""up"", ""up"", ""right""], ""trialIndex"": 21, ""score"": 52, ""trial_index"": 26, ""simulationMode"": [null, null, null], ""queries"": {""mouseover"": {""state"": {""target"": [], ""time"": []}, ""edge"": {""target"": [], ""time"": []}}, ""click"": {""state"": {""target"": [""7"", ""11"", ""12"", ""8"", ""3"", ""4""], ""time"": [610, 2400, 3810, 4629, 5567, 6360]}, ""edge"": {""target"": [], ""time"": []}}, ""mouseout"": {""state"": {""target"": [], ""time"": []}, ""edge"": {""target"": [], ""time"": []}}}, ""path"": [""0"", ""1"", ""2"", ""3""], ""internal_node_id"": ""0.0-7.0-10.0"", ""block"": ""test""}"
A12CRTAKIUFWY4:3HRMW88U16Q7XW0I0B5P7E9XQTL0M1,27,1519776623118,"{""rt"": [8347, 262, 341], ""trial_type"": ""mouselab-mdp"", ""trialTime"": 11044, ""rewards"": [-2, -4, 24], ""stateRewards"": ["""", -2, -4, 24, -48, -4, 8, -24, -24, 4, -4, -48, 24], ""actionTimes"": [8352, 9135, 9997], ""trial_id"": 1399303655934214400, ""time_elapsed"": 507055, ""actions"": [""up"", ""up"", ""right""], ""trialIndex"": 22, ""score"": 12, ""trial_index"": 27, ""simulationMode"": [null, null, null], ""queries"": {""mouseover"": {""state"": {""target"": [], ""time"": []}, ""edge"": {""target"": [], ""time"": []}}, ""click"": {""state"": {""target"": [""4"", ""3"", ""8"", ""12"", ""7"", ""11""], ""time"": [581, 1285, 2711, 4124, 5010, 6275]}, ""edge"": {""target"": [], ""time"": []}}, ""mouseout"": {""state"": {""target"": [], ""time"": []}, ""edge"": {""target"": [], ""time"": []}}}, ""path"": [""0"", ""1"", ""2"", ""3""], ""internal_node_id"": ""0.0-7.0-11.0"", ""block"": ""test""}"
A12CRTAKIUFWY4:3HRMW88U16Q7XW0I0B5P7E9XQTL0M1,28,1519776633726,"{""rt"": [6491, 139, 254], ""trial_type"": ""mouselab-mdp"", ""trialTime"": 9511, ""rewards"": [-2, 4, 48], ""stateRewards"": ["""", -4, 4, 24, -24, -2, 4, 48, -24, -4, -8, -48, 48], ""actionTimes"": [6496, 7156, 7931], ""trial_id"": 858865579533637100, ""time_elapsed"": 517663, ""actions"": [""right"", ""right"", ""up""], ""trialIndex"": 23, ""score"": 45, ""trial_index"": 28, ""simulationMode"": [null, null, null], ""queries"": {""mouseover"": {""state"": {""target"": [], ""time"": []}, ""edge"": {""target"": [], ""time"": []}}, ""click"": {""state"": {""target"": [""11"", ""12"", ""10"", ""7"", ""6""], ""time"": [916, 1906, 2880, 4716, 5356]}, ""edge"": {""target"": [], ""time"": []}}, ""mouseout"": {""state"": {""target"": [], ""time"": []}, ""edge"": {""target"": [], ""time"": []}}}, ""path"": [""0"", ""5"", ""6"", ""7""], ""internal_node_id"": ""0.0-7.0-12.0"", ""block"": ""test""}"
A12CRTAKIUFWY4:3HRMW88U16Q7XW0I0B5P7E9XQTL0M1,29,1519776645137,"{""rt"": [7823, 70, 258], ""trial_type"": ""mouselab-mdp"", ""trialTime"": 10337, ""rewards"": [4, 8, 48], ""stateRewards"": ["""", 2, -8, -24, 48, -2, -4, -24, -24, 4, 8, 24, 48], ""actionTimes"": [7827, 8413, 9194], ""trial_id"": 6516760737789360000, ""time_elapsed"": 529074, ""actions"": [""left"", ""left"", ""down""], ""trialIndex"": 24, ""score"": 54, ""trial_index"": 29, ""simulationMode"": [null, null, null], ""queries"": {""mouseover"": {""state"": {""target"": [], ""time"": []}, ""edge"": {""target"": [], ""time"": []}}, ""click"": {""state"": {""target"": [""4"", ""3"", ""2"", ""11"", ""12"", ""10""], ""time"": [889, 2766, 4109, 5195, 5812, 6841]}, ""edge"": {""target"": [], ""time"": []}}, ""mouseout"": {""state"": {""target"": [], ""time"": []}, ""edge"": {""target"": [], ""time"": []}}}, ""path"": [""0"", ""9"", ""10"", ""12""], ""internal_node_id"": ""0.0-7.0-13.0"", ""block"": ""test""}"
A12CRTAKIUFWY4:3HRMW88U16Q7XW0I0B5P7E9XQTL0M1,30,1519776660430,"{""rt"": [11632, 219, 189], ""trial_type"": ""mouselab-mdp"", ""trialTime"": 14207, ""rewards"": [-2, -8, 48], ""stateRewards"": ["""", 4, -8, -48, -48, -4, 4, 24, 24, -2, -8, -24, 48], ""actionTimes"": [11636, 12379, 13090], ""trial_id"": -4569496646062697500, ""time_elapsed"": 544367, ""actions"": [""left"", ""left"", ""down""], ""trialIndex"": 25, ""score"": 30, ""trial_index"": 30, ""simulationMode"": [null, null, null], ""queries"": {""mouseover"": {""state"": {""target"": [], ""time"": []}, ""edge"": {""target"": [], ""time"": []}}, ""click"": {""state"": {""target"": [""11"", ""12"", ""10"", ""8"", ""7"", ""4"", ""3"", ""6""], ""time"": [780, 1580, 2477, 3885, 4814, 6230, 6830, 9317]}, ""edge"": {""target"": [], ""time"": []}}, ""mouseout"": {""state"": {""target"": [], ""time"": []}, ""edge"": {""target"": [], ""time"": []}}}, ""path"": [""0"", ""9"", ""10"", ""12""], ""internal_node_id"": ""0.0-7.0-14.0"", ""block"": ""test""}"
A12CRTAKIUFWY4:3HRMW88U16Q7XW0I0B5P7E9XQTL0M1,31,1519776671880,"{""rt"": [7942, 57, 151], ""trial_type"": ""mouselab-mdp"", ""trialTime"": 10389, ""rewards"": [-4, -4, 48], ""stateRewards"": ["""", 2, -4, -24, -24, 4, -8, -48, -48, -4, -4, 48, 48], ""actionTimes"": [7947, 8522, 9183], ""trial_id"": -7913607226466677000, ""time_elapsed"": 555817, ""actions"": [""left"", ""left"", ""down""], ""trialIndex"": 26, ""score"": 34, ""trial_index"": 31, ""simulationMode"": [null, null, null], ""queries"": {""mouseover"": {""state"": {""target"": [], ""time"": []}, ""edge"": {""target"": [], ""time"": []}}, ""click"": {""state"": {""target"": [""4"", ""3"", ""12"", ""10"", ""8"", ""7""], ""time"": [781, 1624, 3247, 4503, 5910, 6598]}, ""edge"": {""target"": [], ""time"": []}}, ""mouseout"": {""state"": {""target"": [], ""time"": []}, ""edge"": {""target"": [], ""time"": []}}}, ""path"": [""0"", ""9"", ""10"", ""12""], ""internal_node_id"": ""0.0-7.0-15.0"", ""block"": ""test""}"
A12CRTAKIUFWY4:3HRMW88U16Q7XW0I0B5P7E9XQTL0M1,32,1519776682438,"{""rt"": [3627, 62, 190], ""trial_type"": ""mouselab-mdp"", ""trialTime"": 9489, ""rewards"": [4, 8, 48], ""stateRewards"": ["""", -2, -4, 48, -48, 2, 4, -48, 24, 4, 8, -48, 48], ""actionTimes"": [3632, 4206, 4918], ""trial_id"": -2817098998670331000, ""time_elapsed"": 566375, ""actions"": [""left"", ""left"", ""down""], ""trialIndex"": 27, ""score"": 57, ""trial_index"": 32, ""simulationMode"": [null, null, null], ""queries"": {""mouseover"": {""state"": {""target"": [], ""time"": []}, ""edge"": {""target"": [], ""time"": []}}, ""click"": {""state"": {""target"": [""11"", ""12"", ""10""], ""time"": [631, 1565, 2543]}, ""edge"": {""target"": [], ""time"": []}}, ""mouseout"": {""state"": {""target"": [], ""time"": []}, ""edge"": {""target"": [], ""time"": []}}}, ""path"": [""0"", ""9"", ""10"", ""12""], ""internal_node_id"": ""0.0-7.0-16.0"", ""block"": ""test""}"
A12CRTAKIUFWY4:3HRMW88U16Q7XW0I0B5P7E9XQTL0M1,33,1519776692676,"{""rt"": [6467, 59, 133], ""trial_type"": ""mouselab-mdp"", ""trialTime"": 9145, ""rewards"": [2, 4, 24], ""stateRewards"": ["""", 2, 4, -24, 24, 4, 8, -48, -48, -4, -4, -48, -24], ""actionTimes"": [6471, 7055, 7706], ""trial_id"": -7784032825751816000, ""time_elapsed"": 576612, ""actions"": [""up"", ""up"", ""left""], ""trialIndex"": 28, ""score"": 24, ""trial_index"": 33, ""simulationMode"": [null, null, null], ""queries"": {""mouseover"": {""state"": {""target"": [], ""time"": []}, ""edge"": {""target"": [], ""time"": []}}, ""click"": {""state"": {""target"": [""11"", ""12"", ""7"", ""8"", ""4"", ""3""], ""time"": [919, 1571, 2445, 3018, 4361, 4890]}, ""edge"": {""target"": [], ""time"": []}}, ""mouseout"": {""state"": {""target"": [], ""time"": []}, ""edge"": {""target"": [], ""time"": []}}}, ""path"": [""0"", ""1"", ""2"", ""4""], ""internal_node_id"": ""0.0-7.0-17.0"", ""block"": ""test""}"
A12CRTAKIUFWY4:3HRMW88U16Q7XW0I0B5P7E9XQTL0M1,34,1519776707986,"{""rt"": [10581, 90, 1294], ""trial_type"": ""mouselab-mdp"", ""trialTime"": 14223, ""rewards"": [2, -4, 48], ""stateRewards"": ["""", -2, -4, 48, -24, 2, -4, 48, 24, -2, -8, -24, -24], ""actionTimes"": [10586, 11196, 13013], ""trial_id"": 2593864447454748000, ""time_elapsed"": 591923, ""actions"": [""right"", ""right"", ""up""], ""trialIndex"": 29, ""score"": 37, ""trial_index"": 34, ""simulationMode"": [null, null, null], ""queries"": {""mouseover"": {""state"": {""target"": [], ""time"": []}, ""edge"": {""target"": [], ""time"": []}}, ""click"": {""state"": {""target"": [""11"", ""12"", ""3"", ""2"", ""8"", ""7"", ""6"", ""1"", ""5""], ""time"": [536, 1136, 2404, 3600, 4653, 5172, 5862, 9039, 9635]}, ""edge"": {""target"": [], ""time"": []}}, ""mouseout"": {""state"": {""target"": [], ""time"": []}, ""edge"": {""target"": [], ""time"": []}}}, ""path"": [""0"", ""5"", ""6"", ""7""], ""internal_node_id"": ""0.0-7.0-18.0"", ""block"": ""test""}"
A12CRTAKIUFWY4:3HRMW88U16Q7XW0I0B5P7E9XQTL0M1,35,1519776720273,"{""rt"": [8163, 146, 607], ""trial_type"": ""mouselab-mdp"", ""trialTime"": 11184, ""rewards"": [4, -4, 48], ""stateRewards"": ["""", -2, -8, -48, -48, -4, -8, 24, 24, 4, -4, 48, -24], ""actionTimes"": [8168, 8830, 9960], ""trial_id"": -3027317260685893600, ""time_elapsed"": 604210, ""actions"": [""left"", ""left"", ""up""], ""trialIndex"": 30, ""score"": 40, ""trial_index"": 35, ""simulationMode"": [null, null, null], ""queries"": {""mouseover"": {""state"": {""target"": [], ""time"": []}, ""edge"": {""target"": [], ""time"": []}}, ""click"": {""state"": {""target"": [""4"", ""3"", ""11"", ""10"", ""7"", ""8"", ""12"", ""6""], ""time"": [468, 1117, 2153, 3089, 3935, 4676, 5867, 6718]}, ""edge"": {""target"": [], ""time"": []}}, ""mouseout"": {""state"": {""target"": [], ""time"": []}, ""edge"": {""target"": [], ""time"": []}}}, ""path"": [""0"", ""9"", ""10"", ""11""], ""internal_node_id"": ""0.0-7.0-19.0"", ""block"": ""test""}"
A12CRTAKIUFWY4:3HRMW88U16Q7XW0I0B5P7E9XQTL0M1,36,1519776764773,"{""rt"": 43477, ""trial_type"": ""survey-multi-choice"", ""responses"": ""[\""$-48 to $48\"",\""$-48 to $48\"",\""$1\"",\""1 cent for every $5 you make in the game\""]"", ""internal_node_id"": ""0.0-8.0"", ""time_elapsed"": 648710, ""questions"": ""[\""What is the range of node values in the first step?\"",\""What is the range of node values in the last step?\"",\""What is the cost of clicking?\"",\""How much REAL money do you earn?\""]"", ""correct"": null, ""trial_index"": 36}"
A12CRTAKIUFWY4:3HRMW88U16Q7XW0I0B5P7E9XQTL0M1,37,1519776875272,"{""rt"": 109484, ""trial_type"": ""survey-text"", ""responses"": ""{\""Q0\"":\""I worked on the outer nodes first and tried to use luck and logic to find the positive 48 quickly\"",\""Q1\"":\""I pretty much only decided on where TO click, starting with the outer nodes and working my way in logically. I pretty much never clicked the nodes closest to the start\"",\""Q2\"":\""When I found a logical clear path\"",\""Q3\"":\""outside nodes that were different than where I had gone before\"",\""Q4\"":\""tried to figure everything out in as few clicks as possible\""}"", ""internal_node_id"": ""0.0-9.0"", ""time_elapsed"": 759209, ""trial_index"": 37}"
A12CRTAKIUFWY4:3HRMW88U16Q7XW0I0B5P7E9XQTL0M1,38,1519776900318,"{""rt"": 24037, ""trial_type"": ""survey-text"", ""responses"": ""{\""Q0\"":\""Game theory in action\"",\""Q1\"":\""no\"",\""Q2\"":\""31\"",\""Q3\"":\""thanks!\""}"", ""internal_node_id"": ""0.0-10.0"", ""time_elapsed"": 784255, ""trial_index"": 38}"
A136K9Y7E4C3G:30X31N5D63Q6W4B5CAY48TKGR4FASE,0,1519776186283,"{""rt"": 17645, ""trial_type"": ""text"", ""internal_node_id"": ""0.0-0.0"", ""time_elapsed"": 17655, ""key_press"": 32, ""trial_index"": 0}"
A136K9Y7E4C3G:30X31N5D63Q6W4B5CAY48TKGR4FASE,1,1519776218704,"{""rt"": 31405, ""trial_type"": ""text"", ""internal_node_id"": ""0.0-1.0"", ""time_elapsed"": 50076, ""key_press"": 32, ""trial_index"": 1}"
A136K9Y7E4C3G:30X31N5D63Q6W4B5CAY48TKGR4FASE,2,1519776238666,"{""rt"": [8994, 2143, 2694], ""trial_type"": ""mouselab-mdp"", ""trialTime"": 18839, ""rewards"": [-4, 4, 24], ""stateRewards"": ["""", -4, 4, 24, 24, -2, -4, 48, -24, -4, 8, -48, 48], ""actionTimes"": [9001, 11666, 14867], ""trial_id"": -4874666135804490000, ""time_elapsed"": 70038, ""actions"": [""up"", ""up"", ""right""], ""trialIndex"": 0, ""score"": 24, ""trial_index"": 2, ""simulationMode"": [null, null, null], ""queries"": {""mouseover"": {""state"": {""target"": [], ""time"": []}, ""edge"": {""target"": [], ""time"": []}}, ""click"": {""state"": {""target"": [], ""time"": []}, ""edge"": {""target"": [], ""time"": []}}, ""mouseout"": {""state"": {""target"": [], ""time"": []}, ""edge"": {""target"": [], ""time"": []}}}, ""path"": [""0"", ""1"", ""2"", ""3""], ""internal_node_id"": ""0.0-2.0-0.0"", ""block"": ""pre_test""}"
A136K9Y7E4C3G:30X31N5D63Q6W4B5CAY48TKGR4FASE,3,1519776246832,"{""rt"": 7164, ""trial_type"": ""text"", ""internal_node_id"": ""0.0-3.0"", ""time_elapsed"": 78204, ""key_press"": 32, ""trial_index"": 3}"
A136K9Y7E4C3G:30X31N5D63Q6W4B5CAY48TKGR4FASE,4,1519776302511,"{""rt"": [3024, 3859, 1156], ""trial_type"": ""mouselab-mdp"", ""trialTime"": 54570, ""rewards"": [-2, 4, -48], ""stateRewards"": ["""", 4, -4, 48, -48, -2, -8, 24, 24, -2, 4, 48, -48], ""actionTimes"": [3030, 49417, 51074], ""trial_id"": 8045829731203394000, ""time_elapsed"": 133883, ""actions"": [""left"", ""left"", ""down""], ""trialIndex"": 1, ""score"": -46, ""trial_index"": 4, ""simulationMode"": [null, null, null], ""queries"": {""mouseover"": {""state"": {""target"": [], ""time"": []}, ""edge"": {""target"": [], ""time"": []}}, ""click"": {""state"": {""target"": [], ""time"": []}, ""edge"": {""target"": [], ""time"": []}}, ""mouseout"": {""state"": {""target"": [], ""time"": []}, ""edge"": {""target"": [], ""time"": []}}}, ""path"": [""0"", ""9"", ""10"", ""12""], ""internal_node_id"": ""0.0-4.0-0.0"", ""block"": ""training""}"
A136K9Y7E4C3G:30X31N5D63Q6W4B5CAY48TKGR4FASE,5,1519776373167,"{""rt"": [12008, 10207, 2540], ""trial_type"": ""mouselab-mdp"", ""trialTime"": 69568, ""rewards"": [4, 4, 48], ""stateRewards"": ["""", -4, -8, -48, -48, -4, -4, 48, 24, 4, 4, 48, -48], ""actionTimes"": [12013, 63753, 66811], ""trial_id"": -9063084800167141000, ""time_elapsed"": 204539, ""actions"": [""left"", ""left"", ""up""], ""trialIndex"": 2, ""score"": 55, ""trial_index"": 5, ""simulationMode"": [null, null, null], ""queries"": {""mouseover"": {""state"": {""target"": [], ""time"": []}, ""edge"": {""target"": [], ""time"": []}}, ""click"": {""state"": {""target"": [""2""], ""time"": [6175]}, ""edge"": {""target"": [], ""time"": []}}, ""mouseout"": {""state"": {""target"": [], ""time"": []}, ""edge"": {""target"": [], ""time"": []}}}, ""path"": [""0"", ""9"", ""10"", ""11""], ""internal_node_id"": ""0.0-4.0-1.0"", ""block"": ""training""}"
A136K9Y7E4C3G:30X31N5D63Q6W4B5CAY48TKGR4FASE,6,1519776398368,"{""rt"": [18421, 1086, 1192], ""trial_type"": ""mouselab-mdp"", ""trialTime"": 24106, ""rewards"": [-4, 8, 48], ""stateRewards"": ["""", -2, 8, -24, 24, -4, 8, 48, 24, -2, -4, 24, -48], ""actionTimes"": [18425, 20029, 21739], ""trial_id"": 2561475919526080000, ""time_elapsed"": 229740, ""actions"": [""right"", ""right"", ""up""], ""trialIndex"": 3, ""score"": 51, ""trial_index"": 6, ""simulationMode"": [null, null, null], ""queries"": {""mouseover"": {""state"": {""target"": [], ""time"": []}, ""edge"": {""target"": [], ""time"": []}}, ""click"": {""state"": {""target"": [""7""], ""time"": [6507]}, ""edge"": {""target"": [], ""time"": []}}, ""mouseout"": {""state"": {""target"": [], ""time"": []}, ""edge"": {""target"": [], ""time"": []}}}, ""path"": [""0"", ""5"", ""6"", ""7""], ""internal_node_id"": ""0.0-4.0-2.0"", ""block"": ""training""}"
A136K9Y7E4C3G:30X31N5D63Q6W4B5CAY48TKGR4FASE,7,1519776408701,"{""rt"": [5167, 744, 506], ""trial_type"": ""mouselab-mdp"", ""trialTime"": 9254, ""rewards"": [-4, 8, 48], ""stateRewards"": ["""", 2, 4, 24, -24, 4, -8, 48, -24, -4, 8, -48, 48], ""actionTimes"": [5171, 6428, 7445], ""trial_id"": 5010381167344479000, ""time_elapsed"": 240073, ""actions"": [""left"", ""left"", ""down""], ""trialIndex"": 4, ""score"": 51, ""trial_index"": 7, ""simulationMode"": [null, null, null], ""queries"": {""mouseover"": {""state"": {""target"": [], ""time"": []}, ""edge"": {""target"": [], ""time"": []}}, ""click"": {""state"": {""target"": [""12""], ""time"": [2920]}, ""edge"": {""target"": [], ""time"": []}}, ""mouseout"": {""state"": {""target"": [], ""time"": []}, ""edge"": {""target"": [], ""time"": []}}}, ""path"": [""0"", ""9"", ""10"", ""12""], ""internal_node_id"": ""0.0-4.0-3.0"", ""block"": ""training""}"
A136K9Y7E4C3G:30X31N5D63Q6W4B5CAY48TKGR4FASE,8,1519776421152,"{""rt"": [4548, 421, 365], ""trial_type"": ""mouselab-mdp"", ""trialTime"": 11366, ""rewards"": [-2, 8, 48], ""stateRewards"": ["""", 4, -4, -48, -48, 4, 8, 24, -24, -2, 8, 48, -48], ""actionTimes"": [4553, 5494, 6370], ""trial_id"": -6978553059181346000, ""time_elapsed"": 252524, ""actions"": [""left"", ""left"", ""up""], ""trialIndex"": 5, ""score"": 53, ""trial_index"": 8, ""simulationMode"": [null, null, null], ""queries"": {""mouseover"": {""state"": {""target"": [], ""time"": []}, ""edge"": {""target"": [], ""time"": []}}, ""click"": {""state"": {""target"": [""11""], ""time"": [2899]}, ""edge"": {""target"": [], ""time"": []}}, ""mouseout"": {""state"": {""target"": [], ""time"": []}, ""edge"": {""target"": [], ""time"": []}}}, ""path"": [""0"", ""9"", ""10"", ""11""], ""internal_node_id"": ""0.0-4.0-4.0"", ""block"": ""training""}"
A136K9Y7E4C3G:30X31N5D63Q6W4B5CAY48TKGR4FASE,9,1519776472889,"{""rt"": [3722, 1662, 717], ""trial_type"": ""mouselab-mdp"", ""trialTime"": 50652, ""rewards"": [2, -8, 48], ""stateRewards"": ["""", 4, 4, -48, 48, 4, 4, -24, -24, 2, -8, 48, -24], ""actionTimes"": [3728, 45916, 47145], ""trial_id"": 3802673927624508000, ""time_elapsed"": 304261, ""actions"": [""left"", ""left"", ""up""], ""trialIndex"": 6, ""score"": 41, ""trial_index"": 9, ""simulationMode"": [null, null, null], ""queries"": {""mouseover"": {""state"": {""target"": [], ""time"": []}, ""edge"": {""target"": [], ""time"": []}}, ""click"": {""state"": {""target"": [""3""], ""time"": [1759]}, ""edge"": {""target"": [], ""time"": []}}, ""mouseout"": {""state"": {""target"": [], ""time"": []}, ""edge"": {""target"": [], ""time"": []}}}, ""path"": [""0"", ""9"", ""10"", ""11""], ""internal_node_id"": ""0.0-4.0-5.0"", ""block"": ""training""}"
A136K9Y7E4C3G:30X31N5D63Q6W4B5CAY48TKGR4FASE,10,1519776524539,"{""rt"": [4162, 1626, 562], ""trial_type"": ""mouselab-mdp"", ""trialTime"": 50566, ""rewards"": [-2, 8, -48], ""stateRewards"": ["""", -4, -4, -24, 24, 2, -4, 24, -48, -2, 8, -48, -48], ""actionTimes"": [4167, 46312, 47391], ""trial_id"": -1389625695571519700, ""time_elapsed"": 355911, ""actions"": [""left"", ""left"", ""up""], ""trialIndex"": 7, ""score"": -43, ""trial_index"": 10, ""simulationMode"": [null, null, null], ""queries"": {""mouseover"": {""state"": {""target"": [], ""time"": []}, ""edge"": {""target"": [], ""time"": []}}, ""click"": {""state"": {""target"": [""12""], ""time"": [1943]}, ""edge"": {""target"": [], ""time"": []}}, ""mouseout"": {""state"": {""target"": [], ""time"": []}, ""edge"": {""target"": [], ""time"": []}}}, ""path"": [""0"", ""9"", ""10"", ""11""], ""internal_node_id"": ""0.0-4.0-6.0"", ""block"": ""training""}"
A136K9Y7E4C3G:30X31N5D63Q6W4B5CAY48TKGR4FASE,11,1519776556472,"{""rt"": [7752, 1798, 1787], ""trial_type"": ""mouselab-mdp"", ""trialTime"": 30853, ""rewards"": [2, -4, 24], ""stateRewards"": ["""", 4, 8, -24, 48, 2, 8, -48, -48, 2, -4, 24, -48], ""actionTimes"": [7757, 26080, 28378], ""trial_id"": -6668518537832265000, ""time_elapsed"": 387843, ""actions"": [""left"", ""left"", ""up""], ""trialIndex"": 8, ""score"": 20, ""trial_index"": 11, ""simulationMode"": [null, null, null], ""queries"": {""mouseover"": {""state"": {""target"": [], ""time"": []}, ""edge"": {""target"": [], ""time"": []}}, ""click"": {""state"": {""target"": [""3"", ""11""], ""time"": [2991, 6219]}, ""edge"": {""target"": [], ""time"": []}}, ""mouseout"": {""state"": {""target"": [], ""time"": []}, ""edge"": {""target"": [], ""time"": []}}}, ""path"": [""0"", ""9"", ""10"", ""11""], ""internal_node_id"": ""0.0-4.0-7.0"", ""block"": ""training""}"
A136K9Y7E4C3G:30X31N5D63Q6W4B5CAY48TKGR4FASE,12,1519776569423,"{""rt"": [7565, 599, 393], ""trial_type"": ""mouselab-mdp"", ""trialTime"": 11874, ""rewards"": [-2, -8, 48], ""stateRewards"": ["""", -2, -8, 24, 48, -2, 8, -24, -24, -2, -4, 24, -24], ""actionTimes"": [7570, 8677, 9578], ""trial_id"": -3603402282008602000, ""time_elapsed"": 400795, ""actions"": [""up"", ""up"", ""left""], ""trialIndex"": 9, ""score"": 36, ""trial_index"": 12, ""simulationMode"": [null, null, null], ""queries"": {""mouseover"": {""state"": {""target"": [], ""time"": []}, ""edge"": {""target"": [], ""time"": []}}, ""click"": {""state"": {""target"": [""8"", ""4""], ""time"": [2592, 5068]}, ""edge"": {""target"": [], ""time"": []}}, ""mouseout"": {""state"": {""target"": [], ""time"": []}, ""edge"": {""target"": [], ""time"": []}}}, ""path"": [""0"", ""1"", ""2"", ""4""], ""internal_node_id"": ""0.0-4.0-8.0"", ""block"": ""training""}"
A136K9Y7E4C3G:30X31N5D63Q6W4B5CAY48TKGR4FASE,13,1519776600461,"{""rt"": [6684, 3901, 282], ""trial_type"": ""mouselab-mdp"", ""trialTime"": 29962, ""rewards"": [4, -8, 24], ""stateRewards"": ["""", 4, -8, 24, 48, 4, -8, -24, 48, -2, -8, 24, -24], ""actionTimes"": [6689, 27124, 27904], ""trial_id"": 6608608155125090000, ""time_elapsed"": 431833, ""actions"": [""up"", ""up"", ""right""], ""trialIndex"": 10, ""score"": 18, ""trial_index"": 13, ""simulationMode"": [null, null, null], ""queries"": {""mouseover"": {""state"": {""target"": [], ""time"": []}, ""edge"": {""target"": [], ""time"": []}}, ""click"": {""state"": {""target"": [""3"", ""12""], ""time"": [2621, 4848]}, ""edge"": {""target"": [], ""time"": []}}, ""mouseout"": {""state"": {""target"": [], ""time"": []}, ""edge"": {""target"": [], ""time"": []}}}, ""path"": [""0"", ""1"", ""2"", ""3""], ""internal_node_id"": ""0.0-4.0-9.0"", ""block"": ""training""}"
A136K9Y7E4C3G:30X31N5D63Q6W4B5CAY48TKGR4FASE,14,1519776603910,"{""rt"": 2446, ""trial_type"": ""text"", ""internal_node_id"": ""0.0-5.0"", ""time_elapsed"": 435282, ""key_press"": 32, ""trial_index"": 14}"
A136K9Y7E4C3G:30X31N5D63Q6W4B5CAY48TKGR4FASE,15,1519776625544,"{""rt"": 20623, ""trial_type"": ""text"", ""internal_node_id"": ""0.0-6.0"", ""time_elapsed"": 456916, ""key_press"": 32, ""trial_index"": 15}"
A136K9Y7E4C3G:30X31N5D63Q6W4B5CAY48TKGR4FASE,16,1519776647487,"{""rt"": [15232, 177, 1551], ""trial_type"": ""mouselab-mdp"", ""trialTime"": 20834, ""rewards"": [2, 8, 48], ""stateRewards"": ["""", 2, 8, 48, -24, -4, -4, -48, 24, -4, -8, -48, -24], ""actionTimes"": [15240, 15950, 18008], ""trial_id"": 2372710761025483000, ""time_elapsed"": 478859, ""actions"": [""up"", ""up"", ""right""], ""trialIndex"": 11, ""score"": 52, ""trial_index"": 16, ""simulationMode"": [null, null, null], ""queries"": {""mouseover"": {""state"": {""target"": [], ""time"": []}, ""edge"": {""target"": [], ""time"": []}}, ""click"": {""state"": {""target"": [""4"", ""8"", ""11"", ""12"", ""7"", ""3""], ""time"": [3139, 5251, 8610, 9625, 11303, 12399]}, ""edge"": {""target"": [], ""time"": []}}, ""mouseout"": {""state"": {""target"": [], ""time"": []}, ""edge"": {""target"": [], ""time"": []}}}, ""path"": [""0"", ""1"", ""2"", ""3""], ""internal_node_id"": ""0.0-7.0-0.0"", ""block"": ""test""}"
A136K9Y7E4C3G:30X31N5D63Q6W4B5CAY48TKGR4FASE,17,1519776658989,"{""rt"": [5335, 524, 501], ""trial_type"": ""mouselab-mdp"", ""trialTime"": 10426, ""rewards"": [4, 8, 48], ""stateRewards"": ["""", -2, -8, -24, -24, 4, 8, 48, 24, -2, 8, -24, -48], ""actionTimes"": [5340, 6388, 7399], ""trial_id"": 4079752410143045600, ""time_elapsed"": 490361, ""actions"": [""right"", ""right"", ""up""], ""trialIndex"": 12, ""score"": 59, ""trial_index"": 17, ""simulationMode"": [null, null, null], ""queries"": {""mouseover"": {""state"": {""target"": [], ""time"": []}, ""edge"": {""target"": [], ""time"": []}}, ""click"": {""state"": {""target"": [""7""], ""time"": [2785]}, ""edge"": {""target"": [], ""time"": []}}, ""mouseout"": {""state"": {""target"": [], ""time"": []}, ""edge"": {""target"": [], ""time"": []}}}, ""path"": [""0"", ""5"", ""6"", ""7""], ""internal_node_id"": ""0.0-7.0-1.0"", ""block"": ""test""}"
A136K9Y7E4C3G:30X31N5D63Q6W4B5CAY48TKGR4FASE,18,1519776674249,"{""rt"": [9232, 694, 828], ""trial_type"": ""mouselab-mdp"", ""trialTime"": 14182, ""rewards"": [-4, 4, 48], ""stateRewards"": ["""", 2, -4, 24, -48, -4, 4, 48, 48, 4, 4, -48, -24], ""actionTimes"": [9238, 10447, 11787], ""trial_id"": 1708036831889561600, ""time_elapsed"": 505621, ""actions"": [""right"", ""right"", ""up""], ""trialIndex"": 13, ""score"": 42, ""trial_index"": 18, ""simulationMode"": [null, null, null], ""queries"": {""mouseover"": {""state"": {""target"": [], ""time"": []}, ""edge"": {""target"": [], ""time"": []}}, ""click"": {""state"": {""target"": [""7"", ""11"", ""4"", ""3"", ""8"", ""12""], ""time"": [720, 3375, 4459, 5218, 6210, 6955]}, ""edge"": {""target"": [], ""time"": []}}, ""mouseout"": {""state"": {""target"": [], ""time"": []}, ""edge"": {""target"": [], ""time"": []}}}, ""path"": [""0"", ""5"", ""6"", ""7""], ""internal_node_id"": ""0.0-7.0-2.0"", ""block"": ""test""}"
A136K9Y7E4C3G:30X31N5D63Q6W4B5CAY48TKGR4FASE,19,1519776694243,"{""rt"": [13431, 237, 1386], ""trial_type"": ""mouselab-mdp"", ""trialTime"": 18909, ""rewards"": [-2, -8, 48], ""stateRewards"": ["""", -4, -4, -48, -48, -2, -8, 24, 48, 2, 4, -24, -48], ""actionTimes"": [13436, 14183, 16083], ""trial_id"": -1848243683464450000, ""time_elapsed"": 525615, ""actions"": [""right"", ""right"", ""down""], ""trialIndex"": 14, ""score"": 33, ""trial_index"": 19, ""simulationMode"": [null, null, null], ""queries"": {""mouseover"": {""state"": {""target"": [], ""time"": []}, ""edge"": {""target"": [], ""time"": []}}, ""click"": {""state"": {""target"": [""3"", ""12"", ""11"", ""7"", ""8""], ""time"": [4906, 7287, 8825, 9849, 10661]}, ""edge"": {""target"": [], ""time"": []}}, ""mouseout"": {""state"": {""target"": [], ""time"": []}, ""edge"": {""target"": [], ""time"": []}}}, ""path"": [""0"", ""5"", ""6"", ""8""], ""internal_node_id"": ""0.0-7.0-3.0"", ""block"": ""test""}"
A136K9Y7E4C3G:30X31N5D63Q6W4B5CAY48TKGR4FASE,20,1519776704835,"{""rt"": [4356, 433, 377], ""trial_type"": ""mouselab-mdp"", ""trialTime"": 9508, ""rewards"": [-2, 4, 24], ""stateRewards"": ["""", 2, 8, 48, 24, -2, 4, 24, 24, -2, -4, -48, -24], ""actionTimes"": [4365, 5312, 6192], ""trial_id"": -8923867603615937000, ""time_elapsed"": 536206, ""actions"": [""right"", ""right"", ""down""], ""trialIndex"": 15, ""score"": 25, ""trial_index"": 20, ""simulationMode"": [null, null, null], ""queries"": {""mouseover"": {""state"": {""target"": [], ""time"": []}, ""edge"": {""target"": [], ""time"": []}}, ""click"": {""state"": {""target"": [""8""], ""time"": [2433]}, ""edge"": {""target"": [], ""time"": []}}, ""mouseout"": {""state"": {""target"": [], ""time"": []}, ""edge"": {""target"": [], ""time"": []}}}, ""path"": [""0"", ""5"", ""6"", ""8""], ""internal_node_id"": ""0.0-7.0-4.0"", ""block"": ""test""}"
A136K9Y7E4C3G:30X31N5D63Q6W4B5CAY48TKGR4FASE,21,1519776717365,"{""rt"": [3558, 796, 415], ""trial_type"": ""mouselab-mdp"", ""trialTime"": 11443, ""rewards"": [4, -8, 24], ""stateRewards"": ["""", 4, -8, 24, 24, 2, 4, 24, 48, -2, 4, 24, -48], ""actionTimes"": [3563, 4869, 5790], ""trial_id"": 6722698278557235000, ""time_elapsed"": 548737, ""actions"": [""up"", ""up"", ""left""], ""trialIndex"": 16, ""score"": 19, ""trial_index"": 21, ""simulationMode"": [null, null, null], ""queries"": {""mouseover"": {""state"": {""target"": [], ""time"": []}, ""edge"": {""target"": [], ""time"": []}}, ""click"": {""state"": {""target"": [""3""], ""time"": [1367]}, ""edge"": {""target"": [], ""time"": []}}, ""mouseout"": {""state"": {""target"": [], ""time"": []}, ""edge"": {""target"": [], ""time"": []}}}, ""path"": [""0"", ""1"", ""2"", ""4""], ""internal_node_id"": ""0.0-7.0-5.0"", ""block"": ""test""}"
A136K9Y7E4C3G:30X31N5D63Q6W4B5CAY48TKGR4FASE,22,1519776728797,"{""rt"": [4924, 572, 375], ""trial_type"": ""mouselab-mdp"", ""trialTime"": 10349, ""rewards"": [-4, -8, 24], ""stateRewards"": ["""", -2, 4, 24, -24, -4, 4, -24, 24, -4, -8, -24, 24], ""actionTimes"": [4929, 6025, 6906], ""trial_id"": -3142242075455045000, ""time_elapsed"": 560169, ""actions"": [""left"", ""left"", ""down""], ""trialIndex"": 17, ""score"": 11, ""trial_index"": 22, ""simulationMode"": [null, null, null], ""queries"": {""mouseover"": {""state"": {""target"": [], ""time"": []}, ""edge"": {""target"": [], ""time"": []}}, ""click"": {""state"": {""target"": [""12""], ""time"": [1549]}, ""edge"": {""target"": [], ""time"": []}}, ""mouseout"": {""state"": {""target"": [], ""time"": []}, ""edge"": {""target"": [], ""time"": []}}}, ""path"": [""0"", ""9"", ""10"", ""12""], ""internal_node_id"": ""0.0-7.0-6.0"", ""block"": ""test""}"
A136K9Y7E4C3G:30X31N5D63Q6W4B5CAY48TKGR4FASE,23,1519776742050,"{""rt"": [7288, 288, 456], ""trial_type"": ""mouselab-mdp"", ""trialTime"": 12175, ""rewards"": [-4, 8, 48], ""stateRewards"": ["""", 2, 4, -24, 48, -4, 8, -48, 48, 2, -4, 24, -24], ""actionTimes"": [7291, 8100, 9070], ""trial_id"": -8327671364504025000, ""time_elapsed"": 573422, ""actions"": [""right"", ""right"", ""down""], ""trialIndex"": 18, ""score"": 50, ""trial_index"": 23, ""simulationMode"": [null, null, null], ""queries"": {""mouseover"": {""state"": {""target"": [], ""time"": []}, ""edge"": {""target"": [], ""time"": []}}, ""click"": {""state"": {""target"": [""3"", ""8""], ""time"": [2840, 4213]}, ""edge"": {""target"": [], ""time"": []}}, ""mouseout"": {""state"": {""target"": [], ""time"": []}, ""edge"": {""target"": [], ""time"": []}}}, ""path"": [""0"", ""5"", ""6"", ""8""], ""internal_node_id"": ""0.0-7.0-7.0"", ""block"": ""test""}"
A136K9Y7E4C3G:30X31N5D63Q6W4B5CAY48TKGR4FASE,24,1519776754512,"{""rt"": [5474, 448, 271], ""trial_type"": ""mouselab-mdp"", ""trialTime"": 11380, ""rewards"": [-4, 8, -48], ""stateRewards"": ["""", -2, 4, 48, 24, -4, 8, -48, 24, 4, -8, 24, 24], ""actionTimes"": [5479, 6447, 7224], ""trial_id"": -1461775893828862000, ""time_elapsed"": 585883, ""actions"": [""right"", ""right"", ""up""], ""trialIndex"": 19, ""score"": -46, ""trial_index"": 24, ""simulationMode"": [null, null, null], ""queries"": {""mouseover"": {""state"": {""target"": [], ""time"": []}, ""edge"": {""target"": [], ""time"": []}}, ""click"": {""state"": {""target"": [""8"", ""4""], ""time"": [475, 2956]}, ""edge"": {""target"": [], ""time"": []}}, ""mouseout"": {""state"": {""target"": [], ""time"": []}, ""edge"": {""target"": [], ""time"": []}}}, ""path"": [""0"", ""5"", ""6"", ""7""], ""internal_node_id"": ""0.0-7.0-8.0"", ""block"": ""test""}"
A136K9Y7E4C3G:30X31N5D63Q6W4B5CAY48TKGR4FASE,25,1519776765255,"{""rt"": [4545, 372, 273], ""trial_type"": ""mouselab-mdp"", ""trialTime"": 9666, ""rewards"": [2, 4, 24], ""stateRewards"": ["""", -2, 4, -48, -24, 2, 4, 24, 24, -2, -4, 48, -24], ""actionTimes"": [4551, 5440, 6229], ""trial_id"": 7457324294976434000, ""time_elapsed"": 596627, ""actions"": [""right"", ""right"", ""up""], ""trialIndex"": 20, ""score"": 29, ""trial_index"": 25, ""simulationMode"": [null, null, null], ""queries"": {""mouseover"": {""state"": {""target"": [], ""time"": []}, ""edge"": {""target"": [], ""time"": []}}, ""click"": {""state"": {""target"": [""7""], ""time"": [2882]}, ""edge"": {""target"": [], ""time"": []}}, ""mouseout"": {""state"": {""target"": [], ""time"": []}, ""edge"": {""target"": [], ""time"": []}}}, ""path"": [""0"", ""5"", ""6"", ""7""], ""internal_node_id"": ""0.0-7.0-9.0"", ""block"": ""test""}"
A136K9Y7E4C3G:30X31N5D63Q6W4B5CAY48TKGR4FASE,26,1519776777097,"{""rt"": [3276, 878, 599], ""trial_type"": ""mouselab-mdp"", ""trialTime"": 10751, ""rewards"": [4, 8, 24], ""stateRewards"": ["""", 2, -8, -24, 48, -2, -4, -24, -24, 4, 8, 24, 48], ""actionTimes"": [3280, 4678, 5787], ""trial_id"": 6516760737789360000, ""time_elapsed"": 608469, ""actions"": [""left"", ""left"", ""up""], ""trialIndex"": 21, ""score"": 35, ""trial_index"": 26, ""simulationMode"": [null, null, null], ""queries"": {""mouseover"": {""state"": {""target"": [], ""time"": []}, ""edge"": {""target"": [], ""time"": []}}, ""click"": {""state"": {""target"": [""11""], ""time"": [1813]}, ""edge"": {""target"": [], ""time"": []}}, ""mouseout"": {""state"": {""target"": [], ""time"": []}, ""edge"": {""target"": [], ""time"": []}}}, ""path"": [""0"", ""9"", ""10"", ""11""], ""internal_node_id"": ""0.0-7.0-10.0"", ""block"": ""test""}"
A136K9Y7E4C3G:30X31N5D63Q6W4B5CAY48TKGR4FASE,27,1519776794836,"{""rt"": [12292, 501, 524], ""trial_type"": ""mouselab-mdp"", ""trialTime"": 16658, ""rewards"": [-2, -4, 24], ""stateRewards"": ["""", -2, -4, 24, -48, -4, 8, -24, -24, 4, -4, -48, 24], ""actionTimes"": [12296, 13303, 14331], ""trial_id"": 1399303655934214400, ""time_elapsed"": 626207, ""actions"": [""up"", ""up"", ""right""], ""trialIndex"": 22, ""score"": 14, ""trial_index"": 27, ""simulationMode"": [null, null, null], ""queries"": {""mouseover"": {""state"": {""target"": [], ""time"": []}, ""edge"": {""target"": [], ""time"": []}}, ""click"": {""state"": {""target"": [""5"", ""10"", ""4"", ""3""], ""time"": [1785, 4379, 6357, 7786]}, ""edge"": {""target"": [], ""time"": []}}, ""mouseout"": {""state"": {""target"": [], ""time"": []}, ""edge"": {""target"": [], ""time"": []}}}, ""path"": [""0"", ""1"", ""2"", ""3""], ""internal_node_id"": ""0.0-7.0-11.0"", ""block"": ""test""}"
A136K9Y7E4C3G:30X31N5D63Q6W4B5CAY48TKGR4FASE,28,1519776804519,"{""rt"": [3156, 428, 491], ""trial_type"": ""mouselab-mdp"", ""trialTime"": 8594, ""rewards"": [-4, 4, 24], ""stateRewards"": ["""", -4, 4, 48, -48, -4, 4, -24, 24, -4, -8, 24, 24], ""actionTimes"": [3160, 4098, 5097], ""trial_id"": -5995301136843023000, ""time_elapsed"": 635891, ""actions"": [""right"", ""right"", ""down""], ""trialIndex"": 23, ""score"": 23, ""trial_index"": 28, ""simulationMode"": [null, null, null], ""queries"": {""mouseover"": {""state"": {""target"": [], ""time"": []}, ""edge"": {""target"": [], ""time"": []}}, ""click"": {""state"": {""target"": [""8""], ""time"": [1180]}, ""edge"": {""target"": [], ""time"": []}}, ""mouseout"": {""state"": {""target"": [], ""time"": []}, ""edge"": {""target"": [], ""time"": []}}}, ""path"": [""0"", ""5"", ""6"", ""8""], ""internal_node_id"": ""0.0-7.0-12.0"", ""block"": ""test""}"
A136K9Y7E4C3G:30X31N5D63Q6W4B5CAY48TKGR4FASE,29,1519776814992,"{""rt"": [2454, 982, 645], ""trial_type"": ""mouselab-mdp"", ""trialTime"": 9401, ""rewards"": [-2, 8, 24], ""stateRewards"": ["""", 2, -4, 24, -24, -2, 8, 24, 48, 4, -4, 48, 48], ""actionTimes"": [2459, 3955, 5107], ""trial_id"": 5246743485396079000, ""time_elapsed"": 646363, ""actions"": [""right"", ""right"", ""up""], ""trialIndex"": 24, ""score"": 30, ""trial_index"": 29, ""simulationMode"": [null, null, null], ""queries"": {""mouseover"": {""state"": {""target"": [], ""time"": []}, ""edge"": {""target"": [], ""time"": []}}, ""click"": {""state"": {""target"": [], ""time"": []}, ""edge"": {""target"": [], ""time"": []}}, ""mouseout"": {""state"": {""target"": [], ""time"": []}, ""edge"": {""target"": [], ""time"": []}}}, ""path"": [""0"", ""5"", ""6"", ""7""], ""internal_node_id"": ""0.0-7.0-13.0"", ""block"": ""test""}"
A136K9Y7E4C3G:30X31N5D63Q6W4B5CAY48TKGR4FASE,30,1519776824354,"{""rt"": [1207, 581, 512], ""trial_type"": ""mouselab-mdp"", ""trialTime"": 8287, ""rewards"": [2, -4, 24], ""stateRewards"": ["""", 2, -4, 48, 24, -2, -4, 24, 24, 2, -8, -24, 24], ""actionTimes"": [1213, 2312, 3332], ""trial_id"": 556601214791588500, ""time_elapsed"": 655726, ""actions"": [""up"", ""up"", ""left""], ""trialIndex"": 25, ""score"": 22, ""trial_index"": 30, ""simulationMode"": [null, null, null], ""queries"": {""mouseover"": {""state"": {""target"": [], ""time"": []}, ""edge"": {""target"": [], ""time"": []}}, ""click"": {""state"": {""target"": [], ""time"": []}, ""edge"": {""target"": [], ""time"": []}}, ""mouseout"": {""state"": {""target"": [], ""time"": []}, ""edge"": {""target"": [], ""time"": []}}}, ""path"": [""0"", ""1"", ""2"", ""4""], ""internal_node_id"": ""0.0-7.0-14.0"", ""block"": ""test""}"
A136K9Y7E4C3G:30X31N5D63Q6W4B5CAY48TKGR4FASE,31,1519776837045,"{""rt"": [850, 573, 516], ""trial_type"": ""mouselab-mdp"", ""trialTime"": 11608, ""rewards"": [2, -8, -48], ""stateRewards"": ["""", 4, 8, -24, -24, -4, -8, -48, 48, 2, -8, -24, -48], ""actionTimes"": [860, 1955, 2985], ""trial_id"": 2630443220538220000, ""time_elapsed"": 668417, ""actions"": [""left"", ""left"", ""down""], ""trialIndex"": 26, ""score"": -54, ""trial_index"": 31, ""simulationMode"": [null, null, null], ""queries"": {""mouseover"": {""state"": {""target"": [], ""time"": []}, ""edge"": {""target"": [], ""time"": []}}, ""click"": {""state"": {""target"": [], ""time"": []}, ""edge"": {""target"": [], ""time"": []}}, ""mouseout"": {""state"": {""target"": [], ""time"": []}, ""edge"": {""target"": [], ""time"": []}}}, ""path"": [""0"", ""9"", ""10"", ""12""], ""internal_node_id"": ""0.0-7.0-15.0"", ""block"": ""test""}"
A136K9Y7E4C3G:30X31N5D63Q6W4B5CAY48TKGR4FASE,32,1519776848928,"{""rt"": [6186, 354, 825], ""trial_type"": ""mouselab-mdp"", ""trialTime"": 10786, ""rewards"": [-2, 8, 48], ""stateRewards"": ["""", 2, 4, -48, -24, -4, -8, 24, -48, -2, 8, 48, -24], ""actionTimes"": [6190, 7051, 8378], ""trial_id"": -8806789642961306000, ""time_elapsed"": 680299, ""actions"": [""left"", ""left"", ""up""], ""trialIndex"": 27, ""score"": 50, ""trial_index"": 32, ""simulationMode"": [null, null, null], ""queries"": {""mouseover"": {""state"": {""target"": [], ""time"": []}, ""edge"": {""target"": [], ""time"": []}}, ""click"": {""state"": {""target"": [""8"", ""3"", ""4"", ""11""], ""time"": [1684, 3074, 4051, 4819]}, ""edge"": {""target"": [], ""time"": []}}, ""mouseout"": {""state"": {""target"": [], ""time"": []}, ""edge"": {""target"": [], ""time"": []}}}, ""path"": [""0"", ""9"", ""10"", ""11""], ""internal_node_id"": ""0.0-7.0-16.0"", ""block"": ""test""}"
A136K9Y7E4C3G:30X31N5D63Q6W4B5CAY48TKGR4FASE,33,1519776863307,"{""rt"": [9704, 396, 343], ""trial_type"": ""mouselab-mdp"", ""trialTime"": 13291, ""rewards"": [4, -8, 24], ""stateRewards"": ["""", 2, 4, 24, -24, 4, 8, -48, 24, 4, -8, -24, 24], ""actionTimes"": [9708, 10616, 11463], ""trial_id"": 8950946188299295000, ""time_elapsed"": 694678, ""actions"": [""left"", ""left"", ""down""], ""trialIndex"": 28, ""score"": 14, ""trial_index"": 33, ""simulationMode"": [null, null, null], ""queries"": {""mouseover"": {""state"": {""target"": [], ""time"": []}, ""edge"": {""target"": [], ""time"": []}}, ""click"": {""state"": {""target"": [""12"", ""11"", ""8"", ""7"", ""3"", ""4""], ""time"": [2042, 3417, 4702, 5692, 6846, 7896]}, ""edge"": {""target"": [], ""time"": []}}, ""mouseout"": {""state"": {""target"": [], ""time"": []}, ""edge"": {""target"": [], ""time"": []}}}, ""path"": [""0"", ""9"", ""10"", ""12""], ""internal_node_id"": ""0.0-7.0-17.0"", ""block"": ""test""}"
A136K9Y7E4C3G:30X31N5D63Q6W4B5CAY48TKGR4FASE,34,1519776874968,"{""rt"": [5414, 388, 529], ""trial_type"": ""mouselab-mdp"", ""trialTime"": 10583, ""rewards"": [2, 4, 24], ""stateRewards"": ["""", -2, -4, 48, -48, 2, 4, -48, 24, 4, 8, -48, 48], ""actionTimes"": [5418, 6327, 7367], ""trial_id"": -2817098998670331000, ""time_elapsed"": 706340, ""actions"": [""right"", ""right"", ""down""], ""trialIndex"": 29, ""score"": 29, ""trial_index"": 34, ""simulationMode"": [null, null, null], ""queries"": {""mouseover"": {""state"": {""target"": [], ""time"": []}, ""edge"": {""target"": [], ""time"": []}}, ""click"": {""state"": {""target"": [""8""], ""time"": [2824]}, ""edge"": {""target"": [], ""time"": []}}, ""mouseout"": {""state"": {""target"": [], ""time"": []}, ""edge"": {""target"": [], ""time"": []}}}, ""path"": [""0"", ""5"", ""6"", ""8""], ""internal_node_id"": ""0.0-7.0-18.0"", ""block"": ""test""}"
A136K9Y7E4C3G:30X31N5D63Q6W4B5CAY48TKGR4FASE,35,1519776885909,"{""rt"": [5169, 404, 342], ""trial_type"": ""mouselab-mdp"", ""trialTime"": 9847, ""rewards"": [-4, 8, 24], ""stateRewards"": ["""", -4, 8, 48, 24, 2, -8, -48, -24, -4, -4, 48, -24], ""actionTimes"": [5176, 6092, 6950], ""trial_id"": 3419769505624262700, ""time_elapsed"": 717281, ""actions"": [""up"", ""up"", ""left""], ""trialIndex"": 30, ""score"": 25, ""trial_index"": 35, ""simulationMode"": [null, null, null], ""queries"": {""mouseover"": {""state"": {""target"": [], ""time"": []}, ""edge"": {""target"": [], ""time"": []}}, ""click"": {""state"": {""target"": [""7"", ""8"", ""4""], ""time"": [1379, 2320, 3743]}, ""edge"": {""target"": [], ""time"": []}}, ""mouseout"": {""state"": {""target"": [], ""time"": []}, ""edge"": {""target"": [], ""time"": []}}}, ""path"": [""0"", ""1"", ""2"", ""4""], ""internal_node_id"": ""0.0-7.0-19.0"", ""block"": ""test""}"
A136K9Y7E4C3G:30X31N5D63Q6W4B5CAY48TKGR4FASE,36,1519776914563,"{""rt"": 27621, ""trial_type"": ""survey-multi-choice"", ""responses"": ""[\""$-4 to $4\"",\""$-48 to $48\"",\""$1\"",\""1 cent for every $5 you make in the game\""]"", ""internal_node_id"": ""0.0-8.0"", ""time_elapsed"": 745935, ""questions"": ""[\""What is the range of node values in the first step?\"",\""What is the range of node values in the last step?\"",\""What is the cost of clicking?\"",\""How much REAL money do you earn?\""]"", ""correct"": null, ""trial_index"": 36}"
A136K9Y7E4C3G:30X31N5D63Q6W4B5CAY48TKGR4FASE,37,1519777017589,"{""rt"": 102015, ""trial_type"": ""survey-text"", ""responses"": ""{\""Q0\"":\""completely random unless I saw a negative in one line\"",\""Q1\"":\""Seeing too many negatives\"",\""Q2\"":\""When I saw a positive 24 or 48 \"",\""Q3\"":\""the end of the lines\"",\""Q4\"":\""I tried clicking nodes, then tried a few rounds without clicking to see how well I could guess. I lost the most that way, so went back to chancing -$1 instead of -$48\""}"", ""internal_node_id"": ""0.0-9.0"", ""time_elapsed"": 848961, ""trial_index"": 37}"
A136K9Y7E4C3G:30X31N5D63Q6W4B5CAY48TKGR4FASE,38,1519777083449,"{""rt"": 64844, ""trial_type"": ""survey-text"", ""responses"": ""{\""Q0\"":\""I am a horrible guesser!\"",\""Q1\"":\""The test was hard, as there seemed to be no rhyme or reason to which node you were expected to try before moving the spider\"",\""Q2\"":\""51\"",\""Q3\"":\""Fun game!\""}"", ""internal_node_id"": ""0.0-10.0"", ""time_elapsed"": 914821, ""trial_index"": 38}"
A149LX6UAZTRZ9:3HUTX6F6VUN2T9O8SEOGI6RHIRE2OW,0,1519769014820,"{""rt"": 36569, ""trial_type"": ""text"", ""internal_node_id"": ""0.0-0.0"", ""time_elapsed"": 36578, ""key_press"": 32, ""trial_index"": 0}"
A149LX6UAZTRZ9:3HUTX6F6VUN2T9O8SEOGI6RHIRE2OW,1,1519769081341,"{""rt"": 65505, ""trial_type"": ""text"", ""internal_node_id"": ""0.0-1.0"", ""time_elapsed"": 103100, ""key_press"": 32, ""trial_index"": 1}"
A149LX6UAZTRZ9:3HUTX6F6VUN2T9O8SEOGI6RHIRE2OW,2,1519769117482,"{""rt"": [27332, 830, 507], ""trial_type"": ""mouselab-mdp"", ""trialTime"": 35018, ""rewards"": [2, 8, 24], ""stateRewards"": ["""", 2, 8, 24, -24, 2, -8, -24, -24, 4, -8, 48, 48], ""actionTimes"": [27340, 28684, 29708], ""trial_id"": -3200495881349436000, ""time_elapsed"": 139240, ""actions"": [""up"", ""up"", ""right""], ""trialIndex"": 0, ""score"": 26, ""trial_index"": 2, ""simulationMode"": [null, null, null], ""queries"": {""mouseover"": {""state"": {""target"": [], ""time"": []}, ""edge"": {""target"": [], ""time"": []}}, ""click"": {""state"": {""target"": [""5"", ""9"", ""1"", ""10"", ""6"", ""2"", ""4"", ""3""], ""time"": [7509, 10481, 12153, 16968, 18500, 19838, 24116, 25579]}, ""edge"": {""target"": [], ""time"": []}}, ""mouseout"": {""state"": {""target"": [], ""time"": []}, ""edge"": {""target"": [], ""time"": []}}}, ""path"": [""0"", ""1"", ""2"", ""3""], ""internal_node_id"": ""0.0-2.0-0.0"", ""block"": ""pre_test""}"
A149LX6UAZTRZ9:3HUTX6F6VUN2T9O8SEOGI6RHIRE2OW,3,1519769139786,"{""rt"": 21302, ""trial_type"": ""text"", ""internal_node_id"": ""0.0-3.0"", ""time_elapsed"": 161544, ""key_press"": 32, ""trial_index"": 3}"
A149LX6UAZTRZ9:3HUTX6F6VUN2T9O8SEOGI6RHIRE2OW,4,1519769186437,"{""rt"": [40623, 971, 637], ""trial_type"": ""mouselab-mdp"", ""trialTime"": 45513, ""rewards"": [-2, 4, 48], ""stateRewards"": ["""", -4, 4, 24, -24, -2, 4, 48, -24, -4, -8, -48, 48], ""actionTimes"": [40633, 42120, 43273], ""trial_id"": 858865579533637100, ""time_elapsed"": 208196, ""actions"": [""right"", ""right"", ""up""], ""trialIndex"": 1, ""score"": 43, ""trial_index"": 4, ""simulationMode"": [null, null, null], ""queries"": {""mouseover"": {""state"": {""target"": [], ""time"": []}, ""edge"": {""target"": [], ""time"": []}}, ""click"": {""state"": {""target"": [""9"", ""5"", ""1"", ""4"", ""7"", ""6"", ""8""], ""time"": [7827, 15120, 20892, 24981, 26915, 33498, 38094]}, ""edge"": {""target"": [], ""time"": []}}, ""mouseout"": {""state"": {""target"": [], ""time"": []}, ""edge"": {""target"": [], ""time"": []}}}, ""path"": [""0"", ""5"", ""6"", ""7""], ""internal_node_id"": ""0.0-4.0-0.0"", ""block"": ""training""}"
